"success","trial_type","trial_index","time_elapsed","internal_node_id","rt","stimulus","key_press","subject_id","response","choice_outcomes","context_n","context_img_id","trial_n","probe_img_id","pR_red","pR_white","pR_black","outcome","is_valid","image_to_show","probed_trial","probed_context","correct","context_id"
"true","fullscreen","0","2654","0.0-0.0","","","","","","","","","","","","","","","","","","","",""
"","pavlovia","1","2659","0.0-1.0","","","","","","","","","","","","","","","","","","","",""
"","html-keyboard-response","2","22152","0.0-2.0","19491.30000001192","<div class='center'><p>Welcome! This is the second day of the experiment. This part will last ~30 minutes. </p><br><p>Just as a reminder, you are the head captain of a pirate ship traveling around the world to different places. </p><p>Today,you’ve arrived at the final destination of your journey!</p><p> Unfortunately, it’s very foggy out, so you won’t be able to see it in the distance like the places you visited yesterday.</p><p>You’ll still be deciding which pirates you want to rob ships. Because of the fog, however, you won't be able to see which ship your chosen pirate is robbing. </p><p><b>[Press the space bar to go over the instructions]</b></p></div>","32","6149255c91a3107294681f07","","","","","","","","","","","","","","","",""
"","html-keyboard-response","3","32491","0.0-3.0","10337.10000000894","<div class='center'><p>Like yesterday,as the head captain of the ship, you have one important things to do: </p><b><p> Pick the pirate who you think will be most successful at robbing the next ship.</p></b><p>This is important in determining how much bonus money you’ll win.</p><br><p>The game will start by showing you the pirates. First pick a pirate using the <b> 1, 2, 3 </b> buttons on your keyboard. </p><p> Press <b>'1'</b> to choose red beard, <b>'2'</b> to choose white beard, and <b>'3'</b> to choose black beard</p><p> You only have 3 seconds to pick a pirate, so please make a choice quickly! If you are too slow, you’ll have to wait a bit during the time out.</p><p> Don’t feel rushed, but please do try to make a choice every time.</p><p>How good a pirate is at robbing a ship will change depending on the place they are in and how good the defenses are of the ship.</p><p><b>[Press the space bar to begin the practice game]</b></p></div>","32","","","","","","","","","","","","","","","","",""
"","html-keyboard-response","4","65311","0.0-4.0","32815.79999999702","<div class='center'><p>Unlike yesterday, sometimes you’ll be asked if you’ve seen a ship before (see the example below). You will use the 5, 6, 7, 8 buttons on your keyboard to respond. </p><p> If you definitely did not see the ship, pick the the big red thumbs down by pressing <b>5</b>.</p><p> If you don’t think you saw it but aren’t sure, then pick the small red thumbs down by pressing <b>6</b>.</p><p> If you think you might have seen it, then pick the small green thumbs up by pressing <b>7</b>.</p><p> If you definitely did see this ship before, then pick the big thumb green thumbs up by pressing <b>8</b>.</p><p> If you recall it correctly, then you’ll get a gold coin!</p><p><b>[Press the space bar to the experiment]</b></p><p><img src='run_exp/static/images/example_recog_trial.png' height='500'></p></div>","32","","","","","","","","","","","","","","","","",""
"","do_welcome","5","66833","0.0-5.0-0.0","null","","","","null","","","","","","","","","","","","","","",""
"","do_trial","6","72913","0.0-6.0-0.0","null","","","","null","1,1,0","6","blank","240","null","1","0.6382949878093062","0.329906696546751","","","","","","",""
"","do_trial","7","75927","0.0-7.0-0.0","455.40000000596046","","","","49","1,1,1","6","blank","241","null","0.8935153181219241","0.6648771849678816","0.3277586173213913","1","","","","","",""
"","do_recog","8","81713","0.0-8.0-0.0","4274.70000000298","","","","54","","","","242","probe-243","","","","","0","[object Object]","null","null","1",""
"","do_trial","9","85828","0.0-9.0-0.0","1578.7000000029802","","","","51","1,0,0","6","blank","243","null","0.811534377847713","0.6290533881932645","0.1975863026880068","0","","","","","",""
"","do_recog","10","90539","0.0-10.0-0.0","3193","","","","56","","","","244","probe-244","","","","","0","[object Object]","null","null","0",""
"","do_trial","11","93966","0.0-11.0-0.0","866.2000000029802","","","","49","1,0,0","6","blank","245","null","0.7937113785720382","0.6795550387344756","0.4025162850491185","1","","","","","",""
"","do_recog","12","98451","0.0-12.0-0.0","2971.199999988079","","","","54","","","","246","probe-80","","","","","1","[object Object]","164","4","0",""
"","do_trial","13","102108","0.0-13.0-0.0","1094.9000000059605","","","","51","1,1,0","6","blank","247","null","0.8517177037218656","0.6749580407441994","0.2067775128015686","0","","","","","",""
"","do_trial","14","106340","0.0-14.0-0.0","1688.5","","","","49","1,1,0","6","blank","248","null","0.8813571437942009","0.5188522476151529","0.09534738256682342","1","","","","","",""
"","do_trial","15","109907","0.0-15.0-0.0","1018.7000000029802","","","","49","0,1,0","6","blank","249","null","0.7145578531301565","0.5757521436052332","0.09503147366839183","0","","","","","",""
"","do_trial","16","113021","0.0-16.0-0.0","562.5","","","","50","1,0,0","6","blank","250","null","0.9320351732042894","0.45982647788180714","0.11280535167580315","0","","","","","",""
"","do_trial","17","116479","0.0-17.0-0.0","913.8999999910593","","","","49","1,0,0","6","blank","251","null","0.9339112090013693","0.31241740186835737","0.07207813488107083","1","","","","","",""
"","do_recog","18","120274","0.0-18.0-0.0","2275.5","","","","56","","","","252","probe-113","","","","","1","[object Object]","203","5","1",""
"","do_trial","19","123287","0.0-19.0-0.0","436.79999999701977","","","","49","0,0,0","6","blank","253","null","0.8085084285695061","0.3246680076892079","0.07659519445879287","0","","","","","",""
"","do_recog","20","127394","0.0-20.0-0.0","2597.9000000059605","","","","53","","","","254","probe-09","","","","","1","[object Object]","44","1","0",""
"","do_trial","21","130470","0.0-21.0-0.0","523.2000000029802","","","","49","1,0,0","6","blank","255","null","0.685985856967312","0.3114458513143041","0.3342438080709199","1","","","","","",""
"","do_recog","22","134361","0.0-22.0-0.0","2382.2000000029802","","","","53","","","","256","probe-130","","","","","1","[object Object]","43","1","0",""
"","do_trial","23","137501","0.0-23.0-0.0","602.5","","","","49","1,0,1","6","blank","257","null","0.5763752394247998","0.17853404946678836","0.5732723178661792","1","","","","","",""
"","do_trial","24","140579","0.0-24.0-0.0","503.5","","","","49","0,0,1","6","blank","258","null","0.5756788121148962","0.18586273374699186","0.5883517712714393","0","","","","","",""
"","do_trial","25","143452","0.0-25.0-0.0","329.40000000596046","","","","49","0,0,1","6","blank","259","null","0.5157926499517452","0.1049614254319194","0.7886986969831586","0","","","","","",""
"","do_trial","26","146016","0.0-26.0-0.0","0.20000000298023224","","","","49","1,0,0","6","blank","260","null","0.41070833424593445","0.10471162306013768","0.7538732762055212","1","","","","","",""
"","do_trial","27","149307","0.0-27.0-0.0","750.8999999910593","","","","50","1,0,0","6","blank","261","null","0.2797542246045918","0.1584765289263909","0.6866303759352801","0","","","","","",""
"","do_recog","28","153318","0.0-28.0-0.0","2501.4000000059605","","","","56","","","","262","probe-56","","","","","1","[object Object]","85","2","1",""
"","do_trial","29","156873","0.0-29.0-0.0","1002.2000000029802","","","","51","1,0,0","6","blank","263","null","0.32094343641903317","0.2455288102573519","0.5972434863270714","0","","","","","",""
"","do_trial","30","159854","0.0-30.0-0.0","423.70000000298023","","","","50","0,0,0","6","blank","264","null","0.2582252854353028","0.22983841423640974","0.8853908620926947","0","","","","","",""
"","do_trial","31","162699","0.0-31.0-0.0","286.79999999701977","","","","49","1,0,1","6","blank","265","null","0.3631083791178456","0.35516394699342196","0.7848548931091781","1","","","","","",""
"","do_recog","32","166384","0.0-32.0-0.0","2163.5","","","","56","","","","266","probe-187","","","","","1","[object Object]","126","3","1",""
"","do_trial","33","169429","0.0-33.0-0.0","455.3999999910593","","","","49","1,0,1","6","blank","267","null","0.4226475191336375","0.29085511538531","0.597212095876381","1","","","","","",""
"","do_recog","34","172939","0.0-34.0-0.0","1994.6000000089407","","","","53","","","","268","probe-241","","","","","0","[object Object]","null","null","1",""
"","do_trial","35","176499","0.0-35.0-0.0","1011.8999999910593","","","","49","1,0,0","6","blank","269","null","0.4790388095727065","0.14167309371842485","0.6819838607808275","1","","","","","",""
"","do_trial","36","179612","0.0-36.0-0.0","547.5999999940395","","","","49","1,0,1","6","blank","270","null","0.3698473593851337","0.13459785158620668","0.6026302634438921","1","","","","","",""
"","do_recog","37","183611","0.0-37.0-0.0","2490.7999999970198","","","","55","","","","271","probe-119","","","","","1","[object Object]","47","1","1",""
"","do_trial","38","186755","0.0-38.0-0.0","555.5","","","","49","0,0,1","6","blank","272","null","0.34314708802981597","0.13218449526044104","0.6514504646240475","0","","","","","",""
"","do_trial","39","189629","0.0-39.0-0.0","303.79999999701977","","","","50","1,0,1","6","blank","273","null","0.4176322169596932","0.12490069974846252","0.7650602821287181","0","","","","","",""
"","do_trial","40","192461","0.0-40.0-0.0","293","","","","51","1,0,1","6","blank","274","null","0.3146753728679859","0.07251595276933219","0.7702603196012675","1","","","","","",""
"","do_trial","41","195388","0.0-41.0-0.0","388.29999999701977","","","","51","1,0,1","6","blank","275","null","0.30095799358749475","0.14212285605978298","0.944597277785695","1","","","","","",""
"","do_trial","42","198345","0.0-42.0-0.0","390.79999999701977","","","","51","1,0,1","6","blank","276","null","0.3037265073689309","0.29150135850588194","0.8510407838670949","1","","","","","",""
"","do_recog","43","202708","0.0-43.0-0.0","2853.8999999910593","","","","55","","","","277","probe-37","","","","","1","[object Object]","204","5","1",""
"","do_trial","44","205873","0.0-44.0-0.0","624.0999999940395","","","","49","0,0,1","6","blank","278","null","0.40189174287648477","0.3804730174427112","0.9414319978719032","0","","","","","",""
"","do_recog","45","210669","0.0-45.0-0.0","3280.699999988079","","","","54","","","","279","probe-85","","","","","1","[object Object]","201","5","0",""
"","do_trial","46","213786","0.0-46.0-0.0","566.6000000089407","","","","49","0,0,0","6","blank","280","null","0.4848880037444321","0.2269670580803087","0.8134074408908053","0","","","","","",""
"","do_recog","47","217311","0.0-47.0-0.0","2010","","","","55","","","","281","probe-137","","","","","1","[object Object]","122","3","1",""
"","do_trial","48","220332","0.0-48.0-0.0","470","","","","49","1,0,1","6","blank","282","null","0.5202888957959274","0.0506526707654972","0.8857539937823738","1","","","","","",""
"","do_recog","49","223572","0.0-49.0-0.0","1730.2999999970198","","","","55","","","","283","probe-61","","","","","1","[object Object]","167","4","1",""
"","do_trial","50","226538","0.0-50.0-0.0","426.6000000089407","","","","49","0,1,1","6","blank","284","null","0.5849566794759054","0.13954951647863412","1","0","","","","","",""
"","do_recog","51","230219","0.0-51.0-0.0","2165.7999999970198","","","","53","","","","285","probe-250","","","","","0","[object Object]","null","null","1",""
"","do_trial","52","233155","0.0-52.0-0.0","363.79999999701977","","","","49","0,0,1","6","blank","286","null","0.3479455396047858","0.09258997636854895","0.873411835616553","0","","","","","",""
"","do_recog","53","236854","0.0-53.0-0.0","2183.5999999940395","","","","54","","","","287","probe-35","","","","","1","[object Object]","163","4","0",""
"","do_trial","54","239934","0.0-54.0-0.0","502.09999999403954","","","","49","0,0,1","6","blank","288","null","0.28955309677086827","0.11026079518870618","0.7569812639103856","0","","","","","",""
"","do_trial","55","242872","0.0-55.0-0.0","387","","","","50","1,0,1","6","blank","289","null","0.4940481173539169","0.06546154561126415","0.7291712230581594","0","","","","","",""
"","do_trial","56","245783","0.0-56.0-0.0","329.8999999910593","","","","50","1,0,1","6","blank","290","null","0.45738980928876255","0.15177461821675584","0.7780535058466981","0","","","","","",""
"","do_recog","57","249334","0.0-57.0-0.0","2032","","","","54","","","","291","probe-70","","","","","1","[object Object]","160","4","0",""
"","do_trial","58","252537","0.0-58.0-0.0","640","","","","51","1,0,1","6","blank","292","null","0.5903566512192148","0.11642085608891325","0.7874552971132771","1","","","","","",""
"","do_recog","59","256064","0.0-59.0-0.0","2017.6000000089407","","","","54","","","","293","probe-46","","","","","1","[object Object]","84","2","0",""
"","do_trial","60","259049","0.0-60.0-0.0","439.70000000298023","","","","51","0,0,0","6","blank","294","null","0.4361417723610904","0.2059743800939278","0.7958682950702999","0","","","","","",""
"","do_recog","61","263164","0.0-61.0-0.0","2608","","","","56","","","","295","probe-167","","","","","1","[object Object]","169","4","1",""
"","do_trial","62","266297","0.0-62.0-0.0","585.5999999940395","","","","49","1,0,0","6","blank","296","null","0.3788001424736709","0.11630824522098618","0.8372462601070351","1","","","","","",""
"","do_trial","63","269314","0.0-63.0-0.0","466.5","","","","49","1,0,0","6","blank","297","null","0.4253194305064676","0.20072239966617164","0.7435663617800664","1","","","","","",""
"","do_recog","64","273292","0.0-64.0-0.0","2458.6000000089407","","","","55","","","","298","probe-143","","","","","1","[object Object]","121","3","1",""
"","do_trial","65","276222","0.0-65.0-0.0","369.40000000596046","","","","49","0,0,1","6","blank","299","null","0.34784839950966967","0.12116943672894427","0.6090636770914813","0","","","","","",""
"","do_recog","66","279642","0.0-66.0-0.0","1900.9000000059605","","","","56","","","","300","probe-43","","","","","1","[object Object]","205","5","1",""
"","do_trial","67","282631","0.0-67.0-0.0","445.6000000089407","","","","50","0,1,1","6","blank","301","null","0.4292795680125609","0.11983898104518588","0.6249763360023858","1","","","","","",""
"","do_recog","68","285329","0.0-68.0-0.0","1176.2000000029802","","","","56","","","","302","probe-121","","","","","1","[object Object]","89","2","1",""
"","do_trial","69","288349","0.0-69.0-0.0","477.20000000298023","","","","50","1,0,1","6","blank","303","null","0.4771696120330075","0.22834042808108648","0.6239995977544193","0","","","","","",""
"","do_recog","70","292213","0.0-70.0-0.0","2351.3999999910593","","","","54","","","","304","probe-02","","","","","1","[object Object]","162","4","0",""
"","do_trial","71","295338","0.0-71.0-0.0","562.8999999910593","","","","50","0,1,0","6","blank","305","null","0.45999706141796354","0.41320521452476905","0.44383763732135373","1","","","","","",""
"","do_recog","72","299054","0.0-72.0-0.0","2208.300000011921","","","","55","","","","306","probe-147","","","","","1","[object Object]","48","1","1",""
"","do_trial","73","302008","0.0-73.0-0.0","415.40000000596046","","","","50","0,0,1","6","blank","307","null","0.42817743604492203","0.3558349619715439","0.39032436926576664","0","","","","","",""
"","do_trial","74","305228","0.0-74.0-0.0","673.2000000029802","","","","50","1,0,0","6","blank","308","null","0.36148609332452347","0.5113826668480375","0.3099055410059631","0","","","","","",""
"","do_trial","75","308271","0.0-75.0-0.0","494.09999999403954","","","","51","1,1,0","6","blank","309","null","0.3743718913207803","0.6892039837785667","0.07935954146887138","0","","","","","",""
"","do_trial","76","311156","0.0-76.0-0.0","337.20000000298023","","","","49","1,1,0","6","blank","310","null","0.31888664009847256","0.7738350269533598","0.08947865134266231","1","","","","","",""
"","do_trial","77","314205","0.0-77.0-0.0","474.20000000298023","","","","49","0,0,0","6","blank","311","null","0.337313448387809","0.7740426336537783","0.0500934201280745","0","","","","","",""
"","do_recog","78","317534","0.0-78.0-0.0","1819.2999999970198","","","","54","","","","312","probe-246","","","","","0","[object Object]","null","null","1",""
"","do_trial","79","320599","0.0-79.0-0.0","492.1000000089407","","","","50","1,1,0","6","blank","313","null","0.49893227350813724","0.9111454686633955","0.08134334672824516","1","","","","","",""
"","do_recog","80","323684","0.0-80.0-0.0","1561.5","","","","55","","","","314","probe-226","","","","","1","[object Object]","82","2","1",""
"","do_trial","81","326684","0.0-81.0-0.0","439.70000000298023","","","","50","0,1,1","6","blank","315","null","0.405764624365703","0.8347711231926652","0.057415047488361966","1","","","","","",""
"","do_recog","82","329778","0.0-82.0-0.0","1581.800000011921","","","","56","","","","316","probe-180","","","","","1","[object Object]","83","2","1",""
"","do_trial","83","332831","0.0-83.0-0.0","474.20000000298023","","","","50","1,1,0","6","blank","317","null","0.30540855543267953","0.8684759704290117","0.0670538492321812","1","","","","","",""
"","do_recog","84","335708","0.0-84.0-0.0","1368.6000000089407","","","","56","","","","318","probe-194","","","","","1","[object Object]","81","2","1",""
"","do_trial","85","338631","0.0-85.0-0.0","359","","","","50","0,0,0","6","blank","319","null","0.3542097270102333","0.7886884386439955","0.09762977199893628","0","","","","","",""
"","do_recog","86","341300","0.0-86.0-0.0","1158.699999988079","","","","56","","","","320","probe-36","","","","","1","[object Object]","40","1","1",""
"","do_trial","87","344193","0.0-87.0-0.0","343.40000000596046","","","","51","1,1,0","6","blank","321","null","0.34986169790233645","0.6869207759847312","0.16942537250322445","0","","","","","",""
"","do_recog","88","347041","0.0-88.0-0.0","1339.1000000089407","","","","56","","","","322","probe-07","","","","","1","[object Object]","168","4","1",""
"","do_trial","89","350407","0.0-89.0-0.0","803.4000000059605","","","","51","0,1,1","6","blank","323","null","0.34191903427629716","0.7384380470495363","0.08010691591576403","1","","","","","",""
"","do_recog","90","353536","0.0-90.0-0.0","1606.1000000089407","","","","54","","","","324","probe-48","","","","","1","[object Object]","200","5","0",""
"","do_trial","91","356438","0.0-91.0-0.0","357.79999999701977","","","","51","1,0,0","6","blank","325","null","0.3963694156916468","0.6829222554625927","0.15909571286748247","0","","","","","",""
"","do_trial","92","359323","0.0-92.0-0.0","328","","","","49","0,1,0","6","blank","326","null","0.499018234590376","0.6937226115926041","0.14128556946787277","0","","","","","",""
"","do_trial","93","362177","0.0-93.0-0.0","305.3999999910593","","","","49","0,1,1","6","blank","327","null","0.4607747960991179","0.6931317701491432","0.11886216921550911","0","","","","","",""
"","do_recog","94","366072","0.0-94.0-0.0","2387","","","","55","","","","328","probe-13","","","","","1","[object Object]","125","3","1",""
"","do_trial","95","369016","0.0-95.0-0.0","401","","","","50","1,0,0","6","blank","329","null","0.36391784597069193","0.7695018415381156","0.09513867945525395","0","","","","","",""
"","do_trial","96","371898","0.0-96.0-0.0","326.30000001192093","","","","51","0,1,0","6","blank","330","null","0.41865555536608157","0.941634926074558","0.14063945492825755","0","","","","","",""
"","do_recog","97","375175","0.0-97.0-0.0","1755.5","","","","55","","","","331","probe-04","","","","","1","[object Object]","124","3","1",""
"","do_trial","98","378344","0.0-98.0-0.0","621.2999999970198","","","","50","0,1,0","6","blank","332","null","0.38388730422799233","0.9478567020122295","0.1472191227250055","1","","","","","",""
"","do_trial","99","381742","0.0-99.0-0.0","853.2999999970198","","","","51","0,1,0","6","blank","333","null","0.3973007522792382","1","0.14111551638300626","0","","","","","",""
"","do_trial","100","384690","0.0-100.0-0.0","400.1000000089407","","","","49","1,1,0","6","blank","334","null","0.4622311535781164","0.851820845804092","0.11670389752614824","1","","","","","",""
"","do_recog","101","388045","0.0-101.0-0.0","1838.1000000089407","","","","54","","","","335","probe-259","","","","","0","[object Object]","null","null","1",""
"","do_trial","102","391241","0.0-102.0-0.0","645","","","","49","1,1,0","6","blank","336","null","0.4935569992459488","0.8176898832837494","0.13514677193151803","1","","","","","",""
"","do_trial","103","394459","0.0-103.0-0.0","638","","","","49","1,0,0","6","blank","337","null","0.5313685172692943","0.7805332897756077","0.13738995677058483","1","","","","","",""
"","do_trial","104","397607","0.0-104.0-0.0","608.7000000029802","","","","49","1,1,1","6","blank","338","null","0.5779253681532425","0.928725632171313","0.14666144012595855","1","","","","","",""
"","do_trial","105","400997","0.0-105.0-0.0","844.1000000089407","","","","50","1,1,0","6","blank","339","null","0.4548789312669534","0.8415396409545914","0.19778464266344484","1","","","","","",""
"","do_trial","106","404214","0.0-106.0-0.0","672.5","","","","50","0,1,0","6","blank","340","null","0.6252380128119286","0.7275949123356668","0.2505304695036597","1","","","","","",""
"","do_recog","107","407329","0.0-107.0-0.0","1597.5999999940395","","","","56","","","","341","probe-150","","","","","1","[object Object]","209","5","1",""
"","do_trial","108","410366","0.0-108.0-0.0","459","","","","50","0,0,0","6","blank","342","null","0.5441332819747908","0.7793969958206992","0.1832820522180293","0","","","","","",""
"","do_trial","109","413244","0.0-109.0-0.0","312.79999999701977","","","","51","1,1,1","6","blank","343","null","0.4899297804011843","0.7587182901716658","0.1297659954918483","1","","","","","",""
"","do_trial","110","416251","0.0-110.0-0.0","430.3999999910593","","","","51","0,1,1","6","blank","344","null","0.4355017333246663","0.7924955181979041","0.10634974498553249","1","","","","","",""
"","do_recog","111","419532","0.0-111.0-0.0","1771.1000000089407","","","","56","","","","345","probe-146","","","","","1","[object Object]","42","1","1",""
"","do_trial","112","423067","0.0-112.0-0.0","956.7000000029802","","","","51","1,0,0","6","blank","346","null","0.31498291584803406","0.5502511998525182","0.28648703778497286","0","","","","","",""
"","do_recog","113","426414","0.0-113.0-0.0","1831.800000011921","","","","54","","","","347","probe-192","","","","","1","[object Object]","88","2","0",""
"","do_trial","114","429535","0.0-114.0-0.0","542.7999999970198","","","","51","1,1,1","6","blank","348","null","0.25533584913482066","0.4052912106343375","0.5293010278216282","1","","","","","",""
"","do_recog","115","432452","0.0-115.0-0.0","1402.5","","","","56","","","","349","probe-81","","","","","1","[object Object]","206","5","1",""
"","do_trial","116","435416","0.0-116.0-0.0","406.5","","","","51","1,0,0","6","blank","350","null","0.24504895484831815","0.23071940935844765","0.6750658302705506","0","","","","","",""
"","do_recog","117","438279","0.0-117.0-0.0","1344.300000011921","","","","56","","","","351","probe-99","","","","","1","[object Object]","161","4","1",""
"","do_trial","118","441435","0.0-118.0-0.0","582.2999999970198","","","","49","0,0,1","6","blank","352","null","0.32194598992859197","0.3168047131129185","0.7737246971165908","0","","","","","",""
"","do_recog","119","444245","0.0-119.0-0.0","1302.7999999970198","","","","56","","","","353","probe-182","","","","","1","[object Object]","207","5","1",""
"","do_trial","120","447617","0.0-120.0-0.0","795.0999999940395","","","","50","0,0,1","6","blank","354","null","0.42599506936376985","0.05162571332155345","0.7351863537479832","0","","","","","",""
"","do_trial","121","450502","0.0-121.0-0.0","305.09999999403954","","","","51","0,0,1","6","blank","355","null","0.4573100316052776","0.07649763350448387","0.9277212764509761","1","","","","","",""
"","do_trial","122","453413","0.0-122.0-0.0","367.09999999403954","","","","51","0,0,1","6","blank","356","null","0.431662358763002","0.06958754315345188","0.9031009256631225","1","","","","","",""
"","do_recog","123","456535","0.0-123.0-0.0","1608","","","","56","","","","357","probe-11","","","","","1","[object Object]","120","3","1",""
"","do_trial","124","459579","0.0-124.0-0.0","494.20000000298023","","","","51","1,0,0","6","blank","358","null","0.4385742133156169","0.09507994061506","0.7550241913168121","0","","","","","",""
"","do_recog","125","462265","0.0-125.0-0.0","1173.4000000059605","","","","56","","","","359","probe-191","","","","","1","[object Object]","202","5","1",""
"","do_trial","126","465293","0.0-126.0-0.0","487.5","","","","51","0,0,1","6","blank","360","null","0.2869881149500937","0.1686341241046612","0.8420037790945899","1","","","","","",""
"","do_recog","127","468910","0.0-127.0-0.0","2093.8999999910593","","","","53","","","","361","probe-97","","","","","1","[object Object]","208","5","0",""
"","do_trial","128","471843","0.0-128.0-0.0","357.20000000298023","","","","51","0,0,0","6","blank","362","null","0.3607703553426432","0.14062163786210455","0.8128025288718561","0","","","","","",""
"","do_recog","129","474791","0.0-129.0-0.0","1427.2000000029802","","","","56","","","","363","probe-123","","","","","1","[object Object]","49","1","1",""
"","do_trial","130","478054","0.0-130.0-0.0","696.5999999940395","","","","51","0,1,1","6","blank","364","null","0.34670878768290075","0.052824528182927606","0.6368077942344516","1","","","","","",""
"","do_trial","131","481029","0.0-131.0-0.0","418.09999999403954","","","","51","1,1,0","6","blank","365","null","0.28559395117047565","0.1914584549964578","0.6481958672409361","0","","","","","",""
"","do_recog","132","484296","0.0-132.0-0.0","1749.9000000059605","","","","55","","","","366","probe-96","","","","","1","[object Object]","166","4","1",""
"","do_trial","133","487571","0.0-133.0-0.0","693.2000000029802","","","","49","0,0,1","6","blank","367","null","0.2859742529303601","0.1320922199087662","0.6465885625696933","0","","","","","",""
"","do_recog","134","490864","0.0-134.0-0.0","1783.7000000029802","","","","54","","","","368","probe-144","","","","","1","[object Object]","45","1","0",""
"","do_trial","135","493890","0.0-135.0-0.0","448.40000000596046","","","","51","0,0,0","6","blank","369","null","0.35955985474761887","0.10726892950651225","0.6720041554895574","0","","","","","",""
"","do_recog","136","496927","0.0-136.0-0.0","1521.5","","","","54","","","","370","probe-22","","","","","1","[object Object]","46","1","0",""
"","do_trial","137","499860","0.0-137.0-0.0","373.30000001192093","","","","50","1,0,1","6","blank","371","null","0.46045340417706376","0.23062129969891698","0.7438867754113164","0","","","","","",""
"","do_recog","138","502763","0.0-138.0-0.0","1385.2999999970198","","","","56","","","","372","probe-177","","","","","1","[object Object]","128","3","1",""
"","do_trial","139","505912","0.0-139.0-0.0","556.4000000059605","","","","51","1,0,1","6","blank","373","null","0.3968924219952705","0.08472070770567319","0.7030692275154127","1","","","","","",""
"","do_recog","140","509203","0.0-140.0-0.0","1768.2999999970198","","","","54","","","","374","probe-174","","","","","1","[object Object]","165","4","0",""
"","do_trial","141","512161","0.0-141.0-0.0","418.80000001192093","","","","51","0,0,1","6","blank","375","null","0.30624831633846383","0.07134614151529363","0.7334763672364412","1","","","","","",""
"","do_trial","142","515230","0.0-142.0-0.0","520.2000000029802","","","","51","0,0,1","6","blank","376","null","0.3469061946335303","0.07182140499767528","0.8496267701513336","1","","","","","",""
"","do_trial","143","518309","0.0-143.0-0.0","513.8999999910593","","","","51","1,0,1","6","blank","377","null","0.49311431485112817","0.08043837771993802","0.7339738249397599","1","","","","","",""
"","do_trial","144","521354","0.0-144.0-0.0","470.5","","","","51","1,0,1","6","blank","378","null","0.5159472267860952","0.1015796230628376","0.7566980114229571","1","","","","","",""
"","do_recog","145","524502","0.0-145.0-0.0","1624.5","","","","54","","","","379","probe-125","","","","","1","[object Object]","86","2","0",""
"","do_trial","146","527454","0.0-146.0-0.0","369","","","","51","0,0,1","6","blank","380","null","0.5555889301956504","0.09262428523665754","1","1","","","","","",""
"","do_trial","147","530509","0.0-147.0-0.0","479.09999999403954","","","","51","1,0,1","6","blank","381","null","0.5263562746949405","0.16610550145069972","0.9410267842028509","1","","","","","",""
"","do_trial","148","533494","0.0-148.0-0.0","446.40000000596046","","","","51","0,0,1","6","blank","382","null","0.4854972741898649","0.1210417732665952","0.8310774895066428","1","","","","","",""
"","do_trial","149","536456","0.0-149.0-0.0","399.79999999701977","","","","51","1,0,1","6","blank","383","null","0.4737583248326927","0.0788884211468248","0.9158950203973271","1","","","","","",""
"","do_trial","150","539435","0.0-150.0-0.0","408.5","","","","51","0,0,1","6","blank","384","null","0.4165866014168077","0.11596652740671692","0.7367046685089294","1","","","","","",""
"","do_trial","151","542400","0.0-151.0-0.0","388.6000000089407","","","","51","0,1,1","6","blank","385","null","0.3803066547035951","0.25732868555275246","0.8443393067195365","1","","","","","",""
"","do_recog","152","545496","0.0-152.0-0.0","1579","","","","56","","","","386","probe-60","","","","","1","[object Object]","129","3","1",""
"","do_trial","153","548495","0.0-153.0-0.0","448.09999999403954","","","","51","0,0,1","6","blank","387","null","0.42591636074847883","0.18956443127266684","0.8190052912214902","1","","","","","",""
"","do_trial","154","551488","0.0-154.0-0.0","440.3999999910593","","","","51","0,0,1","6","blank","388","null","0.44913300702640235","0.06103057525579123","0.868346047784345","1","","","","","",""
"","do_trial","155","554355","0.0-155.0-0.0","316.40000000596046","","","","51","0,1,1","6","blank","389","null","0.5473091117526856","0.17948260531634191","0.8214598620309314","1","","","","","",""
"","do_trial","156","557347","0.0-156.0-0.0","408.29999999701977","","","","51","0,0,1","6","blank","390","null","0.35975360921922933","0.07689317688530674","0.7565634137753903","1","","","","","",""
"","do_recog","157","560271","0.0-157.0-0.0","1410.7000000029802","","","","56","","","","391","probe-53","","","","","1","[object Object]","87","2","1",""
"","do_trial","158","563314","0.0-158.0-0.0","506.5","","","","51","0,1,1","6","blank","392","null","0.5172856849536961","0.1499905744059611","0.3939694870828093","1","","","","","",""
"","do_recog","159","566022","0.0-159.0-0.0","1189.2000000029802","","","","56","","","","393","probe-15","","","","","1","[object Object]","123","3","1",""
"","do_trial","160","569319","0.0-160.0-0.0","735.6000000089407","","","","51","0,0,0","6","blank","394","null","0.5122917440957541","0.14819187403640388","0.3769431999226445","0","","","","","",""
"","do_trial","161","572195","0.0-161.0-0.0","306.1000000089407","","","","49","1,0,0","6","blank","395","null","0.6086051181271759","0.18500025290243235","0.1529372026834436","1","","","","","",""
"","do_trial","162","575111","0.0-162.0-0.0","365.29999999701977","","","","49","1,1,1","6","blank","396","null","0.7264091372776715","0.27753631763306624","0.25198060708172626","1","","","","","",""
"","do_recog","163","578534","0.0-163.0-0.0","1915.7000000029802","","","","55","","","","397","probe-114","","","","","1","[object Object]","41","1","1",""
"","do_trial","164","581536","0.0-164.0-0.0","453.80000001192093","","","","49","1,1,0","6","blank","398","null","0.791505639071284","0.2770531155633856","0.35234626121519386","1","","","","","",""
"","do_recog","165","584745","0.0-165.0-0.0","1699.2000000029802","","","","54","","","","399","probe-24","","","","","1","[object Object]","127","3","0",""
"","do_trial","166","587630","0.0-166.0-0.0","316.79999999701977","","","","49","1,1,0","6","blank","400","null","0.8925072731900165","0.27820935179170675","0.211342535301349","1","","","","","",""
"","do_recog","167","591342","0.0-167.0-0.0","2198.2000000029802","","","","55","","","","401","probe-251","","","","","0","[object Object]","null","null","0",""
"","do_trial","168","594212","0.0-168.0-0.0","326.20000000298023","","","","49","1,0,0","6","blank","402","null","0.8822210455860018","0.25307299506321773","0.25338942340337595","1","","","","","",""
"","do_recog","169","597621","0.0-169.0-0.0","1900.4000000059605","","","","53","","","","403","probe-257","","","","","0","[object Object]","null","null","1",""
"","do_trial","170","600549","0.0-170.0-0.0","351.29999999701977","","","","49","1,0,0","6","blank","404","null","0.9171453500079595","0.3847513614477963","0.2825687121149387","1","","","","","",""
"","do_trial","171","603495","0.0-171.0-0.0","395.29999999701977","","","","49","1,0,0","6","blank","405","null","0.9143466465210449","0.2926131861211681","0.1678772600960432","1","","","","","",""
"","do_recog","172","606805","0.0-172.0-0.0","1800.1000000089407","","","","53","","","","406","probe-242","","","","","0","[object Object]","null","null","1",""
"","do_trial","173","609688","0.0-173.0-0.0","332.79999999701977","","","","49","1,1,0","6","blank","407","null","0.7996622643570931","0.3426399092846134","0.08649041053837316","1","","","","","",""
"","do_trial","174","612589","0.0-174.0-0.0","360.20000000298023","","","","49","0,1,0","6","blank","408","null","0.726329969871485","0.4046929275065266","0.106253795878237","0","","","","","",""
"","do_trial","175","615804","0.0-175.0-0.0","667.4000000059605","","","","50","0,1,0","6","blank","409","null","0.7123358674490028","0.47022192579352934","0.11035345901198079","1","","","","","",""
"","do_trial","176","618744","0.0-176.0-0.0","396.59999999403954","","","","50","1,1,0","6","blank","410","null","0.7623817401983297","0.6295713348469376","0.12805137237874012","1","","","","","",""
"","do_recog","177","621834","0.0-177.0-0.0","1575.6000000089407","","","","53","","","","411","probe-252","","","","","0","[object Object]","null","null","1",""
"","do_trial","178","624829","0.0-178.0-0.0","416.5","","","","50","1,0,0","6","blank","412","null","0.681503423896514","0.5488341761857892","0.22850762039455838","0","","","","","",""
"","do_trial","179","627750","0.0-179.0-0.0","353.69999998807907","","","","51","0,1,0","6","blank","413","null","0.6180210223970698","0.5352525696469637","0.13998583354880156","0","","","","","",""
"","do_trial","180","630588","0.0-180.0-0.0","277.59999999403954","","","","49","0,0,0","6","blank","414","null","0.7175586711918307","0.40176125227380566","0.16891628620026364","0","","","","","",""
"","do_trial","181","633427","0.0-181.0-0.0","285.90000000596046","","","","50","0,0,0","6","blank","415","null","0.7803904452861758","0.2700210130948613","0.13307585032079694","0","","","","","",""
"","do_trial","182","636302","0.0-182.0-0.0","326.90000000596046","","","","51","1,0,0","6","blank","416","null","0.769587785495957","0.2970443027142889","0.18725442589799732","0","","","","","",""
"","do_trial","183","639132","0.0-183.0-0.0","283.20000000298023","","","","49","1,0,0","6","blank","417","null","0.815041925172694","0.4221831170415388","0.2006867664543375","1","","","","","",""
"","do_trial","184","642066","0.0-184.0-0.0","353.90000000596046","","","","49","1,0,0","6","blank","418","null","0.7309476355706035","0.3570699675819185","0.15035835182101445","1","","","","","",""
"","do_recog","185","645309","0.0-185.0-0.0","1727","","","","53","","","","419","probe-247","","","","","0","[object Object]","null","null","1",""
"","do_pick_best_pirate","186","646859","0.0-186.0-0.0","528.6000000089407","","","","49","","","","","","","","","","","","","","",""
"","do_pick_best_pirate","187","650219","0.0-187.0-0.0","2339.2999999970198","","","","51","","","","","","","","","","","","","","",""
"","do_pick_best_pirate","188","653001","0.0-188.0-0.0","1771.2000000029802","","","","49","","","","","","","","","","","","","","",""
"","do_pick_best_pirate","189","656321","0.0-189.0-0.0","2295.5","","","","49","","","","","","","","","","","","","","",""
"","do_pick_best_pirate","190","659264","0.0-190.0-0.0","1929.5999999940395","","","","51","","","","","","","","","","","","","","",""
"","do_pick_best_pirate","191","661731","0.0-191.0-0.0","1448.5","","","","50","","","","","","","","","","","","","","",""
"","html-keyboard-response","192","745404","0.0-192.0-0.0","83671.90000000596","<div class='center'>You are all done with both parts of the experiment! You made $15 plus $3 in bonus payment!! Thank you for participating. You will recieve your payment within 3 days<p><b>[Press the space bar to end the experiment]</b></p></div>","32","","","","","","","","","","","","","","","","",""
