"success","trial_type","trial_index","time_elapsed","internal_node_id","interactions","blur_events","focus_events","fullscreenenter_events","fullscreenexit_events","rt","stimulus","key_press","subject_id","participant_id","age","gender","prompt","response","choice_outcomes","context_n","context_img_id","trial_n","probe_img_id","pR_red","pR_white","pR_black","outcome","is_valid","image_to_show","probed_trial","probed_context","correct","probe","probed_trial_n","probed_context_n","context_im"
"true","fullscreen","0","4070","0.0-0.0","""event"",""trial"",""time""
""fullscreenenter"",""0"",""3170""
","
","
","""event"",""trial"",""time""
""fullscreenenter"",""0"",""3170""
","
","","","","","","","","","","","","","","","","","","","","","","","","","","",""
"","pavlovia","1","4071","0.0-1.0","""event"",""trial"",""time""
""fullscreenenter"",""0"",""3170""
","
","
","""event"",""trial"",""time""
""fullscreenenter"",""0"",""3170""
","
","","","","","","","","","","","","","","","","","","","","","","","","","","",""
"","welc_back","2","14018","0.0-2.0","""event"",""trial"",""time""
""fullscreenenter"",""0"",""3170""
","
","
","""event"",""trial"",""time""
""fullscreenenter"",""0"",""3170""
","
","null","run_exp/static/audio/clip_29_welcome_back.m4a","null","671","959","17","female","<div class='center'><p>Welcome to day 2!</p><p> Yesterday, you were the head captain of a pirate ship. You asked your fellow pirates to rob other ships of their gold across six different islands.</p></div>","","","","","","","","","","","","","","","","","","",""
"","html-keyboard-response","3","16215","0.0-3.0","""event"",""trial"",""time""
""fullscreenenter"",""0"",""3170""
","
","
","""event"",""trial"",""time""
""fullscreenenter"",""0"",""3170""
","
","2194.5999999940395","<div class='center'><p>Welcome to day 2!</p><p> Yesterday, you were the head captain of a pirate ship. You asked your fellow pirates to rob other ships of their gold across six different islands.</p><p><b>[Press the space bar to continue]</b></p></div>","32","","","","","","","","","","","","","","","","","","","","","","","",""
"","day_1_summary_goal","4","33416","0.0-4.0","""event"",""trial"",""time""
""fullscreenenter"",""0"",""3170""
","
","
","""event"",""trial"",""time""
""fullscreenenter"",""0"",""3170""
","
","null","run_exp/static/audio/clip_30_goal_of_game.m4a","null","","","","","<div class='center'><p>Today, like yesterday, you get to pick which pirate you want to rob the next ship.</p><p>If the pirate is successful in robbing a ship, you get gold coins that look like this: </p><p><img src='run_exp/static/images/tutorial/reward.png' height='150'></p><p> If they were not successful in robbing the ship, then you will get no gold coins and you'll see a big red x like this: </p><p><img src='run_exp/static/images/tutorial/reward_no.png' height='150'></p></div>","","","","","","","","","","","","","","","","","","",""
"","html-keyboard-response","5","34772","0.0-5.0","""event"",""trial"",""time""
""fullscreenenter"",""0"",""3170""
","
","
","""event"",""trial"",""time""
""fullscreenenter"",""0"",""3170""
","
","1351.0999999940395","<div class='center'><p>Today, like yesterday, you get to pick which pirate you want to rob the next ship.</p><p>If the pirate is successful in robbing a ship, you get gold coins that look like this: </p><p><img src='run_exp/static/images/tutorial/reward.png' height='150'></p><p> If they were not successful in robbing the ship, then you will get no gold coins and you'll see a big red x like this: </p><p><img src='run_exp/static/images/tutorial/reward_no.png' height='150'></p><p><b>[Press the space bar to continue]</b></p></div>","32","","","","","","","","","","","","","","","","","","","","","","","",""
"","day_1_summary_pick","6","49472","0.0-6.0","""event"",""trial"",""time""
""fullscreenenter"",""0"",""3170""
","
","
","""event"",""trial"",""time""
""fullscreenenter"",""0"",""3170""
","
","null","run_exp/static/audio/clip_31_how_to_pick_a_pirate.m4a","null","","","","","<div class='center'><p>Also, just like yesterday, you will use the 1,2,3 keys on your keyboard to pick a pirate. Press '1' to choose red beard, '2' to choose white beard, and '3' to choose black beard . You only have 3 seconds to pick a pirate, so please make a choice quickly!</p></div>","","","","","","","","","","","","","","","","","","",""
"","html-keyboard-response","7","50023","0.0-7.0","""event"",""trial"",""time""
""fullscreenenter"",""0"",""3170""
","
","
","""event"",""trial"",""time""
""fullscreenenter"",""0"",""3170""
","
","550.4000000059605","<div class='center'><p>Also, just like yesterday, you will use the 1,2,3 keys on your keyboard to pick a pirate. Press '1' to choose red beard, '2' to choose white beard, and '3' to choose black beard . You only have 3 seconds to pick a pirate, so please make a choice quickly!</p><p><b>[Press the space bar to continue]</b></p></div>","32","","","","","","","","","","","","","","","","","","","","","","","",""
"","test_phase_begin","8","80439","0.0-8.0","""event"",""trial"",""time""
""fullscreenenter"",""0"",""3170""
","
","
","""event"",""trial"",""time""
""fullscreenenter"",""0"",""3170""
","
","null","run_exp/static/audio/clip_32_final_place.m4a","null","","","","","<div class='center'><p>You’ve arrived at the final island of your journey! Unfortunately, it’s very foggy out, so you won’t be able to see it in the distance like the other islands you've visited.</p><p>You’ll still be deciding which pirate you want to rob a ship like before. However, because of the fog, you also won’t be able to see the ship.</p><p>This means you do not have to remember the ships you rob on this island.</p><p>Unlike yesterday, you won't be visiting multiple islands today. You will stay on this island for the entire game. This game will last ~30 minutes.</p></div>","","","","","","","","","","","","","","","","","","",""
"","html-keyboard-response","9","82471","0.0-9.0","""event"",""trial"",""time""
""fullscreenenter"",""0"",""3170""
","
","
","""event"",""trial"",""time""
""fullscreenenter"",""0"",""3170""
","
","2024.0999999940395","<div class='center'><p>You’ve arrived at the final island of your journey! Unfortunately, it’s very foggy out, so you won’t be able to see it in the distance like the other islands you've visited.</p><p>You’ll still be deciding which pirate you want to rob a ship like before. However, because of the fog, you also won’t be able to see the ship.</p><p>This means you do not have to remember the ships you rob on this island.</p><p>Unlike yesterday, you won't be visiting multiple islands today. You will stay on this island for the entire game. This game will last ~30 minutes.</p><p><b>[Press the space bar to continue]</b></p></div>","32","","","","","","","","","","","","","","","","","","","","","","","",""
"","explain_probe_1","10","90197","0.0-10.0","""event"",""trial"",""time""
""fullscreenenter"",""0"",""3170""
","
","
","""event"",""trial"",""time""
""fullscreenenter"",""0"",""3170""
","
","null","run_exp/static/audio/clip_33_recognition_1.m4a","null","","","","","<div class='center'><p> Sometimes you’ll be shown a ship, and you will be asked if you saw this ship on a past island.</p><p> Here is an example of what you will see.</p><p><img src='run_exp/static/images/tutorial/example_recog_trial.png' height='500'></p></div>","","","","","","","","","","","","","","","","","","",""
"","html-keyboard-response","11","91547","0.0-11.0","""event"",""trial"",""time""
""fullscreenenter"",""0"",""3170""
","
","
","""event"",""trial"",""time""
""fullscreenenter"",""0"",""3170""
","
","1347","<div class='center'><p> Sometimes you’ll be shown a ship, and you will be asked if you saw this ship on a past island.</p><p> Here is an example of what you will see.</p><p><img src='run_exp/static/images/tutorial/example_recog_trial.png' height='500'></p><p><b>[Press the space bar to continue]</b></p></div>","32","","","","","","","","","","","","","","","","","","","","","","","",""
"","explain_probe_2","12","113288","0.0-12.0","""event"",""trial"",""time""
""fullscreenenter"",""0"",""3170""
","
","
","""event"",""trial"",""time""
""fullscreenenter"",""0"",""3170""
","
","null","run_exp/static/audio/clip_34_recognition_2.m4a","null","","","","","<div class='center'><p> You will press the 5, 6, 7, 8 keys on your keyboard to respond.</p><p>If you are sure you saw the ship, press <b>5</b> on your keyboard.</p><p> If you think you saw it before but aren't sure, then press <b>6</b>.</p><p> If you think you have <b>not</b> seen it before but aren't sure, then press <b>7</b>.</p><p> If you are sure you did <b>not</b> see the ship before, then press <b>8</b>.</p><p><img src='run_exp/static/images/tutorial/example_recog_trial.png' height='500'></p></div>","","","","","","","","","","","","","","","","","","",""
"","html-keyboard-response","13","113701","0.0-13.0","""event"",""trial"",""time""
""fullscreenenter"",""0"",""3170""
","
","
","""event"",""trial"",""time""
""fullscreenenter"",""0"",""3170""
","
","406.80000001192093","<div class='center'><p> You will press the 5, 6, 7, 8 keys on your keyboard to respond.</p><p>If you are sure you saw the ship, press <b>5</b> on your keyboard.</p><p> If you think you saw it before but aren't sure, then press <b>6</b>.</p><p> If you think you have <b>not</b> seen it before but aren't sure, then press <b>7</b>.</p><p> If you are sure you did <b>not</b> see the ship before, then press <b>8</b>.</p><p><img src='run_exp/static/images/tutorial/example_recog_trial.png' height='500'></p><p><b>[Press the space bar to continue]</b></p></div>","32","","","","","","","","","","","","","","","","","","","","","","","",""
"","explain_outcome","14","130927","0.0-14.0","""event"",""trial"",""time""
""fullscreenenter"",""0"",""3170""
","
","
","""event"",""trial"",""time""
""fullscreenenter"",""0"",""3170""
","
","null","run_exp/static/audio/clip_35_recognition_3.m4a","null","","","","","<div class='center'><p> If you remember correctly, then you’ll get a gold coin like this: </p><p><img src='run_exp/static/images/tutorial/reward_small.png' height='200'></p><p>If you do not remember correctly, then you'll see a red x like this: </p><p><img src='run_exp/static/images/tutorial/reward_no.png' height='200'></p><p>Importantly, when you are shown a ship, take the time to remind yourself which island you saw it on. This will help you in the next part of the study.</p></div>","","","","","","","","","","","","","","","","","","",""
"","html-keyboard-response","15","132169","0.0-15.0","""event"",""trial"",""time""
""fullscreenenter"",""0"",""3170""
","
","
","""event"",""trial"",""time""
""fullscreenenter"",""0"",""3170""
","
","1236.5","<div class='center'><p> If you remember correctly, then you’ll get a gold coin like this: </p><p><img src='run_exp/static/images/tutorial/reward_small.png' height='200'></p><p>If you do not remember correctly, then you'll see a red x like this: </p><p><img src='run_exp/static/images/tutorial/reward_no.png' height='200'></p><p>Importantly, when you are shown a ship, take the time to remind yourself which island you saw it on. This will help you in the next part of the study.</p><p><b>[Press the space bar to continue]</b></p></div>","32","","","","","","","","","","","","","","","","","","","","","","","",""
"","begin_test_phase","16","147996","0.0-16.0","""event"",""trial"",""time""
""fullscreenenter"",""0"",""3170""
","
","
","""event"",""trial"",""time""
""fullscreenenter"",""0"",""3170""
","
","null","run_exp/static/audio/clip_36_begin_final.m4a","null","","","","","<div class='center'><p>Let's go over the important points again. Your job is to: </p><p>1. Pick the pirate who is best at robbing ships and will bring you back gold coins. </p><p>2. Correctly remember whether or not you saw a ship before. If you did see the ship before, remind yourself on which island you saw it. </p></div>","","","","","","","","","","","","","","","","","","",""
"","html-keyboard-response","17","148573","0.0-17.0","""event"",""trial"",""time""
""fullscreenenter"",""0"",""3170""
","
","
","""event"",""trial"",""time""
""fullscreenenter"",""0"",""3170""
","
","533.3999999761581","<div class='center'><p>Let's go over the important points again. Your job is to: </p><p>1. Pick the pirate who is best at robbing ships and will bring you back gold coins. </p><p>2. Correctly remember whether or not you saw a ship before. If you did see the ship before, remind yourself on which island you saw it. </p><p><b>[Press the space bar to continue]</b></p></div>","32","","","","","","","","","","","","","","","","","","","","","","","",""
"","do_welcome","18","152615","0.0-18.0","""event"",""trial"",""time""
""fullscreenenter"",""0"",""3170""
","
","
","""event"",""trial"",""time""
""fullscreenenter"",""0"",""3170""
","
","null","","","","","","","","null","","","","","","","","","","","","","","","","","",""
"","do_trial","19","158650","0.0-19.0-0.0","""event"",""trial"",""time""
""fullscreenenter"",""0"",""3170""
","
","
","""event"",""trial"",""time""
""fullscreenenter"",""0"",""3170""
","
","null","","","","","","","","null","1,1,0","6","blank","230","null","0.36165100767107033","0.6112254861076277","0.10462679202737528","","","","","","","","","",""
"","html-keyboard-response","20","159657","0.0-19.0-1.0","""event"",""trial"",""time""
""fullscreenenter"",""0"",""3170""
","
","
","""event"",""trial"",""time""
""fullscreenenter"",""0"",""3170""
","
","null","<p></p>","null","","","","","","","","","","","","","","","","","","","","","","","",""
"","do_trial","21","165698","0.0-20.0-0.0","""event"",""trial"",""time""
""fullscreenenter"",""0"",""3170""
","
","
","""event"",""trial"",""time""
""fullscreenenter"",""0"",""3170""
","
","null","","","","","","","","null","0,1,0","6","blank","231","null","0.2690427344171537","0.6265434274511156","0.09354513734741866","","","","","","","","","",""
"","html-keyboard-response","22","166703","0.0-20.0-1.0","""event"",""trial"",""time""
""fullscreenenter"",""0"",""3170""
","
","
","""event"",""trial"",""time""
""fullscreenenter"",""0"",""3170""
","
","null","<p></p>","null","","","","","","","","","","","","","","","","","","","","","","","",""
"","do_trial","23","169742","0.0-21.0-0.0","""event"",""trial"",""time""
""fullscreenenter"",""0"",""3170""
","
","
","""event"",""trial"",""time""
""fullscreenenter"",""0"",""3170""
","
","510.59999999403954","","","","","","","","50","1,1,0","6","blank","232","null","0.2574795817072641","0.5877511171567267","0.1318623186490548","1","","","","","","","","",""
"","html-keyboard-response","24","170745","0.0-21.0-1.0","""event"",""trial"",""time""
""fullscreenenter"",""0"",""3170""
","
","
","""event"",""trial"",""time""
""fullscreenenter"",""0"",""3170""
","
","null","<p></p>","null","","","","","","","","","","","","","","","","","","","","","","","",""
"","do_trial","25","174225","0.0-22.0-0.0","""event"",""trial"",""time""
""fullscreenenter"",""0"",""3170""
","
","
","""event"",""trial"",""time""
""fullscreenenter"",""0"",""3170""
","
","946.9000000059605","","","","","","","","50","0,0,0","6","blank","233","null","0.26470310121680135","0.6237485724365481","0.051155319210392944","0","","","","","","","","",""
"","html-keyboard-response","26","175233","0.0-22.0-1.0","""event"",""trial"",""time""
""fullscreenenter"",""0"",""3170""
","
","
","""event"",""trial"",""time""
""fullscreenenter"",""0"",""3170""
","
","null","<p></p>","null","","","","","","","","","","","","","","","","","","","","","","","",""
"","do_trial","27","178445","0.0-23.0-0.0","""event"",""trial"",""time""
""fullscreenenter"",""0"",""3170""
","
","
","""event"",""trial"",""time""
""fullscreenenter"",""0"",""3170""
","
","680.8999999761581","","","","","","","","50","0,1,0","6","blank","234","null","0.2842596012031932","0.5997390186761402","0.10940325039539996","1","","","","","","","","",""
"","html-keyboard-response","28","179449","0.0-23.0-1.0","""event"",""trial"",""time""
""fullscreenenter"",""0"",""3170""
","
","
","""event"",""trial"",""time""
""fullscreenenter"",""0"",""3170""
","
","null","<p></p>","null","","","","","","","","","","","","","","","","","","","","","","","",""
"","do_trial","29","182734","0.0-24.0-0.0","""event"",""trial"",""time""
""fullscreenenter"",""0"",""3170""
","
","
","""event"",""trial"",""time""
""fullscreenenter"",""0"",""3170""
","
","760","","","","","","","","50","0,0,0","6","blank","235","null","0.2151459765501283","0.6044733952780191","0.16886217617595048","0","","","","","","","","",""
"","html-keyboard-response","30","183741","0.0-24.0-1.0","""event"",""trial"",""time""
""fullscreenenter"",""0"",""3170""
","
","
","""event"",""trial"",""time""
""fullscreenenter"",""0"",""3170""
","
","null","<p></p>","null","","","","","","","","","","","","","","","","","","","","","","","",""
"","do_trial","31","186779","0.0-25.0-0.0","""event"",""trial"",""time""
""fullscreenenter"",""0"",""3170""
","
","
","""event"",""trial"",""time""
""fullscreenenter"",""0"",""3170""
","
","498.09999999403954","","","","","","","","51","0,0,0","6","blank","236","null","0.1702914922150953","0.6255172471248303","0.16640633357051954","0","","","","","","","","",""
"","html-keyboard-response","32","187782","0.0-25.0-1.0","""event"",""trial"",""time""
""fullscreenenter"",""0"",""3170""
","
","
","""event"",""trial"",""time""
""fullscreenenter"",""0"",""3170""
","
","null","<p></p>","null","","","","","","","","","","","","","","","","","","","","","","","",""
"","do_trial","33","190923","0.0-26.0-0.0","""event"",""trial"",""time""
""fullscreenenter"",""0"",""3170""
","
","
","""event"",""trial"",""time""
""fullscreenenter"",""0"",""3170""
","
","613.3000000119209","","","","","","","","50","0,1,0","6","blank","237","null","0.30414127027567384","0.5448469125464473","0.35290102448493604","1","","","","","","","","",""
"","html-keyboard-response","34","191931","0.0-26.0-1.0","""event"",""trial"",""time""
""fullscreenenter"",""0"",""3170""
","
","
","""event"",""trial"",""time""
""fullscreenenter"",""0"",""3170""
","
","null","<p></p>","null","","","","","","","","","","","","","","","","","","","","","","","",""
"","do_trial","35","196302","0.0-27.0-0.0","""event"",""trial"",""time""
""fullscreenenter"",""0"",""3170""
","
","
","""event"",""trial"",""time""
""fullscreenenter"",""0"",""3170""
","
","1846.699999988079","","","","","","","","50","0,0,0","6","blank","238","null","0.350855580524984","0.5949372650476594","0.2973714601888624","0","","","","","","","","",""
"","html-keyboard-response","36","197309","0.0-27.0-1.0","""event"",""trial"",""time""
""fullscreenenter"",""0"",""3170""
","
","
","""event"",""trial"",""time""
""fullscreenenter"",""0"",""3170""
","
","null","<p></p>","null","","","","","","","","","","","","","","","","","","","","","","","",""
"","do_trial","37","200632","0.0-28.0-0.0","""event"",""trial"",""time""
""fullscreenenter"",""0"",""3170""
","
","
","""event"",""trial"",""time""
""fullscreenenter"",""0"",""3170""
","
","786.5999999940395","","","","","","","","50","0,0,0","6","blank","239","null","0.3142151180852712","0.5621656636735761","0.23843007172263825","0","","","","","","","","",""
"","html-keyboard-response","38","201644","0.0-28.0-1.0","""event"",""trial"",""time""
""fullscreenenter"",""0"",""3170""
","
","
","""event"",""trial"",""time""
""fullscreenenter"",""0"",""3170""
","
","null","<p></p>","null","","","","","","","","","","","","","","","","","","","","","","","",""
"","do_trial","39","205022","0.0-29.0-0.0","""event"",""trial"",""time""
""fullscreenenter"",""0"",""3170""
","
","
","""event"",""trial"",""time""
""fullscreenenter"",""0"",""3170""
","
","847.6999999880791","","","","","","","","50","0,1,0","6","blank","240","null","0.28257044975016493","0.46934744198165634","0.4198935665147991","1","","","","","","","","",""
"","html-keyboard-response","40","206033","0.0-29.0-1.0","""event"",""trial"",""time""
""fullscreenenter"",""0"",""3170""
","
","
","""event"",""trial"",""time""
""fullscreenenter"",""0"",""3170""
","
","null","<p></p>","null","","","","","","","","","","","","","","","","","","","","","","","",""
"","do_recog","41","212050","0.0-30.0-0.0","""event"",""trial"",""time""
""fullscreenenter"",""0"",""3170""
","
","
","""event"",""trial"",""time""
""fullscreenenter"",""0"",""3170""
","
","null","","","","","","","","null","","","","241","probe-166","","","","","1","[object Object]","72","1","0","","","",""
"","html-keyboard-response","42","213057","0.0-30.0-1.0","""event"",""trial"",""time""
""fullscreenenter"",""0"",""3170""
","
","
","""event"",""trial"",""time""
""fullscreenenter"",""0"",""3170""
","
","null","<p></p>","null","","","","","","","","","","","","","","","","","","","","","","","",""
"","do_trial","43","216652","0.0-31.0-0.0","""event"",""trial"",""time""
""fullscreenenter"",""0"",""3170""
","
","
","""event"",""trial"",""time""
""fullscreenenter"",""0"",""3170""
","
","1058.3999999761581","","","","","","","","50","1,1,0","6","blank","242","null","0.21103016855042683","0.5166609884058082","0.48937176673113697","1","","","","","","","","",""
"","html-keyboard-response","44","217660","0.0-31.0-1.0","""event"",""trial"",""time""
""fullscreenenter"",""0"",""3170""
","
","
","""event"",""trial"",""time""
""fullscreenenter"",""0"",""3170""
","
","null","<p></p>","null","","","","","","","","","","","","","","","","","","","","","","","",""
"","do_trial","45","220575","0.0-32.0-0.0","""event"",""trial"",""time""
""fullscreenenter"",""0"",""3170""
","
","
","""event"",""trial"",""time""
""fullscreenenter"",""0"",""3170""
","
","382.19999998807907","","","","","","","","50","0,0,1","6","blank","243","null","0.19486030936140492","0.24836930584521352","0.6289273156510918","0","","","","","","","","",""
"","html-keyboard-response","46","221582","0.0-32.0-1.0","""event"",""trial"",""time""
""fullscreenenter"",""0"",""3170""
","
","
","""event"",""trial"",""time""
""fullscreenenter"",""0"",""3170""
","
","null","<p></p>","null","","","","","","","","","","","","","","","","","","","","","","","",""
"","do_trial","47","224747","0.0-33.0-0.0","""event"",""trial"",""time""
""fullscreenenter"",""0"",""3170""
","
","
","""event"",""trial"",""time""
""fullscreenenter"",""0"",""3170""
","
","632.7999999821186","","","","","","","","49","0,0,1","6","blank","244","null","0.0784547157119382","0.11361040022413216","0.6496511749709624","0","","","","","","","","",""
"","html-keyboard-response","48","225758","0.0-33.0-1.0","""event"",""trial"",""time""
""fullscreenenter"",""0"",""3170""
","
","
","""event"",""trial"",""time""
""fullscreenenter"",""0"",""3170""
","
","null","<p></p>","null","","","","","","","","","","","","","","","","","","","","","","","",""
"","do_trial","49","229047","0.0-34.0-0.0","""event"",""trial"",""time""
""fullscreenenter"",""0"",""3170""
","
","
","""event"",""trial"",""time""
""fullscreenenter"",""0"",""3170""
","
","760.2999999821186","","","","","","","","49","1,1,0","6","blank","245","null","0.25493834493893724","0.052678675023022564","0.6749026339841575","1","","","","","","","","",""
"","html-keyboard-response","50","230055","0.0-34.0-1.0","""event"",""trial"",""time""
""fullscreenenter"",""0"",""3170""
","
","
","""event"",""trial"",""time""
""fullscreenenter"",""0"",""3170""
","
","null","<p></p>","null","","","","","","","","","","","","","","","","","","","","","","","",""
"","do_recog","51","233833","0.0-35.0-0.0","""event"",""trial"",""time""
""fullscreenenter"",""0"",""3170""
","
","
","""event"",""trial"",""time""
""fullscreenenter"",""0"",""3170""
","
","2261.600000023842","","","","","","","","56","","","","246","probe-239","","","","","0","[object Object]","null","null","1","","","",""
"","html-keyboard-response","52","234840","0.0-35.0-1.0","""event"",""trial"",""time""
""fullscreenenter"",""0"",""3170""
","
","
","""event"",""trial"",""time""
""fullscreenenter"",""0"",""3170""
","
","null","<p></p>","null","","","","","","","","","","","","","","","","","","","","","","","",""
"","do_trial","53","238949","0.0-36.0-0.0","""event"",""trial"",""time""
""fullscreenenter"",""0"",""3170""
","
","
","""event"",""trial"",""time""
""fullscreenenter"",""0"",""3170""
","
","1581.199999988079","","","","","","","","50","0,0,0","6","blank","247","null","0.35123805439027506","0.10847918114045914","0.7654227259490154","0","","","","","","","","",""
"","html-keyboard-response","54","239954","0.0-36.0-1.0","""event"",""trial"",""time""
""fullscreenenter"",""0"",""3170""
","
","
","""event"",""trial"",""time""
""fullscreenenter"",""0"",""3170""
","
","null","<p></p>","null","","","","","","","","","","","","","","","","","","","","","","","",""
"","do_trial","55","243777","0.0-37.0-0.0","""event"",""trial"",""time""
""fullscreenenter"",""0"",""3170""
","
","
","""event"",""trial"",""time""
""fullscreenenter"",""0"",""3170""
","
","1293.5","","","","","","","","49","0,0,1","6","blank","248","null","0.28704539835278103","0.11234628766000596","0.7384859524997581","0","","","","","","","","",""
"","html-keyboard-response","56","244783","0.0-37.0-1.0","""event"",""trial"",""time""
""fullscreenenter"",""0"",""3170""
","
","
","""event"",""trial"",""time""
""fullscreenenter"",""0"",""3170""
","
","null","<p></p>","null","","","","","","","","","","","","","","","","","","","","","","","",""
"","do_recog","57","248008","0.0-38.0-0.0","""event"",""trial"",""time""
""fullscreenenter"",""0"",""3170""
","
","
","""event"",""trial"",""time""
""fullscreenenter"",""0"",""3170""
","
","1718.300000011921","","","","","","","","55","","","","249","probe-247","","","","","0","[object Object]","null","null","1","","","",""
"","html-keyboard-response","58","249018","0.0-38.0-1.0","""event"",""trial"",""time""
""fullscreenenter"",""0"",""3170""
","
","
","""event"",""trial"",""time""
""fullscreenenter"",""0"",""3170""
","
","null","<p></p>","null","","","","","","","","","","","","","","","","","","","","","","","",""
"","do_trial","59","252616","0.0-39.0-0.0","""event"",""trial"",""time""
""fullscreenenter"",""0"",""3170""
","
","
","""event"",""trial"",""time""
""fullscreenenter"",""0"",""3170""
","
","1069.4000000059605","","","","","","","","51","0,1,0","6","blank","250","null","0.41276005255889303","0.1765845821426946","0.6482433539798872","0","","","","","","","","",""
"","html-keyboard-response","60","253623","0.0-39.0-1.0","""event"",""trial"",""time""
""fullscreenenter"",""0"",""3170""
","
","
","""event"",""trial"",""time""
""fullscreenenter"",""0"",""3170""
","
","null","<p></p>","null","","","","","","","","","","","","","","","","","","","","","","","",""
"","do_recog","61","256507","0.0-40.0-0.0","""event"",""trial"",""time""
""fullscreenenter"",""0"",""3170""
","
","
","""event"",""trial"",""time""
""fullscreenenter"",""0"",""3170""
","
","1373.5","","","","","","","","56","","","","251","probe-243","","","","","0","[object Object]","null","null","1","","","",""
"","html-keyboard-response","62","257516","0.0-40.0-1.0","""event"",""trial"",""time""
""fullscreenenter"",""0"",""3170""
","
","
","""event"",""trial"",""time""
""fullscreenenter"",""0"",""3170""
","
","null","<p></p>","null","","","","","","","","","","","","","","","","","","","","","","","",""
"","do_trial","63","261182","0.0-41.0-0.0","""event"",""trial"",""time""
""fullscreenenter"",""0"",""3170""
","
","
","""event"",""trial"",""time""
""fullscreenenter"",""0"",""3170""
","
","1132.2000000178814","","","","","","","","50","0,0,0","6","blank","252","null","0.35840347839824155","0.16137338739792534","0.6115154886289187","0","","","","","","","","",""
"","html-keyboard-response","64","262189","0.0-41.0-1.0","""event"",""trial"",""time""
""fullscreenenter"",""0"",""3170""
","
","
","""event"",""trial"",""time""
""fullscreenenter"",""0"",""3170""
","
","null","<p></p>","null","","","","","","","","","","","","","","","","","","","","","","","",""
"","do_trial","65","265281","0.0-42.0-0.0","""event"",""trial"",""time""
""fullscreenenter"",""0"",""3170""
","
","
","""event"",""trial"",""time""
""fullscreenenter"",""0"",""3170""
","
","557.8000000119209","","","","","","","","49","1,0,0","6","blank","253","null","0.41925054004306495","0.15288847599852592","0.6490176867039688","1","","","","","","","","",""
"","html-keyboard-response","66","266284","0.0-42.0-1.0","""event"",""trial"",""time""
""fullscreenenter"",""0"",""3170""
","
","
","""event"",""trial"",""time""
""fullscreenenter"",""0"",""3170""
","
","null","<p></p>","null","","","","","","","","","","","","","","","","","","","","","","","",""
"","do_trial","67","269915","0.0-43.0-0.0","""event"",""trial"",""time""
""fullscreenenter"",""0"",""3170""
","
","
","""event"",""trial"",""time""
""fullscreenenter"",""0"",""3170""
","
","1103.0999999940395","","","","","","","","50","0,0,0","6","blank","254","null","0.3247143067051875","0.16845287022459257","0.41769454926232175","0","","","","","","","","",""
"","html-keyboard-response","68","270921","0.0-43.0-1.0","""event"",""trial"",""time""
""fullscreenenter"",""0"",""3170""
","
","
","""event"",""trial"",""time""
""fullscreenenter"",""0"",""3170""
","
","null","<p></p>","null","","","","","","","","","","","","","","","","","","","","","","","",""
"","do_trial","69","273948","0.0-44.0-0.0","""event"",""trial"",""time""
""fullscreenenter"",""0"",""3170""
","
","
","""event"",""trial"",""time""
""fullscreenenter"",""0"",""3170""
","
","495.60000002384186","","","","","","","","51","0,0,0","6","blank","255","null","0.42787797921240434","0.08427667804200638","0.5361607449540908","0","","","","","","","","",""
"","html-keyboard-response","70","274951","0.0-44.0-1.0","""event"",""trial"",""time""
""fullscreenenter"",""0"",""3170""
","
","
","""event"",""trial"",""time""
""fullscreenenter"",""0"",""3170""
","
","null","<p></p>","null","","","","","","","","","","","","","","","","","","","","","","","",""
"","do_trial","71","278123","0.0-45.0-0.0","""event"",""trial"",""time""
""fullscreenenter"",""0"",""3170""
","
","
","""event"",""trial"",""time""
""fullscreenenter"",""0"",""3170""
","
","649.1999999880791","","","","","","","","50","0,0,0","6","blank","256","null","0.40833018543945976","0.09713551754472938","0.6052290002714114","0","","","","","","","","",""
"","html-keyboard-response","72","279125","0.0-45.0-1.0","""event"",""trial"",""time""
""fullscreenenter"",""0"",""3170""
","
","
","""event"",""trial"",""time""
""fullscreenenter"",""0"",""3170""
","
","null","<p></p>","null","","","","","","","","","","","","","","","","","","","","","","","",""
"","do_recog","73","282414","0.0-46.0-0.0","""event"",""trial"",""time""
""fullscreenenter"",""0"",""3170""
","
","
","""event"",""trial"",""time""
""fullscreenenter"",""0"",""3170""
","
","1783.5","","","","","","","","55","","","","257","probe-177","","","","","1","[object Object]","155","3","0","","","",""
"","html-keyboard-response","74","283421","0.0-46.0-1.0","""event"",""trial"",""time""
""fullscreenenter"",""0"",""3170""
","
","
","""event"",""trial"",""time""
""fullscreenenter"",""0"",""3170""
","
","null","<p></p>","null","","","","","","","","","","","","","","","","","","","","","","","",""
"","do_trial","75","286801","0.0-47.0-0.0","""event"",""trial"",""time""
""fullscreenenter"",""0"",""3170""
","
","
","""event"",""trial"",""time""
""fullscreenenter"",""0"",""3170""
","
","849.0999999940395","","","","","","","","50","0,0,0","6","blank","258","null","0.42361431277144285","0.09720987300600459","0.5557461158469672","0","","","","","","","","",""
"","html-keyboard-response","76","287815","0.0-47.0-1.0","""event"",""trial"",""time""
""fullscreenenter"",""0"",""3170""
","
","
","""event"",""trial"",""time""
""fullscreenenter"",""0"",""3170""
","
","null","<p></p>","null","","","","","","","","","","","","","","","","","","","","","","","",""
"","do_trial","77","291449","0.0-48.0-0.0","""event"",""trial"",""time""
""fullscreenenter"",""0"",""3170""
","
","
","""event"",""trial"",""time""
""fullscreenenter"",""0"",""3170""
","
","1107.5","","","","","","","","50","1,0,0","6","blank","259","null","0.3810280277408402","0.10427537035865346","0.6997000774779489","0","","","","","","","","",""
"","html-keyboard-response","78","292455","0.0-48.0-1.0","""event"",""trial"",""time""
""fullscreenenter"",""0"",""3170""
","
","
","""event"",""trial"",""time""
""fullscreenenter"",""0"",""3170""
","
","null","<p></p>","null","","","","","","","","","","","","","","","","","","","","","","","",""
"","do_trial","79","295831","0.0-49.0-0.0","""event"",""trial"",""time""
""fullscreenenter"",""0"",""3170""
","
","
","""event"",""trial"",""time""
""fullscreenenter"",""0"",""3170""
","
","845.5999999940395","","","","","","","","51","0,1,1","6","blank","260","null","0.334170126982451","0.12073140370810834","0.7306740781302296","1","","","","","","","","",""
"","html-keyboard-response","80","296841","0.0-49.0-1.0","""event"",""trial"",""time""
""fullscreenenter"",""0"",""3170""
","
","
","""event"",""trial"",""time""
""fullscreenenter"",""0"",""3170""
","
","null","<p></p>","null","","","","","","","","","","","","","","","","","","","","","","","",""
"","do_trial","81","300075","0.0-50.0-0.0","""event"",""trial"",""time""
""fullscreenenter"",""0"",""3170""
","
","
","""event"",""trial"",""time""
""fullscreenenter"",""0"",""3170""
","
","707.5999999940395","","","","","","","","51","0,0,0","6","blank","261","null","0.3353901566006789","0.17777383488422466","0.7342499554909421","0","","","","","","","","",""
"","html-keyboard-response","82","301082","0.0-50.0-1.0","""event"",""trial"",""time""
""fullscreenenter"",""0"",""3170""
","
","
","""event"",""trial"",""time""
""fullscreenenter"",""0"",""3170""
","
","null","<p></p>","null","","","","","","","","","","","","","","","","","","","","","","","",""
"","do_trial","83","304315","0.0-51.0-0.0","""event"",""trial"",""time""
""fullscreenenter"",""0"",""3170""
","
","
","""event"",""trial"",""time""
""fullscreenenter"",""0"",""3170""
","
","705.0999999940395","","","","","","","","50","1,0,1","6","blank","262","null","0.2905257718848764","0.050333357985731804","0.7351919783357035","0","","","","","","","","",""
"","html-keyboard-response","84","305323","0.0-51.0-1.0","""event"",""trial"",""time""
""fullscreenenter"",""0"",""3170""
","
","
","""event"",""trial"",""time""
""fullscreenenter"",""0"",""3170""
","
","null","<p></p>","null","","","","","","","","","","","","","","","","","","","","","","","",""
"","do_trial","85","308369","0.0-52.0-0.0","""event"",""trial"",""time""
""fullscreenenter"",""0"",""3170""
","
","
","""event"",""trial"",""time""
""fullscreenenter"",""0"",""3170""
","
","517.1999999880791","","","","","","","","50","0,0,1","6","blank","263","null","0.35245074428472933","0.1215228859625433","0.6126237679379594","0","","","","","","","","",""
"","html-keyboard-response","86","309372","0.0-52.0-1.0","""event"",""trial"",""time""
""fullscreenenter"",""0"",""3170""
","
","
","""event"",""trial"",""time""
""fullscreenenter"",""0"",""3170""
","
","null","<p></p>","null","","","","","","","","","","","","","","","","","","","","","","","",""
"","do_recog","87","312199","0.0-53.0-0.0","""event"",""trial"",""time""
""fullscreenenter"",""0"",""3170""
","
","
","""event"",""trial"",""time""
""fullscreenenter"",""0"",""3170""
","
","1320.2999999821186","","","","","","","","56","","","","264","probe-146","","","","","1","[object Object]","195","4","0","","","",""
"","html-keyboard-response","88","313206","0.0-53.0-1.0","""event"",""trial"",""time""
""fullscreenenter"",""0"",""3170""
","
","
","""event"",""trial"",""time""
""fullscreenenter"",""0"",""3170""
","
","null","<p></p>","null","","","","","","","","","","","","","","","","","","","","","","","",""
"","do_trial","89","316381","0.0-54.0-0.0","""event"",""trial"",""time""
""fullscreenenter"",""0"",""3170""
","
","
","""event"",""trial"",""time""
""fullscreenenter"",""0"",""3170""
","
","640.4000000059605","","","","","","","","49","1,0,0","6","blank","265","null","0.399766637561325","0.1763375615227959","0.45426157273582773","1","","","","","","","","",""
"","html-keyboard-response","90","317387","0.0-54.0-1.0","""event"",""trial"",""time""
""fullscreenenter"",""0"",""3170""
","
","
","""event"",""trial"",""time""
""fullscreenenter"",""0"",""3170""
","
","null","<p></p>","null","","","","","","","","","","","","","","","","","","","","","","","",""
"","do_trial","91","323424","0.0-55.0-0.0","""event"",""trial"",""time""
""fullscreenenter"",""0"",""3170""
","
","
","""event"",""trial"",""time""
""fullscreenenter"",""0"",""3170""
","
","null","","","","","","","","null","1,0,1","6","blank","266","null","0.47606137167708895","0.07960084369124863","0.42363183757348843","","","","","","","","","",""
"","html-keyboard-response","92","324431","0.0-55.0-1.0","""event"",""trial"",""time""
""fullscreenenter"",""0"",""3170""
","
","
","""event"",""trial"",""time""
""fullscreenenter"",""0"",""3170""
","
","null","<p></p>","null","","","","","","","","","","","","","","","","","","","","","","","",""
"","do_recog","93","328701","0.0-56.0-0.0","""event"",""trial"",""time""
""fullscreenenter"",""0"",""3170""
","
","
","""event"",""trial"",""time""
""fullscreenenter"",""0"",""3170""
","
","2756.199999988079","","","","","","","","53","","","","267","probe-197","","","","","1","[object Object]","192","4","1","","","",""
"","html-keyboard-response","94","329710","0.0-56.0-1.0","""event"",""trial"",""time""
""fullscreenenter"",""0"",""3170""
","
","
","""event"",""trial"",""time""
""fullscreenenter"",""0"",""3170""
","
","null","<p></p>","null","","","","","","","","","","","","","","","","","","","","","","","",""
"","do_trial","95","335203","0.0-57.0-0.0","""event"",""trial"",""time""
""fullscreenenter"",""0"",""3170""
","
","
","""event"",""trial"",""time""
""fullscreenenter"",""0"",""3170""
","
","2962.399999976158","","","","","","","","49","1,0,0","6","blank","268","null","0.4630451487525855","0.10809500003879613","0.35458700709134006","1","","","","","","","","",""
"","html-keyboard-response","96","336205","0.0-57.0-1.0","""event"",""trial"",""time""
""fullscreenenter"",""0"",""3170""
","
","
","""event"",""trial"",""time""
""fullscreenenter"",""0"",""3170""
","
","null","<p></p>","null","","","","","","","","","","","","","","","","","","","","","","","",""
"","break","97","337923","0.0-58.0-0.0","""event"",""trial"",""time""
""fullscreenenter"",""0"",""3170""
","
","
","""event"",""trial"",""time""
""fullscreenenter"",""0"",""3170""
","
","1715","<div class='center'><p>Time to take a quick break! You have 2 minutes to rest, but you can move on sooner if you'd like.</p><p> Press the <b>space bar</b> to continue.</p></div>","32","","","","","","","","","","","","","","","","","","","","","","","",""
"","do_trial","98","341407","0.0-58.0-1.0","""event"",""trial"",""time""
""fullscreenenter"",""0"",""3170""
","
","
","""event"",""trial"",""time""
""fullscreenenter"",""0"",""3170""
","
","956","","","","","","","","49","0,0,0","6","blank","269","null","0.4450716773331591","0.210346690462097","0.48344972350093307","0","","","","","","","","",""
"","html-keyboard-response","99","342414","0.0-58.0-2.0","""event"",""trial"",""time""
""fullscreenenter"",""0"",""3170""
","
","
","""event"",""trial"",""time""
""fullscreenenter"",""0"",""3170""
","
","null","<p></p>","null","","","","","","","","","","","","","","","","","","","","","","","",""
"","do_trial","100","345647","0.0-59.0-0.0","""event"",""trial"",""time""
""fullscreenenter"",""0"",""3170""
","
","
","""event"",""trial"",""time""
""fullscreenenter"",""0"",""3170""
","
","702.0999999940395","","","","","","","","49","1,0,1","6","blank","270","null","0.48818749058619904","0.11810418673200883","0.5923305667226642","1","","","","","","","","",""
"","html-keyboard-response","101","346653","0.0-59.0-1.0","""event"",""trial"",""time""
""fullscreenenter"",""0"",""3170""
","
","
","""event"",""trial"",""time""
""fullscreenenter"",""0"",""3170""
","
","null","<p></p>","null","","","","","","","","","","","","","","","","","","","","","","","",""
"","do_trial","102","349626","0.0-60.0-0.0","""event"",""trial"",""time""
""fullscreenenter"",""0"",""3170""
","
","
","""event"",""trial"",""time""
""fullscreenenter"",""0"",""3170""
","
","442.5","","","","","","","","49","1,0,1","6","blank","271","null","0.2963350219097","0.19022303048373532","0.6251985615159468","1","","","","","","","","",""
"","html-keyboard-response","103","350635","0.0-60.0-1.0","""event"",""trial"",""time""
""fullscreenenter"",""0"",""3170""
","
","
","""event"",""trial"",""time""
""fullscreenenter"",""0"",""3170""
","
","null","<p></p>","null","","","","","","","","","","","","","","","","","","","","","","","",""
"","do_recog","104","353589","0.0-61.0-0.0","""event"",""trial"",""time""
""fullscreenenter"",""0"",""3170""
","
","
","""event"",""trial"",""time""
""fullscreenenter"",""0"",""3170""
","
","1442.5","","","","","","","","56","","","","272","probe-148","","","","","1","[object Object]","150","3","0","","","",""
"","html-keyboard-response","105","354594","0.0-61.0-1.0","""event"",""trial"",""time""
""fullscreenenter"",""0"",""3170""
","
","
","""event"",""trial"",""time""
""fullscreenenter"",""0"",""3170""
","
","null","<p></p>","null","","","","","","","","","","","","","","","","","","","","","","","",""
"","do_trial","106","357722","0.0-62.0-0.0","""event"",""trial"",""time""
""fullscreenenter"",""0"",""3170""
","
","
","""event"",""trial"",""time""
""fullscreenenter"",""0"",""3170""
","
","594.1999999880791","","","","","","","","49","0,0,1","6","blank","273","null","0.33862508327462765","0.07117176100856205","0.6303396195759513","0","","","","","","","","",""
"","html-keyboard-response","107","358730","0.0-62.0-1.0","""event"",""trial"",""time""
""fullscreenenter"",""0"",""3170""
","
","
","""event"",""trial"",""time""
""fullscreenenter"",""0"",""3170""
","
","null","<p></p>","null","","","","","","","","","","","","","","","","","","","","","","","",""
"","do_trial","108","361868","0.0-63.0-0.0","""event"",""trial"",""time""
""fullscreenenter"",""0"",""3170""
","
","
","""event"",""trial"",""time""
""fullscreenenter"",""0"",""3170""
","
","609.8000000119209","","","","","","","","50","0,0,0","6","blank","274","null","0.2620479722079772","0.1557054295825618","0.7200291998068795","0","","","","","","","","",""
"","html-keyboard-response","109","362872","0.0-63.0-1.0","""event"",""trial"",""time""
""fullscreenenter"",""0"",""3170""
","
","
","""event"",""trial"",""time""
""fullscreenenter"",""0"",""3170""
","
","null","<p></p>","null","","","","","","","","","","","","","","","","","","","","","","","",""
"","do_trial","110","366133","0.0-64.0-0.0","""event"",""trial"",""time""
""fullscreenenter"",""0"",""3170""
","
","
","""event"",""trial"",""time""
""fullscreenenter"",""0"",""3170""
","
","725","","","","","","","","50","0,1,1","6","blank","275","null","0.4407857224792322","0.07126030472349833","0.5675718699115809","1","","","","","","","","",""
"","html-keyboard-response","111","367138","0.0-64.0-1.0","""event"",""trial"",""time""
""fullscreenenter"",""0"",""3170""
","
","
","""event"",""trial"",""time""
""fullscreenenter"",""0"",""3170""
","
","null","<p></p>","null","","","","","","","","","","","","","","","","","","","","","","","",""
"","do_trial","112","371306","0.0-65.0-0.0","""event"",""trial"",""time""
""fullscreenenter"",""0"",""3170""
","
","
","""event"",""trial"",""time""
""fullscreenenter"",""0"",""3170""
","
","1636.5999999940395","","","","","","","","50","1,0,1","6","blank","276","null","0.5069983802532589","0.11487502907466395","0.6045140058273956","0","","","","","","","","",""
"","html-keyboard-response","113","372322","0.0-65.0-1.0","""event"",""trial"",""time""
""fullscreenenter"",""0"",""3170""
","
","
","""event"",""trial"",""time""
""fullscreenenter"",""0"",""3170""
","
","null","<p></p>","null","","","","","","","","","","","","","","","","","","","","","","","",""
"","do_trial","114","375364","0.0-66.0-0.0","""event"",""trial"",""time""
""fullscreenenter"",""0"",""3170""
","
","
","""event"",""trial"",""time""
""fullscreenenter"",""0"",""3170""
","
","510.90000000596046","","","","","","","","50","1,0,0","6","blank","277","null","0.45495653495706206","0.06616862840378568","0.7366992878777362","0","","","","","","","","",""
"","html-keyboard-response","115","376367","0.0-66.0-1.0","""event"",""trial"",""time""
""fullscreenenter"",""0"",""3170""
","
","
","""event"",""trial"",""time""
""fullscreenenter"",""0"",""3170""
","
","null","<p></p>","null","","","","","","","","","","","","","","","","","","","","","","","",""
"","do_trial","116","380001","0.0-67.0-0.0","""event"",""trial"",""time""
""fullscreenenter"",""0"",""3170""
","
","
","""event"",""trial"",""time""
""fullscreenenter"",""0"",""3170""
","
","1099.7999999821186","","","","","","","","50","1,0,1","6","blank","278","null","0.2932074399213545","0.067324181085634","0.5573713934551306","0","","","","","","","","",""
"","html-keyboard-response","117","381005","0.0-67.0-1.0","""event"",""trial"",""time""
""fullscreenenter"",""0"",""3170""
","
","
","""event"",""trial"",""time""
""fullscreenenter"",""0"",""3170""
","
","null","<p></p>","null","","","","","","","","","","","","","","","","","","","","","","","",""
"","do_trial","118","384672","0.0-68.0-0.0","""event"",""trial"",""time""
""fullscreenenter"",""0"",""3170""
","
","
","""event"",""trial"",""time""
""fullscreenenter"",""0"",""3170""
","
","1130.800000011921","","","","","","","","51","0,0,0","6","blank","279","null","0.21403030754197006","0.20749048126298075","0.42803514889994915","0","","","","","","","","",""
"","html-keyboard-response","119","385680","0.0-68.0-1.0","""event"",""trial"",""time""
""fullscreenenter"",""0"",""3170""
","
","
","""event"",""trial"",""time""
""fullscreenenter"",""0"",""3170""
","
","null","<p></p>","null","","","","","","","","","","","","","","","","","","","","","","","",""
"","do_recog","120","388638","0.0-69.0-0.0","""event"",""trial"",""time""
""fullscreenenter"",""0"",""3170""
","
","
","""event"",""trial"",""time""
""fullscreenenter"",""0"",""3170""
","
","1445.5","","","","","","","","56","","","","280","probe-70","","","","","1","[object Object]","114","2","0","","","",""
"","html-keyboard-response","121","389643","0.0-69.0-1.0","""event"",""trial"",""time""
""fullscreenenter"",""0"",""3170""
","
","
","""event"",""trial"",""time""
""fullscreenenter"",""0"",""3170""
","
","null","<p></p>","null","","","","","","","","","","","","","","","","","","","","","","","",""
"","do_trial","122","393263","0.0-70.0-0.0","""event"",""trial"",""time""
""fullscreenenter"",""0"",""3170""
","
","
","""event"",""trial"",""time""
""fullscreenenter"",""0"",""3170""
","
","1088.2000000178814","","","","","","","","49","1,0,1","6","blank","281","null","0.31145668311798314","0.28022248307042874","0.39189322757142636","1","","","","","","","","",""
"","html-keyboard-response","123","394267","0.0-70.0-1.0","""event"",""trial"",""time""
""fullscreenenter"",""0"",""3170""
","
","
","""event"",""trial"",""time""
""fullscreenenter"",""0"",""3170""
","
","null","<p></p>","null","","","","","","","","","","","","","","","","","","","","","","","",""
"","do_trial","124","397466","0.0-71.0-0.0","""event"",""trial"",""time""
""fullscreenenter"",""0"",""3170""
","
","
","""event"",""trial"",""time""
""fullscreenenter"",""0"",""3170""
","
","660.4000000059605","","","","","","","","49","0,0,0","6","blank","282","null","0.17734893094794774","0.17584938011443668","0.5665130563809536","0","","","","","","","","",""
"","html-keyboard-response","125","398471","0.0-71.0-1.0","""event"",""trial"",""time""
""fullscreenenter"",""0"",""3170""
","
","
","""event"",""trial"",""time""
""fullscreenenter"",""0"",""3170""
","
","null","<p></p>","null","","","","","","","","","","","","","","","","","","","","","","","",""
"","do_recog","126","401416","0.0-72.0-0.0","""event"",""trial"",""time""
""fullscreenenter"",""0"",""3170""
","
","
","""event"",""trial"",""time""
""fullscreenenter"",""0"",""3170""
","
","1436.5","","","","","","","","55","","","","283","probe-156","","","","","1","[object Object]","152","3","0","","","",""
"","html-keyboard-response","127","402422","0.0-72.0-1.0","""event"",""trial"",""time""
""fullscreenenter"",""0"",""3170""
","
","
","""event"",""trial"",""time""
""fullscreenenter"",""0"",""3170""
","
","null","<p></p>","null","","","","","","","","","","","","","","","","","","","","","","","",""
"","do_trial","128","406538","0.0-73.0-0.0","""event"",""trial"",""time""
""fullscreenenter"",""0"",""3170""
","
","
","""event"",""trial"",""time""
""fullscreenenter"",""0"",""3170""
","
","1591.9000000059605","","","","","","","","49","0,0,1","6","blank","284","null","0.21513950973414603","0.16062475717594077","0.6136687161054367","0","","","","","","","","",""
"","html-keyboard-response","129","407542","0.0-73.0-1.0","""event"",""trial"",""time""
""fullscreenenter"",""0"",""3170""
","
","
","""event"",""trial"",""time""
""fullscreenenter"",""0"",""3170""
","
","null","<p></p>","null","","","","","","","","","","","","","","","","","","","","","","","",""
"","do_trial","130","411180","0.0-74.0-0.0","""event"",""trial"",""time""
""fullscreenenter"",""0"",""3170""
","
","
","""event"",""trial"",""time""
""fullscreenenter"",""0"",""3170""
","
","1107.0999999940395","","","","","","","","49","0,0,1","6","blank","285","null","0.3139613047681559","0.05669199466449982","0.6703421573933394","0","","","","","","","","",""
"","html-keyboard-response","131","412187","0.0-74.0-1.0","""event"",""trial"",""time""
""fullscreenenter"",""0"",""3170""
","
","
","""event"",""trial"",""time""
""fullscreenenter"",""0"",""3170""
","
","null","<p></p>","null","","","","","","","","","","","","","","","","","","","","","","","",""
"","do_trial","132","416115","0.0-75.0-0.0","""event"",""trial"",""time""
""fullscreenenter"",""0"",""3170""
","
","
","""event"",""trial"",""time""
""fullscreenenter"",""0"",""3170""
","
","1400.5999999940395","","","","","","","","49","0,0,0","6","blank","286","null","0.28373310829606235","0.19202603081162445","0.6772092526282626","0","","","","","","","","",""
"","html-keyboard-response","133","417123","0.0-75.0-1.0","""event"",""trial"",""time""
""fullscreenenter"",""0"",""3170""
","
","
","""event"",""trial"",""time""
""fullscreenenter"",""0"",""3170""
","
","null","<p></p>","null","","","","","","","","","","","","","","","","","","","","","","","",""
"","do_recog","134","420183","0.0-76.0-0.0","""event"",""trial"",""time""
""fullscreenenter"",""0"",""3170""
","
","
","""event"",""trial"",""time""
""fullscreenenter"",""0"",""3170""
","
","1551.5","","","","","","","","55","","","","287","probe-131","","","","","1","[object Object]","37","0","0","","","",""
"","html-keyboard-response","135","421188","0.0-76.0-1.0","""event"",""trial"",""time""
""fullscreenenter"",""0"",""3170""
","
","
","""event"",""trial"",""time""
""fullscreenenter"",""0"",""3170""
","
","null","<p></p>","null","","","","","","","","","","","","","","","","","","","","","","","",""
"","do_trial","136","424655","0.0-77.0-0.0","""event"",""trial"",""time""
""fullscreenenter"",""0"",""3170""
","
","
","""event"",""trial"",""time""
""fullscreenenter"",""0"",""3170""
","
","931.6999999880791","","","","","","","","49","1,0,0","6","blank","288","null","0.19996426856335398","0.28422983895974885","0.7621988320670083","1","","","","","","","","",""
"","html-keyboard-response","137","425665","0.0-77.0-1.0","""event"",""trial"",""time""
""fullscreenenter"",""0"",""3170""
","
","
","""event"",""trial"",""time""
""fullscreenenter"",""0"",""3170""
","
","null","<p></p>","null","","","","","","","","","","","","","","","","","","","","","","","",""
"","do_trial","138","428764","0.0-78.0-0.0","""event"",""trial"",""time""
""fullscreenenter"",""0"",""3170""
","
","
","""event"",""trial"",""time""
""fullscreenenter"",""0"",""3170""
","
","567.4000000059605","","","","","","","","49","0,0,1","6","blank","289","null","0.21075393290660505","0.1321960855857177","0.7707575627679318","0","","","","","","","","",""
"","html-keyboard-response","139","429771","0.0-78.0-1.0","""event"",""trial"",""time""
""fullscreenenter"",""0"",""3170""
","
","
","""event"",""trial"",""time""
""fullscreenenter"",""0"",""3170""
","
","null","<p></p>","null","","","","","","","","","","","","","","","","","","","","","","","",""
"","do_trial","140","433225","0.0-79.0-0.0","""event"",""trial"",""time""
""fullscreenenter"",""0"",""3170""
","
","
","""event"",""trial"",""time""
""fullscreenenter"",""0"",""3170""
","
","919.0999999940395","","","","","","","","49","1,1,1","6","blank","290","null","0.2646226083680701","0.12431344025233494","0.7498833981399429","1","","","","","","","","",""
"","html-keyboard-response","141","434232","0.0-79.0-1.0","""event"",""trial"",""time""
""fullscreenenter"",""0"",""3170""
","
","
","""event"",""trial"",""time""
""fullscreenenter"",""0"",""3170""
","
","null","<p></p>","null","","","","","","","","","","","","","","","","","","","","","","","",""
"","do_trial","142","437614","0.0-80.0-0.0","""event"",""trial"",""time""
""fullscreenenter"",""0"",""3170""
","
","
","""event"",""trial"",""time""
""fullscreenenter"",""0"",""3170""
","
","852.9000000059605","","","","","","","","49","0,0,0","6","blank","291","null","0.3482540205670041","0.12931833617824973","0.7029923680448721","0","","","","","","","","",""
"","html-keyboard-response","143","438615","0.0-80.0-1.0","""event"",""trial"",""time""
""fullscreenenter"",""0"",""3170""
","
","
","""event"",""trial"",""time""
""fullscreenenter"",""0"",""3170""
","
","null","<p></p>","null","","","","","","","","","","","","","","","","","","","","","","","",""
"","do_trial","144","441964","0.0-81.0-0.0","""event"",""trial"",""time""
""fullscreenenter"",""0"",""3170""
","
","
","""event"",""trial"",""time""
""fullscreenenter"",""0"",""3170""
","
","823.6999999880791","","","","","","","","49","0,0,0","6","blank","292","null","0.2274067754850682","0.1397767696604459","0.5830944470696655","0","","","","","","","","",""
"","html-keyboard-response","145","442971","0.0-81.0-1.0","""event"",""trial"",""time""
""fullscreenenter"",""0"",""3170""
","
","
","""event"",""trial"",""time""
""fullscreenenter"",""0"",""3170""
","
","null","<p></p>","null","","","","","","","","","","","","","","","","","","","","","","","",""
"","do_trial","146","446352","0.0-82.0-0.0","""event"",""trial"",""time""
""fullscreenenter"",""0"",""3170""
","
","
","""event"",""trial"",""time""
""fullscreenenter"",""0"",""3170""
","
","841.7000000178814","","","","","","","","49","0,1,0","6","blank","293","null","0.18788176541421245","0.40867111160832503","0.39599901656509984","0","","","","","","","","",""
"","html-keyboard-response","147","447361","0.0-82.0-1.0","""event"",""trial"",""time""
""fullscreenenter"",""0"",""3170""
","
","
","""event"",""trial"",""time""
""fullscreenenter"",""0"",""3170""
","
","null","<p></p>","null","","","","","","","","","","","","","","","","","","","","","","","",""
"","do_recog","148","451106","0.0-83.0-0.0","""event"",""trial"",""time""
""fullscreenenter"",""0"",""3170""
","
","
","""event"",""trial"",""time""
""fullscreenenter"",""0"",""3170""
","
","2225","","","","","","","","55","","","","294","probe-119","","","","","1","[object Object]","156","3","0","","","",""
"","html-keyboard-response","149","452112","0.0-83.0-1.0","""event"",""trial"",""time""
""fullscreenenter"",""0"",""3170""
","
","
","""event"",""trial"",""time""
""fullscreenenter"",""0"",""3170""
","
","null","<p></p>","null","","","","","","","","","","","","","","","","","","","","","","","",""
"","do_trial","150","456081","0.0-84.0-0.0","""event"",""trial"",""time""
""fullscreenenter"",""0"",""3170""
","
","
","""event"",""trial"",""time""
""fullscreenenter"",""0"",""3170""
","
","1437.9000000059605","","","","","","","","49","0,1,0","6","blank","295","null","0.15399878415903603","0.477206265604309","0.3569514563876936","0","","","","","","","","",""
"","html-keyboard-response","151","457086","0.0-84.0-1.0","""event"",""trial"",""time""
""fullscreenenter"",""0"",""3170""
","
","
","""event"",""trial"",""time""
""fullscreenenter"",""0"",""3170""
","
","null","<p></p>","null","","","","","","","","","","","","","","","","","","","","","","","",""
"","do_trial","152","460223","0.0-85.0-0.0","""event"",""trial"",""time""
""fullscreenenter"",""0"",""3170""
","
","
","""event"",""trial"",""time""
""fullscreenenter"",""0"",""3170""
","
","606.5999999940395","","","","","","","","51","0,1,0","6","blank","296","null","0.14350512261697743","0.6916962391799156","0.2533525426032246","0","","","","","","","","",""
"","html-keyboard-response","153","461230","0.0-85.0-1.0","""event"",""trial"",""time""
""fullscreenenter"",""0"",""3170""
","
","
","""event"",""trial"",""time""
""fullscreenenter"",""0"",""3170""
","
","null","<p></p>","null","","","","","","","","","","","","","","","","","","","","","","","",""
"","do_trial","154","464362","0.0-86.0-0.0","""event"",""trial"",""time""
""fullscreenenter"",""0"",""3170""
","
","
","""event"",""trial"",""time""
""fullscreenenter"",""0"",""3170""
","
","600.0999999940395","","","","","","","","50","0,0,0","6","blank","297","null","0.10372153296764852","0.6570457128280718","0.31071470929335976","0","","","","","","","","",""
"","html-keyboard-response","155","465366","0.0-86.0-1.0","""event"",""trial"",""time""
""fullscreenenter"",""0"",""3170""
","
","
","""event"",""trial"",""time""
""fullscreenenter"",""0"",""3170""
","
","null","<p></p>","null","","","","","","","","","","","","","","","","","","","","","","","",""
"","do_trial","156","468493","0.0-87.0-0.0","""event"",""trial"",""time""
""fullscreenenter"",""0"",""3170""
","
","
","""event"",""trial"",""time""
""fullscreenenter"",""0"",""3170""
","
","591.5999999940395","","","","","","","","49","0,1,1","6","blank","298","null","0.17645189393284905","0.6073670492874312","0.29051857430057904","0","","","","","","","","",""
"","html-keyboard-response","157","469506","0.0-87.0-1.0","""event"",""trial"",""time""
""fullscreenenter"",""0"",""3170""
","
","
","""event"",""trial"",""time""
""fullscreenenter"",""0"",""3170""
","
","null","<p></p>","null","","","","","","","","","","","","","","","","","","","","","","","",""
"","do_trial","158","472754","0.0-88.0-0.0","""event"",""trial"",""time""
""fullscreenenter"",""0"",""3170""
","
","
","""event"",""trial"",""time""
""fullscreenenter"",""0"",""3170""
","
","722","","","","","","","","49","0,0,0","6","blank","299","null","0.20003037725330822","0.6091995606178893","0.16759329402413284","0","","","","","","","","",""
"","html-keyboard-response","159","473759","0.0-88.0-1.0","""event"",""trial"",""time""
""fullscreenenter"",""0"",""3170""
","
","
","""event"",""trial"",""time""
""fullscreenenter"",""0"",""3170""
","
","null","<p></p>","null","","","","","","","","","","","","","","","","","","","","","","","",""
"","do_trial","160","476829","0.0-89.0-0.0","""event"",""trial"",""time""
""fullscreenenter"",""0"",""3170""
","
","
","""event"",""trial"",""time""
""fullscreenenter"",""0"",""3170""
","
","543.4000000059605","","","","","","","","50","1,1,0","6","blank","300","null","0.05849436631789562","0.577008315781919","0.15416880805991878","1","","","","","","","","",""
"","html-keyboard-response","161","477838","0.0-89.0-1.0","""event"",""trial"",""time""
""fullscreenenter"",""0"",""3170""
","
","
","""event"",""trial"",""time""
""fullscreenenter"",""0"",""3170""
","
","null","<p></p>","null","","","","","","","","","","","","","","","","","","","","","","","",""
"","do_recog","162","481525","0.0-90.0-0.0","""event"",""trial"",""time""
""fullscreenenter"",""0"",""3170""
","
","
","""event"",""trial"",""time""
""fullscreenenter"",""0"",""3170""
","
","2178.800000011921","","","","","","","","54","","","","301","probe-134","","","","","1","[object Object]","76","1","1","","","",""
"","html-keyboard-response","163","482529","0.0-90.0-1.0","""event"",""trial"",""time""
""fullscreenenter"",""0"",""3170""
","
","
","""event"",""trial"",""time""
""fullscreenenter"",""0"",""3170""
","
","null","<p></p>","null","","","","","","","","","","","","","","","","","","","","","","","",""
"","do_trial","164","485591","0.0-91.0-0.0","""event"",""trial"",""time""
""fullscreenenter"",""0"",""3170""
","
","
","""event"",""trial"",""time""
""fullscreenenter"",""0"",""3170""
","
","531.6999999880791","","","","","","","","50","0,0,0","6","blank","302","null","0.19778675806128043","0.495831935480624","0.3431915432121296","0","","","","","","","","",""
"","html-keyboard-response","165","486599","0.0-91.0-1.0","""event"",""trial"",""time""
""fullscreenenter"",""0"",""3170""
","
","
","""event"",""trial"",""time""
""fullscreenenter"",""0"",""3170""
","
","null","<p></p>","null","","","","","","","","","","","","","","","","","","","","","","","",""
"","do_recog","166","489957","0.0-92.0-0.0","""event"",""trial"",""time""
""fullscreenenter"",""0"",""3170""
","
","
","""event"",""trial"",""time""
""fullscreenenter"",""0"",""3170""
","
","1848.699999988079","","","","","","","","55","","","","303","probe-189","","","","","1","[object Object]","153","3","0","","","",""
"","html-keyboard-response","167","490962","0.0-92.0-1.0","""event"",""trial"",""time""
""fullscreenenter"",""0"",""3170""
","
","
","""event"",""trial"",""time""
""fullscreenenter"",""0"",""3170""
","
","null","<p></p>","null","","","","","","","","","","","","","","","","","","","","","","","",""
"","do_trial","168","494142","0.0-93.0-0.0","""event"",""trial"",""time""
""fullscreenenter"",""0"",""3170""
","
","
","""event"",""trial"",""time""
""fullscreenenter"",""0"",""3170""
","
","651.1999999880791","","","","","","","","50","0,1,1","6","blank","304","null","0.06253208080833836","0.583272469411108","0.2861399742068264","1","","","","","","","","",""
"","html-keyboard-response","169","495146","0.0-93.0-1.0","""event"",""trial"",""time""
""fullscreenenter"",""0"",""3170""
","
","
","""event"",""trial"",""time""
""fullscreenenter"",""0"",""3170""
","
","null","<p></p>","null","","","","","","","","","","","","","","","","","","","","","","","",""
"","do_trial","170","498158","0.0-94.0-0.0","""event"",""trial"",""time""
""fullscreenenter"",""0"",""3170""
","
","
","""event"",""trial"",""time""
""fullscreenenter"",""0"",""3170""
","
","483.69999998807907","","","","","","","","50","1,1,1","6","blank","305","null","0.19419193094078363","0.6646721123469743","0.2239421522460445","1","","","","","","","","",""
"","html-keyboard-response","171","499162","0.0-94.0-1.0","""event"",""trial"",""time""
""fullscreenenter"",""0"",""3170""
","
","
","""event"",""trial"",""time""
""fullscreenenter"",""0"",""3170""
","
","null","<p></p>","null","","","","","","","","","","","","","","","","","","","","","","","",""
"","do_recog","172","502522","0.0-95.0-0.0","""event"",""trial"",""time""
""fullscreenenter"",""0"",""3170""
","
","
","""event"",""trial"",""time""
""fullscreenenter"",""0"",""3170""
","
","1852.699999988079","","","","","","","","54","","","","306","probe-174","","","","","1","[object Object]","70","1","1","","","",""
"","html-keyboard-response","173","503529","0.0-95.0-1.0","""event"",""trial"",""time""
""fullscreenenter"",""0"",""3170""
","
","
","""event"",""trial"",""time""
""fullscreenenter"",""0"",""3170""
","
","null","<p></p>","null","","","","","","","","","","","","","","","","","","","","","","","",""
"","do_trial","174","506675","0.0-96.0-0.0","""event"",""trial"",""time""
""fullscreenenter"",""0"",""3170""
","
","
","""event"",""trial"",""time""
""fullscreenenter"",""0"",""3170""
","
","614.5","","","","","","","","50","0,0,0","6","blank","307","null","0.12927671473687247","0.49357222024022895","0.10695350855719765","0","","","","","","","","",""
"","html-keyboard-response","175","507682","0.0-96.0-1.0","""event"",""trial"",""time""
""fullscreenenter"",""0"",""3170""
","
","
","""event"",""trial"",""time""
""fullscreenenter"",""0"",""3170""
","
","null","<p></p>","null","","","","","","","","","","","","","","","","","","","","","","","",""
"","do_recog","176","511741","0.0-97.0-0.0","""event"",""trial"",""time""
""fullscreenenter"",""0"",""3170""
","
","
","""event"",""trial"",""time""
""fullscreenenter"",""0"",""3170""
","
","2549.800000011921","","","","","","","","54","","","","308","probe-130","","","","","1","[object Object]","36","0","1","","","",""
"","html-keyboard-response","177","512746","0.0-97.0-1.0","""event"",""trial"",""time""
""fullscreenenter"",""0"",""3170""
","
","
","""event"",""trial"",""time""
""fullscreenenter"",""0"",""3170""
","
","null","<p></p>","null","","","","","","","","","","","","","","","","","","","","","","","",""
"","break","178","513854","0.0-98.0-0.0","""event"",""trial"",""time""
""fullscreenenter"",""0"",""3170""
","
","
","""event"",""trial"",""time""
""fullscreenenter"",""0"",""3170""
","
","1104.4000000059605","<div class='center'><p>Time to take a quick break! You have 2 minutes to rest, but you can move on sooner if you'd like.</p><p> Press the <b>space bar</b> to continue.</p></div>","32","","","","","","","","","","","","","","","","","","","","","","","",""
"","do_trial","179","517070","0.0-98.0-1.0","""event"",""trial"",""time""
""fullscreenenter"",""0"",""3170""
","
","
","""event"",""trial"",""time""
""fullscreenenter"",""0"",""3170""
","
","687.2999999821186","","","","","","","","50","0,0,1","6","blank","309","null","0.1443852437419032","0.5595509657454139","0.14089913197517176","0","","","","","","","","",""
"","html-keyboard-response","180","518076","0.0-98.0-2.0","""event"",""trial"",""time""
""fullscreenenter"",""0"",""3170""
","
","
","""event"",""trial"",""time""
""fullscreenenter"",""0"",""3170""
","
","null","<p></p>","null","","","","","","","","","","","","","","","","","","","","","","","",""
"","do_trial","181","521629","0.0-99.0-0.0","""event"",""trial"",""time""
""fullscreenenter"",""0"",""3170""
","
","
","""event"",""trial"",""time""
""fullscreenenter"",""0"",""3170""
","
","1023","","","","","","","","50","0,0,0","6","blank","310","null","0.16507013027109949","0.5348750307873089","0.2379675428381343","0","","","","","","","","",""
"","html-keyboard-response","182","522636","0.0-99.0-1.0","""event"",""trial"",""time""
""fullscreenenter"",""0"",""3170""
","
","
","""event"",""trial"",""time""
""fullscreenenter"",""0"",""3170""
","
","null","<p></p>","null","","","","","","","","","","","","","","","","","","","","","","","",""
"","do_trial","183","525695","0.0-100.0-0.0","""event"",""trial"",""time""
""fullscreenenter"",""0"",""3170""
","
","
","""event"",""trial"",""time""
""fullscreenenter"",""0"",""3170""
","
","533","","","","","","","","51","0,0,0","6","blank","311","null","0.1878327812291926","0.5836846841080723","0.27594982750803515","0","","","","","","","","",""
"","html-keyboard-response","184","526696","0.0-100.0-1.0","""event"",""trial"",""time""
""fullscreenenter"",""0"",""3170""
","
","
","""event"",""trial"",""time""
""fullscreenenter"",""0"",""3170""
","
","null","<p></p>","null","","","","","","","","","","","","","","","","","","","","","","","",""
"","do_trial","185","529627","0.0-101.0-0.0","""event"",""trial"",""time""
""fullscreenenter"",""0"",""3170""
","
","
","""event"",""trial"",""time""
""fullscreenenter"",""0"",""3170""
","
","396","","","","","","","","51","1,0,0","6","blank","312","null","0.21557133658232033","0.6151697688830968","0.21769665192895338","0","","","","","","","","",""
"","html-keyboard-response","186","530634","0.0-101.0-1.0","""event"",""trial"",""time""
""fullscreenenter"",""0"",""3170""
","
","
","""event"",""trial"",""time""
""fullscreenenter"",""0"",""3170""
","
","null","<p></p>","null","","","","","","","","","","","","","","","","","","","","","","","",""
"","do_trial","187","533513","0.0-102.0-0.0","""event"",""trial"",""time""
""fullscreenenter"",""0"",""3170""
","
","
","""event"",""trial"",""time""
""fullscreenenter"",""0"",""3170""
","
","342.40000000596046","","","","","","","","49","0,1,0","6","blank","313","null","0.0832743310318128","0.5706786974519633","0.15718112617787677","0","","","","","","","","",""
"","html-keyboard-response","188","534523","0.0-102.0-1.0","""event"",""trial"",""time""
""fullscreenenter"",""0"",""3170""
","
","
","""event"",""trial"",""time""
""fullscreenenter"",""0"",""3170""
","
","null","<p></p>","null","","","","","","","","","","","","","","","","","","","","","","","",""
"","do_trial","189","537392","0.0-103.0-0.0","""event"",""trial"",""time""
""fullscreenenter"",""0"",""3170""
","
","
","""event"",""trial"",""time""
""fullscreenenter"",""0"",""3170""
","
","339.30000001192093","","","","","","","","51","0,0,0","6","blank","314","null","0.18618185198173595","0.5235391970653067","0.1293429452025595","0","","","","","","","","",""
"","html-keyboard-response","190","538400","0.0-103.0-1.0","""event"",""trial"",""time""
""fullscreenenter"",""0"",""3170""
","
","
","""event"",""trial"",""time""
""fullscreenenter"",""0"",""3170""
","
","null","<p></p>","null","","","","","","","","","","","","","","","","","","","","","","","",""
"","do_recog","191","541795","0.0-104.0-0.0","""event"",""trial"",""time""
""fullscreenenter"",""0"",""3170""
","
","
","""event"",""trial"",""time""
""fullscreenenter"",""0"",""3170""
","
","1884.7000000178814","","","","","","","","54","","","","315","probe-237","","","","","0","[object Object]","null","null","0","","","",""
"","html-keyboard-response","192","542804","0.0-104.0-1.0","""event"",""trial"",""time""
""fullscreenenter"",""0"",""3170""
","
","
","""event"",""trial"",""time""
""fullscreenenter"",""0"",""3170""
","
","null","<p></p>","null","","","","","","","","","","","","","","","","","","","","","","","",""
"","do_trial","193","545770","0.0-105.0-0.0","""event"",""trial"",""time""
""fullscreenenter"",""0"",""3170""
","
","
","""event"",""trial"",""time""
""fullscreenenter"",""0"",""3170""
","
","440.59999999403954","","","","","","","","49","0,1,0","6","blank","316","null","0.12944852652010505","0.563884265185288","0.10728467951969738","0","","","","","","","","",""
"","html-keyboard-response","194","546776","0.0-105.0-1.0","""event"",""trial"",""time""
""fullscreenenter"",""0"",""3170""
","
","
","""event"",""trial"",""time""
""fullscreenenter"",""0"",""3170""
","
","null","<p></p>","null","","","","","","","","","","","","","","","","","","","","","","","",""
"","do_recog","195","550643","0.0-106.0-0.0","""event"",""trial"",""time""
""fullscreenenter"",""0"",""3170""
","
","
","""event"",""trial"",""time""
""fullscreenenter"",""0"",""3170""
","
","2349.5","","","","","","","","55","","","","317","probe-128","","","","","1","[object Object]","116","2","0","","","",""
"","html-keyboard-response","196","551651","0.0-106.0-1.0","""event"",""trial"",""time""
""fullscreenenter"",""0"",""3170""
","
","
","""event"",""trial"",""time""
""fullscreenenter"",""0"",""3170""
","
","null","<p></p>","null","","","","","","","","","","","","","","","","","","","","","","","",""
"","do_trial","197","554818","0.0-107.0-0.0","""event"",""trial"",""time""
""fullscreenenter"",""0"",""3170""
","
","
","""event"",""trial"",""time""
""fullscreenenter"",""0"",""3170""
","
","638.2000000178814","","","","","","","","50","0,0,1","6","blank","318","null","0.06797680248769732","0.5404580830739103","0.2621363889172801","0","","","","","","","","",""
"","html-keyboard-response","198","555826","0.0-107.0-1.0","""event"",""trial"",""time""
""fullscreenenter"",""0"",""3170""
","
","
","""event"",""trial"",""time""
""fullscreenenter"",""0"",""3170""
","
","null","<p></p>","null","","","","","","","","","","","","","","","","","","","","","","","",""
"","do_trial","199","558866","0.0-108.0-0.0","""event"",""trial"",""time""
""fullscreenenter"",""0"",""3170""
","
","
","""event"",""trial"",""time""
""fullscreenenter"",""0"",""3170""
","
","507.90000000596046","","","","","","","","49","0,1,0","6","blank","319","null","0.05333212321463007","0.5094548504938572","0.2605028795997105","0","","","","","","","","",""
"","html-keyboard-response","200","559871","0.0-108.0-1.0","""event"",""trial"",""time""
""fullscreenenter"",""0"",""3170""
","
","
","""event"",""trial"",""time""
""fullscreenenter"",""0"",""3170""
","
","null","<p></p>","null","","","","","","","","","","","","","","","","","","","","","","","",""
"","do_trial","201","562970","0.0-109.0-0.0","""event"",""trial"",""time""
""fullscreenenter"",""0"",""3170""
","
","
","""event"",""trial"",""time""
""fullscreenenter"",""0"",""3170""
","
","571.5","","","","","","","","49","0,1,0","6","blank","320","null","0.24049417920096552","0.5168595194180737","0.3105402562926209","0","","","","","","","","",""
"","html-keyboard-response","202","563978","0.0-109.0-1.0","""event"",""trial"",""time""
""fullscreenenter"",""0"",""3170""
","
","
","""event"",""trial"",""time""
""fullscreenenter"",""0"",""3170""
","
","null","<p></p>","null","","","","","","","","","","","","","","","","","","","","","","","",""
"","do_trial","203","570012","0.0-110.0-0.0","""event"",""trial"",""time""
""fullscreenenter"",""0"",""3170""
","
","
","""event"",""trial"",""time""
""fullscreenenter"",""0"",""3170""
","
","null","","","","","","","","null","1,0,0","6","blank","321","null","0.3466680806535385","0.6574151402894889","0.3220015918037509","","","","","","","","","",""
"","html-keyboard-response","204","571017","0.0-110.0-1.0","""event"",""trial"",""time""
""fullscreenenter"",""0"",""3170""
","
","
","""event"",""trial"",""time""
""fullscreenenter"",""0"",""3170""
","
","null","<p></p>","null","","","","","","","","","","","","","","","","","","","","","","","",""
"","do_trial","205","574048","0.0-111.0-0.0","""event"",""trial"",""time""
""fullscreenenter"",""0"",""3170""
","
","
","""event"",""trial"",""time""
""fullscreenenter"",""0"",""3170""
","
","504.80000001192093","","","","","","","","49","1,0,0","6","blank","322","null","0.26618984175224325","0.5999467138068414","0.378072239859909","1","","","","","","","","",""
"","html-keyboard-response","206","575052","0.0-111.0-1.0","""event"",""trial"",""time""
""fullscreenenter"",""0"",""3170""
","
","
","""event"",""trial"",""time""
""fullscreenenter"",""0"",""3170""
","
","null","<p></p>","null","","","","","","","","","","","","","","","","","","","","","","","",""
"","do_trial","207","578046","0.0-112.0-0.0","""event"",""trial"",""time""
""fullscreenenter"",""0"",""3170""
","
","
","""event"",""trial"",""time""
""fullscreenenter"",""0"",""3170""
","
","471.80000001192093","","","","","","","","49","0,0,0","6","blank","323","null","0.2142749432777808","0.7138845901398422","0.4006173278041129","0","","","","","","","","",""
"","html-keyboard-response","208","579053","0.0-112.0-1.0","""event"",""trial"",""time""
""fullscreenenter"",""0"",""3170""
","
","
","""event"",""trial"",""time""
""fullscreenenter"",""0"",""3170""
","
","null","<p></p>","null","","","","","","","","","","","","","","","","","","","","","","","",""
"","do_recog","209","582441","0.0-113.0-0.0","""event"",""trial"",""time""
""fullscreenenter"",""0"",""3170""
","
","
","""event"",""trial"",""time""
""fullscreenenter"",""0"",""3170""
","
","1877.8999999761581","","","","","","","","54","","","","324","probe-117","","","","","1","[object Object]","34","0","1","","","",""
"","html-keyboard-response","210","583446","0.0-113.0-1.0","""event"",""trial"",""time""
""fullscreenenter"",""0"",""3170""
","
","
","""event"",""trial"",""time""
""fullscreenenter"",""0"",""3170""
","
","null","<p></p>","null","","","","","","","","","","","","","","","","","","","","","","","",""
"","do_trial","211","587195","0.0-114.0-0.0","""event"",""trial"",""time""
""fullscreenenter"",""0"",""3170""
","
","
","""event"",""trial"",""time""
""fullscreenenter"",""0"",""3170""
","
","1217.0999999940395","","","","","","","","49","0,0,1","6","blank","325","null","0.09090694426504127","0.65538342792975","0.31817740394240196","0","","","","","","","","",""
"","html-keyboard-response","212","588201","0.0-114.0-1.0","""event"",""trial"",""time""
""fullscreenenter"",""0"",""3170""
","
","
","""event"",""trial"",""time""
""fullscreenenter"",""0"",""3170""
","
","null","<p></p>","null","","","","","","","","","","","","","","","","","","","","","","","",""
"","do_trial","213","591367","0.0-115.0-0.0","""event"",""trial"",""time""
""fullscreenenter"",""0"",""3170""
","
","
","""event"",""trial"",""time""
""fullscreenenter"",""0"",""3170""
","
","635.7000000178814","","","","","","","","50","0,1,0","6","blank","326","null","0.12398037815823613","0.6587948452577548","0.32994470344541604","1","","","","","","","","",""
"","html-keyboard-response","214","592370","0.0-115.0-1.0","""event"",""trial"",""time""
""fullscreenenter"",""0"",""3170""
","
","
","""event"",""trial"",""time""
""fullscreenenter"",""0"",""3170""
","
","null","<p></p>","null","","","","","","","","","","","","","","","","","","","","","","","",""
"","do_trial","215","595417","0.0-116.0-0.0","""event"",""trial"",""time""
""fullscreenenter"",""0"",""3170""
","
","
","""event"",""trial"",""time""
""fullscreenenter"",""0"",""3170""
","
","518.4000000059605","","","","","","","","50","0,1,0","6","blank","327","null","0.16639853716318292","0.665156507537167","0.31871605395363456","1","","","","","","","","",""
"","html-keyboard-response","216","596423","0.0-116.0-1.0","""event"",""trial"",""time""
""fullscreenenter"",""0"",""3170""
","
","
","""event"",""trial"",""time""
""fullscreenenter"",""0"",""3170""
","
","null","<p></p>","null","","","","","","","","","","","","","","","","","","","","","","","",""
"","do_trial","217","599633","0.0-117.0-0.0","""event"",""trial"",""time""
""fullscreenenter"",""0"",""3170""
","
","
","""event"",""trial"",""time""
""fullscreenenter"",""0"",""3170""
","
","680.1999999880791","","","","","","","","50","0,0,0","6","blank","328","null","0.2667906645341258","0.6796254140160839","0.3324271725005783","0","","","","","","","","",""
"","html-keyboard-response","218","600640","0.0-117.0-1.0","""event"",""trial"",""time""
""fullscreenenter"",""0"",""3170""
","
","
","""event"",""trial"",""time""
""fullscreenenter"",""0"",""3170""
","
","null","<p></p>","null","","","","","","","","","","","","","","","","","","","","","","","",""
"","do_trial","219","603665","0.0-118.0-0.0","""event"",""trial"",""time""
""fullscreenenter"",""0"",""3170""
","
","
","""event"",""trial"",""time""
""fullscreenenter"",""0"",""3170""
","
","494","","","","","","","","50","0,0,0","6","blank","329","null","0.2642378749770323","0.5990834961477287","0.4014087289255342","0","","","","","","","","",""
"","html-keyboard-response","220","604672","0.0-118.0-1.0","""event"",""trial"",""time""
""fullscreenenter"",""0"",""3170""
","
","
","""event"",""trial"",""time""
""fullscreenenter"",""0"",""3170""
","
","null","<p></p>","null","","","","","","","","","","","","","","","","","","","","","","","",""
"","do_recog","221","607979","0.0-119.0-0.0","""event"",""trial"",""time""
""fullscreenenter"",""0"",""3170""
","
","
","""event"",""trial"",""time""
""fullscreenenter"",""0"",""3170""
","
","1791.300000011921","","","","","","","","55","","","","330","probe-88","","","","","1","[object Object]","73","1","0","","","",""
"","html-keyboard-response","222","608986","0.0-119.0-1.0","""event"",""trial"",""time""
""fullscreenenter"",""0"",""3170""
","
","
","""event"",""trial"",""time""
""fullscreenenter"",""0"",""3170""
","
","null","<p></p>","null","","","","","","","","","","","","","","","","","","","","","","","",""
"","do_trial","223","612361","0.0-120.0-0.0","""event"",""trial"",""time""
""fullscreenenter"",""0"",""3170""
","
","
","""event"",""trial"",""time""
""fullscreenenter"",""0"",""3170""
","
","843","","","","","","","","50","1,1,0","6","blank","331","null","0.31649162678225784","0.6281248471595465","0.4367100907768768","1","","","","","","","","",""
"","html-keyboard-response","224","613370","0.0-120.0-1.0","""event"",""trial"",""time""
""fullscreenenter"",""0"",""3170""
","
","
","""event"",""trial"",""time""
""fullscreenenter"",""0"",""3170""
","
","null","<p></p>","null","","","","","","","","","","","","","","","","","","","","","","","",""
"","do_recog","225","616812","0.0-121.0-0.0","""event"",""trial"",""time""
""fullscreenenter"",""0"",""3170""
","
","
","""event"",""trial"",""time""
""fullscreenenter"",""0"",""3170""
","
","1929.8999999761581","","","","","","","","55","","","","332","probe-77","","","","","1","[object Object]","199","4","0","","","",""
"","html-keyboard-response","226","617819","0.0-121.0-1.0","""event"",""trial"",""time""
""fullscreenenter"",""0"",""3170""
","
","
","""event"",""trial"",""time""
""fullscreenenter"",""0"",""3170""
","
","null","<p></p>","null","","","","","","","","","","","","","","","","","","","","","","","",""
"","do_trial","227","621487","0.0-122.0-0.0","""event"",""trial"",""time""
""fullscreenenter"",""0"",""3170""
","
","
","""event"",""trial"",""time""
""fullscreenenter"",""0"",""3170""
","
","1138.5999999940395","","","","","","","","50","1,0,1","6","blank","333","null","0.1303088817070268","0.6278480530706826","0.5922228966871128","0","","","","","","","","",""
"","html-keyboard-response","228","622492","0.0-122.0-1.0","""event"",""trial"",""time""
""fullscreenenter"",""0"",""3170""
","
","
","""event"",""trial"",""time""
""fullscreenenter"",""0"",""3170""
","
","null","<p></p>","null","","","","","","","","","","","","","","","","","","","","","","","",""
"","do_recog","229","626864","0.0-123.0-0.0","""event"",""trial"",""time""
""fullscreenenter"",""0"",""3170""
","
","
","""event"",""trial"",""time""
""fullscreenenter"",""0"",""3170""
","
","2865.7999999821186","","","","","","","","55","","","","334","probe-183","","","","","1","[object Object]","159","3","0","","","",""
"","html-keyboard-response","230","627874","0.0-123.0-1.0","""event"",""trial"",""time""
""fullscreenenter"",""0"",""3170""
","
","
","""event"",""trial"",""time""
""fullscreenenter"",""0"",""3170""
","
","null","<p></p>","null","","","","","","","","","","","","","","","","","","","","","","","",""
"","do_trial","231","632630","0.0-124.0-0.0","""event"",""trial"",""time""
""fullscreenenter"",""0"",""3170""
","
","
","""event"",""trial"",""time""
""fullscreenenter"",""0"",""3170""
","
","2227","","","","","","","","50","0,1,1","6","blank","335","null","0.1416246547579104","0.7089241621159272","0.5384150743772197","1","","","","","","","","",""
"","html-keyboard-response","232","633636","0.0-124.0-1.0","""event"",""trial"",""time""
""fullscreenenter"",""0"",""3170""
","
","
","""event"",""trial"",""time""
""fullscreenenter"",""0"",""3170""
","
","null","<p></p>","null","","","","","","","","","","","","","","","","","","","","","","","",""
"","do_trial","233","637135","0.0-125.0-0.0","""event"",""trial"",""time""
""fullscreenenter"",""0"",""3170""
","
","
","""event"",""trial"",""time""
""fullscreenenter"",""0"",""3170""
","
","971.8000000119209","","","","","","","","50","0,1,0","6","blank","336","null","0.16832815634852813","0.7312284125006483","0.44492370074433985","1","","","","","","","","",""
"","html-keyboard-response","234","638141","0.0-125.0-1.0","""event"",""trial"",""time""
""fullscreenenter"",""0"",""3170""
","
","
","""event"",""trial"",""time""
""fullscreenenter"",""0"",""3170""
","
","null","<p></p>","null","","","","","","","","","","","","","","","","","","","","","","","",""
"","do_trial","235","642470","0.0-126.0-0.0","""event"",""trial"",""time""
""fullscreenenter"",""0"",""3170""
","
","
","""event"",""trial"",""time""
""fullscreenenter"",""0"",""3170""
","
","1803.0999999940395","","","","","","","","50","1,0,0","6","blank","337","null","0.11271981815794968","0.690250008703889","0.4078108399947196","0","","","","","","","","",""
"","html-keyboard-response","236","643473","0.0-126.0-1.0","""event"",""trial"",""time""
""fullscreenenter"",""0"",""3170""
","
","
","""event"",""trial"",""time""
""fullscreenenter"",""0"",""3170""
","
","null","<p></p>","null","","","","","","","","","","","","","","","","","","","","","","","",""
"","do_trial","237","647795","0.0-127.0-0.0","""event"",""trial"",""time""
""fullscreenenter"",""0"",""3170""
","
","
","""event"",""trial"",""time""
""fullscreenenter"",""0"",""3170""
","
","1791.2999999821186","","","","","","","","50","1,1,0","6","blank","338","null","0.05798979285509858","0.6042053762381321","0.4310823733455571","1","","","","","","","","",""
"","html-keyboard-response","238","648802","0.0-127.0-1.0","""event"",""trial"",""time""
""fullscreenenter"",""0"",""3170""
","
","
","""event"",""trial"",""time""
""fullscreenenter"",""0"",""3170""
","
","null","<p></p>","null","","","","","","","","","","","","","","","","","","","","","","","",""
"","do_recog","239","652521","0.0-128.0-0.0","""event"",""trial"",""time""
""fullscreenenter"",""0"",""3170""
","
","
","""event"",""trial"",""time""
""fullscreenenter"",""0"",""3170""
","
","2209.699999988079","","","","","","","","55","","","","339","probe-02","","","","","1","[object Object]","77","1","0","","","",""
"","html-keyboard-response","240","653527","0.0-128.0-1.0","""event"",""trial"",""time""
""fullscreenenter"",""0"",""3170""
","
","
","""event"",""trial"",""time""
""fullscreenenter"",""0"",""3170""
","
","null","<p></p>","null","","","","","","","","","","","","","","","","","","","","","","","",""
"","do_trial","241","657353","0.0-129.0-0.0","""event"",""trial"",""time""
""fullscreenenter"",""0"",""3170""
","
","
","""event"",""trial"",""time""
""fullscreenenter"",""0"",""3170""
","
","1292.199999988079","","","","","","","","50","0,1,0","6","blank","340","null","0.09800768058893738","0.5922399041794895","0.40875018529828405","1","","","","","","","","",""
"","html-keyboard-response","242","658360","0.0-129.0-1.0","""event"",""trial"",""time""
""fullscreenenter"",""0"",""3170""
","
","
","""event"",""trial"",""time""
""fullscreenenter"",""0"",""3170""
","
","null","<p></p>","null","","","","","","","","","","","","","","","","","","","","","","","",""
"","do_recog","243","662121","0.0-130.0-0.0","""event"",""trial"",""time""
""fullscreenenter"",""0"",""3170""
","
","
","""event"",""trial"",""time""
""fullscreenenter"",""0"",""3170""
","
","2245.5999999940395","","","","","","","","54","","","","341","probe-82","","","","","1","[object Object]","158","3","1","","","",""
"","html-keyboard-response","244","663127","0.0-130.0-1.0","""event"",""trial"",""time""
""fullscreenenter"",""0"",""3170""
","
","
","""event"",""trial"",""time""
""fullscreenenter"",""0"",""3170""
","
","null","<p></p>","null","","","","","","","","","","","","","","","","","","","","","","","",""
"","do_trial","245","666987","0.0-131.0-0.0","""event"",""trial"",""time""
""fullscreenenter"",""0"",""3170""
","
","
","""event"",""trial"",""time""
""fullscreenenter"",""0"",""3170""
","
","1327","","","","","","","","50","0,1,0","6","blank","342","null","0.22287743737223115","0.7594476153021927","0.26401435471192636","1","","","","","","","","",""
"","html-keyboard-response","246","667995","0.0-131.0-1.0","""event"",""trial"",""time""
""fullscreenenter"",""0"",""3170""
","
","
","""event"",""trial"",""time""
""fullscreenenter"",""0"",""3170""
","
","null","<p></p>","null","","","","","","","","","","","","","","","","","","","","","","","",""
"","do_recog","247","672061","0.0-132.0-0.0","""event"",""trial"",""time""
""fullscreenenter"",""0"",""3170""
","
","
","""event"",""trial"",""time""
""fullscreenenter"",""0"",""3170""
","
","2560.0999999940395","","","","","","","","54","","","","343","probe-178","","","","","1","[object Object]","38","0","1","","","",""
"","html-keyboard-response","248","673065","0.0-132.0-1.0","""event"",""trial"",""time""
""fullscreenenter"",""0"",""3170""
","
","
","""event"",""trial"",""time""
""fullscreenenter"",""0"",""3170""
","
","null","<p></p>","null","","","","","","","","","","","","","","","","","","","","","","","",""
"","do_trial","249","677124","0.0-133.0-0.0","""event"",""trial"",""time""
""fullscreenenter"",""0"",""3170""
","
","
","""event"",""trial"",""time""
""fullscreenenter"",""0"",""3170""
","
","1526.4000000059605","","","","","","","","49","0,0,0","6","blank","344","null","0.316936007040502","0.6243663688042148","0.37431191039225936","0","","","","","","","","",""
"","html-keyboard-response","250","678135","0.0-133.0-1.0","""event"",""trial"",""time""
""fullscreenenter"",""0"",""3170""
","
","
","""event"",""trial"",""time""
""fullscreenenter"",""0"",""3170""
","
","null","<p></p>","null","","","","","","","","","","","","","","","","","","","","","","","",""
"","do_recog","251","681194","0.0-134.0-0.0","""event"",""trial"",""time""
""fullscreenenter"",""0"",""3170""
","
","
","""event"",""trial"",""time""
""fullscreenenter"",""0"",""3170""
","
","1555.1000000238419","","","","","","","","55","","","","345","probe-05","","","","","1","[object Object]","31","0","0","","","",""
"","html-keyboard-response","252","682202","0.0-134.0-1.0","""event"",""trial"",""time""
""fullscreenenter"",""0"",""3170""
","
","
","""event"",""trial"",""time""
""fullscreenenter"",""0"",""3170""
","
","null","<p></p>","null","","","","","","","","","","","","","","","","","","","","","","","",""
"","do_trial","253","686585","0.0-135.0-0.0","""event"",""trial"",""time""
""fullscreenenter"",""0"",""3170""
","
","
","""event"",""trial"",""time""
""fullscreenenter"",""0"",""3170""
","
","1851","","","","","","","","49","1,1,0","6","blank","346","null","0.3641074239797679","0.5367358942577665","0.34482243113454225","1","","","","","","","","",""
"","html-keyboard-response","254","687593","0.0-135.0-1.0","""event"",""trial"",""time""
""fullscreenenter"",""0"",""3170""
","
","
","""event"",""trial"",""time""
""fullscreenenter"",""0"",""3170""
","
","null","<p></p>","null","","","","","","","","","","","","","","","","","","","","","","","",""
"","do_recog","255","693620","0.0-136.0-0.0","""event"",""trial"",""time""
""fullscreenenter"",""0"",""3170""
","
","
","""event"",""trial"",""time""
""fullscreenenter"",""0"",""3170""
","
","null","","","","","","","","null","","","","347","probe-47","","","","","1","[object Object]","112","2","0","","","",""
"","html-keyboard-response","256","694627","0.0-136.0-1.0","""event"",""trial"",""time""
""fullscreenenter"",""0"",""3170""
","
","
","""event"",""trial"",""time""
""fullscreenenter"",""0"",""3170""
","
","null","<p></p>","null","","","","","","","","","","","","","","","","","","","","","","","",""
"","do_trial","257","698453","0.0-137.0-0.0","""event"",""trial"",""time""
""fullscreenenter"",""0"",""3170""
","
","
","""event"",""trial"",""time""
""fullscreenenter"",""0"",""3170""
","
","1286.800000011921","","","","","","","","49","0,0,0","6","blank","348","null","0.35596372683030686","0.4086622189117652","0.33001703562212925","0","","","","","","","","",""
"","html-keyboard-response","258","699460","0.0-137.0-1.0","""event"",""trial"",""time""
""fullscreenenter"",""0"",""3170""
","
","
","""event"",""trial"",""time""
""fullscreenenter"",""0"",""3170""
","
","null","<p></p>","null","","","","","","","","","","","","","","","","","","","","","","","",""
"","break","259","700843","0.0-138.0-0.0","""event"",""trial"",""time""
""fullscreenenter"",""0"",""3170""
","
","
","""event"",""trial"",""time""
""fullscreenenter"",""0"",""3170""
","
","1379.800000011921","<div class='center'><p>Time to take a quick break! You have 2 minutes to rest, but you can move on sooner if you'd like.</p><p> Press the <b>space bar</b> to continue.</p></div>","32","","","","","","","","","","","","","","","","","","","","","","","",""
"","do_trial","260","706885","0.0-138.0-1.0","""event"",""trial"",""time""
""fullscreenenter"",""0"",""3170""
","
","
","""event"",""trial"",""time""
""fullscreenenter"",""0"",""3170""
","
","null","","","","","","","","null","0,1,1","6","blank","349","null","0.373298276514434","0.3046848995064073","0.43868985216523504","","","","","","","","","",""
"","html-keyboard-response","261","707895","0.0-138.0-2.0","""event"",""trial"",""time""
""fullscreenenter"",""0"",""3170""
","
","
","""event"",""trial"",""time""
""fullscreenenter"",""0"",""3170""
","
","null","<p></p>","null","","","","","","","","","","","","","","","","","","","","","","","",""
"","do_trial","262","711135","0.0-139.0-0.0","""event"",""trial"",""time""
""fullscreenenter"",""0"",""3170""
","
","
","""event"",""trial"",""time""
""fullscreenenter"",""0"",""3170""
","
","711.0999999940395","","","","","","","","49","1,0,0","6","blank","350","null","0.3919739106922178","0.20273540085221214","0.5076820422964844","1","","","","","","","","",""
"","html-keyboard-response","263","712142","0.0-139.0-1.0","""event"",""trial"",""time""
""fullscreenenter"",""0"",""3170""
","
","
","""event"",""trial"",""time""
""fullscreenenter"",""0"",""3170""
","
","null","<p></p>","null","","","","","","","","","","","","","","","","","","","","","","","",""
"","do_trial","264","715669","0.0-140.0-0.0","""event"",""trial"",""time""
""fullscreenenter"",""0"",""3170""
","
","
","""event"",""trial"",""time""
""fullscreenenter"",""0"",""3170""
","
","998.4000000059605","","","","","","","","49","0,0,0","6","blank","351","null","0.24572893693390846","0.18606795207747134","0.4546866087915216","0","","","","","","","","",""
"","html-keyboard-response","265","716672","0.0-140.0-1.0","""event"",""trial"",""time""
""fullscreenenter"",""0"",""3170""
","
","
","""event"",""trial"",""time""
""fullscreenenter"",""0"",""3170""
","
","null","<p></p>","null","","","","","","","","","","","","","","","","","","","","","","","",""
"","do_trial","266","719920","0.0-141.0-0.0","""event"",""trial"",""time""
""fullscreenenter"",""0"",""3170""
","
","
","""event"",""trial"",""time""
""fullscreenenter"",""0"",""3170""
","
","718.7999999821186","","","","","","","","49","0,0,0","6","blank","352","null","0.12935200139442374","0.09551053164403246","0.5019117031272533","0","","","","","","","","",""
"","html-keyboard-response","267","720923","0.0-141.0-1.0","""event"",""trial"",""time""
""fullscreenenter"",""0"",""3170""
","
","
","""event"",""trial"",""time""
""fullscreenenter"",""0"",""3170""
","
","null","<p></p>","null","","","","","","","","","","","","","","","","","","","","","","","",""
"","do_trial","268","724761","0.0-142.0-0.0","""event"",""trial"",""time""
""fullscreenenter"",""0"",""3170""
","
","
","""event"",""trial"",""time""
""fullscreenenter"",""0"",""3170""
","
","1292.800000011921","","","","","","","","49","1,0,1","6","blank","353","null","0.28389794076744085","0.05299640780361539","0.6083803127689403","1","","","","","","","","",""
"","html-keyboard-response","269","725768","0.0-142.0-1.0","""event"",""trial"",""time""
""fullscreenenter"",""0"",""3170""
","
","
","""event"",""trial"",""time""
""fullscreenenter"",""0"",""3170""
","
","null","<p></p>","null","","","","","","","","","","","","","","","","","","","","","","","",""
"","do_trial","270","731152","0.0-143.0-0.0","""event"",""trial"",""time""
""fullscreenenter"",""0"",""3170""
","
","
","""event"",""trial"",""time""
""fullscreenenter"",""0"",""3170""
","
","2855.399999976158","","","","","","","","49","0,0,0","6","blank","354","null","0.2741377308129326","0.07698772742089216","0.6799929042601867","0","","","","","","","","",""
"","html-keyboard-response","271","732160","0.0-143.0-1.0","""event"",""trial"",""time""
""fullscreenenter"",""0"",""3170""
","
","
","""event"",""trial"",""time""
""fullscreenenter"",""0"",""3170""
","
","null","<p></p>","null","","","","","","","","","","","","","","","","","","","","","","","",""
"","do_recog","272","735275","0.0-144.0-0.0","""event"",""trial"",""time""
""fullscreenenter"",""0"",""3170""
","
","
","""event"",""trial"",""time""
""fullscreenenter"",""0"",""3170""
","
","1605","","","","","","","","55","","","","355","probe-245","","","","","0","[object Object]","null","null","1","","","",""
"","html-keyboard-response","273","736284","0.0-144.0-1.0","""event"",""trial"",""time""
""fullscreenenter"",""0"",""3170""
","
","
","""event"",""trial"",""time""
""fullscreenenter"",""0"",""3170""
","
","null","<p></p>","null","","","","","","","","","","","","","","","","","","","","","","","",""
"","do_trial","274","741484","0.0-145.0-0.0","""event"",""trial"",""time""
""fullscreenenter"",""0"",""3170""
","
","
","""event"",""trial"",""time""
""fullscreenenter"",""0"",""3170""
","
","2663.0999999940395","","","","","","","","50","0,0,1","6","blank","356","null","0.41091086404544735","0.052955199119424194","0.5599809139807133","0","","","","","","","","",""
"","html-keyboard-response","275","742488","0.0-145.0-1.0","""event"",""trial"",""time""
""fullscreenenter"",""0"",""3170""
","
","
","""event"",""trial"",""time""
""fullscreenenter"",""0"",""3170""
","
","null","<p></p>","null","","","","","","","","","","","","","","","","","","","","","","","",""
"","do_trial","276","745477","0.0-146.0-0.0","""event"",""trial"",""time""
""fullscreenenter"",""0"",""3170""
","
","
","""event"",""trial"",""time""
""fullscreenenter"",""0"",""3170""
","
","446.80000001192093","","","","","","","","50","1,0,1","6","blank","357","null","0.5005503962767902","0.15502493268768272","0.5683070782630698","0","","","","","","","","",""
"","html-keyboard-response","277","746485","0.0-146.0-1.0","""event"",""trial"",""time""
""fullscreenenter"",""0"",""3170""
","
","
","""event"",""trial"",""time""
""fullscreenenter"",""0"",""3170""
","
