success,trial_type,trial_index,time_elapsed,internal_node_id,rt,stimulus,subject_id,key_press,response,choice_outcomes,context_n,context_img_id,trial_n,probe_img_id,pR_red,pR_white,pR_black,outcome,is_valid,image_to_show,probed_trial,probed_context,correct,context_id
TRUE,fullscreen,0,4848,0.0-0.0,,,,,,,,,,,,,,,,,,,,
,pavlovia,1,4861,0.0-1.0,,,,,,,,,,,,,,,,,,,,
,html-keyboard-response,2,17457,0.0-2.0,12595,"<div class='center'><p>Like yesterday,as the head captain of the ship, you have one important things to do: </p><b><p> Pick the pirate who you think will be most successful at robbing the next ship.</p></b><p>This is important in determining how much bonus money you’ll win.</p><br><p>The game will start by showing you the pirates. First pick a pirate using the <b> 1, 2, 3 </b> buttons on your keyboard. </p><p> Press <b>'1'</b> to choose red beard, <b>'2'</b> to choose white beard, and <b>'3'</b> to choose black beard</p><p> You only have 3 seconds to pick a pirate, so please make a choice quickly! If you are too slow, you’ll have to wait a bit during the time out.</p><p> Don’t feel rushed, but please do try to make a choice every time.</p><p>How good a pirate is at robbing a ship will change depending on the place they are in and how good the defenses are of the ship.</p><p><b>[Press the space bar to begin the practice game]</b></p></div>",61157d9ccbc29b6d2bfc63c9,32,,,,,,,,,,,,,,,,
,html-keyboard-response,3,38483,0.0-3.0,21022,"<div class='center'><p>You’ve arrived at the final island of your journey! Unfortunately, it’s very foggy out, so you won’t be able to see it in the distance like the previous islands you've visited.</p><p>You’ll still be deciding which pirate you want to rob a ship like before. However, because of the fog, you also won’t be able to see the ship.</p><p>This means you do not have to remember the ships you rob on this island.</p><p><b>[Press the space bar to continue]</b></p></div>",,32,,,,,,,,,,,,,,,,
,html-keyboard-response,4,48788,0.0-4.0,10304,"<div class='center'><p> Sometimes you’ll be shown a ship, and you will be asked if you saw this ship on a past island.</p><p> Here is an example of what you will see.</p><p><b>[Press the space bar to continue]</b></p><p><img src='run_exp/static/images/tutorial/example_recog_trial.png' height='500'></p></div>",,32,,,,,,,,,,,,,,,,
,html-keyboard-response,5,56848,0.0-5.0,8059,"<div class='center'><p> You will press the 5, 6, 7, 8 buttons on your keyboard to respond.</p><p>If you are very sure saw the ship, press <b>5</b> on your keyboard.</p><p> If you think you  saw it before but are not sure, then press <b>6</b>.</p><p> If you think you have not seen it before but are not sure, then press <b>7</b>.</p><p> If you are sure you did not see the ship before, then press <b>8</b>.</p><p><b>[Press the space bar to continue]</b></p><p><img src='run_exp/static/images/tutorial/example_recog_trial.png' height='500'></p></div>",,32,,,,,,,,,,,,,,,,
,html-keyboard-response,6,58877,0.0-6.0,2028,"<div class='center'><p> If you remember correctly, then you’ll get a gold coin like this: </p><p><img src='run_exp/static/images/tutorial/reward_small.png' height='200'></p><p>If you do not remember correctly, then you'll see a red x like this: </p><p><img src='run_exp/static/images/tutorial/reward_no.png' height='200'></p><p>Importantly, when you are shown a ship, take the time to remind yourself which island you saw it on. This will help you in the next part of the study.</p><p><b>[Press the space bar to continue]</b></p></div>",,32,,,,,,,,,,,,,,,,
,html-keyboard-response,7,67656,0.0-7.0,8778,"<div class='center'><p>Let's go over the important points again. Your job is to: </p><p>1. Pick the pirate who is best at robbing ships and will bring you back gold coins. </p><p>2. Correctly remember whether or not you saw a ship before. If you did see the ship before, remind yourself on which island you saw the ship. </p><p><b>[Press the space bar to begin the next part of the study]</b></p></div>",,32,,,,,,,,,,,,,,,,
,do_welcome,8,69174,0.0-8.0,null,,,,null,,,,,,,,,,,,,,,
,do_trial,9,74124,0.0-9.0-0.0,2395,,,,51,"1,0,1",6,blank,230,null,0.482092717,0.093539052,0.230794958,1,,,,,,
,html-keyboard-response,10,75127,0.0-9.0-1.0,null,<p></p>,,null,,,,,,,,,,,,,,,,
,do_trial,11,78675,0.0-10.0-0.0,1011,,,,51,"0,0,1",6,blank,231,null,0.666348434,0.091047989,0.27919952,1,,,,,,
,html-keyboard-response,12,79678,0.0-10.0-1.0,null,<p></p>,,null,,,,,,,,,,,,,,,,
,do_trial,13,82929,0.0-11.0-0.0,704,,,,51,"1,0,0",6,blank,232,null,0.624879043,0.08527343,0.304775418,0,,,,,,
,html-keyboard-response,14,83933,0.0-11.0-1.0,null,<p></p>,,null,,,,,,,,,,,,,,,,
,do_trial,15,87061,0.0-12.0-0.0,590,,,,51,"0,0,0",6,blank,233,null,0.65678778,0.174696309,0.256990063,0,,,,,,
,html-keyboard-response,16,88063,0.0-12.0-1.0,null,<p></p>,,null,,,,,,,,,,,,,,,,
,do_trial,17,91109,0.0-13.0-0.0,512,,,,50,"1,0,0",6,blank,234,null,0.651874008,0.167801278,0.301576304,0,,,,,,
,html-keyboard-response,18,92112,0.0-13.0-1.0,null,<p></p>,,null,,,,,,,,,,,,,,,,
,do_trial,19,94998,0.0-14.0-0.0,347,,,,51,"1,0,0",6,blank,235,null,0.749639691,0.141309502,0.328767193,0,,,,,,
,html-keyboard-response,20,96002,0.0-14.0-1.0,null,<p></p>,,null,,,,,,,,,,,,,,,,
,do_trial,21,98900,0.0-15.0-0.0,351,,,,49,"1,0,1",6,blank,236,null,0.72527918,0.143918872,0.367872018,1,,,,,,
,html-keyboard-response,22,99903,0.0-15.0-1.0,null,<p></p>,,null,,,,,,,,,,,,,,,,
,do_trial,23,102889,0.0-16.0-0.0,447,,,,49,"1,0,0",6,blank,237,null,0.709295029,0.070666218,0.183464803,1,,,,,,
,html-keyboard-response,24,103892,0.0-16.0-1.0,null,<p></p>,,null,,,,,,,,,,,,,,,,
,do_trial,25,106935,0.0-17.0-0.0,505,,,,49,"1,0,0",6,blank,238,null,0.767588617,0.078512322,0.372895315,1,,,,,,
,html-keyboard-response,26,107938,0.0-17.0-1.0,null,<p></p>,,null,,,,,,,,,,,,,,,,
,do_trial,27,110780,0.0-18.0-0.0,301,,,,49,"1,0,0",6,blank,239,null,0.779728134,0.114625675,0.364275425,1,,,,,,
,html-keyboard-response,28,111783,0.0-18.0-1.0,null,<p></p>,,null,,,,,,,,,,,,,,,,
,do_trial,29,114607,0.0-19.0-0.0,285,,,,49,"1,0,0",6,blank,240,null,0.776071437,0.13038031,0.296599053,1,,,,,,
,html-keyboard-response,30,115610,0.0-19.0-1.0,null,<p></p>,,null,,,,,,,,,,,,,,,,
,do_recog,31,121620,0.0-20.0-0.0,null,,,,null,,,,241,probe-41,,,,,1,[object Object],204,5,0,
,html-keyboard-response,32,122623,0.0-20.0-1.0,null,<p></p>,,null,,,,,,,,,,,,,,,,
,do_trial,33,126423,0.0-21.0-0.0,1261,,,,50,"0,0,1",6,blank,242,null,0.613531568,0.212294977,0.441848126,0,,,,,,
,html-keyboard-response,34,127425,0.0-21.0-1.0,null,<p></p>,,null,,,,,,,,,,,,,,,,
,do_trial,35,130412,0.0-22.0-0.0,447,,,,49,"0,0,0",6,blank,243,null,0.409159587,0.196932915,0.462532756,0,,,,,,
,html-keyboard-response,36,131415,0.0-22.0-1.0,null,<p></p>,,null,,,,,,,,,,,,,,,,
,do_trial,37,134296,0.0-23.0-0.0,336,,,,51,"0,0,0",6,blank,244,null,0.135255563,0.472113687,0.275499174,0,,,,,,
,html-keyboard-response,38,135300,0.0-23.0-1.0,null,<p></p>,,null,,,,,,,,,,,,,,,,
,do_trial,39,138132,0.0-24.0-0.0,291,,,,50,"0,0,1",6,blank,245,null,0.244312232,0.499298926,0.33178623,0,,,,,,
,html-keyboard-response,40,139138,0.0-24.0-1.0,null,<p></p>,,null,,,,,,,,,,,,,,,,
,do_trial,41,142024,0.0-25.0-0.0,342,,,,49,"0,1,0",6,blank,246,null,0.201818273,0.521886912,0.335098148,0,,,,,,
,html-keyboard-response,42,143030,0.0-25.0-1.0,null,<p></p>,,null,,,,,,,,,,,,,,,,
,do_trial,43,145968,0.0-26.0-0.0,400,,,,49,"0,0,1",6,blank,247,null,0.219387862,0.572233272,0.318438867,0,,,,,,
,html-keyboard-response,44,146974,0.0-26.0-1.0,null,<p></p>,,null,,,,,,,,,,,,,,,,
,do_trial,45,149815,0.0-27.0-0.0,298,,,,49,"0,0,0",6,blank,248,null,0.216003002,0.5290557,0.329008725,0,,,,,,
,html-keyboard-response,46,150818,0.0-27.0-1.0,null,<p></p>,,null,,,,,,,,,,,,,,,,
,do_recog,47,156826,0.0-28.0-0.0,null,,,,null,,,,249,probe-230,,,,,1,[object Object],161,4,0,
,html-keyboard-response,48,157829,0.0-28.0-1.0,null,<p></p>,,null,,,,,,,,,,,,,,,,
,do_trial,49,161230,0.0-29.0-0.0,859,,,,50,"0,0,1",6,blank,250,null,0.15083213,0.409973468,0.237133375,0,,,,,,
,html-keyboard-response,50,162233,0.0-29.0-1.0,null,<p></p>,,null,,,,,,,,,,,,,,,,
,do_trial,51,165067,0.0-30.0-0.0,294,,,,51,"0,1,0",6,blank,251,null,0.054788941,0.554772369,0.280089549,0,,,,,,
,html-keyboard-response,52,166071,0.0-30.0-1.0,null,<p></p>,,null,,,,,,,,,,,,,,,,
,do_trial,53,168853,0.0-31.0-0.0,243,,,,51,"1,1,0",6,blank,252,null,0.310148257,0.586087549,0.181725069,0,,,,,,
,html-keyboard-response,54,169855,0.0-31.0-1.0,null,<p></p>,,null,,,,,,,,,,,,,,,,
,do_trial,55,172712,0.0-32.0-0.0,317,,,,49,"0,0,0",6,blank,253,null,0.293690569,0.55585585,0.20764823,0,,,,,,
,html-keyboard-response,56,173714,0.0-32.0-1.0,null,<p></p>,,null,,,,,,,,,,,,,,,,
,do_trial,57,176584,0.0-33.0-0.0,332,,,,49,"0,1,0",6,blank,254,null,0.307469057,0.667726991,0.332725051,0,,,,,,
,html-keyboard-response,58,177587,0.0-33.0-1.0,null,<p></p>,,null,,,,,,,,,,,,,,,,
,do_recog,59,179919,0.0-34.0-0.0,825,,,,56,,,,255,probe-191,,,,,1,[object Object],120,3,0,
,html-keyboard-response,60,180921,0.0-34.0-1.0,null,<p></p>,,null,,,,,,,,,,,,,,,,
,do_trial,61,184329,0.0-35.0-0.0,861,,,,51,"0,1,1",6,blank,256,null,0.143382894,0.78791661,0.444482737,1,,,,,,
,html-keyboard-response,62,185333,0.0-35.0-1.0,null,<p></p>,,null,,,,,,,,,,,,,,,,
,do_recog,63,189365,0.0-36.0-0.0,2526,,,,56,,,,257,probe-172,,,,,1,[object Object],160,4,0,
,html-keyboard-response,64,190368,0.0-36.0-1.0,null,<p></p>,,null,,,,,,,,,,,,,,,,
,do_trial,65,194307,0.0-37.0-0.0,1407,,,,49,"0,1,0",6,blank,258,null,0.108830184,0.750353347,0.367314187,0,,,,,,
,html-keyboard-response,66,195311,0.0-37.0-1.0,null,<p></p>,,null,,,,,,,,,,,,,,,,
,do_recog,67,201320,0.0-38.0-0.0,null,,,,null,,,,259,probe-18,,,,,1,[object Object],42,1,0,
,html-keyboard-response,68,202324,0.0-38.0-1.0,null,<p></p>,,null,,,,,,,,,,,,,,,,
,do_trial,69,206211,0.0-39.0-0.0,1350,,,,51,"0,1,0",6,blank,260,null,0.142596999,0.757767411,0.24293224,0,,,,,,
,html-keyboard-response,70,207215,0.0-39.0-1.0,null,<p></p>,,null,,,,,,,,,,,,,,,,
,do_recog,71,209854,0.0-40.0-0.0,1132,,,,54,,,,261,probe-179,,,,,1,[object Object],124,3,1,
,html-keyboard-response,72,210858,0.0-40.0-1.0,null,<p></p>,,null,,,,,,,,,,,,,,,,
,do_trial,73,214101,0.0-41.0-0.0,704,,,,49,"0,1,1",6,blank,262,null,0.187825321,0.692553595,0.320387169,0,,,,,,
,html-keyboard-response,74,215105,0.0-41.0-1.0,null,<p></p>,,null,,,,,,,,,,,,,,,,
,do_recog,75,218897,0.0-42.0-0.0,2286,,,,55,,,,263,probe-30,,,,,1,[object Object],125,3,0,
,html-keyboard-response,76,219900,0.0-42.0-1.0,null,<p></p>,,null,,,,,,,,,,,,,,,,
,do_trial,77,223082,0.0-43.0-0.0,643,,,,49,"1,1,1",6,blank,264,null,0.148143298,0.751508091,0.363190085,1,,,,,,
,html-keyboard-response,78,224085,0.0-43.0-1.0,null,<p></p>,,null,,,,,,,,,,,,,,,,
,do_trial,79,227348,0.0-44.0-0.0,724,,,,49,"0,1,0",6,blank,265,null,0.131610478,0.732717778,0.390798895,0,,,,,,
,html-keyboard-response,80,228350,0.0-44.0-1.0,null,<p></p>,,null,,,,,,,,,,,,,,,,
,do_trial,81,231507,0.0-45.0-0.0,613,,,,49,"0,1,0",6,blank,266,null,0.18281497,0.709935922,0.418012403,0,,,,,,
,html-keyboard-response,82,232510,0.0-45.0-1.0,null,<p></p>,,null,,,,,,,,,,,,,,,,
,do_trial,83,235455,0.0-46.0-0.0,406,,,,51,"0,1,0",6,blank,267,null,0.232910617,0.623072861,0.4893422,0,,,,,,
,html-keyboard-response,84,236458,0.0-46.0-1.0,null,<p></p>,,null,,,,,,,,,,,,,,,,
,do_trial,85,239740,0.0-47.0-0.0,738,,,,50,"0,1,0",6,blank,268,null,0.077251191,0.64335938,0.330846547,1,,,,,,
,html-keyboard-response,86,240744,0.0-47.0-1.0,null,<p></p>,,null,,,,,,,,,,,,,,,,
,do_recog,87,244072,0.0-48.0-0.0,1818,,,,55,,,,269,probe-53,,,,,1,[object Object],129,3,0,
,html-keyboard-response,88,245076,0.0-48.0-1.0,null,<p></p>,,null,,,,,,,,,,,,,,,,
,do_trial,89,248452,0.0-49.0-0.0,817,,,,50,"0,0,1",6,blank,270,null,0.182545349,0.644476887,0.275591175,0,,,,,,
,html-keyboard-response,90,249455,0.0-49.0-1.0,null,<p></p>,,null,,,,,,,,,,,,,,,,
,do_trial,91,252359,0.0-50.0-0.0,346,,,,51,"1,0,0",6,blank,271,null,0.153456579,0.552865732,0.294295907,0,,,,,,
,html-keyboard-response,92,253364,0.0-50.0-1.0,null,<p></p>,,null,,,,,,,,,,,,,,,,
,do_trial,93,256811,0.0-51.0-0.0,891,,,,49,"0,1,0",6,blank,272,null,0.156963281,0.707328998,0.317915243,0,,,,,,
,html-keyboard-response,94,257814,0.0-51.0-1.0,null,<p></p>,,null,,,,,,,,,,,,,,,,
,do_trial,95,260839,0.0-52.0-0.0,470,,,,51,"0,0,0",6,blank,273,null,0.071041561,0.633721339,0.258972299,0,,,,,,
,html-keyboard-response,96,261843,0.0-52.0-1.0,null,<p></p>,,null,,,,,,,,,,,,,,,,
,do_recog,97,265207,0.0-53.0-0.0,1853,,,,53,,,,274,probe-25,,,,,1,[object Object],208,5,1,
,html-keyboard-response,98,266211,0.0-53.0-1.0,null,<p></p>,,null,,,,,,,,,,,,,,,,
,do_trial,99,269463,0.0-54.0-0.0,693,,,,50,"0,0,0",6,blank,275,null,0.169455665,0.545807922,0.304223202,0,,,,,,
,html-keyboard-response,100,270465,0.0-54.0-1.0,null,<p></p>,,null,,,,,,,,,,,,,,,,
,do_recog,101,273787,0.0-55.0-0.0,1816,,,,54,,,,276,probe-214,,,,,1,[object Object],122,3,1,
,html-keyboard-response,102,274790,0.0-55.0-1.0,null,<p></p>,,null,,,,,,,,,,,,,,,,
,do_trial,103,278340,0.0-56.0-0.0,993,,,,49,"0,0,1",6,blank,277,null,0.217164708,0.640870587,0.179723922,0,,,,,,
,html-keyboard-response,104,279345,0.0-56.0-1.0,null,<p></p>,,null,,,,,,,,,,,,,,,,
,do_trial,105,282488,0.0-57.0-0.0,582,,,,51,"0,1,0",6,blank,278,null,0.176830427,0.568449131,0.06065435,0,,,,,,
,html-keyboard-response,106,283493,0.0-57.0-1.0,null,<p></p>,,null,,,,,,,,,,,,,,,,
,do_recog,107,286514,0.0-58.0-0.0,1514,,,,55,,,,279,probe-157,,,,,1,[object Object],165,4,0,
,html-keyboard-response,108,287516,0.0-58.0-1.0,null,<p></p>,,null,,,,,,,,,,,,,,,,
,do_trial,109,290741,0.0-59.0-0.0,667,,,,50,"0,0,0",6,blank,280,null,0.090452082,0.545261967,0.061796278,0,,,,,,
,html-keyboard-response,110,291746,0.0-59.0-1.0,null,<p></p>,,null,,,,,,,,,,,,,,,,
,do_trial,111,295140,0.0-60.0-0.0,837,,,,51,"0,0,0",6,blank,281,null,0.081423008,0.604923482,0.133764535,0,,,,,,
,html-keyboard-response,112,296142,0.0-60.0-1.0,null,<p></p>,,null,,,,,,,,,,,,,,,,
,do_trial,113,299169,0.0-61.0-0.0,468,,,,49,"1,1,0",6,blank,282,null,0.196442138,0.670016887,0.17355174,1,,,,,,
,html-keyboard-response,114,300172,0.0-61.0-1.0,null,<p></p>,,null,,,,,,,,,,,,,,,,
,do_trial,115,303136,0.0-62.0-0.0,407,,,,49,"0,1,0",6,blank,283,null,0.099460337,0.708590248,0.118631664,0,,,,,,
,html-keyboard-response,116,304139,0.0-62.0-1.0,null,<p></p>,,null,,,,,,,,,,,,,,,,
,do_trial,117,307418,0.0-63.0-0.0,721,,,,49,"0,1,0",6,blank,284,null,0.052842451,0.77961365,0.184231185,0,,,,,,
,html-keyboard-response,118,308420,0.0-63.0-1.0,null,<p></p>,,null,,,,,,,,,,,,,,,,
,do_recog,119,310231,0.0-64.0-0.0,302,,,,55,,,,285,probe-204,,,,,1,[object Object],46,1,0,
,html-keyboard-response,120,311235,0.0-64.0-1.0,null,<p></p>,,null,,,,,,,,,,,,,,,,
,do_trial,121,314845,0.0-65.0-0.0,1053,,,,50,"0,0,0",6,blank,286,null,0.071192383,0.686587916,0.273391164,0,,,,,,
,html-keyboard-response,122,315848,0.0-65.0-1.0,null,<p></p>,,null,,,,,,,,,,,,,,,,
,do_recog,123,318384,0.0-66.0-0.0,1024,,,,54,,,,287,probe-10,,,,,1,[object Object],86,2,1,
,html-keyboard-response,124,319386,0.0-66.0-1.0,null,<p></p>,,null,,,,,,,,,,,,,,,,
,do_trial,125,322678,0.0-67.0-0.0,735,,,,50,"0,1,0",6,blank,288,null,0.1845825,0.626918421,0.190641513,1,,,,,,
,html-keyboard-response,126,323682,0.0-67.0-1.0,null,<p></p>,,null,,,,,,,,,,,,,,,,
,do_trial,127,326558,0.0-68.0-0.0,316,,,,50,"0,1,1",6,blank,289,null,0.130002621,0.604237732,0.191473734,1,,,,,,
,html-keyboard-response,128,327561,0.0-68.0-1.0,null,<p></p>,,null,,,,,,,,,,,,,,,,
,do_trial,129,330718,0.0-69.0-0.0,601,,,,50,"1,1,0",6,blank,290,null,0.237886912,0.684768478,0.215484135,1,,,,,,
,html-keyboard-response,130,331721,0.0-69.0-1.0,null,<p></p>,,null,,,,,,,,,,,,,,,,
,do_trial,131,334764,0.0-70.0-0.0,486,,,,50,"0,1,0",6,blank,291,null,0.231701433,0.663837978,0.271675268,1,,,,,,
,html-keyboard-response,132,335767,0.0-70.0-1.0,null,<p></p>,,null,,,,,,,,,,,,,,,,
,do_recog,133,338149,0.0-71.0-0.0,874,,,,54,,,,292,probe-01,,,,,1,[object Object],85,2,1,
,html-keyboard-response,134,339153,0.0-71.0-1.0,null,<p></p>,,null,,,,,,,,,,,,,,,,
,do_trial,135,342531,0.0-72.0-0.0,823,,,,51,"0,0,0",6,blank,293,null,0.151677564,0.596696945,0.287836379,0,,,,,,
,html-keyboard-response,136,343534,0.0-72.0-1.0,null,<p></p>,,null,,,,,,,,,,,,,,,,
,do_recog,137,346105,0.0-73.0-0.0,1061,,,,54,,,,294,probe-223,,,,,1,[object Object],209,5,1,
,html-keyboard-response,138,347107,0.0-73.0-1.0,null,<p></p>,,null,,,,,,,,,,,,,,,,
,do_trial,139,350303,0.0-74.0-0.0,642,,,,50,"0,0,0",6,blank,295,null,0.12245922,0.588773357,0.311224333,0,,,,,,
,html-keyboard-response,140,351306,0.0-74.0-1.0,null,<p></p>,,null,,,,,,,,,,,,,,,,
,do_recog,141,353805,0.0-75.0-0.0,991,,,,54,,,,296,probe-40,,,,,1,[object Object],44,1,1,
,html-keyboard-response,142,354808,0.0-75.0-1.0,null,<p></p>,,null,,,,,,,,,,,,,,,,
,do_trial,143,358056,0.0-76.0-0.0,663,,,,49,"0,0,0",6,blank,297,null,0.103989713,0.409811451,0.376952977,0,,,,,,
,html-keyboard-response,144,359059,0.0-76.0-1.0,null,<p></p>,,null,,,,,,,,,,,,,,,,
,do_trial,145,361948,0.0-77.0-0.0,332,,,,50,"0,1,0",6,blank,298,null,0.078260841,0.353864137,0.530092148,1,,,,,,
,html-keyboard-response,146,362952,0.0-77.0-1.0,null,<p></p>,,null,,,,,,,,,,,,,,,,
,do_trial,147,365995,0.0-78.0-0.0,490,,,,50,"1,0,0",6,blank,299,null,0.093255708,0.25184298,0.620493565,0,,,,,,
,html-keyboard-response,148,366998,0.0-78.0-1.0,null,<p></p>,,null,,,,,,,,,,,,,,,,
,do_recog,149,369400,0.0-79.0-0.0,893,,,,54,,,,300,probe-93,,,,,1,[object Object],41,1,1,
,html-keyboard-response,150,370402,0.0-79.0-1.0,null,<p></p>,,null,,,,,,,,,,,,,,,,
,do_trial,151,374136,0.0-80.0-0.0,1176,,,,51,"1,1,1",6,blank,301,null,0.153078463,0.277173679,0.643250393,1,,,,,,
,html-keyboard-response,152,375140,0.0-80.0-1.0,null,<p></p>,,null,,,,,,,,,,,,,,,,
,do_trial,153,378018,0.0-81.0-0.0,322,,,,51,"0,0,0",6,blank,302,null,0.131942851,0.250850742,0.544460596,0,,,,,,
,html-keyboard-response,154,379021,0.0-81.0-1.0,null,<p></p>,,null,,,,,,,,,,,,,,,,
,do_trial,155,381970,0.0-82.0-0.0,393,,,,49,"0,0,1",6,blank,303,null,0.108263732,0.344532865,0.512885754,0,,,,,,
,html-keyboard-response,156,382972,0.0-82.0-1.0,null,<p></p>,,null,,,,,,,,,,,,,,,,
,do_trial,157,385928,0.0-83.0-0.0,402,,,,51,"0,1,1",6,blank,304,null,0.146298162,0.375105626,0.519752618,1,,,,,,
,html-keyboard-response,158,386931,0.0-83.0-1.0,null,<p></p>,,null,,,,,,,,,,,,,,,,
,do_trial,159,389899,0.0-84.0-0.0,423,,,,51,"0,1,1",6,blank,305,null,0.12660714,0.464441739,0.412003657,1,,,,,,
,html-keyboard-response,160,390902,0.0-84.0-1.0,null,<p></p>,,null,,,,,,,,,,,,,,,,
,do_trial,161,393894,0.0-85.0-0.0,452,,,,51,"0,1,1",6,blank,306,null,0.154870565,0.450533625,0.426954077,1,,,,,,
,html-keyboard-response,162,394898,0.0-85.0-1.0,null,<p></p>,,null,,,,,,,,,,,,,,,,
,do_recog,163,397265,0.0-86.0-0.0,860,,,,54,,,,307,probe-54,,,,,1,[object Object],80,2,1,
,html-keyboard-response,164,398269,0.0-86.0-1.0,null,<p></p>,,null,,,,,,,,,,,,,,,,
,do_trial,165,401760,0.0-87.0-0.0,950,,,,51,"1,0,1",6,blank,308,null,0.233359481,0.389758957,0.437819397,1,,,,,,
,html-keyboard-response,166,402763,0.0-87.0-1.0,null,<p></p>,,null,,,,,,,,,,,,,,,,
,do_trial,167,405629,0.0-88.0-0.0,328,,,,51,"0,1,0",6,blank,309,null,0.138253386,0.474497236,0.494904885,0,,,,,,
,html-keyboard-response,168,406632,0.0-88.0-1.0,null,<p></p>,,null,,,,,,,,,,,,,,,,
,do_trial,169,409529,0.0-89.0-0.0,356,,,,50,"1,0,1",6,blank,310,null,0.134801824,0.408614021,0.511130309,0,,,,,,
,html-keyboard-response,170,410534,0.0-89.0-1.0,null,<p></p>,,null,,,,,,,,,,,,,,,,
,do_recog,171,412900,0.0-90.0-0.0,858,,,,54,,,,311,probe-201,,,,,1,[object Object],167,4,1,
,html-keyboard-response,172,413903,0.0-90.0-1.0,null,<p></p>,,null,,,,,,,,,,,,,,,,
,do_trial,173,417230,0.0-91.0-0.0,785,,,,51,"0,0,1",6,blank,312,null,0.090689632,0.396875957,0.702507302,1,,,,,,
,html-keyboard-response,174,418232,0.0-91.0-1.0,null,<p></p>,,null,,,,,,,,,,,,,,,,
,do_trial,175,421226,0.0-92.0-0.0,437,,,,51,"0,0,0",6,blank,313,null,0.107556334,0.347961581,0.541199404,0,,,,,,
,html-keyboard-response,176,422229,0.0-92.0-1.0,null,<p></p>,,null,,,,,,,,,,,,,,,,
,do_trial,177,425116,0.0-93.0-0.0,348,,,,51,"0,0,0",6,blank,314,null,0.095058957,0.24645437,0.619644692,0,,,,,,
,html-keyboard-response,178,426119,0.0-93.0-1.0,null,<p></p>,,null,,,,,,,,,,,,,,,,
,do_recog,179,429573,0.0-94.0-0.0,1947,,,,54,,,,315,probe-16,,,,,1,[object Object],47,1,1,
,html-keyboard-response,180,430575,0.0-94.0-1.0,null,<p></p>,,null,,,,,,,,,,,,,,,,
,do_trial,181,433860,0.0-95.0-0.0,748,,,,51,"0,0,1",6,blank,316,null,0.147249366,0.182430298,0.708300682,1,,,,,,
,html-keyboard-response,182,434863,0.0-95.0-1.0,null,<p></p>,,null,,,,,,,,,,,,,,,,
,do_trial,183,437732,0.0-96.0-0.0,331,,,,51,"1,0,0",6,blank,317,null,0.080828168,0.195356996,0.608928607,0,,,,,,
,html-keyboard-response,184,438735,0.0-96.0-1.0,null,<p></p>,,null,,,,,,,,,,,,,,,,
,do_trial,185,441611,0.0-97.0-0.0,337,,,,51,"0,0,0",6,blank,318,null,0.109623287,0.25802962,0.569646883,0,,,,,,
,html-keyboard-response,186,442614,0.0-97.0-1.0,null,<p></p>,,null,,,,,,,,,,,,,,,,
,do_recog,187,445818,0.0-98.0-0.0,1697,,,,54,,,,319,probe-166,,,,,1,[object Object],164,4,1,
,html-keyboard-response,188,446820,0.0-98.0-1.0,null,<p></p>,,null,,,,,,,,,,,,,,,,
,do_trial,189,450327,0.0-99.0-0.0,962,,,,49,"0,1,1",6,blank,320,null,0.076749584,0.246820971,0.430559976,0,,,,,,
,html-keyboard-response,190,451330,0.0-99.0-1.0,null,<p></p>,,null,,,,,,,,,,,,,,,,
,do_recog,191,454115,0.0-100.0-0.0,1277,,,,54,,,,321,probe-160,,,,,1,[object Object],40,1,1,
,html-keyboard-response,192,455117,0.0-100.0-1.0,null,<p></p>,,null,,,,,,,,,,,,,,,,
,do_trial,193,458334,0.0-101.0-0.0,671,,,,51,"0,1,0",6,blank,322,null,0.200248462,0.377812094,0.557516059,0,,,,,,
,html-keyboard-response,194,459336,0.0-101.0-1.0,null,<p></p>,,null,,,,,,,,,,,,,,,,
,do_trial,195,462348,0.0-102.0-0.0,474,,,,50,"0,0,0",6,blank,323,null,0.111250492,0.237650314,0.475334187,0,,,,,,
,html-keyboard-response,196,463351,0.0-102.0-1.0,null,<p></p>,,null,,,,,,,,,,,,,,,,
,do_trial,197,466244,0.0-103.0-0.0,355,,,,51,"0,1,1",6,blank,324,null,0.125853608,0.312866776,0.564147651,1,,,,,,
,html-keyboard-response,198,467248,0.0-103.0-1.0,null,<p></p>,,null,,,,,,,,,,,,,,,,
,do_trial,199,470183,0.0-104.0-0.0,397,,,,51,"0,0,1",6,blank,325,null,0.116469038,0.338528899,0.643408387,1,,,,,,
,html-keyboard-response,200,471187,0.0-104.0-1.0,null,<p></p>,,null,,,,,,,,,,,,,,,,
,do_trial,201,474220,0.0-105.0-0.0,495,,,,51,"0,0,1",6,blank,326,null,0.247788617,0.150650935,0.730607525,1,,,,,,
,html-keyboard-response,202,475223,0.0-105.0-1.0,null,<p></p>,,null,,,,,,,,,,,,,,,,
,do_recog,203,477572,0.0-106.0-0.0,843,,,,54,,,,327,probe-203,,,,,1,[object Object],162,4,1,
,html-keyboard-response,204,478574,0.0-106.0-1.0,null,<p></p>,,null,,,,,,,,,,,,,,,,
,do_trial,205,481808,0.0-107.0-0.0,696,,,,51,"0,0,1",6,blank,328,null,0.239744518,0.335885401,0.588879505,1,,,,,,
,html-keyboard-response,206,482811,0.0-107.0-1.0,null,<p></p>,,null,,,,,,,,,,,,,,,,
,do_recog,207,485131,0.0-108.0-0.0,812,,,,54,,,,329,probe-142,,,,,1,[object Object],203,5,1,
,html-keyboard-response,208,486138,0.0-108.0-1.0,null,<p></p>,,null,,,,,,,,,,,,,,,,
,do_trial,209,489378,0.0-109.0-0.0,702,,,,51,"0,0,1",6,blank,330,null,0.172569433,0.465856182,0.573210295,1,,,,,,
,html-keyboard-response,210,490381,0.0-109.0-1.0,null,<p></p>,,null,,,,,,,,,,,,,,,,
,do_trial,211,493474,0.0-110.0-0.0,554,,,,51,"0,0,0",6,blank,331,null,0.191030431,0.410252627,0.551405779,0,,,,,,
,html-keyboard-response,212,494477,0.0-110.0-1.0,null,<p></p>,,null,,,,,,,,,,,,,,,,
,do_trial,213,498018,0.0-111.0-0.0,1002,,,,50,"0,0,1",6,blank,332,null,0.192815069,0.372860634,0.482638661,0,,,,,,
,html-keyboard-response,214,499021,0.0-111.0-1.0,null,<p></p>,,null,,,,,,,,,,,,,,,,
,do_trial,215,501907,0.0-112.0-0.0,349,,,,49,"0,0,1",6,blank,333,null,0.13270701,0.37977308,0.582700481,0,,,,,,
,html-keyboard-response,216,502909,0.0-112.0-1.0,null,<p></p>,,null,,,,,,,,,,,,,,,,
,do_trial,217,505804,0.0-113.0-0.0,355,,,,51,"1,0,1",6,blank,334,null,0.126658641,0.296124993,0.632580082,1,,,,,,
,html-keyboard-response,218,506809,0.0-113.0-1.0,null,<p></p>,,null,,,,,,,,,,,,,,,,
,do_trial,219,509770,0.0-114.0-0.0,424,,,,51,"0,1,1",6,blank,335,null,0.147041585,0.392150004,0.658348168,1,,,,,,
,html-keyboard-response,220,510773,0.0-114.0-1.0,null,<p></p>,,null,,,,,,,,,,,,,,,,
,do_trial,221,513843,0.0-115.0-0.0,533,,,,51,"0,1,1",6,blank,336,null,0.137952849,0.550322785,0.640896053,1,,,,,,
,html-keyboard-response,222,514847,0.0-115.0-1.0,null,<p></p>,,null,,,,,,,,,,,,,,,,
,do_recog,223,518375,0.0-116.0-0.0,2020,,,,54,,,,337,probe-140,,,,,1,[object Object],88,2,1,
,html-keyboard-response,224,519378,0.0-116.0-1.0,null,<p></p>,,null,,,,,,,,,,,,,,,,
,do_trial,225,522474,0.0-117.0-0.0,556,,,,51,"0,0,1",6,blank,338,null,0.170511024,0.354253657,0.541679762,1,,,,,,
,html-keyboard-response,226,523477,0.0-117.0-1.0,null,<p></p>,,null,,,,,,,,,,,,,,,,
,do_recog,227,525997,0.0-118.0-0.0,1011,,,,54,,,,339,probe-75,,,,,1,[object Object],206,5,1,
,html-keyboard-response,228,527000,0.0-118.0-1.0,null,<p></p>,,null,,,,,,,,,,,,,,,,
,do_trial,229,530164,0.0-119.0-0.0,623,,,,51,"0,0,1",6,blank,340,null,0.118989121,0.318654576,0.758893011,1,,,,,,
,html-keyboard-response,230,531166,0.0-119.0-1.0,null,<p></p>,,null,,,,,,,,,,,,,,,,
,do_recog,231,534003,0.0-120.0-0.0,1331,,,,54,,,,341,probe-94,,,,,1,[object Object],83,2,1,
,html-keyboard-response,232,535006,0.0-120.0-1.0,null,<p></p>,,null,,,,,,,,,,,,,,,,
,do_trial,233,538348,0.0-121.0-0.0,805,,,,51,"0,0,0",6,blank,342,null,0.143485515,0.425447287,0.695775065,0,,,,,,
,html-keyboard-response,234,539354,0.0-121.0-1.0,null,<p></p>,,null,,,,,,,,,,,,,,,,
,do_recog,235,541786,0.0-122.0-0.0,925,,,,54,,,,343,probe-226,,,,,1,[object Object],87,2,1,
,html-keyboard-response,236,542789,0.0-122.0-1.0,null,<p></p>,,null,,,,,,,,,,,,,,,,
,do_trial,237,545909,0.0-123.0-0.0,580,,,,50,"0,1,0",6,blank,344,null,0.063293849,0.423901398,0.637392078,1,,,,,,
,html-keyboard-response,238,546911,0.0-123.0-1.0,null,<p></p>,,null,,,,,,,,,,,,,,,,
,do_trial,239,549752,0.0-124.0-0.0,300,,,,50,"0,1,1",6,blank,345,null,0.168470957,0.262345366,0.583280064,1,,,,,,
,html-keyboard-response,240,550756,0.0-124.0-1.0,null,<p></p>,,null,,,,,,,,,,,,,,,,
,do_trial,241,553670,0.0-125.0-0.0,376,,,,50,"0,0,1",6,blank,346,null,0.143054602,0.234334953,0.658141677,0,,,,,,
,html-keyboard-response,242,554673,0.0-125.0-1.0,null,<p></p>,,null,,,,,,,,,,,,,,,,
,do_trial,243,558089,0.0-126.0-0.0,878,,,,50,"0,0,0",6,blank,347,null,0.129907697,0.281564571,0.650718893,0,,,,,,
,html-keyboard-response,244,559092,0.0-126.0-1.0,null,<p></p>,,null,,,,,,,,,,,,,,,,
,do_trial,245,562117,0.0-127.0-0.0,485,,,,51,"0,1,1",6,blank,348,null,0.06017745,0.292599423,0.630386288,1,,,,,,
,html-keyboard-response,246,563120,0.0-127.0-1.0,null,<p></p>,,null,,,,,,,,,,,,,,,,
,do_trial,247,565798,0.0-128.0-0.0,140,,,,50,"0,1,1",6,blank,349,null,0.075141122,0.422427774,0.628396029,1,,,,,,
,html-keyboard-response,248,566801,0.0-128.0-1.0,null,<p></p>,,null,,,,,,,,,,,,,,,,
,do_trial,249,570067,0.0-129.0-0.0,729,,,,51,"0,1,0",6,blank,350,null,0.090444641,0.521970102,0.483292497,0,,,,,,
,html-keyboard-response,250,571070,0.0-129.0-1.0,null,<p></p>,,null,,,,,,,,,,,,,,,,
,do_recog,251,573806,0.0-130.0-0.0,1229,,,,54,,,,351,probe-228,,,,,1,[object Object],207,5,1,
,html-keyboard-response,252,574808,0.0-130.0-1.0,null,<p></p>,,null,,,,,,,,,,,,,,,,
,do_trial,253,578000,0.0-131.0-0.0,657,,,,50,"0,1,0",6,blank,352,null,0.093501379,0.587635917,0.465093901,1,,,,,,
,html-keyboard-response,254,579003,0.0-131.0-1.0,null,<p></p>,,null,,,,,,,,,,,,,,,,
,do_trial,255,581880,0.0-132.0-0.0,336,,,,50,"0,1,1",6,blank,353,null,0.151708196,0.524140997,0.317024431,1,,,,,,
,html-keyboard-response,256,582882,0.0-132.0-1.0,null,<p></p>,,null,,,,,,,,,,,,,,,,
,do_trial,257,585735,0.0-133.0-0.0,317,,,,50,"0,1,1",6,blank,354,null,0.124634054,0.601188916,0.272466331,1,,,,,,
,html-keyboard-response,258,586738,0.0-133.0-1.0,null,<p></p>,,null,,,,,,,,,,,,,,,,
,do_trial,259,589696,0.0-134.0-0.0,399,,,,50,"0,1,1",6,blank,355,null,0.24669672,0.585108656,0.297637022,1,,,,,,
,html-keyboard-response,260,590698,0.0-134.0-1.0,null,<p></p>,,null,,,,,,,,,,,,,,,,
,do_trial,261,594089,0.0-135.0-0.0,848,,,,50,"0,1,0",6,blank,356,null,0.205110328,0.480648328,0.170683812,1,,,,,,
,html-keyboard-response,262,595091,0.0-135.0-1.0,null,<p></p>,,null,,,,,,,,,,,,,,,,
,do_trial,263,598022,0.0-136.0-0.0,394,,,,50,"0,1,0",6,blank,357,null,0.062154092,0.542995279,0.293541604,1,,,,,,
,html-keyboard-response,264,599024,0.0-136.0-1.0,null,<p></p>,,null,,,,,,,,,,,,,,,,
,do_trial,265,601957,0.0-137.0-0.0,390,,,,50,"0,1,0",6,blank,358,null,0.106235863,0.559158718,0.187697833,1,,,,,,
,html-keyboard-response,266,602958,0.0-137.0-1.0,null,<p></p>,,null,,,,,,,,,,,,,,,,
,do_recog,267,605543,0.0-138.0-0.0,1080,,,,54,,,,359,probe-148,,,,,1,[object Object],166,4,1,
,html-keyboard-response,268,606546,0.0-138.0-1.0,null,<p></p>,,null,,,,,,,,,,,,,,,,
,do_trial,269,609823,0.0-139.0-0.0,738,,,,50,"0,0,0",6,blank,360,null,0.066334531,0.656940945,0.223331273,0,,,,,,
,html-keyboard-response,270,610827,0.0-139.0-1.0,null,<p></p>,,null,,,,,,,,,,,,,,,,
,do_trial,271,613806,0.0-140.0-0.0,441,,,,51,"0,1,1",6,blank,361,null,0.108592626,0.681888715,0.364464535,1,,,,,,
,html-keyboard-response,272,614808,0.0-140.0-1.0,null,<p></p>,,null,,,,,,,,,,,,,,,,
,do_trial,273,617905,0.0-141.0-0.0,558,,,,51,"1,1,1",6,blank,362,null,0.124821043,0.591693552,0.359960722,1,,,,,,
,html-keyboard-response,274,618908,0.0-141.0-1.0,null,<p></p>,,null,,,,,,,,,,,,,,,,
,do_trial,275,622013,0.0-142.0-0.0,564,,,,51,"0,0,0",6,blank,363,null,0.186533274,0.568453046,0.340942836,0,,,,,,
,html-keyboard-response,276,623015,0.0-142.0-1.0,null,<p></p>,,null,,,,,,,,,,,,,,,,
,do_recog,277,625979,0.0-143.0-0.0,1457,,,,54,,,,364,probe-199,,,,,1,[object Object],45,1,1,
,html-keyboard-response,278,626983,0.0-143.0-1.0,null,<p></p>,,null,,,,,,,,,,,,,,,,
,do_trial,279,630611,0.0-144.0-0.0,1090,,,,50,"0,0,1",6,blank,365,null,0.13495895,0.488423185,0.314021134,0,,,,,,
,html-keyboard-response,280,631615,0.0-144.0-1.0,null,<p></p>,,null,,,,,,,,,,,,,,,,
,do_trial,281,635681,0.0-145.0-0.0,1528,,,,51,"0,1,0",6,blank,366,null,0.126828833,0.598983023,0.40417236,0,,,,,,
,html-keyboard-response,282,636684,0.0-145.0-1.0,null,<p></p>,,null,,,,,,,,,,,,,,,,
,do_trial,283,640416,0.0-146.0-0.0,1194,,,,50,"0,0,1",6,blank,367,null,0.124789189,0.511444096,0.226398113,0,,,,,,
,html-keyboard-response,284,641419,0.0-146.0-1.0,null,<p></p>,,null,,,,,,,,,,,,,,,,
,do_trial,285,644475,0.0-147.0-0.0,516,,,,50,"0,0,1",6,blank,368,null,0.052285741,0.541801789,0.312190586,0,,,,,,
,html-keyboard-response,286,645478,0.0-147.0-1.0,null,<p></p>,,null,,,,,,,,,,,,,,,,
,do_trial,287,648212,0.0-148.0-0.0,196,,,,51,"0,1,0",6,blank,369,null,0.142678437,0.463825973,0.299641086,0,,,,,,
,html-keyboard-response,288,649215,0.0-148.0-1.0,null,<p></p>,,null,,,,,,,,,,,,,,,,
,do_trial,289,652103,0.0-149.0-0.0,350,,,,49,"0,0,0",6,blank,370,null,0.146356623,0.616669981,0.297076364,0,,,,,,
,html-keyboard-response,290,653106,0.0-149.0-1.0,null,<p></p>,,null,,,,,,,,,,,,,,,,
,do_recog,291,656322,0.0-150.0-0.0,1709,,,,54,,,,371,probe-32,,,,,1,[object Object],48,1,1,
,html-keyboard-response,292,657325,0.0-150.0-1.0,null,<p></p>,,null,,,,,,,,,,,,,,,,
,do_trial,293,660516,0.0-151.0-0.0,652,,,,50,"0,1,0",6,blank,372,null,0.146977096,0.575307062,0.187183278,1,,,,,,
,html-keyboard-response,294,661519,0.0-151.0-1.0,null,<p></p>,,null,,,,,,,,,,,,,,,,
,do_trial,295,664392,0.0-152.0-0.0,335,,,,50,"0,1,0",6,blank,373,null,0.101690429,0.411541686,0.185938995,1,,,,,,
,html-keyboard-response,296,665396,0.0-152.0-1.0,null,<p></p>,,null,,,,,,,,,,,,,,,,
,do_trial,297,668267,0.0-153.0-0.0,333,,,,50,"0,0,0",6,blank,374,null,0.074985681,0.32075731,0.280529763,0,,,,,,
,html-keyboard-response,298,669270,0.0-153.0-1.0,null,<p></p>,,null,,,,,,,,,,,,,,,,
,do_trial,299,672138,0.0-154.0-0.0,329,,,,51,"0,1,0",6,blank,375,null,0.128191726,0.480196462,0.338183147,0,,,,,,
,html-keyboard-response,300,673140,0.0-154.0-1.0,null,<p></p>,,null,,,,,,,,,,,,,,,,
,do_trial,301,676237,0.0-155.0-0.0,556,,,,49,"0,1,1",6,blank,376,null,0.091602358,0.434598158,0.462801181,0,,,,,,
,html-keyboard-response,302,677240,0.0-155.0-1.0,null,<p></p>,,null,,,,,,,,,,,,,,,,
,do_recog,303,680715,0.0-156.0-0.0,1965,,,,54,,,,377,probe-144,,,,,1,[object Object],163,4,1,
,html-keyboard-response,304,681718,0.0-156.0-1.0,null,<p></p>,,null,,,,,,,,,,,,,,,,
,do_trial,305,685409,0.0-157.0-0.0,1149,,,,49,"0,1,0",6,blank,378,null,0.19408148,0.48626798,0.488545004,0,,,,,,
,html-keyboard-response,306,686412,0.0-157.0-1.0,null,<p></p>,,null,,,,,,,,,,,,,,,,
,do_trial,307,689572,0.0-158.0-0.0,619,,,,50,"0,0,1",6,blank,379,null,0.120264545,0.525921488,0.39502359,0,,,,,,
,html-keyboard-response,308,690573,0.0-158.0-1.0,null,<p></p>,,null,,,,,,,,,,,,,,,,
,do_trial,309,693533,0.0-159.0-0.0,415,,,,50,"0,0,0",6,blank,380,null,0.096100986,0.468698128,0.239024732,0,,,,,,
,html-keyboard-response,310,694537,0.0-159.0-1.0,null,<p></p>,,null,,,,,,,,,,,,,,,,
,do_trial,311,697244,0.0-160.0-0.0,166,,,,51,"1,1,0",6,blank,381,null,0.218522646,0.432078206,0.226819167,0,,,,,,
,html-keyboard-response,312,698246,0.0-160.0-1.0,null,<p></p>,,null,,,,,,,,,,,,,,,,
,do_trial,313,700897,0.0-161.0-0.0,109,,,,50,"0,1,0",6,blank,382,null,0.278092711,0.523949168,0.153060246,1,,,,,,
,html-keyboard-response,314,701901,0.0-161.0-1.0,null,<p></p>,,null,,,,,,,,,,,,,,,,
,do_trial,315,705053,0.0-162.0-0.0,609,,,,50,"0,0,0",6,blank,383,null,0.35580194,0.603405499,0.250929972,0,,,,,,
,html-keyboard-response,316,706055,0.0-162.0-1.0,null,<p></p>,,null,,,,,,,,,,,,,,,,
,do_recog,317,709277,0.0-163.0-0.0,1713,,,,54,,,,384,probe-171,,,,,1,[object Object],127,3,1,
,html-keyboard-response,318,710278,0.0-163.0-1.0,null,<p></p>,,null,,,,,,,,,,,,,,,,
,do_trial,319,713542,0.0-164.0-0.0,727,,,,49,"1,1,0",6,blank,385,null,0.386594076,0.51678669,0.367008586,1,,,,,,
,html-keyboard-response,320,714548,0.0-164.0-1.0,null,<p></p>,,null,,,,,,,,,,,,,,,,
,do_trial,321,717620,0.0-165.0-0.0,532,,,,49,"0,1,0",6,blank,386,null,0.305110066,0.677303269,0.278928965,0,,,,,,
,html-keyboard-response,322,718625,0.0-165.0-1.0,null,<p></p>,,null,,,,,,,,,,,,,,,,
,do_trial,323,721556,0.0-166.0-0.0,390,,,,50,"0,1,1",6,blank,387,null,0.259435419,0.598332839,0.147845463,1,,,,,,
,html-keyboard-response,324,722562,0.0-166.0-1.0,null,<p></p>,,null,,,,,,,,,,,,,,,,
,do_trial,325,725478,0.0-167.0-0.0,374,,,,50,"1,1,0",6,blank,388,null,0.185125211,0.57217708,0.117869765,1,,,,,,
,html-keyboard-response,326,726484,0.0-167.0-1.0,null,<p></p>,,null,,,,,,,,,,,,,,,,
,do_recog,327,729113,0.0-168.0-0.0,1122,,,,55,,,,389,probe-102,,,,,1,[object Object],81,2,0,
,html-keyboard-response,328,730118,0.0-168.0-1.0,null,<p></p>,,null,,,,,,,,,,,,,,,,
,do_trial,329,733266,0.0-169.0-0.0,609,,,,50,"0,1,0",6,blank,390,null,0.170941408,0.502359658,0.112686898,1,,,,,,
,html-keyboard-response,330,734270,0.0-169.0-1.0,null,<p></p>,,null,,,,,,,,,,,,,,,,
,do_trial,331,737078,0.0-170.0-0.0,263,,,,50,"0,1,1",6,blank,391,null,0.210255995,0.550549528,0.208086783,1,,,,,,
,html-keyboard-response,332,738081,0.0-170.0-1.0,null,<p></p>,,null,,,,,,,,,,,,,,,,
,do_recog,333,740676,0.0-171.0-0.0,1088,,,,55,,,,392,probe-213,,,,,1,[object Object],128,3,0,
,html-keyboard-response,334,741679,0.0-171.0-1.0,null,<p></p>,,null,,,,,,,,,,,,,,,,
,do_trial,335,746537,0.0-172.0-0.0,2317,,,,50,"0,1,0",6,blank,393,null,0.1043653,0.73057454,0.206834588,1,,,,,,
,html-keyboard-response,336,747542,0.0-172.0-1.0,null,<p></p>,,null,,,,,,,,,,,,,,,,
,do_recog,337,750718,0.0-173.0-0.0,1670,,,,54,,,,394,probe-229,,,,,1,[object Object],123,3,1,
,html-keyboard-response,338,751721,0.0-173.0-1.0,null,<p></p>,,null,,,,,,,,,,,,,,,,
,do_trial,339,755019,0.0-174.0-0.0,757,,,,51,"0,1,0",6,blank,395,null,0.106593832,0.640690602,0.064436043,0,,,,,,
,html-keyboard-response,340,756025,0.0-174.0-1.0,null,<p></p>,,null,,,,,,,,,,,,,,,,
,do_trial,341,759025,0.0-175.0-0.0,435,,,,50,"0,1,0",6,blank,396,null,0.129944724,0.755383153,0.095004411,1,,,,,,
,html-keyboard-response,342,760030,0.0-175.0-1.0,null,<p></p>,,null,,,,,,,,,,,,,,,,
,do_trial,343,763098,0.0-176.0-0.0,499,,,,50,"0,1,0",6,blank,397,null,0.113562454,0.616883048,0.053149118,1,,,,,,
,html-keyboard-response,344,764102,0.0-176.0-1.0,null,<p></p>,,null,,,,,,,,,,,,,,,,
,do_trial,345,767153,0.0-177.0-0.0,450,,,,50,"0,1,0",6,blank,398,null,0.160309585,0.632904771,0.130139722,1,,,,,,
,html-keyboard-response,346,768159,0.0-177.0-1.0,null,<p></p>,,null,,,,,,,,,,,,,,,,
,do_trial,347,771068,0.0-178.0-0.0,371,,,,50,"0,1,0",6,blank,399,null,0.297236807,0.519524093,0.121473524,1,,,,,,
,html-keyboard-response,348,772074,0.0-178.0-1.0,null,<p></p>,,null,,,,,,,,,,,,,,,,
,do_recog,349,775689,0.0-179.0-0.0,2109,,,,53,,,,400,probe-63,,,,,1,[object Object],82,2,1,
,html-keyboard-response,350,776691,0.0-179.0-1.0,null,<p></p>,,null,,,,,,,,,,,,,,,,
,do_trial,351,780055,0.0-180.0-0.0,825,,,,50,"0,1,0",6,blank,401,null,0.493053796,0.442146777,0.118566969,1,,,,,,
,html-keyboard-response,352,781060,0.0-180.0-1.0,null,<p></p>,,null,,,,,,,,,,,,,,,,
,do_recog,353,784338,0.0-181.0-0.0,1771,,,,53,,,,402,probe-168,,,,,1,[object Object],200,5,1,
,html-keyboard-response,354,785341,0.0-181.0-1.0,null,<p></p>,,null,,,,,,,,,,,,,,,,
,do_trial,355,788720,0.0-182.0-0.0,840,,,,49,"1,0,0",6,blank,403,null,0.623460455,0.375924935,0.114755163,1,,,,,,
,html-keyboard-response,356,789723,0.0-182.0-1.0,null,<p></p>,,null,,,,,,,,,,,,,,,,
,do_trial,357,792931,0.0-183.0-0.0,669,,,,49,"0,0,0",6,blank,404,null,0.734110256,0.292492916,0.094966361,0,,,,,,
,html-keyboard-response,358,793936,0.0-183.0-1.0,null,<p></p>,,null,,,,,,,,,,,,,,,,
,do_trial,359,796829,0.0-184.0-0.0,351,,,,50,"1,0,0",6,blank,405,null,0.794080635,0.339763284,0.208433108,0,,,,,,
,html-keyboard-response,360,797832,0.0-184.0-1.0,null,<p></p>,,null,,,,,,,,,,,,,,,,
,do_trial,361,800659,0.0-185.0-0.0,288,,,,51,"1,1,0",6,blank,406,null,0.671269418,0.314938558,0.155724935,0,,,,,,
,html-keyboard-response,362,801666,0.0-185.0-1.0,null,<p></p>,,null,,,,,,,,,,,,,,,,
,do_trial,363,804724,0.0-186.0-0.0,520,,,,50,"1,1,0",6,blank,407,null,0.557877822,0.344287424,0.192863565,1,,,,,,
,html-keyboard-response,364,805730,0.0-186.0-1.0,null,<p></p>,,null,,,,,,,,,,,,,,,,
,do_recog,365,808862,0.0-187.0-0.0,1624,,,,53,,,,408,probe-95,,,,,1,[object Object],89,2,1,
,html-keyboard-response,366,809868,0.0-187.0-1.0,null,<p></p>,,null,,,,,,,,,,,,,,,,
,do_trial,367,813402,0.0-188.0-0.0,994,,,,50,"1,0,0",6,blank,409,null,0.60427832,0.350612675,0.057892235,0,,,,,,
,html-keyboard-response,368,814406,0.0-188.0-1.0,null,<p></p>,,null,,,,,,,,,,,,,,,,
,do_trial,369,817512,0.0-189.0-0.0,569,,,,49,"1,0,0",6,blank,410,null,0.617430555,0.383211599,0.157779162,1,,,,,,
,html-keyboard-response,370,818516,0.0-189.0-1.0,null,<p></p>,,null,,,,,,,,,,,,,,,,
,do_recog,371,821471,0.0-190.0-0.0,1448,,,,53,,,,411,probe-74,,,,,1,[object Object],169,4,1,
,html-keyboard-response,372,822473,0.0-190.0-1.0,null,<p></p>,,null,,,,,,,,,,,,,,,,
,do_trial,373,825713,0.0-191.0-0.0,691,,,,50,"1,0,0",6,blank,412,null,0.49486849,0.406830972,0.050994587,0,,,,,,
,html-keyboard-response,374,826716,0.0-191.0-1.0,null,<p></p>,,null,,,,,,,,,,,,,,,,
,do_recog,375,829203,0.0-192.0-0.0,981,,,,54,,,,413,probe-128,,,,,1,[object Object],43,1,1,
,html-keyboard-response,376,830207,0.0-192.0-1.0,null,<p></p>,,null,,,,,,,,,,,,,,,,
,do_trial,377,833916,0.0-193.0-0.0,1170,,,,50,"1,0,0",6,blank,414,null,0.554741973,0.241164801,0.08757851,0,,,,,,
,html-keyboard-response,378,834922,0.0-193.0-1.0,null,<p></p>,,null,,,,,,,,,,,,,,,,
,do_trial,379,838000,0.0-194.0-0.0,540,,,,51,"0,0,1",6,blank,415,null,0.454544184,0.184965161,0.235230735,1,,,,,,
,html-keyboard-response,380,839003,0.0-194.0-1.0,null,<p></p>,,null,,,,,,,,,,,,,,,,
,do_recog,381,841560,0.0-195.0-0.0,1050,,,,54,,,,416,probe-219,,,,,1,[object Object],202,5,1,
,html-keyboard-response,382,842563,0.0-195.0-1.0,null,<p></p>,,null,,,,,,,,,,,,,,,,
,do_trial,383,845801,0.0-196.0-0.0,697,,,,51,"1,0,1",6,blank,417,null,0.451238919,0.255550275,0.33300003,1,,,,,,
,html-keyboard-response,384,846804,0.0-196.0-1.0,null,<p></p>,,null,,,,,,,,,,,,,,,,
,do_trial,385,849378,0.0-197.0-0.0,35,,,,50,"1,0,0",6,blank,418,null,0.567288038,0.215588672,0.154890274,0,,,,,,
,html-keyboard-response,386,850385,0.0-197.0-1.0,null,<p></p>,,null,,,,,,,,,,,,,,,,
,do_recog,387,853743,0.0-198.0-0.0,1851,,,,54,,,,419,probe-194,,,,,1,[object Object],168,4,1,
,html-keyboard-response,388,854745,0.0-198.0-1.0,null,<p></p>,,null,,,,,,,,,,,,,,,,
,do_trial,389,857878,0.0-199.0-0.0,592,,,,51,"0,1,0",6,blank,420,null,0.410103997,0.268340142,0.114884872,0,,,,,,
,html-keyboard-response,390,858882,0.0-199.0-1.0,null,<p></p>,,null,,,,,,,,,,,,,,,,
,do_trial,391,861948,0.0-200.0-0.0,528,,,,50,"1,1,0",6,blank,421,null,0.464952581,0.316837052,0.090162359,1,,,,,,
,html-keyboard-response,392,862954,0.0-200.0-1.0,null,<p></p>,,null,,,,,,,,,,,,,,,,
,do_trial,393,865533,0.0-201.0-0.0,40,,,,50,"1,0,0",6,blank,422,null,0.556016738,0.354236193,0.070065883,0,,,,,,
,html-keyboard-response,394,866536,0.0-201.0-1.0,null,<p></p>,,null,,,,,,,,,,,,,,,,
,do_recog,395,868845,0.0-202.0-0.0,802,,,,54,,,,423,probe-124,,,,,1,[object Object],201,5,1,
,html-keyboard-response,396,869850,0.0-202.0-1.0,null,<p></p>,,null,,,,,,,,,,,,,,,,
,do_trial,397,872904,0.0-203.0-0.0,518,,,,51,"1,0,1",6,blank,424,null,0.558410665,0.272485488,0.074982256,1,,,,,,
,html-keyboard-response,398,873910,0.0-203.0-1.0,null,<p></p>,,null,,,,,,,,,,,,,,,,
,do_recog,399,876315,0.0-204.0-0.0,899,,,,54,,,,425,probe-45,,,,,1,[object Object],205,5,1,
,html-keyboard-response,400,877318,0.0-204.0-1.0,null,<p></p>,,null,,,,,,,,,,,,,,,,
,do_trial,401,880358,0.0-205.0-0.0,502,,,,50,"0,0,0",6,blank,426,null,0.413888028,0.323598275,0.180413551,0,,,,,,
,html-keyboard-response,402,881364,0.0-205.0-1.0,null,<p></p>,,null,,,,,,,,,,,,,,,,
,do_trial,403,884218,0.0-206.0-0.0,311,,,,51,"0,1,0",6,blank,427,null,0.512142268,0.443829086,0.137911953,0,,,,,,
,html-keyboard-response,404,885219,0.0-206.0-1.0,null,<p></p>,,null,,,,,,,,,,,,,,,,
,do_trial,405,888033,0.0-207.0-0.0,275,,,,49,"0,0,1",6,blank,428,null,0.48586588,0.437382198,0.157087664,0,,,,,,
,html-keyboard-response,406,889039,0.0-207.0-1.0,null,<p></p>,,null,,,,,,,,,,,,,,,,
,do_trial,407,891905,0.0-208.0-0.0,330,,,,50,"0,0,0",6,blank,429,null,0.570574152,0.364593912,0.092077187,0,,,,,,
,html-keyboard-response,408,892908,0.0-208.0-1.0,null,<p></p>,,null,,,,,,,,,,,,,,,,
,do_trial,409,895800,0.0-209.0-0.0,351,,,,51,"0,1,0",6,blank,430,null,0.649831387,0.501074656,0.064191094,0,,,,,,
,html-keyboard-response,410,896803,0.0-209.0-1.0,null,<p></p>,,null,,,,,,,,,,,,,,,,
,do_trial,411,899681,0.0-210.0-0.0,340,,,,49,"1,1,1",6,blank,431,null,0.650123518,0.435900051,0.122443664,1,,,,,,
,html-keyboard-response,412,900686,0.0-210.0-1.0,null,<p></p>,,null,,,,,,,,,,,,,,,,
,do_trial,413,903765,0.0-211.0-0.0,541,,,,49,"0,0,1",6,blank,432,null,0.638928219,0.334657241,0.132055493,0,,,,,,
,html-keyboard-response,414,904768,0.0-211.0-1.0,null,<p></p>,,null,,,,,,,,,,,,,,,,
,do_recog,415,907149,0.0-212.0-0.0,874,,,,54,,,,433,probe-216,,,,,1,[object Object],84,2,1,
,html-keyboard-response,416,908152,0.0-212.0-1.0,null,<p></p>,,null,,,,,,,,,,,,,,,,
,do_trial,417,911294,0.0-213.0-0.0,599,,,,49,"1,1,0",6,blank,434,null,0.456002099,0.230460758,0.207688684,1,,,,,,
,html-keyboard-response,418,912299,0.0-213.0-1.0,null,<p></p>,,null,,,,,,,,,,,,,,,,
,do_recog,419,914587,0.0-214.0-0.0,779,,,,54,,,,435,probe-97,,,,,1,[object Object],121,3,1,
,html-keyboard-response,420,915590,0.0-214.0-1.0,null,<p></p>,,null,,,,,,,,,,,,,,,,
,do_trial,421,918722,0.0-215.0-0.0,593,,,,50,"1,0,0",6,blank,436,null,0.494219181,0.273268256,0.143539263,0,,,,,,
,html-keyboard-response,422,919725,0.0-215.0-1.0,null,<p></p>,,null,,,,,,,,,,,,,,,,
,do_trial,423,922825,0.0-216.0-0.0,563,,,,49,"1,0,0",6,blank,437,null,0.595634385,0.357538787,0.069206258,1,,,,,,
,html-keyboard-response,424,923828,0.0-216.0-1.0,null,<p></p>,,null,,,,,,,,,,,,,,,,
,do_trial,425,926947,0.0-217.0-0.0,582,,,,49,"0,1,0",6,blank,438,null,0.590000625,0.368241761,0.132486723,0,,,,,,
,html-keyboard-response,426,927950,0.0-217.0-1.0,null,<p></p>,,null,,,,,,,,,,,,,,,,
,do_recog,427,930304,0.0-218.0-0.0,847,,,,54,,,,439,probe-189,,,,,1,[object Object],126,3,1,
,html-keyboard-response,428,931307,0.0-218.0-1.0,null,<p></p>,,null,,,,,,,,,,,,,,,,
,do_trial,429,935146,0.0-219.0-0.0,1302,,,,49,"1,0,0",6,blank,440,null,0.709145767,0.229838638,0.052571528,1,,,,,,
,html-keyboard-response,430,936149,0.0-219.0-1.0,null,<p></p>,,null,,,,,,,,,,,,,,,,
,do_trial,431,940054,0.0-220.0-0.0,1367,,,,49,"0,1,0",6,blank,441,null,0.553376777,0.289674406,0.166910281,0,,,,,,
,html-keyboard-response,432,941057,0.0-220.0-1.0,null,<p></p>,,null,,,,,,,,,,,,,,,,
,do_trial,433,944567,0.0-221.0-0.0,973,,,,49,"0,0,1",6,blank,442,null,0.640372548,0.253989151,0.233814323,0,,,,,,
,html-keyboard-response,434,945570,0.0-221.0-1.0,null,<p></p>,,null,,,,,,,,,,,,,,,,
,do_trial,435,948438,0.0-222.0-0.0,329,,,,50,"1,1,0",6,blank,443,null,0.653706794,0.280302809,0.058297341,1,,,,,,
,html-keyboard-response,436,949441,0.0-222.0-1.0,null,<p></p>,,null,,,,,,,,,,,,,,,,
,do_trial,437,952274,0.0-223.0-0.0,294,,,,50,"0,0,0",6,blank,444,null,0.470318843,0.310080239,0.111279435,0,,,,,,
,html-keyboard-response,438,953277,0.0-223.0-1.0,null,<p></p>,,null,,,,,,,,,,,,,,,,
,do_recog,439,955684,0.0-224.0-0.0,900,,,,54,,,,445,probe-234,,,,,0,[object Object],null,null,0,
,html-keyboard-response,440,956687,0.0-224.0-1.0,null,<p></p>,,null,,,,,,,,,,,,,,,,
,do_trial,441,959756,0.0-225.0-0.0,532,,,,50,"1,0,0",6,blank,446,null,0.548842771,0.414077446,0.1024937,0,,,,,,
,html-keyboard-response,442,960759,0.0-225.0-1.0,null,<p></p>,,null,,,,,,,,,,,,,,,,
,do_recog,443,964427,0.0-226.0-0.0,2164,,,,56,,,,447,probe-100,,,,,1,[object Object],49,1,0,
,html-keyboard-response,444,965430,0.0-226.0-1.0,null,<p></p>,,null,,,,,,,,,,,,,,,,
,do_trial,445,968347,0.0-227.0-0.0,374,,,,50,"0,0,0",6,blank,448,null,0.633487557,0.387030683,0.15620092,0,,,,,,
,html-keyboard-response,446,969349,0.0-227.0-1.0,null,<p></p>,,null,,,,,,,,,,,,,,,,
,do_trial,447,972709,0.0-228.0-0.0,822,,,,50,"0,1,1",6,blank,449,null,0.636209724,0.337336336,0.15524294,1,,,,,,
,html-keyboard-response,448,973712,0.0-228.0-1.0,null,<p></p>,,null,,,,,,,,,,,,,,,,
,do_trial,449,976620,0.0-229.0-0.0,369,,,,50,"1,1,1",6,blank,450,null,0.583096997,0.517840301,0.179811011,1,,,,,,
,html-keyboard-response,450,977623,0.0-229.0-1.0,null,<p></p>,,null,,,,,,,,,,,,,,,,
,do_recog,451,980720,0.0-230.0-0.0,1589,,,,54,,,,451,probe-237,,,,,0,[object Object],null,null,0,
,html-keyboard-response,452,981723,0.0-230.0-1.0,null,<p></p>,,null,,,,,,,,,,,,,,,,
,do_trial,453,984802,0.0-231.0-0.0,542,,,,50,"0,1,0",6,blank,452,null,0.550505594,0.498043777,0.131322138,1,,,,,,
,html-keyboard-response,454,985806,0.0-231.0-1.0,null,<p></p>,,null,,,,,,,,,,,,,,,,
,do_trial,455,988702,0.0-232.0-0.0,355,,,,50,"1,1,0",6,blank,453,null,0.604220132,0.556862662,0.300169741,1,,,,,,
,html-keyboard-response,456,989706,0.0-232.0-1.0,null,<p></p>,,null,,,,,,,,,,,,,,,,
,do_recog,457,995713,0.0-233.0-0.0,null,,,,null,,,,454,probe-247,,,,,0,[object Object],null,null,0,
,html-keyboard-response,458,996717,0.0-233.0-1.0,null,<p></p>,,null,,,,,,,,,,,,,,,,
,do_trial,459,1000080,0.0-234.0-0.0,824,,,,50,"0,1,1",6,blank,455,null,0.305061527,0.626305402,0.275712834,1,,,,,,
,html-keyboard-response,460,1001082,0.0-234.0-1.0,null,<p></p>,,null,,,,,,,,,,,,,,,,
,do_recog,461,1005038,0.0-235.0-0.0,2449,,,,55,,,,456,probe-253,,,,,0,[object Object],null,null,1,
,html-keyboard-response,462,1006043,0.0-235.0-1.0,null,<p></p>,,null,,,,,,,,,,,,,,,,
,do_trial,463,1009620,0.0-236.0-0.0,1040,,,,49,"0,1,1",6,blank,457,null,0.238182523,0.563361087,0.177316625,0,,,,,,
,html-keyboard-response,464,1010623,0.0-236.0-1.0,null,<p></p>,,null,,,,,,,,,,,,,,,,
,do_trial,465,1013519,0.0-237.0-0.0,357,,,,50,"0,1,0",6,blank,458,null,0.311654863,0.592229725,0.129340702,1,,,,,,
,html-keyboard-response,466,1014522,0.0-237.0-1.0,null,<p></p>,,null,,,,,,,,,,,,,,,,
,do_trial,467,1017510,0.0-238.0-0.0,450,,,,50,"0,1,0",6,blank,459,null,0.326577878,0.769629802,0.062508942,1,,,,,,
,html-keyboard-response,468,1018514,0.0-238.0-1.0,null,<p></p>,,null,,,,,,,,,,,,,,,,
,do_trial,469,1021642,0.0-239.0-0.0,589,,,,50,"1,0,0",6,blank,460,null,0.512100748,0.616089099,0.138264163,0,,,,,,
,html-keyboard-response,470,1022646,0.0-239.0-1.0,null,<p></p>,,null,,,,,,,,,,,,,,,,
,do_trial,471,1025953,0.0-240.0-0.0,768,,,,50,"0,1,0",6,blank,461,null,0.447190291,0.614848656,0.318806531,1,,,,,,
,html-keyboard-response,472,1026956,0.0-240.0-1.0,null,<p></p>,,null,,,,,,,,,,,,,,,,
,do_trial,473,1030709,0.0-241.0-0.0,1216,,,,50,"1,1,0",6,blank,462,null,0.360478571,0.426295215,0.253304752,1,,,,,,
,html-keyboard-response,474,1031712,0.0-241.0-1.0,null,<p></p>,,null,,,,,,,,,,,,,,,,
,do_recog,475,1034811,0.0-242.0-0.0,1593,,,,55,,,,463,probe-244,,,,,0,[object Object],null,null,1,
,html-keyboard-response,476,1035814,0.0-242.0-1.0,null,<p></p>,,null,,,,,,,,,,,,,,,,
,do_trial,477,1039081,0.0-243.0-0.0,729,,,,50,"0,1,1",6,blank,464,null,0.274188655,0.539100156,0.352257014,1,,,,,,
,html-keyboard-response,478,1040085,0.0-243.0-1.0,null,<p></p>,,null,,,,,,,,,,,,,,,,
,do_recog,479,1043545,0.0-244.0-0.0,1953,,,,55,,,,465,probe-239,,,,,0,[object Object],null,null,1,
,html-keyboard-response,480,1044547,0.0-244.0-1.0,null,<p></p>,,null,,,,,,,,,,,,,,,,
,do_trial,481,1047659,0.0-245.0-0.0,578,,,,50,"0,1,0",6,blank,466,null,0.271251956,0.394028698,0.234061867,1,,,,,,
,html-keyboard-response,482,1048662,0.0-245.0-1.0,null,<p></p>,,null,,,,,,,,,,,,,,,,
,do_recog,483,1052923,0.0-246.0-0.0,2754,,,,53,,,,467,probe-249,,,,,0,[object Object],null,null,0,
,html-keyboard-response,484,1053925,0.0-246.0-1.0,null,<p></p>,,null,,,,,,,,,,,,,,,,
,do_trial,485,1058307,0.0-247.0-0.0,1854,,,,50,"1,1,1",6,blank,468,null,0.285728568,0.524109027,0.106679109,1,,,,,,
,html-keyboard-response,486,1059310,0.0-247.0-1.0,null,<p></p>,,null,,,,,,,,,,,,,,,,
,do_trial,487,1062199,0.0-248.0-0.0,350,,,,50,"1,0,0",6,blank,469,null,0.364502331,0.399325048,0.075182683,0,,,,,,
,html-keyboard-response,488,1063202,0.0-248.0-1.0,null,<p></p>,,null,,,,,,,,,,,,,,,,
,do_trial,489,1066126,0.0-249.0-0.0,385,,,,51,"0,1,0",6,blank,470,null,0.278086705,0.417982962,0.103885461,0,,,,,,
,html-keyboard-response,490,1067129,0.0-249.0-1.0,null,<p></p>,,null,,,,,,,,,,,,,,,,
,do_trial,491,1070025,0.0-250.0-0.0,357,,,,49,"0,1,0",6,blank,471,null,0.314211791,0.476790686,0.087262883,0,,,,,,
,html-keyboard-response,492,1071027,0.0-250.0-1.0,null,<p></p>,,null,,,,,,,,,,,,,,,,
,do_recog,493,1074009,0.0-251.0-0.0,1474,,,,55,,,,472,probe-240,,,,,0,[object Object],null,null,1,
,html-keyboard-response,494,1075011,0.0-251.0-1.0,null,<p></p>,,null,,,,,,,,,,,,,,,,
,do_trial,495,1078057,0.0-252.0-0.0,512,,,,50,"0,0,0",6,blank,473,null,0.347686978,0.427675098,0.069650492,0,,,,,,
,html-keyboard-response,496,1079063,0.0-252.0-1.0,null,<p></p>,,null,,,,,,,,,,,,,,,,
,do_trial,497,1081978,0.0-253.0-0.0,376,,,,50,"1,1,0",6,blank,474,null,0.447446156,0.420635236,0.133291204,1,,,,,,
,html-keyboard-response,498,1082980,0.0-253.0-1.0,null,<p></p>,,null,,,,,,,,,,,,,,,,
,do_recog,499,1085743,0.0-254.0-0.0,1256,,,,55,,,,475,probe-246,,,,,0,[object Object],null,null,1,
,html-keyboard-response,500,1086746,0.0-254.0-1.0,null,<p></p>,,null,,,,,,,,,,,,,,,,
,do_trial,501,1089730,0.0-255.0-0.0,445,,,,50,"1,0,0",6,blank,476,null,0.380186926,0.558434086,0.108294827,0,,,,,,
,html-keyboard-response,502,1090733,0.0-255.0-1.0,null,<p></p>,,null,,,,,,,,,,,,,,,,
,do_trial,503,1093669,0.0-256.0-0.0,397,,,,51,"0,0,0",6,blank,477,null,0.349843024,0.646342535,0.09008229,0,,,,,,
,html-keyboard-response,504,1094672,0.0-256.0-1.0,null,<p></p>,,null,,,,,,,,,,,,,,,,
,do_trial,505,1097427,0.0-257.0-0.0,218,,,,50,"0,0,0",6,blank,478,null,0.490139196,0.601525341,0.070693312,0,,,,,,
,html-keyboard-response,506,1098431,0.0-257.0-1.0,null,<p></p>,,null,,,,,,,,,,,,,,,,
,do_recog,507,1101328,0.0-258.0-0.0,1391,,,,55,,,,479,probe-250,,,,,0,[object Object],null,null,1,
,html-keyboard-response,508,1102331,0.0-258.0-1.0,null,<p></p>,,null,,,,,,,,,,,,,,,,
,do_pick_best_pirate,509,1108625,0.0-259.0-0.0,5287,,,,49,,,,,,,,,,,,,,,
,do_pick_best_pirate,510,1114305,0.0-260.0-0.0,4674,,,,50,,,,,,,,,,,,,,,
,do_pick_best_pirate,511,1119260,0.0-261.0-0.0,3947,,,,50,,,,,,,,,,,,,,,
,do_pick_best_pirate,512,1123116,0.0-262.0-0.0,2849,,,,49,,,,,,,,,,,,,,,
,do_pick_best_pirate,513,1126786,0.0-263.0-0.0,2663,,,,51,,,,,,,,,,,,,,,
,do_pick_best_pirate,514,1130095,0.0-264.0-0.0,2301,,,,50,,,,,,,,,,,,,,,
,html-keyboard-response,515,1137242,0.0-265.0-0.0,7145,<p>You are all done with the experiment!</p><p> You made $15 plus $2 in bonus payment!</p><p>Thank you for participating. You will recieve your payment within 3 days.<p><b>[Press the space bar to end the experiment]</b></p></div>,,32,,,,,,,,,,,,,,,,