"success","trial_type","trial_index","time_elapsed","internal_node_id","rt","stimulus","key_press","subject_id","participant_id","age","gender","prompt","response","choice_outcomes","context_n","context_img_id","trial_n","probe_img_id","pR_red","pR_white","pR_black","outcome","is_valid","image_to_show","probed_trial","probed_context","correct","probe","probed_trial_n","probed_context_n","context_im"
"true","fullscreen","0","4420","0.0-0.0","","","","","","","","","","","","","","","","","","","","","","","","","","",""
"","pavlovia","1","4426","0.0-1.0","","","","","","","","","","","","","","","","","","","","","","","","","","",""
"","welc_back","2","17324","0.0-2.0","null","run_exp/static/audio/clip_29_welcome_back.m4a","null","121","148","9","Male","<div class='center'><p>Welcome to day 2!</p><p> Yesterday, you were the head captain of a pirate ship. You and your fellow pirates robbed ships for their gold and traveled to six different islands .</p></div>","","","","","","","","","","","","","","","","","","",""
"","html-keyboard-response","3","24996","0.0-3.0","7669.9000000059605","<div class='center'><p>Welcome to day 2!</p><p> Yesterday, you were the head captain of a pirate ship. You and your fellow pirates robbed ships for their gold and traveled to six different islands .</p><p><b>[Press the space bar to continue]</b></p></div>","32","","","","","","","","","","","","","","","","","","","","","","","",""
"","day_1_summary_goal","4","44968","0.0-4.0","null","run_exp/static/audio/clip_30_goal_of_game.m4a","null","","","","","<div class='center'><p>Today, like yesterday, you get to pick which pirate you want to rob the next ship.</p><p>If the pirate is successful in robbing a ship, you get gold coins that look like this: </p><p><img src='run_exp/static/images/tutorial/reward.png' height='150'></p><p> If they were not successful in robbing the ship, then you will get no gold coins and you'll see a big red x like this: </p><p><img src='run_exp/static/images/tutorial/reward_no.png' height='150'></p></div>","","","","","","","","","","","","","","","","","","",""
"","html-keyboard-response","5","46319","0.0-5.0","1348.5","<div class='center'><p>Today, like yesterday, you get to pick which pirate you want to rob the next ship.</p><p>If the pirate is successful in robbing a ship, you get gold coins that look like this: </p><p><img src='run_exp/static/images/tutorial/reward.png' height='150'></p><p> If they were not successful in robbing the ship, then you will get no gold coins and you'll see a big red x like this: </p><p><img src='run_exp/static/images/tutorial/reward_no.png' height='150'></p><p><b>[Press the space bar to continue]</b></p></div>","32","","","","","","","","","","","","","","","","","","","","","","","",""
"","day_1_summary_pick","6","64148","0.0-6.0","null","run_exp/static/audio/clip_31_how_to_pick_a_pirate.m4a","null","","","","","<div class='center'><p>Also, just like yesterday, you will use the 1,2,3 keys on your keyboard to pick a pirate. Press '1' to choose red beard, '2' to choose white beard, and '3' to choose black beard . You only have 3 seconds to pick a pirate, so please make a choice quickly!</p></div>","","","","","","","","","","","","","","","","","","",""
"","html-keyboard-response","7","64943","0.0-7.0","793.8999999985099","<div class='center'><p>Also, just like yesterday, you will use the 1,2,3 keys on your keyboard to pick a pirate. Press '1' to choose red beard, '2' to choose white beard, and '3' to choose black beard . You only have 3 seconds to pick a pirate, so please make a choice quickly!</p><p><b>[Press the space bar to continue]</b></p></div>","32","","","","","","","","","","","","","","","","","","","","","","","",""
"","test_phase_begin","8","98213","0.0-8.0","null","run_exp/static/audio/clip_32_final_place.m4a","null","","","","","<div class='center'><p>You’ve arrived at the final island of your journey! Unfortunately, it’s very foggy out, so you won’t be able to see it in the distance like the other islands you've visited.</p><p>You’ll still be deciding which pirate you want to rob a ship like before. However, because of the fog, you also won’t be able to see the ship.</p><p>This means you do not have to remember the ships you rob on this island.</p><p>Unlike yesterday, you won't be visiting multiple islands today. You will stay on this island for the entire game. This game will last ~30 minutes.</p></div>","","","","","","","","","","","","","","","","","","",""
"","html-keyboard-response","9","99567","0.0-9.0","1353.3000000044703","<div class='center'><p>You’ve arrived at the final island of your journey! Unfortunately, it’s very foggy out, so you won’t be able to see it in the distance like the other islands you've visited.</p><p>You’ll still be deciding which pirate you want to rob a ship like before. However, because of the fog, you also won’t be able to see the ship.</p><p>This means you do not have to remember the ships you rob on this island.</p><p>Unlike yesterday, you won't be visiting multiple islands today. You will stay on this island for the entire game. This game will last ~30 minutes.</p><p><b>[Press the space bar to continue]</b></p></div>","32","","","","","","","","","","","","","","","","","","","","","","","",""
"","explain_probe_1","10","109010","0.0-10.0","null","run_exp/static/audio/clip_33_recognition_1.m4a","null","","","","","<div class='center'><p> Sometimes you’ll be shown a ship, and you will be asked if you saw this ship on a past island.</p><p> Here is an example of what you will see.</p><p><img src='run_exp/static/images/tutorial/example_recog_trial.png' height='500'></p></div>","","","","","","","","","","","","","","","","","","",""
"","html-keyboard-response","11","111916","0.0-11.0","2902.8000000044703","<div class='center'><p> Sometimes you’ll be shown a ship, and you will be asked if you saw this ship on a past island.</p><p> Here is an example of what you will see.</p><p><img src='run_exp/static/images/tutorial/example_recog_trial.png' height='500'></p><p><b>[Press the space bar to continue]</b></p></div>","32","","","","","","","","","","","","","","","","","","","","","","","",""
"","explain_probe_2","12","138755","0.0-12.0","null","run_exp/static/audio/clip_34_recognition_2.m4a","null","","","","","<div class='center'><p> You will press the 5, 6, 7, 8 keys on your keyboard to respond.</p><p>If you are very sure saw the ship, press <b>5</b> on your keyboard.</p><p> If you think you  saw it before but are not sure, then press <b>6</b>.</p><p> If you think you have <b>not</b> seen it before but are not sure, then press <b>7</b>.</p><p> If you are sure you did <b>not</b> see the ship before, then press <b>8</b>.</p><p><img src='run_exp/static/images/tutorial/example_recog_trial.png' height='500'></p></div>","","","","","","","","","","","","","","","","","","",""
"","html-keyboard-response","13","139720","0.0-13.0","963.2000000029802","<div class='center'><p> You will press the 5, 6, 7, 8 keys on your keyboard to respond.</p><p>If you are very sure saw the ship, press <b>5</b> on your keyboard.</p><p> If you think you  saw it before but are not sure, then press <b>6</b>.</p><p> If you think you have <b>not</b> seen it before but are not sure, then press <b>7</b>.</p><p> If you are sure you did <b>not</b> see the ship before, then press <b>8</b>.</p><p><img src='run_exp/static/images/tutorial/example_recog_trial.png' height='500'></p><p><b>[Press the space bar to continue]</b></p></div>","32","","","","","","","","","","","","","","","","","","","","","","","",""
"","explain_outcome","14","161256","0.0-14.0","null","run_exp/static/audio/clip_35_recognition_3.m4a","null","","","","","<div class='center'><p> If you remember correctly, then you’ll get a gold coin like this: </p><p><img src='run_exp/static/images/tutorial/reward_small.png' height='200'></p><p>If you do not remember correctly, then you'll see a red x like this: </p><p><img src='run_exp/static/images/tutorial/reward_no.png' height='200'></p><p>Importantly, when you are shown a ship, take the time to remind yourself which island you saw it on. This will help you in the next part of the study.</p></div>","","","","","","","","","","","","","","","","","","",""
"","html-keyboard-response","15","162630","0.0-15.0","1372.7999999970198","<div class='center'><p> If you remember correctly, then you’ll get a gold coin like this: </p><p><img src='run_exp/static/images/tutorial/reward_small.png' height='200'></p><p>If you do not remember correctly, then you'll see a red x like this: </p><p><img src='run_exp/static/images/tutorial/reward_no.png' height='200'></p><p>Importantly, when you are shown a ship, take the time to remind yourself which island you saw it on. This will help you in the next part of the study.</p><p><b>[Press the space bar to continue]</b></p></div>","32","","","","","","","","","","","","","","","","","","","","","","","",""
"","begin_test_phase","16","187147","0.0-16.0","null","run_exp/static/audio/clip_36_begin_final.m4a","null","","","","","<div class='center'><p>Let's go over the important points again. Your job is to: </p><p>1. Pick the pirate who is best at robbing ships and will bring you back gold coins. </p><p>2. Correctly remember whether or not you saw a ship before. If you did see the ship before, remind yourself on which island you saw the ship. </p></div>","","","","","","","","","","","","","","","","","","",""
"","html-keyboard-response","17","187521","0.0-17.0","309.8999999985099","<div class='center'><p>Let's go over the important points again. Your job is to: </p><p>1. Pick the pirate who is best at robbing ships and will bring you back gold coins. </p><p>2. Correctly remember whether or not you saw a ship before. If you did see the ship before, remind yourself on which island you saw the ship. </p><p><b>[Press the space bar to continue]</b></p></div>","32","","","","","","","","","","","","","","","","","","","","","","","",""
"","do_welcome","18","191533","0.0-18.0","null","","","","","","","","null","","","","","","","","","","","","","","","","","",""
"","do_trial","19","195225","0.0-19.0-0.0","1138.6999999955297","","","","","","","","49","1,1,0","6","blank","230","null","0.542151369352646","0.29149024376876853","0.16899940155247767","1","","","","","","","","",""
"","html-keyboard-response","20","196228","0.0-19.0-1.0","null","<p></p>","null","","","","","","","","","","","","","","","","","","","","","","","",""
"","do_trial","21","199005","0.0-20.0-0.0","228.29999999701977","","","","","","","","49","0,0,0","6","blank","231","null","0.5373152434851775","0.3476027604511586","0.10999557806284056","0","","","","","","","","",""
"","html-keyboard-response","22","200010","0.0-20.0-1.0","null","<p></p>","null","","","","","","","","","","","","","","","","","","","","","","","",""
"","do_trial","23","202622","0.0-21.0-0.0","63.600000001490116","","","","","","","","51","1,0,0","6","blank","232","null","0.48726729357810983","0.4098163726824556","0.14493776663246366","0","","","","","","","","",""
"","html-keyboard-response","24","203625","0.0-21.0-1.0","null","<p></p>","null","","","","","","","","","","","","","","","","","","","","","","","",""
"","do_trial","25","206375","0.0-22.0-0.0","205","","","","","","","","50","0,0,0","6","blank","233","null","0.453154868393208","0.3689323703793694","0.07442511611176367","0","","","","","","","","",""
"","html-keyboard-response","26","207382","0.0-22.0-1.0","null","<p></p>","null","","","","","","","","","","","","","","","","","","","","","","","",""
"","do_trial","27","210224","0.0-23.0-0.0","293","","","","","","","","49","1,0,0","6","blank","234","null","0.5173749747991262","0.23752563245432065","0.05747843600798337","1","","","","","","","","",""
"","html-keyboard-response","28","211225","0.0-23.0-1.0","null","<p></p>","null","","","","","","","","","","","","","","","","","","","","","","","",""
"","do_trial","29","214481","0.0-24.0-0.0","709","","","","","","","","49","0,0,0","6","blank","235","null","0.657440782574808","0.2315079151534753","0.07728829855633947","0","","","","","","","","",""
"","html-keyboard-response","30","215483","0.0-24.0-1.0","null","<p></p>","null","","","","","","","","","","","","","","","","","","","","","","","",""
"","do_trial","31","218511","0.0-25.0-0.0","484","","","","","","","","51","1,0,0","6","blank","236","null","0.7287442342821571","0.26527119142427685","0.157645971291416","0","","","","","","","","",""
"","html-keyboard-response","32","219513","0.0-25.0-1.0","null","<p></p>","null","","","","","","","","","","","","","","","","","","","","","","","",""
"","do_trial","33","222280","0.0-26.0-0.0","217.10000000149012","","","","","","","","49","1,0,0","6","blank","237","null","0.7763792473675729","0.23825183631080304","0.24847015664827163","1","","","","","","","","",""
"","html-keyboard-response","34","223287","0.0-26.0-1.0","null","<p></p>","null","","","","","","","","","","","","","","","","","","","","","","","",""
"","do_trial","35","226175","0.0-27.0-0.0","332.80000000447035","","","","","","","","49","1,1,0","6","blank","238","null","0.6844390115046934","0.39329020367227446","0.17203346811331788","1","","","","","","","","",""
"","html-keyboard-response","36","227177","0.0-27.0-1.0","null","<p></p>","null","","","","","","","","","","","","","","","","","","","","","","","",""
"","do_trial","37","230458","0.0-28.0-0.0","724","","","","","","","","49","1,0,0","6","blank","239","null","0.7092237918907028","0.3389730985790476","0.2818380781086891","1","","","","","","","","",""
"","html-keyboard-response","38","231464","0.0-28.0-1.0","null","<p></p>","null","","","","","","","","","","","","","","","","","","","","","","","",""
"","do_trial","39","235491","0.0-29.0-0.0","1473.2999999970198","","","","","","","","51","1,0,0","6","blank","240","null","0.5958445916017282","0.3520016342113845","0.22223086580425871","0","","","","","","","","",""
"","html-keyboard-response","40","236497","0.0-29.0-1.0","null","<p></p>","null","","","","","","","","","","","","","","","","","","","","","","","",""
"","do_recog","41","242516","0.0-30.0-0.0","null","","","","","","","","null","","","","241","probe-116","","","","","1","[object Object]","48","1","0","","","",""
"","html-keyboard-response","42","243520","0.0-30.0-1.0","null","<p></p>","null","","","","","","","","","","","","","","","","","","","","","","","",""
"","do_trial","43","247202","0.0-31.0-0.0","1132.5999999940395","","","","","","","","49","1,0,0","6","blank","242","null","0.5752447383565851","0.40075338575794656","0.28288968854207563","1","","","","","","","","",""
"","html-keyboard-response","44","248208","0.0-31.0-1.0","null","<p></p>","null","","","","","","","","","","","","","","","","","","","","","","","",""
"","do_trial","45","250757","0.0-32.0-0.0","0.19999999552965164","","","","","","","","49","1,0,0","6","blank","243","null","0.44273865679473284","0.4836519191461637","0.25449082879613455","1","","","","","","","","",""
"","html-keyboard-response","46","251759","0.0-32.0-1.0","null","<p></p>","null","","","","","","","","","","","","","","","","","","","","","","","",""
"","do_trial","47","254586","0.0-33.0-0.0","273.5","","","","","","","","49","1,1,1","6","blank","244","null","0.12095243901399236","0.5109848754756768","0.23828775125458077","1","","","","","","","","",""
"","html-keyboard-response","48","255593","0.0-33.0-1.0","null","<p></p>","null","","","","","","","","","","","","","","","","","","","","","","","",""
"","do_recog","49","258217","0.0-34.0-0.0","1111.6999999955297","","","","","","","","53","","","","245","probe-85","","","","","1","[object Object]","124","3","1","","","",""
"","html-keyboard-response","50","259218","0.0-34.0-1.0","null","<p></p>","null","","","","","","","","","","","","","","","","","","","","","","","",""
"","do_trial","51","262295","0.0-35.0-0.0","527.3999999985099","","","","","","","","49","0,1,0","6","blank","246","null","0.18879078196518678","0.5968944027595091","0.10536175000903242","0","","","","","","","","",""
"","html-keyboard-response","52","263300","0.0-35.0-1.0","null","<p></p>","null","","","","","","","","","","","","","","","","","","","","","","","",""
"","do_recog","53","265730","0.0-36.0-0.0","917.2999999970198","","","","","","","","53","","","","247","probe-247","","","","","0","[object Object]","null","null","0","","","",""
"","html-keyboard-response","54","266733","0.0-36.0-1.0","null","<p></p>","null","","","","","","","","","","","","","","","","","","","","","","","",""
"","do_trial","55","270093","0.0-37.0-0.0","808","","","","","","","","50","0,1,0","6","blank","248","null","0.12748768912654343","0.5367340732065659","0.13583940608518583","1","","","","","","","","",""
"","html-keyboard-response","56","271098","0.0-37.0-1.0","null","<p></p>","null","","","","","","","","","","","","","","","","","","","","","","","",""
"","do_trial","57","273694","0.0-38.0-0.0","46.20000000298023","","","","","","","","50","0,0,0","6","blank","249","null","0.18412955083508975","0.5226847251268437","0.18264019839669945","0","","","","","","","","",""
"","html-keyboard-response","58","274697","0.0-38.0-1.0","null","<p></p>","null","","","","","","","","","","","","","","","","","","","","","","","",""
"","do_trial","59","277242","0.0-39.0-0.0","0.19999999552965164","","","","","","","","50","0,1,0","6","blank","250","null","0.13787400191658492","0.5811916432067746","0.22423133783576524","1","","","","","","","","",""
"","html-keyboard-response","60","278246","0.0-39.0-1.0","null","<p></p>","null","","","","","","","","","","","","","","","","","","","","","","","",""
"","do_trial","61","281080","0.0-40.0-0.0","287.70000000298023","","","","","","","","50","0,1,0","6","blank","251","null","0.11105912722906182","0.6611524039750422","0.2699549715991122","1","","","","","","","","",""
"","html-keyboard-response","62","282082","0.0-40.0-1.0","null","<p></p>","null","","","","","","","","","","","","","","","","","","","","","","","",""
"","do_trial","63","284930","0.0-41.0-0.0","303.6000000014901","","","","","","","","50","0,1,0","6","blank","252","null","0.1386880393869868","0.6146344503416107","0.37995716184467365","1","","","","","","","","",""
"","html-keyboard-response","64","285937","0.0-41.0-1.0","null","<p></p>","null","","","","","","","","","","","","","","","","","","","","","","","",""
"","do_trial","65","288888","0.0-42.0-0.0","404.90000000596046","","","","","","","","50","0,0,0","6","blank","253","null","0.189921125296733","0.5856457126691401","0.3945172483775997","0","","","","","","","","",""
"","html-keyboard-response","66","289894","0.0-42.0-1.0","null","<p></p>","null","","","","","","","","","","","","","","","","","","","","","","","",""
"","do_recog","67","292775","0.0-43.0-0.0","1371.5","","","","","","","","53","","","","254","probe-219","","","","","1","[object Object]","47","1","1","","","",""
"","html-keyboard-response","68","293779","0.0-43.0-1.0","null","<p></p>","null","","","","","","","","","","","","","","","","","","","","","","","",""
"","do_trial","69","296878","0.0-44.0-0.0","554.7999999970198","","","","","","","","50","0,0,1","6","blank","255","null","0.08342518800017089","0.6098651422298972","0.2859294497472544","0","","","","","","","","",""
"","html-keyboard-response","70","297885","0.0-44.0-1.0","null","<p></p>","null","","","","","","","","","","","","","","","","","","","","","","","",""
"","do_trial","71","300435","0.0-45.0-0.0","0.09999999403953552","","","","","","","","51","0,1,0","6","blank","256","null","0.27193793642318315","0.5890369899883978","0.2453942922194656","0","","","","","","","","",""
"","html-keyboard-response","72","301440","0.0-45.0-1.0","null","<p></p>","null","","","","","","","","","","","","","","","","","","","","","","","",""
"","do_trial","73","304033","0.0-46.0-0.0","44.20000000298023","","","","","","","","51","0,1,0","6","blank","257","null","0.1738557928067064","0.5502781900139566","0.271678967139709","0","","","","","","","","",""
"","html-keyboard-response","74","305037","0.0-46.0-1.0","null","<p></p>","null","","","","","","","","","","","","","","","","","","","","","","","",""
"","do_recog","75","307447","0.0-47.0-0.0","896.1000000014901","","","","","","","","53","","","","258","probe-136","","","","","1","[object Object]","43","1","1","","","",""
"","html-keyboard-response","76","308448","0.0-47.0-1.0","null","<p></p>","null","","","","","","","","","","","","","","","","","","","","","","","",""
"","do_trial","77","311514","0.0-48.0-0.0","521.5","","","","","","","","49","0,1,0","6","blank","259","null","0.08896502074126798","0.6721954069098734","0.3554175056731043","0","","","","","","","","",""
"","html-keyboard-response","78","312515","0.0-48.0-1.0","null","<p></p>","null","","","","","","","","","","","","","","","","","","","","","","","",""
"","do_trial","79","315096","0.0-49.0-0.0","31.30000000447035","","","","","","","","51","0,0,1","6","blank","260","null","0.10697016544042715","0.6350253621496225","0.3265807538166196","1","","","","","","","","",""
"","html-keyboard-response","80","316103","0.0-49.0-1.0","null","<p></p>","null","","","","","","","","","","","","","","","","","","","","","","","",""
"","do_trial","81","318952","0.0-50.0-0.0","300.79999999701977","","","","","","","","51","0,1,0","6","blank","261","null","0.08009290046633454","0.6529051486874292","0.29731157082634","0","","","","","","","","",""
"","html-keyboard-response","82","319958","0.0-50.0-1.0","null","<p></p>","null","","","","","","","","","","","","","","","","","","","","","","","",""
"","do_trial","83","322817","0.0-51.0-0.0","308.30000000447035","","","","","","","","50","0,1,0","6","blank","262","null","0.17776706118011823","0.6944299542973227","0.32996957830949347","1","","","","","","","","",""
"","html-keyboard-response","84","323823","0.0-51.0-1.0","null","<p></p>","null","","","","","","","","","","","","","","","","","","","","","","","",""
"","do_trial","85","326866","0.0-52.0-0.0","499.8999999985099","","","","","","","","50","0,1,1","6","blank","263","null","0.14724881741257992","0.7123755517647504","0.3410256142274089","1","","","","","","","","",""
"","html-keyboard-response","86","327868","0.0-52.0-1.0","null","<p></p>","null","","","","","","","","","","","","","","","","","","","","","","","",""
"","do_recog","87","330197","0.0-53.0-0.0","816.2000000029802","","","","","","","","56","","","","264","probe-145","","","","","1","[object Object]","160","4","0","","","",""
"","html-keyboard-response","88","331201","0.0-53.0-1.0","null","<p></p>","null","","","","","","","","","","","","","","","","","","","","","","","",""
"","do_trial","89","334513","0.0-54.0-0.0","764","","","","","","","","50","0,0,0","6","blank","265","null","0.06693951570907034","0.6013342601039013","0.2880728963355163","0","","","","","","","","",""
"","html-keyboard-response","90","335518","0.0-54.0-1.0","null","<p></p>","null","","","","","","","","","","","","","","","","","","","","","","","",""
"","do_trial","91","338161","0.0-55.0-0.0","91.89999999850988","","","","","","","","49","0,1,1","6","blank","266","null","0.059096913005857954","0.7740943605911176","0.3001978524684661","0","","","","","","","","",""
"","html-keyboard-response","92","339166","0.0-55.0-1.0","null","<p></p>","null","","","","","","","","","","","","","","","","","","","","","","","",""
"","do_trial","93","341785","0.0-56.0-0.0","71.39999999850988","","","","","","","","51","0,1,0","6","blank","267","null","0.13646305681436569","0.7392821717896927","0.17386735658076663","0","","","","","","","","",""
"","html-keyboard-response","94","342786","0.0-56.0-1.0","null","<p></p>","null","","","","","","","","","","","","","","","","","","","","","","","",""
"","do_trial","95","345957","0.0-57.0-0.0","622","","","","","","","","50","0,1,0","6","blank","268","null","0.23139975627992207","0.7818615254917068","0.17198004122530983","1","","","","","","","","",""
"","html-keyboard-response","96","346961","0.0-57.0-1.0","null","<p></p>","null","","","","","","","","","","","","","","","","","","","","","","","",""
"","break","97","358241","0.0-57.0-2.0","11278.89999999851","<div class='center'><p>Time to take a quick break! You have 2 minutes to rest, but you can move on sooner if you'd like.</p><p> Press the <b>space bar</b> to continue.</p></div>","32","","","","","","","","","","","","","","","","","","","","","","","",""
"","do_trial","98","361941","0.0-57.0-3.0","1151.8999999985099","","","","","","","","49","1,0,0","6","blank","269","null","0.17113550922021672","0.5860089359118428","0.21727338333272253","1","","","","","","","","",""
"","html-keyboard-response","99","362945","0.0-57.0-4.0","null","<p></p>","null","","","","","","","","","","","","","","","","","","","","","","","",""
"","do_trial","100","366023","0.0-58.0-0.0","534.6999999955297","","","","","","","","49","0,1,0","6","blank","270","null","0.17257198618476544","0.6805534525851068","0.3288782480471623","0","","","","","","","","",""
"","html-keyboard-response","101","367029","0.0-58.0-1.0","null","<p></p>","null","","","","","","","","","","","","","","","","","","","","","","","",""
"","do_trial","102","369731","0.0-59.0-0.0","153.60000000149012","","","","","","","","51","0,0,1","6","blank","271","null","0.2621328872090819","0.7964998601600524","0.5133498181104814","1","","","","","","","","",""
"","html-keyboard-response","103","370736","0.0-59.0-1.0","null","<p></p>","null","","","","","","","","","","","","","","","","","","","","","","","",""
"","do_trial","104","373634","0.0-60.0-0.0","338.80000000447035","","","","","","","","51","0,0,1","6","blank","272","null","0.30905186020431","0.6621236218013371","0.2866553340516623","1","","","","","","","","",""
"","html-keyboard-response","105","374639","0.0-60.0-1.0","null","<p></p>","null","","","","","","","","","","","","","","","","","","","","","","","",""
"","do_recog","106","377085","0.0-61.0-0.0","934.1999999955297","","","","","","","","53","","","","273","probe-87","","","","","1","[object Object]","80","2","1","","","",""
"","html-keyboard-response","107","378091","0.0-61.0-1.0","null","<p></p>","null","","","","","","","","","","","","","","","","","","","","","","","",""
"","do_trial","108","381052","0.0-62.0-0.0","406.3999999985099","","","","","","","","51","0,0,1","6","blank","274","null","0.22936332063642997","0.6180355796485323","0.34482601462833656","1","","","","","","","","",""
"","html-keyboard-response","109","382058","0.0-62.0-1.0","null","<p></p>","null","","","","","","","","","","","","","","","","","","","","","","","",""
"","do_recog","110","384341","0.0-63.0-0.0","770","","","","","","","","54","","","","275","probe-159","","","","","1","[object Object]","126","3","1","","","",""
"","html-keyboard-response","111","385346","0.0-63.0-1.0","null","<p></p>","null","","","","","","","","","","","","","","","","","","","","","","","",""
"","do_trial","112","388650","0.0-64.0-0.0","757","","","","","","","","51","1,0,0","6","blank","276","null","0.1696739570776846","0.606630204349009","0.44302719941673785","0","","","","","","","","",""
"","html-keyboard-response","113","389653","0.0-64.0-1.0","null","<p></p>","null","","","","","","","","","","","","","","","","","","","","","","","",""
"","do_recog","114","391948","0.0-65.0-0.0","785","","","","","","","","53","","","","277","probe-213","","","","","1","[object Object]","162","4","1","","","",""
"","html-keyboard-response","115","392953","0.0-65.0-1.0","null","<p></p>","null","","","","","","","","","","","","","","","","","","","","","","","",""
"","do_trial","116","395900","0.0-66.0-0.0","397.90000000596046","","","","","","","","50","0,1,1","6","blank","278","null","0.16886519526411317","0.6695221468925812","0.3863434226146216","1","","","","","","","","",""
"","html-keyboard-response","117","396906","0.0-66.0-1.0","null","<p></p>","null","","","","","","","","","","","","","","","","","","","","","","","",""
"","do_recog","118","399221","0.0-67.0-0.0","805.2000000029802","","","","","","","","54","","","","279","probe-218","","","","","1","[object Object]","84","2","1","","","",""
"","html-keyboard-response","119","400227","0.0-67.0-1.0","null","<p></p>","null","","","","","","","","","","","","","","","","","","","","","","","",""
"","do_trial","120","403256","0.0-68.0-0.0","469","","","","","","","","49","0,1,1","6","blank","280","null","0.07609975233438246","0.6616371637232217","0.35601918318336423","0","","","","","","","","",""
"","html-keyboard-response","121","404261","0.0-68.0-1.0","null","<p></p>","null","","","","","","","","","","","","","","","","","","","","","","","",""
"","do_recog","122","406626","0.0-69.0-0.0","851.8000000044703","","","","","","","","54","","","","281","probe-27","","","","","1","[object Object]","204","5","1","","","",""
"","html-keyboard-response","123","407629","0.0-69.0-1.0","null","<p></p>","null","","","","","","","","","","","","","","","","","","","","","","","",""
"","do_trial","124","410621","0.0-70.0-0.0","446","","","","","","","","49","0,0,0","6","blank","282","null","0.1283834074016605","0.8117607380930454","0.29314527022372316","0","","","","","","","","",""
"","html-keyboard-response","125","411627","0.0-70.0-1.0","null","<p></p>","null","","","","","","","","","","","","","","","","","","","","","","","",""
"","do_recog","126","414042","0.0-71.0-0.0","902.1000000014901","","","","","","","","54","","","","283","probe-78","","","","","1","[object Object]","123","3","1","","","",""
"","html-keyboard-response","127","415046","0.0-71.0-1.0","null","<p></p>","null","","","","","","","","","","","","","","","","","","","","","","","",""
"","do_trial","128","417927","0.0-72.0-0.0","330.90000000596046","","","","","","","","51","0,0,1","6","blank","284","null","0.09006065635350174","0.632208989362996","0.292098958156726","1","","","","","","","","",""
"","html-keyboard-response","129","418931","0.0-72.0-1.0","null","<p></p>","null","","","","","","","","","","","","","","","","","","","","","","","",""
"","do_trial","130","422077","0.0-73.0-0.0","596.3999999985099","","","","","","","","49","1,0,0","6","blank","285","null","0.05518855344869814","0.6855440412411822","0.27707767512819464","1","","","","","","","","",""
"","html-keyboard-response","131","423082","0.0-73.0-1.0","null","<p></p>","null","","","","","","","","","","","","","","","","","","","","","","","",""
"","do_recog","132","425097","0.0-74.0-0.0","507.79999999701977","","","","","","","","53","","","","286","probe-54","","","","","1","[object Object]","201","5","1","","","",""
"","html-keyboard-response","133","426100","0.0-74.0-1.0","null","<p></p>","null","","","","","","","","","","","","","","","","","","","","","","","",""
"","do_trial","134","429102","0.0-75.0-0.0","452.59999999403954","","","","","","","","49","0,1,0","6","blank","287","null","0.06480302134093846","0.767077616430418","0.25647704254405546","0","","","","","","","","",""
"","html-keyboard-response","135","430107","0.0-75.0-1.0","null","<p></p>","null","","","","","","","","","","","","","","","","","","","","","","","",""
"","do_trial","136","433023","0.0-76.0-0.0","366.59999999403954","","","","","","","","51","0,0,1","6","blank","288","null","0.07215740655275672","0.5345115927466977","0.3159624588153271","1","","","","","","","","",""
"","html-keyboard-response","137","434026","0.0-76.0-1.0","null","<p></p>","null","","","","","","","","","","","","","","","","","","","","","","","",""
"","do_trial","138","436989","0.0-77.0-0.0","415.29999999701977","","","","","","","","51","0,1,1","6","blank","289","null","0.07623216241129722","0.4711489521435662","0.33683928820957987","1","","","","","","","","",""
"","html-keyboard-response","139","437995","0.0-77.0-1.0","null","<p></p>","null","","","","","","","","","","","","","","","","","","","","","","","",""
"","do_recog","140","440306","0.0-78.0-0.0","797.8999999985099","","","","","","","","53","","","","290","probe-108","","","","","1","[object Object]","164","4","1","","","",""
"","html-keyboard-response","141","441311","0.0-78.0-1.0","null","<p></p>","null","","","","","","","","","","","","","","","","","","","","","","","",""
"","do_trial","142","444738","0.0-79.0-0.0","880.6000000014901","","","","","","","","51","0,1,1","6","blank","291","null","0.19267279515320204","0.6270943553195619","0.3116757347128645","1","","","","","","","","",""
"","html-keyboard-response","143","445744","0.0-79.0-1.0","null","<p></p>","null","","","","","","","","","","","","","","","","","","","","","","","",""
"","do_trial","144","448533","0.0-80.0-0.0","239.79999999701977","","","","","","","","51","0,1,0","6","blank","292","null","0.25400388850042804","0.5870856864218901","0.43100638707313466","0","","","","","","","","",""
"","html-keyboard-response","145","449534","0.0-80.0-1.0","null","<p></p>","null","","","","","","","","","","","","","","","","","","","","","","","",""
"","do_trial","146","452391","0.0-81.0-0.0","311.8999999985099","","","","","","","","50","0,0,0","6","blank","293","null","0.274738417599871","0.6196873887414437","0.30137667876851765","0","","","","","","","","",""
"","html-keyboard-response","147","453393","0.0-81.0-1.0","null","<p></p>","null","","","","","","","","","","","","","","","","","","","","","","","",""
"","do_trial","148","456672","0.0-82.0-0.0","726.1999999955297","","","","","","","","50","0,1,0","6","blank","294","null","0.2947026893786182","0.5101607324959463","0.2640590879979736","1","","","","","","","","",""
"","html-keyboard-response","149","457677","0.0-82.0-1.0","null","<p></p>","null","","","","","","","","","","","","","","","","","","","","","","","",""
"","do_trial","150","460500","0.0-83.0-0.0","273.29999999701977","","","","","","","","50","0,1,1","6","blank","295","null","0.2067391247109763","0.4500598919357141","0.3353773242600046","1","","","","","","","","",""
"","html-keyboard-response","151","461503","0.0-83.0-1.0","null","<p></p>","null","","","","","","","","","","","","","","","","","","","","","","","",""
"","do_trial","152","464490","0.0-84.0-0.0","441.79999999701977","","","","","","","","50","0,0,0","6","blank","296","null","0.2822734126425378","0.3336867657003654","0.2965805651465319","0","","","","","","","","",""
"","html-keyboard-response","153","465492","0.0-84.0-1.0","null","<p></p>","null","","","","","","","","","","","","","","","","","","","","","","","",""
"","do_trial","154","468592","0.0-85.0-0.0","549.8000000044703","","","","","","","","51","0,0,1","6","blank","297","null","0.4282311927207125","0.22127704108908972","0.30720725516834185","1","","","","","","","","",""
"","html-keyboard-response","155","469594","0.0-85.0-1.0","null","<p></p>","null","","","","","","","","","","","","","","","","","","","","","","","",""
"","do_recog","156","471764","0.0-86.0-0.0","659.7000000029802","","","","","","","","54","","","","298","probe-203","","","","","1","[object Object]","169","4","1","","","",""
"","html-keyboard-response","157","472769","0.0-86.0-1.0","null","<p></p>","null","","","","","","","","","","","","","","","","","","","","","","","",""
"","do_trial","158","476083","0.0-87.0-0.0","765.1000000014901","","","","","","","","50","1,1,0","6","blank","299","null","0.3219810883289406","0.17003099940549457","0.3029200220512978","1","","","","","","","","",""
"","html-keyboard-response","159","477084","0.0-87.0-1.0","null","<p></p>","null","","","","","","","","","","","","","","","","","","","","","","","",""
"","do_recog","160","479501","0.0-88.0-0.0","904.4000000059605","","","","","","","","53","","","","300","probe-209","","","","","1","[object Object]","41","1","1","","","",""
"","html-keyboard-response","161","480503","0.0-88.0-1.0","null","<p></p>","null","","","","","","","","","","","","","","","","","","","","","","","",""
"","do_trial","162","483993","0.0-89.0-0.0","941.5","","","","","","","","51","1,0,1","6","blank","301","null","0.5036093659904408","0.24872785005323464","0.193129963502669","1","","","","","","","","",""
"","html-keyboard-response","163","484997","0.0-89.0-1.0","null","<p></p>","null","","","","","","","","","","","","","","","","","","","","","","","",""
"","do_recog","164","487237","0.0-90.0-0.0","726.1000000014901","","","","","","","","53","","","","302","probe-112","","","","","1","[object Object]","165","4","1","","","",""
"","html-keyboard-response","165","488240","0.0-90.0-1.0","null","<p></p>","null","","","","","","","","","","","","","","","","","","","","","","","",""
"","do_trial","166","491134","0.0-91.0-0.0","345.29999999701977","","","","","","","","51","1,0,0","6","blank","303","null","0.5295436386736251","0.1863697660721474","0.161172267676861","0","","","","","","","","",""
"","html-keyboard-response","167","492139","0.0-91.0-1.0","null","<p></p>","null","","","","","","","","","","","","","","","","","","","","","","","",""
"","do_recog","168","495329","0.0-92.0-0.0","1678.8999999985099","","","","","","","","53","","","","304","probe-215","","","","","1","[object Object]","166","4","1","","","",""
"","html-keyboard-response","169","496334","0.0-92.0-1.0","null","<p></p>","null","","","","","","","","","","","","","","","","","","","","","","","",""
"","do_trial","170","499522","0.0-93.0-0.0","639.5","","","","","","","","49","1,0,0","6","blank","305","null","0.6179096030334501","0.13534672630894945","0.1868880840663433","1","","","","","","","","",""
"","html-keyboard-response","171","500527","0.0-93.0-1.0","null","<p></p>","null","","","","","","","","","","","","","","","","","","","","","","","",""
"","do_trial","172","503379","0.0-94.0-0.0","299.70000000298023","","","","","","","","50","0,0,0","6","blank","306","null","0.7176039675298563","0.11449905163283405","0.056903495235945276","0","","","","","","","","",""
"","html-keyboard-response","173","504384","0.0-94.0-1.0","null","<p></p>","null","","","","","","","","","","","","","","","","","","","","","","","",""
"","do_recog","174","506583","0.0-95.0-0.0","687.6999999955297","","","","","","","","53","","","","307","probe-100","","","","","1","[object Object]","120","3","1","","","",""
"","html-keyboard-response","175","507588","0.0-95.0-1.0","null","<p></p>","null","","","","","","","","","","","","","","","","","","","","","","","",""
"","do_trial","176","510754","0.0-96.0-0.0","616.8000000044703","","","","","","","","51","1,0,0","6","blank","308","null","0.5629039490221162","0.1286621549155978","0.26676201787792275","0","","","","","","","","",""
"","html-keyboard-response","177","511758","0.0-96.0-1.0","null","<p></p>","null","","","","","","","","","","","","","","","","","","","","","","","",""
"","break","178","544774","0.0-96.0-2.0","33013.89999999851","<div class='center'><p>Time to take a quick break! You have 2 minutes to rest, but you can move on sooner if you'd like.</p><p> Press the <b>space bar</b> to continue.</p></div>","32","","","","","","","","","","","","","","","","","","","","","","","",""
"","do_trial","179","548764","0.0-96.0-3.0","1445","","","","","","","","49","1,0,0","6","blank","309","null","0.6292612217614114","0.06292416356085621","0.34937729884842794","1","","","","","","","","",""
"","html-keyboard-response","180","549771","0.0-96.0-4.0","null","<p></p>","null","","","","","","","","","","","","","","","","","","","","","","","",""
"","do_trial","181","552764","0.0-97.0-0.0","449.5","","","","","","","","49","1,0,0","6","blank","310","null","0.5877304320184544","0.053666012374209","0.2755084911034017","1","","","","","","","","",""
"","html-keyboard-response","182","553770","0.0-97.0-1.0","null","<p></p>","null","","","","","","","","","","","","","","","","","","","","","","","",""
"","do_trial","183","556508","0.0-98.0-0.0","189.30000000447035","","","","","","","","49","1,0,0","6","blank","311","null","0.5546561939325176","0.10354673325433598","0.35330539245386133","1","","","","","","","","",""
"","html-keyboard-response","184","557513","0.0-98.0-1.0","null","<p></p>","null","","","","","","","","","","","","","","","","","","","","","","","",""
"","do_trial","185","560066","0.0-99.0-0.0","0.10000000149011612","","","","","","","","50","1,1,0","6","blank","312","null","0.5576164505163065","0.051929609340353365","0.4230872961612891","1","","","","","","","","",""
"","html-keyboard-response","186","561071","0.0-99.0-1.0","null","<p></p>","null","","","","","","","","","","","","","","","","","","","","","","","",""
"","do_recog","187","563319","0.0-100.0-0.0","738.7999999970198","","","","","","","","53","","","","313","probe-166","","","","","1","[object Object]","203","5","1","","","",""
"","html-keyboard-response","188","564320","0.0-100.0-1.0","null","<p></p>","null","","","","","","","","","","","","","","","","","","","","","","","",""
"","do_trial","189","567120","0.0-101.0-0.0","250.60000000149012","","","","","","","","49","1,0,0","6","blank","314","null","0.5707390473963606","0.14778699479806057","0.2915717738905705","1","","","","","","","","",""
"","html-keyboard-response","190","568125","0.0-101.0-1.0","null","<p></p>","null","","","","","","","","","","","","","","","","","","","","","","","",""
"","do_trial","191","571001","0.0-102.0-0.0","327","","","","","","","","50","1,1,0","6","blank","315","null","0.758155092110118","0.2947707209102358","0.29401679535689207","1","","","","","","","","",""
"","html-keyboard-response","192","572007","0.0-102.0-1.0","null","<p></p>","null","","","","","","","","","","","","","","","","","","","","","","","",""
"","do_trial","193","574672","0.0-103.0-0.0","116.5","","","","","","","","49","1,0,1","6","blank","316","null","0.7399478823132509","0.2739261722104324","0.38582338252821824","1","","","","","","","","",""
"","html-keyboard-response","194","575678","0.0-103.0-1.0","null","<p></p>","null","","","","","","","","","","","","","","","","","","","","","","","",""
"","do_recog","195","577910","0.0-104.0-0.0","719.1000000014901","","","","","","","","53","","","","317","probe-216","","","","","1","[object Object]","206","5","1","","","",""
"","html-keyboard-response","196","578915","0.0-104.0-1.0","null","<p></p>","null","","","","","","","","","","","","","","","","","","","","","","","",""
"","do_trial","197","581881","0.0-105.0-0.0","417.29999999701977","","","","","","","","50","1,0,1","6","blank","318","null","0.7225934075999428","0.1809729317191495","0.3735777085592001","0","","","","","","","","",""
"","html-keyboard-response","198","582882","0.0-105.0-1.0","null","<p></p>","null","","","","","","","","","","","","","","","","","","","","","","","",""
"","do_trial","199","585845","0.0-106.0-0.0","416.5","","","","","","","","49","1,1,1","6","blank","319","null","0.7185842081673853","0.170117516827101","0.2693540286667579","1","","","","","","","","",""
"","html-keyboard-response","200","586847","0.0-106.0-1.0","null","<p></p>","null","","","","","","","","","","","","","","","","","","","","","","","",""
"","do_recog","201","589116","0.0-107.0-0.0","761.2999999970198","","","","","","","","53","","","","320","probe-212","","","","","1","[object Object]","168","4","1","","","",""
"","html-keyboard-response","202","590122","0.0-107.0-1.0","null","<p></p>","null","","","","","","","","","","","","","","","","","","","","","","","",""
"","do_trial","203","593175","0.0-108.0-0.0","508.30000000447035","","","","","","","","49","0,1,0","6","blank","321","null","0.602780425161307","0.2527874602414458","0.17049603561199256","0","","","","","","","","",""
"","html-keyboard-response","204","594178","0.0-108.0-1.0","null","<p></p>","null","","","","","","","","","","","","","","","","","","","","","","","",""
"","do_recog","205","596379","0.0-109.0-0.0","688.2999999970198","","","","","","","","53","","","","322","probe-36","","","","","1","[object Object]","42","1","1","","","",""
"","html-keyboard-response","206","597384","0.0-109.0-1.0","null","<p></p>","null","","","","","","","","","","","","","","","","","","","","","","","",""
"","do_trial","207","600193","0.0-110.0-0.0","257.20000000298023","","","","","","","","51","1,1,0","6","blank","323","null","0.6559737181044935","0.2612558994579366","0.17090394222356847","0","","","","","","","","",""
"","html-keyboard-response","208","601198","0.0-110.0-1.0","null","<p></p>","null","","","","","","","","","","","","","","","","","","","","","","","",""
"","do_recog","209","604042","0.0-111.0-0.0","1331.6999999955297","","","","","","","","53","","","","324","probe-77","","","","","1","[object Object]","121","3","1","","","",""
"","html-keyboard-response","210","605047","0.0-111.0-1.0","null","<p></p>","null","","","","","","","","","","","","","","","","","","","","","","","",""
"","do_trial","211","607974","0.0-112.0-0.0","378.30000000447035","","","","","","","","49","0,1,0","6","blank","325","null","0.5753054771131937","0.1574293639723472","0.20665889233303417","0","","","","","","","","",""
"","html-keyboard-response","212","608979","0.0-112.0-1.0","null","<p></p>","null","","","","","","","","","","","","","","","","","","","","","","","",""
"","do_trial","213","611750","0.0-113.0-0.0","226.19999999552965","","","","","","","","50","1,0,0","6","blank","326","null","0.6473757423080407","0.07051720496563765","0.20353560034583726","0","","","","","","","","",""
"","html-keyboard-response","214","612755","0.0-113.0-1.0","null","<p></p>","null","","","","","","","","","","","","","","","","","","","","","","","",""
"","do_trial","215","615732","0.0-114.0-0.0","430.5","","","","","","","","50","0,0,0","6","blank","327","null","0.6463557330539793","0.059141661191344674","0.24060621854024639","0","","","","","","","","",""
"","html-keyboard-response","216","616736","0.0-114.0-1.0","null","<p></p>","null","","","","","","","","","","","","","","","","","","","","","","","",""
"","do_trial","217","619290","0.0-115.0-0.0","5.299999997019768","","","","","","","","51","1,0,0","6","blank","328","null","0.6416543866647527","0.16319068396123443","0.4727684020649494","0","","","","","","","","",""
"","html-keyboard-response","218","620295","0.0-115.0-1.0","null","<p></p>","null","","","","","","","","","","","","","","","","","","","","","","","",""
"","do_trial","219","623196","0.0-116.0-0.0","347.19999999552965","","","","","","","","49","1,1,0","6","blank","329","null","0.5785010514287362","0.4206401672627885","0.3566696162848139","1","","","","","","","","",""
"","html-keyboard-response","220","624198","0.0-116.0-1.0","null","<p></p>","null","","","","","","","","","","","","","","","","","","","","","","","",""
"","do_trial","221","627503","0.0-117.0-0.0","759.2999999970198","","","","","","","","49","0,0,0","6","blank","330","null","0.5715521419825064","0.35026640394074804","0.4236232196326775","0","","","","","","","","",""
"","html-keyboard-response","222","628504","0.0-117.0-1.0","null","<p></p>","null","","","","","","","","","","","","","","","","","","","","","","","",""
"","do_trial","223","631421","0.0-118.0-0.0","365","","","","","","","","49","1,0,1","6","blank","331","null","0.6967198206847295","0.25687138539591897","0.34269735698177867","1","","","","","","","","",""
"","html-keyboard-response","224","632427","0.0-118.0-1.0","null","<p></p>","null","","","","","","","","","","","","","","","","","","","","","","","",""
"","do_recog","225","634814","0.0-119.0-0.0","879.2000000029802","","","","","","","","53","","","","332","probe-114","","","","","1","[object Object]","209","5","1","","","",""
"","html-keyboard-response","226","635820","0.0-119.0-1.0","null","<p></p>","null","","","","","","","","","","","","","","","","","","","","","","","",""
"","do_trial","227","638918","0.0-120.0-0.0","552.3999999985099","","","","","","","","49","0,0,1","6","blank","333","null","0.625462091514475","0.2800816980681089","0.326932115151339","0","","","","","","","","",""
"","html-keyboard-response","228","639920","0.0-120.0-1.0","null","<p></p>","null","","","","","","","","","","","","","","","","","","","","","","","",""
"","do_trial","229","643447","0.0-121.0-0.0","978.3999999985099","","","","","","","","51","0,0,0","6","blank","334","null","0.5765691677539496","0.08913892915321991","0.35428778911311865","0","","","","","","","","",""
"","html-keyboard-response","230","644452","0.0-121.0-1.0","null","<p></p>","null","","","","","","","","","","","","","","","","","","","","","","","",""
"","do_trial","231","647389","0.0-122.0-0.0","388.8999999985099","","","","","","","","50","1,0,1","6","blank","335","null","0.6096840717689471","0.23257218633489507","0.36812118656671333","0","","","","","","","","",""
"","html-keyboard-response","232","648394","0.0-122.0-1.0","null","<p></p>","null","","","","","","","","","","","","","","","","","","","","","","","",""
"","do_trial","233","651194","0.0-123.0-0.0","252.29999999701977","","","","","","","","49","1,1,1","6","blank","336","null","0.7007359929220358","0.06559117355816019","0.45869690750776027","1","","","","","","","","",""
"","html-keyboard-response","234","652199","0.0-123.0-1.0","null","<p></p>","null","","","","","","","","","","","","","","","","","","","","","","","",""
"","do_recog","235","654601","0.0-124.0-0.0","890.7000000029802","","","","","","","","53","","","","337","probe-95","","","","","1","[object Object]","208","5","1","","","",""
"","html-keyboard-response","236","655607","0.0-124.0-1.0","null","<p></p>","null","","","","","","","","","","","","","","","","","","","","","","","",""
"","do_trial","237","658907","0.0-125.0-0.0","742.7999999970198","","","","","","","","49","1,0,0","6","blank","338","null","0.5759413775087876","0.08423569847093988","0.2926940230563342","1","","","","","","","","",""
"","html-keyboard-response","238","659914","0.0-125.0-1.0","null","<p></p>","null","","","","","","","","","","","","","","","","","","","","","","","",""
"","do_recog","239","662593","0.0-126.0-0.0","1171","","","","","","","","53","","","","339","probe-242","","","","","0","[object Object]","null","null","0","","","",""
"","html-keyboard-response","240","663596","0.0-126.0-1.0","null","<p></p>","null","","","","","","","","","","","","","","","","","","","","","","","",""
"","do_trial","241","666852","0.0-127.0-0.0","707.1000000014901","","","","","","","","49","1,0,0","6","blank","340","null","0.5928910125053325","0.12502975094448876","0.2306163394603695","1","","","","","","","","",""
"","html-keyboard-response","242","667859","0.0-127.0-1.0","null","<p></p>","null","","","","","","","","","","","","","","","","","","","","","","","",""
"","do_recog","243","671725","0.0-128.0-0.0","2353.3000000044703","","","","","","","","55","","","","341","probe-89","","","","","1","[object Object]","88","2","0","","","",""
"","html-keyboard-response","244","672730","0.0-128.0-1.0","null","<p></p>","null","","","","","","","","","","","","","","","","","","","","","","","",""
"","do_trial","245","676049","0.0-129.0-0.0","769.8000000044703","","","","","","","","49","0,1,1","6","blank","342","null","0.5144871444407333","0.16460869977684273","0.3792402267518045","0","","","","","","","","",""
"","html-keyboard-response","246","677055","0.0-129.0-1.0","null","<p></p>","null","","","","","","","","","","","","","","","","","","","","","","","",""
"","do_trial","247","679850","0.0-130.0-0.0","250.59999999403954","","","","","","","","50","1,0,1","6","blank","343","null","0.6668711162735913","0.125986243866059","0.36675923479983186","0","","","","","","","","",""
"","html-keyboard-response","248","680855","0.0-130.0-1.0","null","<p></p>","null","","","","","","","","","","","","","","","","","","","","","","","",""
"","do_trial","249","684101","0.0-131.0-0.0","699.6000000014901","","","","","","","","51","1,1,0","6","blank","344","null","0.6851642892998876","0.2062553962485859","0.27520369083813834","0","","","","","","","","",""
"","html-keyboard-response","250","685102","0.0-131.0-1.0","null","<p></p>","null","","","","","","","","","","","","","","","","","","","","","","","",""
"","do_trial","251","687967","0.0-132.0-0.0","319.6000000014901","","","","","","","","51","1,0,0","6","blank","345","null","0.6297118297768786","0.16245731307845404","0.14229636157518794","0","","","","","","","","",""
"","html-keyboard-response","252","688972","0.0-132.0-1.0","null","<p></p>","null","","","","","","","","","","","","","","","","","","","","","","","",""
"","do_trial","253","691747","0.0-133.0-0.0","227.70000000298023","","","","","","","","50","1,0,0","6","blank","346","null","0.6595710094489692","0.09637279866954429","0.1699060163843037","0","","","","","","","","",""
"","html-keyboard-response","254","692753","0.0-133.0-1.0","null","<p></p>","null","","","","","","","","","","","","","","","","","","","","","","","",""
"","do_trial","255","696113","0.0-134.0-0.0","816.5","","","","","","","","49","1,0,0","6","blank","347","null","0.7648358061979471","0.14277658284932204","0.1544170786888963","1","","","","","","","","",""
"","html-keyboard-response","256","697120","0.0-134.0-1.0","null","<p></p>","null","","","","","","","","","","","","","","","","","","","","","","","",""
"","break","257","722739","0.0-135.0-0.0","25617","<div class='center'><p>Time to take a quick break! You have 2 minutes to rest, but you can move on sooner if you'd like.</p><p> Press the <b>space bar</b> to continue.</p></div>","32","","","","","","","","","","","","","","","","","","","","","","","",""
"","do_recog","258","726214","0.0-135.0-1.0","1963.5","","","","","","","","53","","","","348","probe-152","","","","","1","[object Object]","85","2","1","","","",""
"","html-keyboard-response","259","727218","0.0-135.0-2.0","null","<p></p>","null","","","","","","","","","","","","","","","","","","","","","","","",""
"","do_trial","260","731170","0.0-136.0-0.0","1403.7999999970198","","","","","","","","49","1,0,0","6","blank","349","null","0.8011348040325994","0.19059844857103683","0.15718121703298849","1","","","","","","","","",""
"","html-keyboard-response","261","732174","0.0-136.0-1.0","null","<p></p>","null","","","","","","","","","","","","","","","","","","","","","","","",""
"","do_trial","262","734976","0.0-137.0-0.0","253","","","","","","","","49","1,0,0","6","blank","350","null","0.8616316877238166","0.16033979343507937","0.07864496390654695","1","","","","","","","","",""
"","html-keyboard-response","263","735978","0.0-137.0-1.0","null","<p></p>","null","","","","","","","","","","","","","","","","","","","","","","","",""
"","do_trial","264","738522","0.0-138.0-0.0","0.20000000298023224","","","","","","","","49","1,0,0","6","blank","351","null","0.5595133659402171","0.2371743618968077","0.36531236734278244","1","","","","","","","","",""
"","html-keyboard-response","265","739526","0.0-138.0-1.0","null","<p></p>","null","","","","","","","","","","","","","","","","","","","","","","","",""
"","do_trial","266","742345","0.0-139.0-0.0","272.70000000298023","","","","","","","","49","0,0,0","6","blank","352","null","0.3870067924749245","0.2154849461797911","0.4453907533116535","0","","","","","","","","",""
"","html-keyboard-response","267","743351","0.0-139.0-1.0","null","<p></p>","null","","","","","","","","","","","","","","","","","","","","","","","",""
"","do_recog","268","745367","0.0-140.0-0.0","508.69999999552965","","","","","","","","53","","","","353","probe-22","","","","","1","[object Object]","87","2","1","","","",""
"","html-keyboard-response","269","746370","0.0-140.0-1.0","null","<p></p>","null","","","","","","","","","","","","","","","","","","","","","","","",""
"","do_trial","270","749323","0.0-141.0-0.0","402.90000000596046","","","","","","","","50","0,0,1","6","blank","354","null","0.2289725811510035","0.29865635667877355","0.5390998799184739","0","","","","","","","","",""
"","html-keyboard-response","271","750328","0.0-141.0-1.0","null","<p></p>","null","","","","","","","","","","","","","","","","","","","","","","","",""
"","do_trial","272","753187","0.0-142.0-0.0","309.20000000298023","","","","","","","","49","0,0,1","6","blank","355","null","0.07464398708365848","0.3057823156050601","0.615009363963051","0","","","","","","","","",""
"","html-keyboard-response","273","754190","0.0-142.0-1.0","null","<p></p>","null","","","","","","","","","","","","","","","","","","","","","","","",""
"","do_trial","274","756770","0.0-143.0-0.0","36.70000000298023","","","","","","","","49","0,0,1","6","blank","356","null","0.05866827387480196","0.27699665338957885","0.6432246412788603","0","","","","","","","","",""
"","html-keyboard-response","275","757777","0.0-143.0-1.0","null","<p></p>","null","","","","","","","","","","","","","","","","","","","","","","","",""
"","do_trial","276","760844","0.0-144.0-0.0","520.1000000014901","","","","","","","","49","0,1,0","6","blank","357","null","0.17386263896345364","0.3707732336984509","0.7103671060967017","0","","","","","","","","",""
"","html-keyboard-response","277","761850","0.0-144.0-1.0","null","<p></p>","null","","","","","","","","","","","","","","","","","","","","","","","",""
"","do_trial","278","764400","0.0-145.0-0.0","0.20000000298023224","","","","","","","","51","0,0,1","6","blank","358","null","0.05252741688047868","0.19607325167251938","0.6342035668380678","1","","","","","","","","",""
"","html-keyboard-response","279","765405","0.0-145.0-1.0","null","<p></p>","null","","","","","","","","","","","","","","","","","","","","","","","",""
"","do_trial","280","768144","0.0-146.0-0.0","190.29999999701977","","","","","","","","51","0,1,0","6","blank","359","null","0.08746986137139441","0.27501691067857903","0.6376692031390612","0","","","","","","","","",""
"","html-keyboard-response","281","769150","0.0-146.0-1.0","null","<p></p>","null","","","","","","","","","","","","","","","","","","","","","","","",""
"","do_recog","282","771694","0.0-147.0-0.0","1030.6999999955297","","","","","","","","53","","","","360","probe-195","","","","","1","[object Object]","86","2","1","","","",""
"","html-keyboard-response","283","772698","0.0-147.0-1.0","null","<p></p>","null","","","","","","","","","","","","","","","","","","","","","","","",""
"","do_trial","284","776561","0.0-148.0-0.0","1314.2999999970198","","","","","","","","50","0,0,1","6","blank","361","null","0.09037212357866689","0.2225376295024055","0.7594449812344617","0","","","","","","","","",""
"","html-keyboard-response","285","777567","0.0-148.0-1.0","null","<p></p>","null","","","","","","","","","","","","","","","","","","","","","","","",""
"","do_trial","286","780706","0.0-149.0-0.0","578.8999999985099","","","","","","","","49","0,0,1","6","blank","362","null","0.15815207336404336","0.06677392761104162","0.8414481290842533","0","","","","","","","","",""
"","html-keyboard-response","287","781710","0.0-149.0-1.0","null","<p></p>","null","","","","","","","","","","","","","","","","","","","","","","","",""
"","do_trial","288","784633","0.0-150.0-0.0","373.3999999985099","","","","","","","","51","0,0,0","6","blank","363","null","0.15440349236705003","0.22491046269667025","0.6921864476102323","0","","","","","","","","",""
"","html-keyboard-response","289","785637","0.0-150.0-1.0","null","<p></p>","null","","","","","","","","","","","","","","","","","","","","","","","",""
"","do_trial","290","788320","0.0-151.0-0.0","138.19999999552965","","","","","","","","50","0,0,0","6","blank","364","null","0.1348015627553243","0.31160617455957335","0.753326909470171","0","","","","","","","","",""
"","html-keyboard-response","291","789324","0.0-151.0-1.0","null","<p></p>","null","","","","","","","","","","","","","","","","","","","","","","","",""
"","do_trial","292","791993","0.0-152.0-0.0","119.29999999701977","","","","","","","","49","0,1,1","6","blank","365","null","0.07041760997420886","0.28146359645732694","0.6351532781124951","0","","","","","","","","",""
"","html-keyboard-response","293","792999","0.0-152.0-1.0","null","<p></p>","null","","","","","","","","","","","","","","","","","","","","","","","",""
"","do_trial","294","795545","0.0-153.0-0.0","0.3999999985098839","","","","","","","","51","0,1,1","6","blank","366","null","0.07113469505777556","0.24950308089491294","0.4193884804373149","1","","","","","","","","",""
"","html-keyboard-response","295","796550","0.0-153.0-1.0","null","<p></p>","null","","","","","","","","","","","","","","","","","","","","","","","",""
"","do_recog","296","798949","0.0-154.0-0.0","887.0999999940395","","","","","","","","53","","","","367","probe-90","","","","","1","[object Object]","49","1","1","","","",""
"","html-keyboard-response","297","799956","0.0-154.0-1.0","null","<p></p>","null","","","","","","","","","","","","","","","","","","","","","","","",""
"","do_trial","298","803129","0.0-155.0-0.0","624","","","","","","","","49","0,1,0","6","blank","368","null","0.1537174233648929","0.3092694988389502","0.3604587712610365","0","","","","","","","","",""
"","html-keyboard-response","299","804135","0.0-155.0-1.0","null","<p></p>","null","","","","","","","","","","","","","","","","","","","","","","","",""
"","do_trial","300","807128","0.0-156.0-0.0","447.69999999552965","","","","","","","","50","0,1,1","6","blank","369","null","0.16997982743496726","0.33346616785242056","0.3450591750342506","1","","","","","","","","",""
"","html-keyboard-response","301","808133","0.0-156.0-1.0","null","<p></p>","null","","","","","","","","","","","","","","","","","","","","","","","",""
"","do_trial","302","812011","0.0-157.0-0.0","1327.8999999985099","","","","","","","","50","0,0,0","6","blank","370","null","0.056197500040522465","0.38384244768111797","0.3341524203688631","0","","","","","","","","",""
"","html-keyboard-response","303","813012","0.0-157.0-1.0","null","<p></p>","null","","","","","","","","","","","","","","","","","","","","","","","",""
"","do_trial","304","815968","0.0-158.0-0.0","393","","","","","","","","50","0,1,1","6","blank","371","null","0.05312307645573871","0.34709534289382254","0.49850907432776864","1","","","","","","","","",""
"","html-keyboard-response","305","816969","0.0-158.0-1.0","null","<p></p>","null","","","","","","","","","","","","","","","","","","","","","","","",""
"","do_trial","306","819827","0.0-159.0-0.0","300.79999999701977","","","","","","","","51","0,1,1","6","blank","372","null","0.0871824162212091","0.3902882584037468","0.5515146785168691","1","","","","","","","","",""
"","html-keyboard-response","307","820832","0.0-159.0-1.0","null","<p></p>","null","","","","","","","","","","","","","","","","","","","","","","","",""
"","do_recog","308","823324","0.0-160.0-0.0","985.3999999985099","","","","","","","","53","","","","373","probe-154","","","","","1","[object Object]","82","2","1","","","",""
"","html-keyboard-response","309","824328","0.0-160.0-1.0","null","<p></p>","null","","","","","","","","","","","","","","","","","","","","","","","",""
"","do_trial","310","827719","0.0-161.0-0.0","837.1000000014901","","","","","","","","50","0,0,0","6","blank","374","null","0.08657050396321583","0.1604148750348932","0.5153949242806105","0","","","","","","","","",""
"","html-keyboard-response","311","828724","0.0-161.0-1.0","null","<p></p>","null","","","","","","","","","","","","","","","","","","","","","","","",""
"","do_trial","312","831314","0.0-162.0-0.0","35.79999999701977","","","","","","","","51","0,0,0","6","blank","375","null","0.1885718319306678","0.13137794562841001","0.3419527175870267","0","","","","","","","","",""
"","html-keyboard-response","313","832317","0.0-162.0-1.0","null","<p></p>","null","","","","","","","","","","","","","","","","","","","","","","","",""
"","do_trial","314","835154","0.0-163.0-0.0","289.70000000298023","","","","","","","","49","0,0,0","6","blank","376","null","0.15871681082943495","0.1538762744954359","0.5426967272759026","0","","","","","","","","",""
"","html-keyboard-response","315","836161","0.0-163.0-1.0","null","<p></p>","null","","","","","","","","","","","","","","","","","","","","","","","",""
"","do_trial","316","839322","0.0-164.0-0.0","608","","","","","","","","50","0,1,1","6","blank","377","null","0.21691865934632007","0.2142056478321067","0.5660559009326732","1","","","","","","","","",""
"","html-keyboard-response","317","840327","0.0-164.0-1.0","null","<p></p>","null","","","","","","","","","","","","","","","","","","","","","","","",""
"","do_trial","318","843373","0.0-165.0-0.0","496.30000000447035","","","","","","","","50","0,0,0","6","blank","378","null","0.0985317460880539","0.33199122529104363","0.49343776106883847","0","","","","","","","","",""
"","html-keyboard-response","319","844376","0.0-165.0-1.0","null","<p></p>","null","","","","","","","","","","","","","","","","","","","","","","","",""
"","do_recog","320","846699","0.0-166.0-0.0","810.7999999970198","","","","","","","","53","","","","379","probe-174","","","","","1","[object Object]","89","2","1","","","",""
"","html-keyboard-response","321","847701","0.0-166.0-1.0","null","<p></p>","null","","","","","","","","","","","","","","","","","","","","","","","",""
"","do_trial","322","850922","0.0-167.0-0.0","673.6999999955297","","","","","","","","50","0,1,1","6","blank","380","null","0.16148083192822596","0.2911443669717382","0.7495924833173878","1","","","","","","","","",""
"","html-keyboard-response","323","851928","0.0-167.0-1.0","null","<p></p>","null","","","","","","","","","","","","","","","","","","","","","","","",""
"","do_recog","324","854618","0.0-168.0-0.0","1180.3999999985099","","","","","","","","53","","","","381","probe-146","","","","","1","[object Object]","40","1","1","","","",""
"","html-keyboard-response","325","855622","0.0-168.0-1.0","null","<p></p>","null","","","","","","","","","","","","","","","","","","","","","","","",""
"","do_trial","326","858668","0.0-169.0-0.0","499.5","","","","","","","","50","1,0,1","6","blank","382","null","0.178366465500507","0.21476310682522276","0.6510902383942263","0","","","","","","","","",""
"","html-keyboard-response","327","859669","0.0-169.0-1.0","null","<p></p>","null","","","","","","","","","","","","","","","","","","","","","","","",""
"","do_trial","328","862812","0.0-170.0-0.0","594.3000000044703","","","","","","","","51","0,0,0","6","blank","383","null","0.09447090468538903","0.21296102944214604","0.5957624386414301","0","","","","","","","","",""
"","html-keyboard-response","329","863815","0.0-170.0-1.0","null","<p></p>","null","","","","","","","","","","","","","","","","","","","","","","","",""
"","do_trial","330","867024","0.0-171.0-0.0","644.8000000044703","","","","","","","","49","0,0,1","6","blank","384","null","0.0516977722778032","0.3924781225820467","0.5469054291100066","0","","","","","","","","",""
"","html-keyboard-response","331","868030","0.0-171.0-1.0","null","<p></p>","null","","","","","","","","","","","","","","","","","","","","","","","",""
"","do_trial","332","871213","0.0-172.0-0.0","632.3999999985099","","","","","","","","50","0,0,0","6","blank","385","null","0.1560107178066322","0.43438945767728326","0.463901398735543","0","","","","","","","","",""
"","html-keyboard-response","333","872218","0.0-172.0-1.0","null","<p></p>","null","","","","","","","","","","","","","","","","","","","","","","","",""
"","do_trial","334","874988","0.0-173.0-0.0","216.29999999701977","","","","","","","","50","0,0,1","6","blank","386","null","0.11018217232994973","0.40350340552590785","0.6643393267108644","0","","","","","","","","",""
"","html-keyboard-response","335","875994","0.0-173.0-1.0","null","<p></p>","null","","","","","","","","","","","","","","","","","","","","","","","",""
"","do_trial","336","878800","0.0-174.0-0.0","257.1000000014901","","","","","","","","51","0,0,1","6","blank","387","null","0.15384645963269264","0.26946481338999273","0.6621450656465048","1","","","","","","","","",""
"","html-keyboard-response","337","879802","0.0-174.0-1.0","null","<p></p>","null","","","","","","","","","","","","","","","","","","","","","","","",""
"","break","338","921555","0.0-174.0-2.0","41751.60000000149","<div class='center'><p>Time to take a quick break! You have 2 minutes to rest, but you can move on sooner if you'd like.</p><p> Press the <b>space bar</b> to continue.</p></div>","32","","","","","","","","","","","","","","","","","","","","","","","",""
"","do_trial","339","924105","0.0-174.0-3.0","7.0999999940395355","","","","","","","","49","0,0,1","6","blank","388","null","0.1364627997044865","0.24111610871659556","0.6023526313091273","0","","","","","","","","",""
"","html-keyboard-response","340","925109","0.0-174.0-4.0","null","<p></p>","null","","","","","","","","","","","","","","","","","","","","","","","",""
"","do_recog","341","928287","0.0-175.0-0.0","1666.3000000044703","","","","","","","","53","","","","389","probe-05","","","","","1","[object Object]","200","5","1","","","",""
"","html-keyboard-response","342","929292","0.0-175.0-1.0","null","<p></p>","null","","","","","","","","","","","","","","","","","","","","","","","",""
"","do_trial","343","932382","0.0-176.0-0.0","542.7000000029802","","","","","","","","49","0,0,1","6","blank","390","null","0.16798802458339782","0.1495945414719944","0.6551991391474603","0","","","","","","","","",""
"","html-keyboard-response","344","933387","0.0-176.0-1.0","null","<p></p>","null","","","","","","","","","","","","","","","","","","","","","","","",""
"","do_recog","345","935772","0.0-177.0-0.0","873.8999999985099","","","","","","","","53","","","","391","probe-88","","","","","1","[object Object]","81","2","1","","","",""
"","html-keyboard-response","346","936776","0.0-177.0-1.0","null","<p></p>","null","","","","","","","","","","","","","","","","","","","","","","","",""
"","do_trial","347","939489","0.0-178.0-0.0","165.10000000149012","","","","","","","","51","0,0,1","6","blank","392","null","0.15249318087416516","0.1998641969735252","0.669873901152322","1","","","","","","","","",""
"","html-keyboard-response","348","940494","0.0-178.0-1.0","null","<p></p>","null","","","","","","","","","","","","","","","","","","","","","","","",""
"","do_trial","349","943391","0.0-179.0-0.0","347.20000000298023","","","","","","","","51","0,1,1","6","blank","393","null","0.21977396200923985","0.1008344940509067","0.6864469485488374","1","","","","","","","","",""
"","html-keyboard-response","350","944396","0.0-179.0-1.0","null","<p></p>","null","","","","","","","","","","","","","","","","","","","","","","","",""
"","do_recog","351","948258","0.0-180.0-0.0","2353.2999999970198","","","","","","","","53","","","","394","probe-125","","","","","1","[object Object]","129","3","1","","","",""
"","html-keyboard-response","352","949263","0.0-180.0-1.0","null","<p></p>","null","","","","","","","","","","","","","","","","","","","","","","","",""
"","do_trial","353","952650","0.0-181.0-0.0","835.2000000029802","","","","","","","","50","0,0,1","6","blank","395","null","0.17106718765267703","0.16313172895376415","0.6678429614512982","0","","","","","","","","",""
"","html-keyboard-response","354","953654","0.0-181.0-1.0","null","<p></p>","null","","","","","","","","","","","","","","","","","","","","","","","",""
"","do_trial","355","956503","0.0-182.0-0.0","299.1000000014901","","","","","","","","51","0,0,1","6","blank","396","null","0.10772414252783837","0.316511585670438","0.6601193858558249","1","","","","","","","","",""
"","html-keyboard-response","356","957508","0.0-182.0-1.0","null","<p></p>","null","","","","","","","","","","","","","","","","","","","","","","","",""
"","do_trial","357","960437","0.0-183.0-0.0","378.5","","","","","","","","51","0,0,1","6","blank","397","null","0.09009844795115637","0.26586059049350735","0.5684847265660224","1","","","","","","","","",""
"","html-keyboard-response","358","961442","0.0-183.0-1.0","null","<p></p>","null","","","","","","","","","","","","","","","","","","","","","","","",""
"","do_trial","359","964639","0.0-184.0-0.0","650.7999999970198","","","","","","","","51","0,0,1","6","blank","398","null","0.09709778609253875","0.23128778981610537","0.5679359379379798","1","","","","","","","","",""
"","html-keyboard-response","360","965645","0.0-184.0-1.0","null","<p></p>","null","","","","","","","","","","","","","","","","","","","","","","","",""
"","do_trial","361","968200","0.0-185.0-0.0","9.100000001490116","","","","","","","","51","0,1,0","6","blank","399","null","0.11206417811798403","0.31305740499035767","0.40830084346375894","0","","","","","","","","",""
"","html-keyboard-response","362","969201","0.0-185.0-1.0","null","<p></p>","null","","","","","","","","","","","","","","","","","","","","","","","",""
"","do_trial","363","972331","0.0-186.0-0.0","583.3000000044703","","","","","","","","49","0,0,0","6","blank","400","null","0.08428642186803","0.44622539072979633","0.37785655693546544","0","","","","","","","","",""
"","html-keyboard-response","364","973335","0.0-186.0-1.0","null","<p></p>","null","","","","","","","","","","","","","","","","","","","","","","","",""
"","do_trial","365","976460","0.0-187.0-0.0","577.6000000014901","","","","","","","","51","0,1,1","6","blank","401","null","0.25181720038367533","0.4294702466243517","0.3836034902222552","1","","","","","","","","",""
"","html-keyboard-response","366","977465","0.0-187.0-1.0","null","<p></p>","null","","","","","","","","","","","","","","","","","","","","","","","",""
"","do_recog","367","979963","0.0-188.0-0.0","986.4000000059605","","","","","","","","53","","","","402","probe-13","","","","","1","[object Object]","167","4","1","","","",""
"","html-keyboard-response","368","980968","0.0-188.0-1.0","null","<p></p>","null","","","","","","","","","","","","","","","","","","","","","","","",""
"","do_trial","369","984380","0.0-189.0-0.0","860.3000000044703","","","","","","","","51","0,0,0","6","blank","403","null","0.10828674057533977","0.5404119244808213","0.3015957737780189","0","","","","","","","","",""
"","html-keyboard-response","370","985382","0.0-189.0-1.0","null","<p></p>","null","","","","","","","","","","","","","","","","","","","","","","","",""
"","do_recog","371","987811","0.0-190.0-0.0","916.7000000029802","","","","","","","","53","","","","404","probe-172","","","","","1","[object Object]","202","5","1","","","",""
"","html-keyboard-response","372","988813","0.0-190.0-1.0","null","<p></p>","null","","","","","","","","","","","","","","","","","","","","","","","",""
"","do_trial","373","992009","0.0-191.0-0.0","644","","","","","","","","50","0,0,1","6","blank","405","null","0.09948289570683676","0.4585257520313132","0.30631904553476214","0","","","","","","","","",""
"","html-keyboard-response","374","993014","0.0-191.0-1.0","null","<p></p>","null","","","","","","","","","","","","","","","","","","","","","","","",""
"","do_recog","375","995704","0.0-192.0-0.0","1177.5","","","","","","","","53","","","","406","probe-142","","","","","1","[object Object]","122","3","1","","","",""
"","html-keyboard-response","376","996709","0.0-192.0-1.0","null","<p></p>","null","","","","","","","","","","","","","","","","","","","","","","","",""
"","do_trial","377","999865","0.0-193.0-0.0","607.6000000014901","","","","","","","","49","1,1,0","6","blank","407","null","0.08638899203499024","0.5249775147769659","0.25458497741256864","1","","","","","","","","",""
"","html-keyboard-response","378","1000868","0.0-193.0-1.0","null","<p></p>","null","","","","","","","","","","","","","","","","","","","","","","","",""
"","do_trial","379","1003797","0.0-194.0-0.0","383","","","","","","","","49","0,0,0","6","blank","408","null","0.0814287027127628","0.5100771327404937","0.25117684196916895","0","","","","","","","","",""
"","html-keyboard-response","380","1004803","0.0-194.0-1.0","null","<p></p>","null","","","","","","","","","","","","","","","","","","","","","","","",""
"","do_trial","381","1007734","0.0-195.0-0.0","381.70000000298023","","","","","","","","51","1,1,0","6","blank","409","null","0.15620528874528528","0.597859428893347","0.25852190826459087","0","","","","","","","","",""
"","html-keyboard-response","382","1008737","0.0-195.0-1.0","null","<p></p>","null","","","","","","","","","","","","","","","","","","","","","","","",""
"","do_trial","383","1011825","0.0-196.0-0.0","538.2999999970198","","","","","","","","50","0,1,0","6","blank","410","null","0.1287479366831654","0.6319007409275678","0.25449092456380834","1","","","","","","","","",""
"","html-keyboard-response","384","1012830","0.0-196.0-1.0","null","<p></p>","null","","","","","","","","","","","","","","","","","","","","","","","",""
"","do_trial","385","1015837","0.0-197.0-0.0","448.19999999552965","","","","","","","","50","0,0,0","6","blank","411","null","0.24449054532389383","0.5710597192047352","0.28504593795773453","0","","","","","","","","",""
"","html-keyboard-response","386","1016842","0.0-197.0-1.0","null","<p></p>","null","","","","","","","","","","","","","","","","","","","","","","","",""
"","do_trial","387","1019465","0.0-198.0-0.0","42.099999994039536","","","","","","","","51","0,1,0","6","blank","412","null","0.2706002652658916","0.6148539855851607","0.2237858816751473","0","","","","","","","","",""
"","html-keyboard-response","388","1020473","0.0-198.0-1.0","null","<p></p>","null","","","","","","","","","","","","","","","","","","","","","","","",""
"","do_recog","389","1022744","0.0-199.0-0.0","760","","","","","","","","54","","","","413","probe-229","","","","","1","[object Object]","127","3","1","","","",""
"","html-keyboard-response","390","1023747","0.0-199.0-1.0","null","<p></p>","null","","","","","","","","","","","","","","","","","","","","","","","",""
"","do_trial","391","1027628","0.0-200.0-0.0","1328.1000000014901","","","","","","","","50","0,1,0","6","blank","414","null","0.25769744282511137","0.5226573250154096","0.2788810478831166","1","","","","","","","","",""
"","html-keyboard-response","392","1028634","0.0-200.0-1.0","null","<p></p>","null","","","","","","","","","","","","","","","","","","","","","","","",""
"","do_recog","393","1030788","0.0-201.0-0.0","643.2000000029802","","","","","","","","53","","","","415","probe-122","","","","","1","[object Object]","46","1","1","","","",""
"","html-keyboard-response","394","1031792","0.0-201.0-1.0","null","<p></p>","null","","","","","","","","","","","","","","","","","","","","","","","",""
"","do_trial","395","1035378","0.0-202.0-0.0","1036.5","","","","","","","","50","0,1,0","6","blank","416","null","0.30244873370707837","0.6233822961437493","0.3786847107519305","1","","","","","","","","",""
"","html-keyboard-response","396","1036383","0.0-202.0-1.0","null","<p></p>","null","","","","","","","","","","","","","","","","","","","","","","","",""
"","do_trial","397","1039327","0.0-203.0-0.0","393","","","","","","","","50","0,1,1","6","blank","417","null","0.23431111183607314","0.5612920258347642","0.37336019145014876","1","","","","","","","","",""
"","html-keyboard-response","398","1040330","0.0-203.0-1.0","null","<p></p>","null","","","","","","","","","","","","","","","","","","","","","","","",""
"","do_trial","399","1043768","0.0-204.0-0.0","887.7999999970198","","","","","","","","50","1,0,1","6","blank","418","null","0.3539422723491676","0.49922529007587446","0.46506018881135597","0","","","","","","","","",""
"","html-keyboard-response","400","1044774","0.0-204.0-1.0","null","<p></p>","null","","","","","","","","","","","","","","","","","","","","","","","",""
"","do_trial","401","1047657","0.0-205.0-0.0","316.69999999552965","","","","","","","","50","0,0,0","6","blank","419","null","0.18591861879453717","0.46824497550255445","0.42510337710148394","0","","","","","","","","",""
"","html-keyboard-response","402","1048662","0.0-205.0-1.0","null","<p></p>","null","","","","","","","","","","","","","","","","","","","","","","","",""
"","do_recog","403","1050985","0.0-206.0-0.0","809.6000000014901","","","","","","","","53","","","","420","probe-67","","","","","1","[object Object]","161","4","1","","","",""
"","html-keyboard-response","404","1051986","0.0-206.0-1.0","null","<p></p>","null","","","","","","","","","","","","","","","","","","","","","","","",""
"","do_trial","405","1054890","0.0-207.0-0.0","352.79999999701977","","","","","","","","50","0,1,0","6","blank","421","null","0.05435108054964444","0.43843073622021367","0.4718162634024418","1","","","","","","","","",""
"","html-keyboard-response","406","1055894","0.0-207.0-1.0","null","<p></p>","null","","","","","","","","","","","","","","","","","","","","","","","",""
"","do_recog","407","1058150","0.0-208.0-0.0","743.1000000014901","","","","","","","","53","","","","422","probe-214","","","","","1","[object Object]","205","5","1","","","",""
"","html-keyboard-response","408","1059155","0.0-208.0-1.0","null","<p></p>","null","","","","","","","","","","","","","","","","","","","","","","","",""
"","do_trial","409","1062010","0.0-209.0-0.0","309.59999999403954","","","","","","","","51","0,1,1","6","blank","423","null","0.16151425474720987","0.5383995547768798","0.375128575625763","1","","","","","","","","",""
"","html-keyboard-response","410","1063013","0.0-209.0-1.0","null","<p></p>","null","","","","","","","","","","","","","","","","","","","","","","","",""
"","do_trial","411","1065980","0.0-210.0-0.0","417.5","","","","","","","","50","0,1,1","6","blank","424","null","0.1276609707519058","0.6296460306203226","0.30547809263610315","1","","","","","","","","",""
"","html-keyboard-response","412","1066984","0.0-210.0-1.0","null","<p></p>","null","","","","","","","","","","","","","","","","","","","","","","","",""
"","do_trial","413","1069983","0.0-211.0-0.0","453.80000000447035","","","","","","","","50","0,1,1","6","blank","425","null","0.09696661040792308","0.6922598143156483","0.24798600085832","1","","","","","","","","",""
"","html-keyboard-response","414","1070985","0.0-211.0-1.0","null","<p></p>","null","","","","","","","","","","","","","","","","","","","","","","","",""
"","do_recog","415","1073182","0.0-212.0-0.0","685.6000000014901","","","","","","","","53","","","","426","probe-220","","","","","1","[object Object]","44","1","1","","","",""
"","html-keyboard-response","416","1074190","0.0-212.0-1.0","null","<p></p>","null","","","","","","","","","","","","","","","","","","","","","","","",""
"","do_trial","417","1077022","0.0-213.0-0.0","287.6000000014901","","","","","","","","51","1,1,1","6","blank","427","null","0.08181131869182945","0.6233758425471584","0.3060312940717357","1","","","","","","","","",""
"","html-keyboard-response","418","1078029","0.0-213.0-1.0","null","<p></p>","null","","","","","","","","","","","","","","","","","","","","","","","",""
"","break","419","1127698","0.0-213.0-2.0","49665","<div class='center'><p>Time to take a quick break! You have 2 minutes to rest, but you can move on sooner if you'd like.</p><p> Press the <b>space bar</b> to continue.</p></div>","32","","","","","","","","","","","","","","","","","","","","","","","",""
"","do_trial","420","1130242","0.0-213.0-3.0","0.29999999701976776","","","","","","","","49","0,1,1","6","blank","428","null","0.12259214891859528","0.5855772089953791","0.3237581537426724","0","","","","","","","","",""
"","html-keyboard-response","421","1131247","0.0-213.0-4.0","null","<p></p>","null","","","","","","","","","","","","","","","","","","","","","","","",""
"","do_recog","422","1133503","0.0-214.0-0.0","742.7999999970198","","","","","","","","53","","","","429","probe-04","","","","","1","[object Object]","83","2","1","","","",""
"","html-keyboard-response","423","1134506","0.0-214.0-1.0","null","<p></p>","null","","","","","","","","","","","","","","","","","","","","","","","",""
"","do_trial","424","1137220","0.0-215.0-0.0","162.30000000447035","","","","","","","","51","0,0,0","6","blank","430","null","0.2412217394488163","0.6188906709752685","0.24827340160123257","0","","","","","","","","",""
"","html-keyboard-response","425","1138225","0.0-215.0-1.0","null","<p></p>","null","","","","","","","","","","","","","","","","","","","","","","","",""
"","do_trial","426","1140931","0.0-216.0-0.0","146","","","","","","","","50","0,0,1","6","blank","431","null","0.08484422001301944","0.4874172585147025","0.33292224355248723","0","","","","","","","","",""
"","html-keyboard-response","427","1141938","0.0-216.0-1.0","null","<p></p>","null","","","","","","","","","","","","","","","","","","","","","","","",""
"","do_trial","428","1144717","0.0-217.0-0.0","232.60000000149012","","","","","","","","50","0,1,0","6","blank","432","null","0.0691979363288895","0.5518238850705353","0.204111803783757","1","","","","","","","","",""
"","html-keyboard-response","429","1145724","0.0-217.0-1.0","null","<p></p>","null","","","","","","","","","","","","","","","","","","","","","","","",""
"","do_trial","430","1148532","0.0-218.0-0.0","252.89999999850988","","","","","","","","50","0,0,0","6","blank","433","null","0.09307379873186998","0.5078578052089113","0.2566336550146091","0","","","","","","","","",""
"","html-keyboard-response","431","1149537","0.0-218.0-1.0","null","<p></p>","null","","","","","","","","","","","","","","","","","","","","","","","",""
"","do_recog","432","1154023","0.0-219.0-0.0","2973.7999999970198","","","","","","","","53","","","","434","probe-115","","","","","1","[object Object]","207","5","1","","","",""
"","html-keyboard-response","433","1155027","0.0-219.0-1.0","null","<p></p>","null","","","","","","","","","","","","","","","","","","","","","","","",""
"","do_trial","434","1158203","0.0-220.0-0.0","627.5","","","","","","","","49","0,1,0","6","blank","435","null","0.08558845624573617","0.5167962227373593","0.19230322579110024","0","","","","","","","","",""
"","html-keyboard-response","435","1159206","0.0-220.0-1.0","null","<p></p>","null","","","","","","","","","","","","","","","","","","","","","","","",""
"","do_trial","436","1161839","0.0-221.0-0.0","84.39999999850988","","","","","","","","51","0,0,1","6","blank","436","null","0.1528697484669618","0.5498271942372056","0.13337353273915137","1","","","","","","","","",""
"","html-keyboard-response","437","1162844","0.0-221.0-1.0","null","<p></p>","null","","","","","","","","","","","","","","","","","","","","","","","",""
"","do_recog","438","1164925","0.0-222.0-0.0","571.1000000014901","","","","","","","","53","","","","437","probe-45","","","","","1","[object Object]","45","1","1","","","",""
"","html-keyboard-response","439","1165929","0.0-222.0-1.0","null","<p></p>","null","","","","","","","","","","","","","","","","","","","","","","","",""
"","do_trial","440","1168493","0.0-223.0-0.0","16","","","","","","","","51","0,1,0","6","blank","438","null","0.16306879373352015","0.6904649892148801","0.3526896243343849","0","","","","","","","","",""
"","html-keyboard-response","441","1169498","0.0-223.0-1.0","null","<p></p>","null","","","","","","","","","","","","","","","","","","","","","","","",""
"","do_trial","442","1172118","0.0-224.0-0.0","68.69999999552965","","","","","","","","50","0,0,1","6","blank","439","null","0.0756611926303915","0.5446715891306146","0.38549767381794225","0","","","","","","","","",""
"","html-keyboard-response","443","1173123","0.0-224.0-1.0","null","<p></p>","null","","","","","","","","","","","","","","","","","","","","","","","",""
"","do_trial","444","1176029","0.0-225.0-0.0","355.8999999985099","","","","","","","","50","0,0,0","6","blank","440","null","0.10360285928056563","0.5004711150629751","0.3813434004547521","0","","","","","","","","",""
"","html-keyboard-response","445","1177034","0.0-225.0-1.0","null","<p></p>","null","","","","","","","","","","","","","","","","","","","","","","","",""
"","do_trial","446","1179953","0.0-226.0-0.0","363.8999999985099","","","","","","","","49","0,0,0","6","blank","441","null","0.0700453087146265","0.5980852549987908","0.18824263325471774","0","","","","","","","","",""
"","html-keyboard-response","447","1180960","0.0-226.0-1.0","null","<p></p>","null","","","","","","","","","","","","","","","","","","","","","","","",""
"","do_trial","448","1183901","0.0-227.0-0.0","394.29999999701977","","","","","","","","51","0,1,0","6","blank","442","null","0.19771554153030543","0.5375571663572744","0.25145472159528964","0","","","","","","","","",""
"","html-keyboard-response","449","1184903","0.0-227.0-1.0","null","<p></p>","null","","","","","","","","","","","","","","","","","","","","","","","",""
"","do_recog","450","1187357","0.0-228.0-0.0","941.1000000014901","","","","","","","","53","","","","443","probe-249","","","","","0","[object Object]","null","null","0","","","",""
"","html-keyboard-response","451","1188363","0.0-228.0-1.0","null","<p></p>","null","","","","","","","","","","","","","","","","","","","","","","","",""
"","do_trial","452","1191536","0.0-229.0-0.0","622","","","","","","","","49","0,0,0","6","blank","444","null","0.13405693840773328","0.6037441235246572","0.26968624383259876","0","","","","","","","","",""
"","html-keyboard-response","453","1192541","0.0-229.0-1.0","null","<p></p>","null","","","","","","","","","","","","","","","","","","","","","","","",""
"","do_trial","454","1195654","0.0-230.0-0.0","565.2999999970198","","","","","","","","50","0,0,0","6","blank","445","null","0.21885116715968714","0.588202634917855","0.2743690619184915","0","","","","","","","","",""
"","html-keyboard-response","455","1196660","0.0-230.0-1.0","null","<p></p>","null","","","","","","","","","","","","","","","","","","","","","","","",""
"","do_trial","456","1199404","0.0-231.0-0.0","194.70000000298023","","","","","","","","51","0,0,1","6","blank","446","null","0.2659757244799149","0.6195994204119771","0.28939275933932423","1","","","","","","","","",""
"","html-keyboard-response","457","1200410","0.0-231.0-1.0","null","<p></p>","null","","","","","","","","","","","","","","","","","","","","","","","",""
"","do_trial","458","1203882","0.0-232.0-0.0","926.5","","","","","","","","51","0,1,0","6","blank","447","null","0.23162709170989437","0.7850368307669588","0.30004827442621235","0","","","","","","","","",""
"","html-keyboard-response","459","1204887","0.0-232.0-1.0","null","<p></p>","null","","","","","","","","","","","","","","","","","","","","","","","",""
"","do_recog","460","1207139","0.0-233.0-0.0","739.3000000044703","","","","","","","","53","","","","448","probe-238","","","","","0","[object Object]","null","null","0","","","",""
"","html-keyboard-response","461","1208142","0.0-233.0-1.0","null","<p></p>","null","","","","","","","","","","","","","","","","","","","","","","","",""
"","do_trial","462","1211335","0.0-234.0-0.0","646.1000000014901","","","","","","","","51","0,1,0","6","blank","449","null","0.05650888002432636","0.6674809822093737","0.19446123166101215","0","","","","","","","","",""
"","html-keyboard-response","463","1212336","0.0-234.0-1.0","null","<p></p>","null","","","","","","","","","","","","","","","","","","","","","","","",""
"","do_trial","464","1215564","0.0-235.0-0.0","678.2000000029802","","","","","","","","49","0,0,1","6","blank","450","null","0.10552562060649201","0.7334136237385139","0.49966438368843646","0","","","","","","","","",""
"","html-keyboard-response","465","1216569","0.0-235.0-1.0","null","<p></p>","null","","","","","","","","","","","","","","","","","","","","","","","",""
"","do_trial","466","1219355","0.0-236.0-0.0","235.19999999552965","","","","","","","","50","1,0,0","6","blank","451","null","0.2244764966748155","0.8240743088066972","0.3889627831570303","0","","","","","","","","",""
"","html-keyboard-response","467","1220359","0.0-236.0-1.0","null","<p></p>","null","","","","","","","","","","","","","","","","","","","","","","","",""
"","do_recog","468","1223867","0.0-237.0-0.0","1995.3000000044703","","","","","","","","56","","","","452","probe-251","","","","","0","[object Object]","null","null","1","","","",""
"","html-keyboard-response","469","1224872","0.0-237.0-1.0","null","<p></p>","null","","","","","","","","","","","","","","","","","","","","","","","",""
"","do_trial","470","1227975","0.0-238.0-0.0","553.7999999970198","","","","","","","","49","0,0,1","6","blank","453","null","0.3036369098374736","0.6889085261764486","0.3295508849507807","0","","","","","","","","",""
"","html-keyboard-response","471","1228979","0.0-238.0-1.0","null","<p></p>","null","","","","","","","","","","","","","","","","","","","","","","","",""
"","do_trial","472","1231839","0.0-239.0-0.0","311.70000000298023","","","","","","","","50","0,1,0","6","blank","454","null","0.13704920862150366","0.521802528611907","0.49922827715181783","1","","","","","","","","",""
"","html-keyboard-response","473","1232845","0.0-239.0-1.0","null","<p></p>","null","","","","","","","","","","","","","","","","","","","","","","","",""
"","do_trial","474","1235655","0.0-240.0-0.0","265.40000000596046","","","","","","","","50","1,0,1","6","blank","455","null","0.24269538044975128","0.4346910831523399","0.41146752256880015","0","","","","","","","","",""
"","html-keyboard-response","475","1236660","0.0-240.0-1.0","null","<p></p>","null","","","","","","","","","","","","","","","","","","","","","","","",""
"","do_trial","476","1239465","0.0-241.0-0.0","253.89999999850988","","","","","","","","51","0,0,1","6","blank","456","null","0.19640668869614625","0.4504036445704876","0.6171217336625702","1","","","","","","","","",""
"","html-keyboard-response","477","1240471","0.0-241.0-1.0","null","<p></p>","null","","","","","","","","","","","","","","","","","","","","","","","",""
"","do_trial","478","1243359","0.0-242.0-0.0","338.79999999701977","","","","","","","","51","1,0,1","6","blank","457","null","0.2537750890838566","0.3126044751497718","0.7453821526466731","1","","","","","","","","",""
"","html-keyboard-response","479","1244363","0.0-242.0-1.0","null","<p></p>","null","","","","","","","","","","","","","","","","","","","","","","","",""
"","do_trial","480","1247128","0.0-243.0-0.0","216.5","","","","","","","","51","0,0,1","6","blank","458","null","0.18358330060247421","0.4094402395219306","0.8054482901978877","1","","","","","","","","",""
"","html-keyboard-response","481","1248133","0.0-243.0-1.0","null","<p></p>","null","","","","","","","","","","","","","","","","","","","","","","","",""
"","do_recog","482","1250623","0.0-244.0-0.0","980.7999999970198","","","","","","","","54","","","","459","probe-255","","","","","0","[object Object]","null","null","0","","","",""
"","html-keyboard-response","483","1251625","0.0-244.0-1.0","null","<p></p>","null","","","","","","","","","","","","","","","","","","","","","","","",""
"","do_trial","484","1254687","0.0-245.0-0.0","514.3999999985099","","","","","","","","51","0,1,0","6","blank","460","null","0.16005963014571178","0.3899170097544407","0.6787442825508013","0","","","","","","","","",""
"","html-keyboard-response","485","1255693","0.0-245.0-1.0","null","<p></p>","null","","","","","","","","","","","","","","","","","","","","","","","",""
"","do_trial","486","1258447","0.0-246.0-0.0","204.60000000149012","","","","","","","","50","0,0,0","6","blank","461","null","0.061987339309067836","0.5113592639966766","0.5997558432652064","0","","","","","","","","",""
"","html-keyboard-response","487","1259453","0.0-246.0-1.0","null","<p></p>","null","","","","","","","","","","","","","","","","","","","","","","","",""
"","do_trial","488","1262803","0.0-247.0-0.0","800.8999999985099","","","","","","","","49","0,0,1","6","blank","462","null","0.08070940817403108","0.4076969544890723","0.6458452479607185","0","","","","","","","","",""
"","html-keyboard-response","489","1263809","0.0-247.0-1.0","null","<p></p>","null","","","","","","","","","","","","","","","","","","","","","","","",""
"","do_trial","490","1266357","0.0-248.0-0.0","0.20000000298023224","","","","","","","","50","0,1,1","6","blank","463","null","0.12552600062845162","0.514452068886891","0.6819150568066433","1","","","","","","","","",""
"","html-keyboard-response","491","1267362","0.0-248.0-1.0","null","<p></p>","null","","","","","","","","","","","","","","","","","","","","","","","",""
"","do_trial","492","1270218","0.0-249.0-0.0","306.70000000298023","","","","","","","","50","1,1,1","6","blank","464","null","0.15157177714755313","0.36792823848985606","0.6946718066931554","1","","","","","","","","",""
"","html-keyboard-response","493","1271224","0.0-249.0-1.0","null","<p></p>","null","","","","","","","","","","","","","","","","","","","","","","","",""
"","do_recog","494","1273857","0.0-250.0-0.0","1121.3000000044703","","","","","","","","53","","","","465","probe-243","","","","","0","[object Object]","null","null","0","","","",""
"","html-keyboard-response","495","1274862","0.0-250.0-1.0","null","<p></p>","null","","","","","","","","","","","","","","","","","","","","","","","",""
"","do_trial","496","1278471","0.0-251.0-0.0","1063.7999999970198","","","","","","","","50","0,0,0","6","blank","466","null","0.06635347348357572","0.3412080304059274","0.7698109296395554","0","","","","","","","","",""
"","html-keyboard-response","497","1279476","0.0-251.0-1.0","null","<p></p>","null","","","","","","","","","","","","","","","","","","","","","","","",""
"","do_trial","498","1282585","0.0-252.0-0.0","560","","","","","","","","50","1,1,0","6","blank","467","null","0.06691721095169999","0.38318632082566434","0.6336842001101156","1","","","","","","","","",""
"","html-keyboard-response","499","1283589","0.0-252.0-1.0","null","<p></p>","null","","","","","","","","","","","","","","","","","","","","","","","",""
"","break","500","1314396","0.0-252.0-2.0","30803.89999999851","<div class='center'><p>Time to take a quick break! You have 2 minutes to rest, but you can move on sooner if you'd like.</p><p> Press the <b>space bar</b> to continue.</p></div>","32","","","","","","","","","","","","","","","","","","","","","","","",""
"","do_trial","501","1317800","0.0-252.0-3.0","861.3999999985099","","","","","","","","50","0,0,1","6","blank","468","null","0.06501953800795862","0.3337163483288982","0.5668078212346691","0","","","","","","","","",""
"","html-keyboard-response","502","1318806","0.0-252.0-4.0","null","<p></p>","null","","","","","","","","","","","","","","","","","","","","","","","",""
"","do_trial","503","1321610","0.0-253.0-0.0","259.1000000014901","","","","","","","","49","1,0,1","6","blank","469","null","0.07054985122049381","0.34264945739713315","0.636457800055575","1","","","","","","","","",""
"","html-keyboard-response","504","1322616","0.0-253.0-1.0","null","<p></p>","null","","","","","","","","","","","","","","","","","","","","","","","",""
"","do_recog","505","1324971","0.0-254.0-0.0","845.1000000014901","","","","","","","","53","","","","470","probe-246","","","","","0","[object Object]","null","null","0","","","",""
"","html-keyboard-response","506","1325977","0.0-254.0-1.0","null","<p></p>","null","","","","","","","","","","","","","","","","","","","","","","","",""
"","do_trial","507","1329143","0.0-255.0-0.0","616.6000000014901","","","","","","","","49","1,1,1","6","blank","471","null","0.21674682471600068","0.39901639910416825","0.4760191935203884","1","","","","","","","","",""
