success,trial_type,trial_index,time_elapsed,internal_node_id,rt,stimulus,subject_id,key_press,response,choice_outcomes,context_n,context_img_id,trial_n,probe_img_id,pR_red,pR_white,pR_black,outcome,is_valid,image_to_show,probed_trial,probed_context,correct,context_id
TRUE,fullscreen,0,4161,0.0-0.0,,,,,,,,,,,,,,,,,,,,
,pavlovia,1,4167,0.0-1.0,,,,,,,,,,,,,,,,,,,,
,html-keyboard-response,2,20435,0.0-2.0,16265,"<div class='center'><p>Like yesterday,as the head captain of the ship, you have one important things to do: </p><b><p> Pick the pirate who you think will be most successful at robbing the next ship.</p></b><p>This is important in determining how much bonus money you’ll win.</p><br><p>The game will start by showing you the pirates. First pick a pirate using the <b> 1, 2, 3 </b> buttons on your keyboard. </p><p> Press <b>'1'</b> to choose red beard, <b>'2'</b> to choose white beard, and <b>'3'</b> to choose black beard</p><p> You only have 3 seconds to pick a pirate, so please make a choice quickly! If you are too slow, you’ll have to wait a bit during the time out.</p><p> Don’t feel rushed, but please do try to make a choice every time.</p><p>How good a pirate is at robbing a ship will change depending on the place they are in and how good the defenses are of the ship.</p><p><b>[Press the space bar to begin the practice game]</b></p></div>",6113ed585bfdf69d6a2b2c82,32,,,,,,,,,,,,,,,,
,html-keyboard-response,3,32468,0.0-3.0,12032,"<div class='center'><p>You’ve arrived at the final island of your journey! Unfortunately, it’s very foggy out, so you won’t be able to see it in the distance like the previous islands you've visited.</p><p>You’ll still be deciding which pirate you want to rob a ship like before. However, because of the fog, you also won’t be able to see the ship.</p><p>This means you do not have to remember the ships you rob on this island.</p><p><b>[Press the space bar to continue]</b></p></div>",,32,,,,,,,,,,,,,,,,
,html-keyboard-response,4,40746,0.0-4.0,8277,"<div class='center'><p> Sometimes you’ll be shown a ship, and you will be asked if you saw this ship on a past island.</p><p> Here is an example of what you will see.</p><p><b>[Press the space bar to continue]</b></p><p><img src='run_exp/static/images/tutorial/example_recog_trial.png' height='500'></p></div>",,32,,,,,,,,,,,,,,,,
,html-keyboard-response,5,44292,0.0-5.0,3545,"<div class='center'><p> You will press the 5, 6, 7, 8 buttons on your keyboard to respond.</p><p>If you are very sure saw the ship, press <b>5</b> on your keyboard.</p><p> If you think you  saw it before but are not sure, then press <b>6</b>.</p><p> If you think you have not seen it before but are not sure, then press <b>7</b>.</p><p> If you are sure you did not see the ship before, then press <b>8</b>.</p><p><b>[Press the space bar to continue]</b></p><p><img src='run_exp/static/images/tutorial/example_recog_trial.png' height='500'></p></div>",,32,,,,,,,,,,,,,,,,
,html-keyboard-response,6,46430,0.0-6.0,2137,"<div class='center'><p> If you remember correctly, then you’ll get a gold coin like this: </p><p><img src='run_exp/static/images/tutorial/reward_small.png' height='200'></p><p>If you do not remember correctly, then you'll see a red x like this: </p><p><img src='run_exp/static/images/tutorial/reward_no.png' height='200'></p><p>Importantly, when you are shown a ship, take the time to remind yourself which island you saw it on. This will help you in the next part of the study.</p><p><b>[Press the space bar to continue]</b></p></div>",,32,,,,,,,,,,,,,,,,
,html-keyboard-response,7,48490,0.0-7.0,2058,"<div class='center'><p>Let's go over the important points again. Your job is to: </p><p>1. Pick the pirate who is best at robbing ships and will bring you back gold coins. </p><p>2. Correctly remember whether or not you saw a ship before. If you did see the ship before, remind yourself on which island you saw the ship. </p><p><b>[Press the space bar to begin the next part of the study]</b></p></div>",,32,,,,,,,,,,,,,,,,
,do_welcome,8,50005,0.0-8.0,null,,,,null,,,,,,,,,,,,,,,
,do_trial,9,53611,0.0-9.0-0.0,1065,,,,50,"1,0,1",6,blank,230,null,0.516174797,0.172515723,0.114065525,0,,,,,,
,html-keyboard-response,10,54615,0.0-9.0-1.0,null,<p></p>,,null,,,,,,,,,,,,,,,,
,do_trial,11,57543,0.0-10.0-0.0,388,,,,51,"0,0,0",6,blank,231,null,0.428735184,0.186135466,0.083495264,0,,,,,,
,html-keyboard-response,12,58545,0.0-10.0-1.0,null,<p></p>,,null,,,,,,,,,,,,,,,,
,do_trial,13,61514,0.0-11.0-0.0,431,,,,49,"1,0,0",6,blank,232,null,0.564967512,0.100833767,0.193630633,1,,,,,,
,html-keyboard-response,14,62517,0.0-11.0-1.0,null,<p></p>,,null,,,,,,,,,,,,,,,,
,do_trial,15,65441,0.0-12.0-0.0,383,,,,49,"1,0,1",6,blank,233,null,0.662524457,0.146808601,0.203814076,1,,,,,,
,html-keyboard-response,16,66443,0.0-12.0-1.0,null,<p></p>,,null,,,,,,,,,,,,,,,,
,do_trial,17,69345,0.0-13.0-0.0,363,,,,49,"1,0,0",6,blank,234,null,0.603272535,0.206774052,0.329287656,1,,,,,,
,html-keyboard-response,18,70347,0.0-13.0-1.0,null,<p></p>,,null,,,,,,,,,,,,,,,,
,do_trial,19,73390,0.0-14.0-0.0,505,,,,49,"1,0,0",6,blank,235,null,0.668164853,0.166648021,0.269402522,1,,,,,,
,html-keyboard-response,20,74393,0.0-14.0-1.0,null,<p></p>,,null,,,,,,,,,,,,,,,,
,do_trial,21,77468,0.0-15.0-0.0,536,,,,49,"0,0,0",6,blank,236,null,0.540030009,0.111550766,0.269967672,0,,,,,,
,html-keyboard-response,22,78470,0.0-15.0-1.0,null,<p></p>,,null,,,,,,,,,,,,,,,,
,do_trial,23,81362,0.0-16.0-0.0,348,,,,50,"0,0,1",6,blank,237,null,0.535569369,0.100369666,0.258438112,0,,,,,,
,html-keyboard-response,24,82364,0.0-16.0-1.0,null,<p></p>,,null,,,,,,,,,,,,,,,,
,do_trial,25,85403,0.0-17.0-0.0,488,,,,51,"0,1,0",6,blank,238,null,0.464213451,0.105799738,0.267874889,0,,,,,,
,html-keyboard-response,26,86406,0.0-17.0-1.0,null,<p></p>,,null,,,,,,,,,,,,,,,,
,do_trial,27,89370,0.0-18.0-0.0,414,,,,49,"1,1,0",6,blank,239,null,0.552530735,0.082362828,0.247070959,1,,,,,,
,html-keyboard-response,28,90373,0.0-18.0-1.0,null,<p></p>,,null,,,,,,,,,,,,,,,,
,do_trial,29,93301,0.0-19.0-0.0,377,,,,49,"1,0,0",6,blank,240,null,0.54963614,0.16268655,0.188973773,1,,,,,,
,html-keyboard-response,30,94303,0.0-19.0-1.0,null,<p></p>,,null,,,,,,,,,,,,,,,,
,do_trial,31,97309,0.0-20.0-0.0,455,,,,49,"0,0,0",6,blank,241,null,0.48670384,0.101794338,0.284640958,0,,,,,,
,html-keyboard-response,32,98312,0.0-20.0-1.0,null,<p></p>,,null,,,,,,,,,,,,,,,,
,do_trial,33,101296,0.0-21.0-0.0,433,,,,49,"0,0,0",6,blank,242,null,0.305034662,0.155324069,0.207391708,0,,,,,,
,html-keyboard-response,34,102299,0.0-21.0-1.0,null,<p></p>,,null,,,,,,,,,,,,,,,,
,do_trial,35,105366,0.0-22.0-0.0,517,,,,51,"0,0,0",6,blank,243,null,0.204116814,0.087400601,0.154466284,0,,,,,,
,html-keyboard-response,36,106369,0.0-22.0-1.0,null,<p></p>,,null,,,,,,,,,,,,,,,,
,do_trial,37,109271,0.0-23.0-0.0,354,,,,50,"0,0,0",6,blank,244,null,0.13602433,0.216824866,0.059996118,0,,,,,,
,html-keyboard-response,38,110273,0.0-23.0-1.0,null,<p></p>,,null,,,,,,,,,,,,,,,,
,do_trial,39,113164,0.0-24.0-0.0,347,,,,51,"0,0,1",6,blank,245,null,0.388756858,0.237272113,0.156968734,1,,,,,,
,html-keyboard-response,40,114166,0.0-24.0-1.0,null,<p></p>,,null,,,,,,,,,,,,,,,,
,do_trial,41,117584,0.0-25.0-0.0,872,,,,51,"0,0,1",6,blank,246,null,0.302491994,0.17274658,0.191715587,1,,,,,,
,html-keyboard-response,42,118586,0.0-25.0-1.0,null,<p></p>,,null,,,,,,,,,,,,,,,,
,do_recog,43,124595,0.0-26.0-0.0,null,,,,null,,,,247,probe-37,,,,,1,[object Object],80,2,0,
,html-keyboard-response,44,125598,0.0-26.0-1.0,null,<p></p>,,null,,,,,,,,,,,,,,,,
,do_trial,45,129303,0.0-27.0-0.0,1168,,,,49,"1,0,1",6,blank,248,null,0.308745158,0.271417291,0.118323677,1,,,,,,
,html-keyboard-response,46,130306,0.0-27.0-1.0,null,<p></p>,,null,,,,,,,,,,,,,,,,
,do_trial,47,133286,0.0-28.0-0.0,443,,,,49,"0,1,1",6,blank,249,null,0.334946214,0.436582276,0.129674526,0,,,,,,
,html-keyboard-response,48,134289,0.0-28.0-1.0,null,<p></p>,,null,,,,,,,,,,,,,,,,
,do_recog,49,138480,0.0-29.0-0.0,2683,,,,56,,,,250,probe-74,,,,,1,[object Object],128,3,0,
,html-keyboard-response,50,139482,0.0-29.0-1.0,null,<p></p>,,null,,,,,,,,,,,,,,,,
,do_trial,51,142744,0.0-30.0-0.0,724,,,,50,"1,0,1",6,blank,251,null,0.367195507,0.498269132,0.205600396,0,,,,,,
,html-keyboard-response,52,143749,0.0-30.0-1.0,null,<p></p>,,null,,,,,,,,,,,,,,,,
,do_trial,53,146652,0.0-31.0-0.0,365,,,,49,"0,1,0",6,blank,252,null,0.34436839,0.472194487,0.244508513,0,,,,,,
,html-keyboard-response,54,147654,0.0-31.0-1.0,null,<p></p>,,null,,,,,,,,,,,,,,,,
,do_recog,55,150747,0.0-32.0-0.0,1585,,,,56,,,,253,probe-103,,,,,1,[object Object],167,4,0,
,html-keyboard-response,56,151749,0.0-32.0-1.0,null,<p></p>,,null,,,,,,,,,,,,,,,,
,do_trial,57,155508,0.0-33.0-0.0,1222,,,,49,"0,0,0",6,blank,254,null,0.241540959,0.560404955,0.25827136,0,,,,,,
,html-keyboard-response,58,156513,0.0-33.0-1.0,null,<p></p>,,null,,,,,,,,,,,,,,,,
,do_trial,59,159666,0.0-34.0-0.0,617,,,,51,"0,1,0",6,blank,255,null,0.241533088,0.607277764,0.124517134,0,,,,,,
,html-keyboard-response,60,160670,0.0-34.0-1.0,null,<p></p>,,null,,,,,,,,,,,,,,,,
,do_trial,61,163607,0.0-35.0-0.0,398,,,,50,"0,1,1",6,blank,256,null,0.266533901,0.564125899,0.251075978,1,,,,,,
,html-keyboard-response,62,164610,0.0-35.0-1.0,null,<p></p>,,null,,,,,,,,,,,,,,,,
,do_trial,63,167579,0.0-36.0-0.0,432,,,,50,"0,1,0",6,blank,257,null,0.351053738,0.582032826,0.181151652,1,,,,,,
,html-keyboard-response,64,168581,0.0-36.0-1.0,null,<p></p>,,null,,,,,,,,,,,,,,,,
,do_trial,65,171713,0.0-37.0-0.0,594,,,,50,"0,0,0",6,blank,258,null,0.376647104,0.617303205,0.239681387,0,,,,,,
,html-keyboard-response,66,172715,0.0-37.0-1.0,null,<p></p>,,null,,,,,,,,,,,,,,,,
,do_recog,67,176049,0.0-38.0-0.0,1827,,,,53,,,,259,probe-157,,,,,1,[object Object],82,2,1,
,html-keyboard-response,68,177052,0.0-38.0-1.0,null,<p></p>,,null,,,,,,,,,,,,,,,,
,do_trial,69,180603,0.0-39.0-0.0,1015,,,,49,"0,0,0",6,blank,260,null,0.4063713,0.691924822,0.191833194,0,,,,,,
,html-keyboard-response,70,181605,0.0-39.0-1.0,null,<p></p>,,null,,,,,,,,,,,,,,,,
,do_trial,71,184379,0.0-40.0-0.0,237,,,,51,"0,1,0",6,blank,261,null,0.274851072,0.695778933,0.112916456,0,,,,,,
,html-keyboard-response,72,185382,0.0-40.0-1.0,null,<p></p>,,null,,,,,,,,,,,,,,,,
,do_trial,73,188362,0.0-41.0-0.0,443,,,,49,"0,0,0",6,blank,262,null,0.232661937,0.722866371,0.196010784,0,,,,,,
,html-keyboard-response,74,189364,0.0-41.0-1.0,null,<p></p>,,null,,,,,,,,,,,,,,,,
,do_trial,75,192243,0.0-42.0-0.0,340,,,,50,"0,1,0",6,blank,263,null,0.318128042,0.644497916,0.086787865,1,,,,,,
,html-keyboard-response,76,193246,0.0-42.0-1.0,null,<p></p>,,null,,,,,,,,,,,,,,,,
,do_recog,77,196205,0.0-43.0-0.0,1453,,,,56,,,,264,probe-124,,,,,1,[object Object],200,5,0,
,html-keyboard-response,78,197208,0.0-43.0-1.0,null,<p></p>,,null,,,,,,,,,,,,,,,,
,do_trial,79,200519,0.0-44.0-0.0,773,,,,49,"0,0,1",6,blank,265,null,0.392512741,0.513893385,0.21531631,0,,,,,,
,html-keyboard-response,80,201522,0.0-44.0-1.0,null,<p></p>,,null,,,,,,,,,,,,,,,,
,do_trial,81,204489,0.0-45.0-0.0,428,,,,51,"0,1,0",6,blank,266,null,0.331450732,0.464156416,0.213143042,0,,,,,,
,html-keyboard-response,82,205491,0.0-45.0-1.0,null,<p></p>,,null,,,,,,,,,,,,,,,,
,do_trial,83,208528,0.0-46.0-0.0,496,,,,50,"0,0,0",6,blank,267,null,0.367406141,0.653393078,0.304983032,0,,,,,,
,html-keyboard-response,84,209530,0.0-46.0-1.0,null,<p></p>,,null,,,,,,,,,,,,,,,,
,do_recog,85,212433,0.0-47.0-0.0,1395,,,,53,,,,268,probe-72,,,,,1,[object Object],47,1,1,
,html-keyboard-response,86,213436,0.0-47.0-1.0,null,<p></p>,,null,,,,,,,,,,,,,,,,
,do_trial,87,216514,0.0-48.0-0.0,539,,,,49,"1,0,0",6,blank,269,null,0.323485953,0.663812829,0.23410834,1,,,,,,
,html-keyboard-response,88,217517,0.0-48.0-1.0,null,<p></p>,,null,,,,,,,,,,,,,,,,
,do_trial,89,220493,0.0-49.0-0.0,439,,,,49,"0,1,0",6,blank,270,null,0.267031573,0.716862586,0.185841426,0,,,,,,
,html-keyboard-response,90,221495,0.0-49.0-1.0,null,<p></p>,,null,,,,,,,,,,,,,,,,
,do_trial,91,224452,0.0-50.0-0.0,420,,,,51,"0,1,0",6,blank,271,null,0.110551986,0.677878357,0.262367246,0,,,,,,
,html-keyboard-response,92,225455,0.0-50.0-1.0,null,<p></p>,,null,,,,,,,,,,,,,,,,
,do_trial,93,228330,0.0-51.0-0.0,335,,,,50,"0,0,0",6,blank,272,null,0.114220055,0.858426857,0.19158978,0,,,,,,
,html-keyboard-response,94,229333,0.0-51.0-1.0,null,<p></p>,,null,,,,,,,,,,,,,,,,
,do_trial,95,232320,0.0-52.0-0.0,451,,,,51,"0,1,0",6,blank,273,null,0.393852564,0.721398629,0.087892187,0,,,,,,
,html-keyboard-response,96,233324,0.0-52.0-1.0,null,<p></p>,,null,,,,,,,,,,,,,,,,
,do_recog,97,235945,0.0-53.0-0.0,1114,,,,53,,,,274,probe-121,,,,,1,[object Object],205,5,1,
,html-keyboard-response,98,236947,0.0-53.0-1.0,null,<p></p>,,null,,,,,,,,,,,,,,,,
,do_trial,99,239977,0.0-54.0-0.0,492,,,,50,"0,1,0",6,blank,275,null,0.44270659,0.647270868,0.192460061,1,,,,,,
,html-keyboard-response,100,240980,0.0-54.0-1.0,null,<p></p>,,null,,,,,,,,,,,,,,,,
,do_recog,101,243774,0.0-55.0-0.0,1289,,,,53,,,,276,probe-46,,,,,1,[object Object],208,5,1,
,html-keyboard-response,102,244777,0.0-55.0-1.0,null,<p></p>,,null,,,,,,,,,,,,,,,,
,do_trial,103,247860,0.0-56.0-0.0,547,,,,50,"0,1,0",6,blank,277,null,0.293261371,0.662307216,0.054320311,1,,,,,,
,html-keyboard-response,104,248863,0.0-56.0-1.0,null,<p></p>,,null,,,,,,,,,,,,,,,,
,do_trial,105,251820,0.0-57.0-0.0,420,,,,50,"0,0,0",6,blank,278,null,0.310971465,0.747593593,0.055760809,0,,,,,,
,html-keyboard-response,106,252823,0.0-57.0-1.0,null,<p></p>,,null,,,,,,,,,,,,,,,,
,do_recog,107,255446,0.0-58.0-0.0,1117,,,,53,,,,279,probe-219,,,,,1,[object Object],49,1,1,
,html-keyboard-response,108,256449,0.0-58.0-1.0,null,<p></p>,,null,,,,,,,,,,,,,,,,
,do_trial,109,259571,0.0-59.0-0.0,586,,,,51,"0,0,0",6,blank,280,null,0.159974333,0.577705922,0.166875326,0,,,,,,
,html-keyboard-response,110,260574,0.0-59.0-1.0,null,<p></p>,,null,,,,,,,,,,,,,,,,
,do_trial,111,263535,0.0-60.0-0.0,425,,,,49,"0,1,0",6,blank,281,null,0.214648457,0.611245366,0.202057851,0,,,,,,
,html-keyboard-response,112,264538,0.0-60.0-1.0,null,<p></p>,,null,,,,,,,,,,,,,,,,
,do_recog,113,266912,0.0-61.0-0.0,868,,,,53,,,,282,probe-73,,,,,1,[object Object],168,4,1,
,html-keyboard-response,114,267915,0.0-61.0-1.0,null,<p></p>,,null,,,,,,,,,,,,,,,,
,do_trial,115,271163,0.0-62.0-0.0,711,,,,50,"0,0,0",6,blank,283,null,0.124582685,0.490165121,0.236864084,0,,,,,,
,html-keyboard-response,116,272165,0.0-62.0-1.0,null,<p></p>,,null,,,,,,,,,,,,,,,,
,do_recog,117,274721,0.0-63.0-0.0,1049,,,,53,,,,284,probe-233,,,,,0,[object Object],null,null,0,
,html-keyboard-response,118,275723,0.0-63.0-1.0,null,<p></p>,,null,,,,,,,,,,,,,,,,
,do_trial,119,279223,0.0-64.0-0.0,963,,,,51,"0,1,0",6,blank,285,null,0.182428881,0.464301382,0.051302192,0,,,,,,
,html-keyboard-response,120,280226,0.0-64.0-1.0,null,<p></p>,,null,,,,,,,,,,,,,,,,
,do_trial,121,283197,0.0-65.0-0.0,433,,,,49,"0,1,1",6,blank,286,null,0.329562483,0.519557566,0.160234742,0,,,,,,
,html-keyboard-response,122,284200,0.0-65.0-1.0,null,<p></p>,,null,,,,,,,,,,,,,,,,
,do_trial,123,287204,0.0-66.0-0.0,469,,,,50,"1,1,0",6,blank,287,null,0.392187499,0.609988164,0.113942326,1,,,,,,
,html-keyboard-response,124,288206,0.0-66.0-1.0,null,<p></p>,,null,,,,,,,,,,,,,,,,
,do_trial,125,291382,0.0-67.0-0.0,639,,,,50,"0,0,0",6,blank,288,null,0.398053878,0.573843194,0.208608029,0,,,,,,
,html-keyboard-response,126,292385,0.0-67.0-1.0,null,<p></p>,,null,,,,,,,,,,,,,,,,
,do_recog,127,295101,0.0-68.0-0.0,1210,,,,53,,,,289,probe-82,,,,,1,[object Object],202,5,1,
,html-keyboard-response,128,296104,0.0-68.0-1.0,null,<p></p>,,null,,,,,,,,,,,,,,,,
,do_trial,129,299293,0.0-69.0-0.0,653,,,,51,"0,0,0",6,blank,290,null,0.465959925,0.564592239,0.145428449,0,,,,,,
,html-keyboard-response,130,300296,0.0-69.0-1.0,null,<p></p>,,null,,,,,,,,,,,,,,,,
,do_trial,131,303204,0.0-70.0-0.0,372,,,,49,"1,1,0",6,blank,291,null,0.411941539,0.438899685,0.23376562,1,,,,,,
,html-keyboard-response,132,304207,0.0-70.0-1.0,null,<p></p>,,null,,,,,,,,,,,,,,,,
,do_trial,133,307240,0.0-71.0-0.0,497,,,,49,"0,1,0",6,blank,292,null,0.538521382,0.573625531,0.358901419,0,,,,,,
,html-keyboard-response,134,308243,0.0-71.0-1.0,null,<p></p>,,null,,,,,,,,,,,,,,,,
,do_trial,135,311279,0.0-72.0-0.0,498,,,,50,"1,1,1",6,blank,293,null,0.549262285,0.64216993,0.179806076,1,,,,,,
,html-keyboard-response,136,312281,0.0-72.0-1.0,null,<p></p>,,null,,,,,,,,,,,,,,,,
,do_recog,137,315289,0.0-73.0-0.0,1498,,,,53,,,,294,probe-26,,,,,1,[object Object],129,3,1,
,html-keyboard-response,138,316292,0.0-73.0-1.0,null,<p></p>,,null,,,,,,,,,,,,,,,,
,do_trial,139,319328,0.0-74.0-0.0,500,,,,50,"0,0,1",6,blank,295,null,0.723499808,0.525563241,0.105788103,0,,,,,,
,html-keyboard-response,140,320331,0.0-74.0-1.0,null,<p></p>,,null,,,,,,,,,,,,,,,,
,do_recog,141,323670,0.0-75.0-0.0,1832,,,,56,,,,296,probe-222,,,,,1,[object Object],164,4,0,
,html-keyboard-response,142,324672,0.0-75.0-1.0,null,<p></p>,,null,,,,,,,,,,,,,,,,
,do_trial,143,328072,0.0-76.0-0.0,863,,,,49,"1,1,0",6,blank,297,null,0.719752791,0.57731748,0.131619107,1,,,,,,
,html-keyboard-response,144,329074,0.0-76.0-1.0,null,<p></p>,,null,,,,,,,,,,,,,,,,
,do_trial,145,332185,0.0-77.0-0.0,574,,,,49,"0,0,0",6,blank,298,null,0.595624254,0.488690584,0.149511667,0,,,,,,
,html-keyboard-response,146,333187,0.0-77.0-1.0,null,<p></p>,,null,,,,,,,,,,,,,,,,
,do_trial,147,336157,0.0-78.0-0.0,433,,,,51,"1,1,0",6,blank,299,null,0.583907426,0.52471764,0.197182263,0,,,,,,
,html-keyboard-response,148,337159,0.0-78.0-1.0,null,<p></p>,,null,,,,,,,,,,,,,,,,
,do_recog,149,339876,0.0-79.0-0.0,1210,,,,53,,,,300,probe-04,,,,,1,[object Object],41,1,1,
,html-keyboard-response,150,340879,0.0-79.0-1.0,null,<p></p>,,null,,,,,,,,,,,,,,,,
,do_trial,151,343883,0.0-80.0-0.0,467,,,,50,"0,1,0",6,blank,301,null,0.562537845,0.358284458,0.109453265,1,,,,,,
,html-keyboard-response,152,344885,0.0-80.0-1.0,null,<p></p>,,null,,,,,,,,,,,,,,,,
,do_trial,153,348260,0.0-81.0-0.0,838,,,,50,"1,1,0",6,blank,302,null,0.535933123,0.220163918,0.155359657,1,,,,,,
,html-keyboard-response,154,349262,0.0-81.0-1.0,null,<p></p>,,null,,,,,,,,,,,,,,,,
,do_trial,155,352496,0.0-82.0-0.0,695,,,,50,"1,0,0",6,blank,303,null,0.668601277,0.240335586,0.196807549,0,,,,,,
,html-keyboard-response,156,353499,0.0-82.0-1.0,null,<p></p>,,null,,,,,,,,,,,,,,,,
,do_trial,157,356965,0.0-83.0-0.0,927,,,,51,"1,0,0",6,blank,304,null,0.688315234,0.347144053,0.057359038,0,,,,,,
,html-keyboard-response,158,357968,0.0-83.0-1.0,null,<p></p>,,null,,,,,,,,,,,,,,,,
,do_recog,159,360397,0.0-84.0-0.0,923,,,,53,,,,305,probe-14,,,,,1,[object Object],46,1,1,
,html-keyboard-response,160,361399,0.0-84.0-1.0,null,<p></p>,,null,,,,,,,,,,,,,,,,
,do_trial,161,364617,0.0-85.0-0.0,679,,,,49,"1,0,0",6,blank,306,null,0.67202384,0.364873753,0.204829553,1,,,,,,
,html-keyboard-response,162,365620,0.0-85.0-1.0,null,<p></p>,,null,,,,,,,,,,,,,,,,
,do_recog,163,368327,0.0-86.0-0.0,1199,,,,53,,,,307,probe-01,,,,,1,[object Object],83,2,1,
,html-keyboard-response,164,369329,0.0-86.0-1.0,null,<p></p>,,null,,,,,,,,,,,,,,,,
,do_trial,165,372597,0.0-87.0-0.0,729,,,,49,"1,0,0",6,blank,308,null,0.664019553,0.465224132,0.113124088,1,,,,,,
,html-keyboard-response,166,373599,0.0-87.0-1.0,null,<p></p>,,null,,,,,,,,,,,,,,,,
,do_trial,167,377103,0.0-88.0-0.0,963,,,,49,"1,0,0",6,blank,309,null,0.608933296,0.549978964,0.127002187,1,,,,,,
,html-keyboard-response,168,378106,0.0-88.0-1.0,null,<p></p>,,null,,,,,,,,,,,,,,,,
,do_trial,169,381308,0.0-89.0-0.0,663,,,,49,"1,0,0",6,blank,310,null,0.592926279,0.512216624,0.172511549,1,,,,,,
,html-keyboard-response,170,382311,0.0-89.0-1.0,null,<p></p>,,null,,,,,,,,,,,,,,,,
,do_trial,171,385377,0.0-90.0-0.0,527,,,,49,"0,0,0",6,blank,311,null,0.376389555,0.43565344,0.103454755,0,,,,,,
,html-keyboard-response,172,386380,0.0-90.0-1.0,null,<p></p>,,null,,,,,,,,,,,,,,,,
,do_trial,173,389558,0.0-91.0-0.0,634,,,,51,"0,1,0",6,blank,312,null,0.524197866,0.300316225,0.210869205,0,,,,,,
,html-keyboard-response,174,390559,0.0-91.0-1.0,null,<p></p>,,null,,,,,,,,,,,,,,,,
,do_trial,175,393572,0.0-92.0-0.0,477,,,,50,"1,1,0",6,blank,313,null,0.594220064,0.289442234,0.144349434,1,,,,,,
,html-keyboard-response,176,394575,0.0-92.0-1.0,null,<p></p>,,null,,,,,,,,,,,,,,,,
,do_recog,177,397447,0.0-93.0-0.0,1365,,,,53,,,,314,probe-144,,,,,1,[object Object],87,2,1,
,html-keyboard-response,178,398449,0.0-93.0-1.0,null,<p></p>,,null,,,,,,,,,,,,,,,,
,do_trial,179,402205,0.0-94.0-0.0,1219,,,,50,"1,0,0",6,blank,315,null,0.597122207,0.109258355,0.059769615,0,,,,,,
,html-keyboard-response,180,403207,0.0-94.0-1.0,null,<p></p>,,null,,,,,,,,,,,,,,,,
,do_trial,181,406351,0.0-95.0-0.0,607,,,,51,"1,0,0",6,blank,316,null,0.568135534,0.129999675,0.125278175,0,,,,,,
,html-keyboard-response,182,407353,0.0-95.0-1.0,null,<p></p>,,null,,,,,,,,,,,,,,,,
,do_recog,183,409858,0.0-96.0-0.0,998,,,,53,,,,317,probe-39,,,,,1,[object Object],203,5,1,
,html-keyboard-response,184,410860,0.0-96.0-1.0,null,<p></p>,,null,,,,,,,,,,,,,,,,
,do_trial,185,414189,0.0-97.0-0.0,793,,,,49,"0,0,0",6,blank,318,null,0.632981875,0.274135668,0.077309173,0,,,,,,
,html-keyboard-response,186,415192,0.0-97.0-1.0,null,<p></p>,,null,,,,,,,,,,,,,,,,
,do_trial,187,418172,0.0-98.0-0.0,443,,,,51,"0,0,0",6,blank,319,null,0.641307359,0.206745317,0.185293656,0,,,,,,
,html-keyboard-response,188,419174,0.0-98.0-1.0,null,<p></p>,,null,,,,,,,,,,,,,,,,
,do_trial,189,422195,0.0-99.0-0.0,484,,,,50,"1,1,0",6,blank,320,null,0.618904414,0.185930952,0.249023507,1,,,,,,
,html-keyboard-response,190,423197,0.0-99.0-1.0,null,<p></p>,,null,,,,,,,,,,,,,,,,
,do_trial,191,426292,0.0-100.0-0.0,559,,,,50,"1,1,0",6,blank,321,null,0.575707265,0.110168313,0.281778614,1,,,,,,
,html-keyboard-response,192,427295,0.0-100.0-1.0,null,<p></p>,,null,,,,,,,,,,,,,,,,
,do_recog,193,430390,0.0-101.0-0.0,1588,,,,53,,,,322,probe-199,,,,,1,[object Object],84,2,1,
,html-keyboard-response,194,431393,0.0-101.0-1.0,null,<p></p>,,null,,,,,,,,,,,,,,,,
,do_trial,195,434576,0.0-102.0-0.0,646,,,,50,"0,0,0",6,blank,323,null,0.56932052,0.0531862,0.266605034,0,,,,,,
,html-keyboard-response,196,435579,0.0-102.0-1.0,null,<p></p>,,null,,,,,,,,,,,,,,,,
,do_recog,197,438621,0.0-103.0-0.0,1535,,,,53,,,,324,probe-11,,,,,1,[object Object],161,4,1,
,html-keyboard-response,198,439624,0.0-103.0-1.0,null,<p></p>,,null,,,,,,,,,,,,,,,,
,do_trial,199,442679,0.0-104.0-0.0,519,,,,49,"0,0,0",6,blank,325,null,0.584193949,0.242619149,0.125415649,0,,,,,,
,html-keyboard-response,200,443682,0.0-104.0-1.0,null,<p></p>,,null,,,,,,,,,,,,,,,,
,do_trial,201,447098,0.0-105.0-0.0,880,,,,51,"1,1,0",6,blank,326,null,0.633137605,0.116878047,0.166080443,0,,,,,,
,html-keyboard-response,202,448101,0.0-105.0-1.0,null,<p></p>,,null,,,,,,,,,,,,,,,,
,do_trial,203,451055,0.0-106.0-0.0,418,,,,50,"1,0,0",6,blank,327,null,0.594654912,0.108591258,0.189200647,0,,,,,,
,html-keyboard-response,204,452057,0.0-106.0-1.0,null,<p></p>,,null,,,,,,,,,,,,,,,,
,do_trial,205,455133,0.0-107.0-0.0,540,,,,49,"0,1,1",6,blank,328,null,0.660700795,0.169743101,0.249479112,0,,,,,,
,html-keyboard-response,206,456136,0.0-107.0-1.0,null,<p></p>,,null,,,,,,,,,,,,,,,,
,do_trial,207,459264,0.0-108.0-0.0,591,,,,50,"1,0,0",6,blank,329,null,0.788156856,0.376965647,0.329183639,0,,,,,,
,html-keyboard-response,208,460267,0.0-108.0-1.0,null,<p></p>,,null,,,,,,,,,,,,,,,,
,do_trial,209,463562,0.0-109.0-0.0,758,,,,51,"1,1,0",6,blank,330,null,0.757703008,0.300197776,0.425152927,0,,,,,,
,html-keyboard-response,210,464564,0.0-109.0-1.0,null,<p></p>,,null,,,,,,,,,,,,,,,,
,do_recog,211,467381,0.0-110.0-0.0,1310,,,,53,,,,331,probe-176,,,,,1,[object Object],85,2,1,
,html-keyboard-response,212,468382,0.0-110.0-1.0,null,<p></p>,,null,,,,,,,,,,,,,,,,
,do_trial,213,471645,0.0-111.0-0.0,728,,,,50,"0,1,0",6,blank,332,null,0.724009704,0.23118207,0.372184856,1,,,,,,
,html-keyboard-response,214,472648,0.0-111.0-1.0,null,<p></p>,,null,,,,,,,,,,,,,,,,
,do_recog,215,475076,0.0-112.0-0.0,921,,,,53,,,,333,probe-88,,,,,1,[object Object],165,4,1,
,html-keyboard-response,216,476078,0.0-112.0-1.0,null,<p></p>,,null,,,,,,,,,,,,,,,,
,do_trial,217,479371,0.0-113.0-0.0,756,,,,50,"1,0,0",6,blank,334,null,0.66060773,0.286368451,0.221637547,0,,,,,,
,html-keyboard-response,218,480374,0.0-113.0-1.0,null,<p></p>,,null,,,,,,,,,,,,,,,,
,do_recog,219,482715,0.0-114.0-0.0,835,,,,53,,,,335,probe-64,,,,,1,[object Object],160,4,1,
,html-keyboard-response,220,483717,0.0-114.0-1.0,null,<p></p>,,null,,,,,,,,,,,,,,,,
,do_trial,221,487152,0.0-115.0-0.0,899,,,,49,"1,0,0",6,blank,336,null,0.805368414,0.242078196,0.090841654,1,,,,,,
,html-keyboard-response,222,488155,0.0-115.0-1.0,null,<p></p>,,null,,,,,,,,,,,,,,,,
,do_trial,223,491104,0.0-116.0-0.0,414,,,,49,"1,0,0",6,blank,337,null,0.718278307,0.252390173,0.075822281,1,,,,,,
,html-keyboard-response,224,492107,0.0-116.0-1.0,null,<p></p>,,null,,,,,,,,,,,,,,,,
,do_recog,225,494498,0.0-117.0-0.0,886,,,,53,,,,338,probe-20,,,,,1,[object Object],122,3,1,
,html-keyboard-response,226,495501,0.0-117.0-1.0,null,<p></p>,,null,,,,,,,,,,,,,,,,
,do_trial,227,498664,0.0-118.0-0.0,626,,,,49,"1,0,0",6,blank,339,null,0.731310543,0.136262955,0.068121573,1,,,,,,
,html-keyboard-response,228,499666,0.0-118.0-1.0,null,<p></p>,,null,,,,,,,,,,,,,,,,
,do_trial,229,503179,0.0-119.0-0.0,976,,,,49,"1,0,0",6,blank,340,null,0.727300599,0.205073359,0.074642383,1,,,,,,
,html-keyboard-response,230,504182,0.0-119.0-1.0,null,<p></p>,,null,,,,,,,,,,,,,,,,
,do_trial,231,507123,0.0-120.0-0.0,405,,,,49,"1,1,0",6,blank,341,null,0.636785461,0.107009565,0.087234372,1,,,,,,
,html-keyboard-response,232,508126,0.0-120.0-1.0,null,<p></p>,,null,,,,,,,,,,,,,,,,
,do_trial,233,511182,0.0-121.0-0.0,519,,,,49,"1,0,0",6,blank,342,null,0.695344906,0.29068215,0.098770503,1,,,,,,
,html-keyboard-response,234,512185,0.0-121.0-1.0,null,<p></p>,,null,,,,,,,,,,,,,,,,
,do_trial,235,515347,0.0-122.0-0.0,626,,,,49,"1,0,0",6,blank,343,null,0.698325261,0.398972664,0.198160806,1,,,,,,
,html-keyboard-response,236,516349,0.0-122.0-1.0,null,<p></p>,,null,,,,,,,,,,,,,,,,
,do_recog,237,519619,0.0-123.0-0.0,1763,,,,53,,,,344,probe-68,,,,,1,[object Object],89,2,1,
,html-keyboard-response,238,520622,0.0-123.0-1.0,null,<p></p>,,null,,,,,,,,,,,,,,,,
,do_trial,239,523901,0.0-124.0-0.0,743,,,,49,"1,0,0",6,blank,345,null,0.510677858,0.464180938,0.190066708,1,,,,,,
,html-keyboard-response,240,524904,0.0-124.0-1.0,null,<p></p>,,null,,,,,,,,,,,,,,,,
,do_recog,241,527840,0.0-125.0-0.0,1430,,,,53,,,,346,probe-03,,,,,1,[object Object],166,4,1,
,html-keyboard-response,242,528842,0.0-125.0-1.0,null,<p></p>,,null,,,,,,,,,,,,,,,,
,do_trial,243,532137,0.0-126.0-0.0,758,,,,49,"1,0,1",6,blank,347,null,0.480051896,0.458392707,0.212669054,1,,,,,,
,html-keyboard-response,244,533139,0.0-126.0-1.0,null,<p></p>,,null,,,,,,,,,,,,,,,,
,do_trial,245,536228,0.0-127.0-0.0,552,,,,49,"0,1,0",6,blank,348,null,0.554190613,0.549406909,0.312510533,0,,,,,,
,html-keyboard-response,246,537231,0.0-127.0-1.0,null,<p></p>,,null,,,,,,,,,,,,,,,,
,do_trial,247,540255,0.0-128.0-0.0,489,,,,50,"0,0,0",6,blank,349,null,0.248023614,0.581692317,0.37608024,0,,,,,,
,html-keyboard-response,248,541258,0.0-128.0-1.0,null,<p></p>,,null,,,,,,,,,,,,,,,,
,do_trial,249,544281,0.0-129.0-0.0,486,,,,51,"0,0,1",6,blank,350,null,0.169208985,0.449921569,0.339603979,1,,,,,,
,html-keyboard-response,250,545283,0.0-129.0-1.0,null,<p></p>,,null,,,,,,,,,,,,,,,,
,do_recog,251,547686,0.0-130.0-0.0,896,,,,53,,,,351,probe-146,,,,,1,[object Object],86,2,1,
,html-keyboard-response,252,548688,0.0-130.0-1.0,null,<p></p>,,null,,,,,,,,,,,,,,,,
,do_trial,253,552103,0.0-131.0-0.0,879,,,,51,"0,1,1",6,blank,352,null,0.076990474,0.391404211,0.377892989,1,,,,,,
,html-keyboard-response,254,553105,0.0-131.0-1.0,null,<p></p>,,null,,,,,,,,,,,,,,,,
,do_recog,255,555471,0.0-132.0-0.0,859,,,,53,,,,353,probe-104,,,,,1,[object Object],121,3,1,
,html-keyboard-response,256,556473,0.0-132.0-1.0,null,<p></p>,,null,,,,,,,,,,,,,,,,
,do_trial,257,559604,0.0-133.0-0.0,595,,,,51,"0,1,0",6,blank,354,null,0.07628335,0.215330936,0.432021357,0,,,,,,
,html-keyboard-response,258,560607,0.0-133.0-1.0,null,<p></p>,,null,,,,,,,,,,,,,,,,
,do_trial,259,563573,0.0-134.0-0.0,430,,,,49,"1,0,1",6,blank,355,null,0.21340123,0.211528852,0.621468379,1,,,,,,
,html-keyboard-response,260,564576,0.0-134.0-1.0,null,<p></p>,,null,,,,,,,,,,,,,,,,
,do_trial,261,567822,0.0-135.0-0.0,710,,,,49,"0,0,1",6,blank,356,null,0.224938698,0.203644037,0.540873764,0,,,,,,
,html-keyboard-response,262,568825,0.0-135.0-1.0,null,<p></p>,,null,,,,,,,,,,,,,,,,
,do_trial,263,572042,0.0-136.0-0.0,680,,,,50,"0,0,0",6,blank,357,null,0.097351385,0.23058726,0.480401926,0,,,,,,
,html-keyboard-response,264,573044,0.0-136.0-1.0,null,<p></p>,,null,,,,,,,,,,,,,,,,
,do_recog,265,575439,0.0-137.0-0.0,888,,,,53,,,,358,probe-56,,,,,1,[object Object],88,2,1,
,html-keyboard-response,266,576442,0.0-137.0-1.0,null,<p></p>,,null,,,,,,,,,,,,,,,,
,do_trial,267,580081,0.0-138.0-0.0,1103,,,,51,"0,0,1",6,blank,359,null,0.171672825,0.175559521,0.61851496,1,,,,,,
,html-keyboard-response,268,581084,0.0-138.0-1.0,null,<p></p>,,null,,,,,,,,,,,,,,,,
,do_recog,269,583441,0.0-139.0-0.0,850,,,,53,,,,360,probe-152,,,,,1,[object Object],209,5,1,
,html-keyboard-response,270,584443,0.0-139.0-1.0,null,<p></p>,,null,,,,,,,,,,,,,,,,
,do_trial,271,587883,0.0-140.0-0.0,903,,,,51,"1,0,1",6,blank,361,null,0.052381271,0.276697084,0.614616399,1,,,,,,
,html-keyboard-response,272,588886,0.0-140.0-1.0,null,<p></p>,,null,,,,,,,,,,,,,,,,
,do_trial,273,592014,0.0-141.0-0.0,592,,,,51,"0,1,1",6,blank,362,null,0.130497506,0.153935067,0.582925851,1,,,,,,
,html-keyboard-response,274,593017,0.0-141.0-1.0,null,<p></p>,,null,,,,,,,,,,,,,,,,
,do_trial,275,595992,0.0-142.0-0.0,439,,,,51,"0,1,1",6,blank,363,null,0.073916626,0.289564267,0.640255753,1,,,,,,
,html-keyboard-response,276,596994,0.0-142.0-1.0,null,<p></p>,,null,,,,,,,,,,,,,,,,
,do_trial,277,599992,0.0-143.0-0.0,460,,,,51,"0,1,0",6,blank,364,null,0.172768339,0.254333127,0.64782046,0,,,,,,
,html-keyboard-response,278,600993,0.0-143.0-1.0,null,<p></p>,,null,,,,,,,,,,,,,,,,
,do_trial,279,604098,0.0-144.0-0.0,568,,,,49,"0,0,1",6,blank,365,null,0.147151795,0.508981666,0.742412369,0,,,,,,
,html-keyboard-response,280,605100,0.0-144.0-1.0,null,<p></p>,,null,,,,,,,,,,,,,,,,
,do_trial,281,608199,0.0-145.0-0.0,562,,,,50,"0,1,1",6,blank,366,null,0.122255966,0.514096001,0.621395782,1,,,,,,
,html-keyboard-response,282,609201,0.0-145.0-1.0,null,<p></p>,,null,,,,,,,,,,,,,,,,
,do_recog,283,611563,0.0-146.0-0.0,855,,,,53,,,,367,probe-13,,,,,1,[object Object],206,5,1,
,html-keyboard-response,284,612565,0.0-146.0-1.0,null,<p></p>,,null,,,,,,,,,,,,,,,,
,do_trial,285,616200,0.0-147.0-0.0,1099,,,,50,"1,0,1",6,blank,368,null,0.058260052,0.348892513,0.590361325,0,,,,,,
,html-keyboard-response,286,617202,0.0-147.0-1.0,null,<p></p>,,null,,,,,,,,,,,,,,,,
,do_trial,287,620468,0.0-148.0-0.0,729,,,,49,"0,0,1",6,blank,369,null,0.052986606,0.484887779,0.569039654,0,,,,,,
,html-keyboard-response,288,621470,0.0-148.0-1.0,null,<p></p>,,null,,,,,,,,,,,,,,,,
,do_trial,289,624452,0.0-149.0-0.0,445,,,,51,"0,0,1",6,blank,370,null,0.061998324,0.346640023,0.752820797,1,,,,,,
,html-keyboard-response,290,625455,0.0-149.0-1.0,null,<p></p>,,null,,,,,,,,,,,,,,,,
,do_trial,291,628401,0.0-150.0-0.0,410,,,,51,"0,0,0",6,blank,371,null,0.285938938,0.325897423,0.61654641,0,,,,,,
,html-keyboard-response,292,629404,0.0-150.0-1.0,null,<p></p>,,null,,,,,,,,,,,,,,,,
,do_recog,293,631802,0.0-151.0-0.0,892,,,,53,,,,372,probe-203,,,,,1,[object Object],44,1,1,
,html-keyboard-response,294,632805,0.0-151.0-1.0,null,<p></p>,,null,,,,,,,,,,,,,,,,
,do_trial,295,636145,0.0-152.0-0.0,805,,,,49,"0,0,0",6,blank,373,null,0.262588224,0.195113019,0.686015765,0,,,,,,
,html-keyboard-response,296,637148,0.0-152.0-1.0,null,<p></p>,,null,,,,,,,,,,,,,,,,
,do_trial,297,640215,0.0-153.0-0.0,530,,,,50,"0,1,0",6,blank,374,null,0.15065187,0.335658802,0.61280693,1,,,,,,
,html-keyboard-response,298,641217,0.0-153.0-1.0,null,<p></p>,,null,,,,,,,,,,,,,,,,
,do_trial,299,644183,0.0-154.0-0.0,429,,,,50,"0,1,0",6,blank,375,null,0.101127526,0.414086844,0.56908267,1,,,,,,
,html-keyboard-response,300,645186,0.0-154.0-1.0,null,<p></p>,,null,,,,,,,,,,,,,,,,
,do_trial,301,648246,0.0-155.0-0.0,524,,,,50,"0,1,1",6,blank,376,null,0.054327045,0.424023513,0.502324771,1,,,,,,
,html-keyboard-response,302,649249,0.0-155.0-1.0,null,<p></p>,,null,,,,,,,,,,,,,,,,
,do_recog,303,652019,0.0-156.0-0.0,1261,,,,53,,,,377,probe-69,,,,,1,[object Object],81,2,1,
,html-keyboard-response,304,653022,0.0-156.0-1.0,null,<p></p>,,null,,,,,,,,,,,,,,,,
,do_trial,305,656312,0.0-157.0-0.0,754,,,,50,"1,1,1",6,blank,378,null,0.211429079,0.51615642,0.531491883,1,,,,,,
,html-keyboard-response,306,657315,0.0-157.0-1.0,null,<p></p>,,null,,,,,,,,,,,,,,,,
,do_recog,307,660341,0.0-158.0-0.0,1520,,,,53,,,,379,probe-184,,,,,1,[object Object],169,4,1,
,html-keyboard-response,308,661344,0.0-158.0-1.0,null,<p></p>,,null,,,,,,,,,,,,,,,,
,do_trial,309,664953,0.0-159.0-0.0,1073,,,,50,"0,0,1",6,blank,380,null,0.073710873,0.416307318,0.47876185,0,,,,,,
,html-keyboard-response,310,665955,0.0-159.0-1.0,null,<p></p>,,null,,,,,,,,,,,,,,,,
,do_recog,311,668265,0.0-160.0-0.0,805,,,,53,,,,381,probe-58,,,,,1,[object Object],207,5,1,
,html-keyboard-response,312,669268,0.0-160.0-1.0,null,<p></p>,,null,,,,,,,,,,,,,,,,
,do_trial,313,673042,0.0-161.0-0.0,1236,,,,51,"0,1,0",6,blank,382,null,0.175265608,0.322124098,0.454315949,0,,,,,,
,html-keyboard-response,314,674044,0.0-161.0-1.0,null,<p></p>,,null,,,,,,,,,,,,,,,,
,do_trial,315,677312,0.0-162.0-0.0,729,,,,49,"1,0,1",6,blank,383,null,0.201205017,0.328635921,0.378681551,1,,,,,,
,html-keyboard-response,316,678315,0.0-162.0-1.0,null,<p></p>,,null,,,,,,,,,,,,,,,,
,do_recog,317,680576,0.0-163.0-0.0,754,,,,53,,,,384,probe-188,,,,,1,[object Object],127,3,1,
,html-keyboard-response,318,681578,0.0-163.0-1.0,null,<p></p>,,null,,,,,,,,,,,,,,,,
,do_trial,319,684906,0.0-164.0-0.0,790,,,,49,"0,0,1",6,blank,385,null,0.127772225,0.370266475,0.501677227,0,,,,,,
,html-keyboard-response,320,685909,0.0-164.0-1.0,null,<p></p>,,null,,,,,,,,,,,,,,,,
,do_trial,321,688980,0.0-165.0-0.0,532,,,,51,"0,0,0",6,blank,386,null,0.102745931,0.051319357,0.555537705,0,,,,,,
,html-keyboard-response,322,689983,0.0-165.0-1.0,null,<p></p>,,null,,,,,,,,,,,,,,,,
,do_trial,323,692962,0.0-166.0-0.0,440,,,,50,"0,0,0",6,blank,387,null,0.221845845,0.226161295,0.633833037,0,,,,,,
,html-keyboard-response,324,693965,0.0-166.0-1.0,null,<p></p>,,null,,,,,,,,,,,,,,,,
,do_recog,325,696313,0.0-167.0-0.0,842,,,,53,,,,388,probe-170,,,,,1,[object Object],123,3,1,
,html-keyboard-response,326,697316,0.0-167.0-1.0,null,<p></p>,,null,,,,,,,,,,,,,,,,
,do_trial,327,700653,0.0-168.0-0.0,799,,,,49,"0,0,1",6,blank,389,null,0.118674428,0.249992765,0.682968015,0,,,,,,
,html-keyboard-response,328,701655,0.0-168.0-1.0,null,<p></p>,,null,,,,,,,,,,,,,,,,
,do_trial,329,704659,0.0-169.0-0.0,465,,,,51,"0,0,1",6,blank,390,null,0.058952873,0.275536351,0.711205275,1,,,,,,
,html-keyboard-response,330,705662,0.0-169.0-1.0,null,<p></p>,,null,,,,,,,,,,,,,,,,
,do_recog,331,708364,0.0-170.0-0.0,1195,,,,53,,,,391,probe-131,,,,,1,[object Object],124,3,1,
,html-keyboard-response,332,709366,0.0-170.0-1.0,null,<p></p>,,null,,,,,,,,,,,,,,,,
,do_trial,333,712744,0.0-171.0-0.0,839,,,,51,"0,0,1",6,blank,392,null,0.147767206,0.370240497,0.745243341,1,,,,,,
,html-keyboard-response,334,713747,0.0-171.0-1.0,null,<p></p>,,null,,,,,,,,,,,,,,,,
,do_trial,335,717111,0.0-172.0-0.0,825,,,,51,"0,1,1",6,blank,393,null,0.139375497,0.466430619,0.848359441,1,,,,,,
,html-keyboard-response,336,718114,0.0-172.0-1.0,null,<p></p>,,null,,,,,,,,,,,,,,,,
,do_trial,337,721132,0.0-173.0-0.0,479,,,,51,"0,0,1",6,blank,394,null,0.131119746,0.374400017,0.815151754,1,,,,,,
,html-keyboard-response,338,722135,0.0-173.0-1.0,null,<p></p>,,null,,,,,,,,,,,,,,,,
,do_trial,339,725425,0.0-174.0-0.0,752,,,,51,"0,0,0",6,blank,395,null,0.173053338,0.279964214,0.657332172,0,,,,,,
,html-keyboard-response,340,726428,0.0-174.0-1.0,null,<p></p>,,null,,,,,,,,,,,,,,,,
,do_trial,341,729832,0.0-175.0-0.0,865,,,,49,"0,0,0",6,blank,396,null,0.180870134,0.289203775,0.51457148,0,,,,,,
,html-keyboard-response,342,730834,0.0-175.0-1.0,null,<p></p>,,null,,,,,,,,,,,,,,,,
,do_trial,343,733783,0.0-176.0-0.0,409,,,,50,"0,1,0",6,blank,397,null,0.232405031,0.288624262,0.634944875,1,,,,,,
,html-keyboard-response,344,734785,0.0-176.0-1.0,null,<p></p>,,null,,,,,,,,,,,,,,,,
,do_trial,345,738152,0.0-177.0-0.0,827,,,,50,"0,0,0",6,blank,398,null,0.159486666,0.295403554,0.496192382,0,,,,,,
,html-keyboard-response,346,739154,0.0-177.0-1.0,null,<p></p>,,null,,,,,,,,,,,,,,,,
,do_recog,347,741825,0.0-178.0-0.0,1164,,,,53,,,,399,probe-94,,,,,1,[object Object],201,5,1,
,html-keyboard-response,348,742827,0.0-178.0-1.0,null,<p></p>,,null,,,,,,,,,,,,,,,,
,do_trial,349,746498,0.0-179.0-0.0,1124,,,,49,"0,0,1",6,blank,400,null,0.188333236,0.202292669,0.637155381,0,,,,,,
,html-keyboard-response,350,747501,0.0-179.0-1.0,null,<p></p>,,null,,,,,,,,,,,,,,,,
,do_recog,351,750052,0.0-180.0-0.0,1041,,,,53,,,,401,probe-214,,,,,1,[object Object],43,1,1,
,html-keyboard-response,352,751054,0.0-180.0-1.0,null,<p></p>,,null,,,,,,,,,,,,,,,,
,do_trial,353,754496,0.0-181.0-0.0,890,,,,50,"0,0,1",6,blank,402,null,0.327121408,0.116636594,0.539037186,0,,,,,,
,html-keyboard-response,354,755498,0.0-181.0-1.0,null,<p></p>,,null,,,,,,,,,,,,,,,,
,do_trial,355,758434,0.0-182.0-0.0,398,,,,49,"0,1,1",6,blank,403,null,0.562898483,0.079759881,0.42031168,0,,,,,,
,html-keyboard-response,356,759437,0.0-182.0-1.0,null,<p></p>,,null,,,,,,,,,,,,,,,,
,do_recog,357,761802,0.0-183.0-0.0,859,,,,53,,,,404,probe-17,,,,,1,[object Object],163,4,1,
,html-keyboard-response,358,762805,0.0-183.0-1.0,null,<p></p>,,null,,,,,,,,,,,,,,,,
,do_trial,359,766166,0.0-184.0-0.0,825,,,,51,"1,0,1",6,blank,405,null,0.655177062,0.141896225,0.488036625,1,,,,,,
,html-keyboard-response,360,767169,0.0-184.0-1.0,null,<p></p>,,null,,,,,,,,,,,,,,,,
,do_trial,361,770428,0.0-185.0-0.0,713,,,,51,"1,0,1",6,blank,406,null,0.669417661,0.157357088,0.439862588,1,,,,,,
,html-keyboard-response,362,771430,0.0-185.0-1.0,null,<p></p>,,null,,,,,,,,,,,,,,,,
,do_trial,363,774449,0.0-186.0-0.0,470,,,,51,"1,0,0",6,blank,407,null,0.666772794,0.241373039,0.215593063,0,,,,,,
,html-keyboard-response,364,775452,0.0-186.0-1.0,null,<p></p>,,null,,,,,,,,,,,,,,,,
,do_trial,365,778657,0.0-187.0-0.0,656,,,,49,"1,0,0",6,blank,408,null,0.524277951,0.227804054,0.257231239,1,,,,,,
,html-keyboard-response,366,779659,0.0-187.0-1.0,null,<p></p>,,null,,,,,,,,,,,,,,,,
,do_trial,367,782616,0.0-188.0-0.0,405,,,,49,"1,0,1",6,blank,409,null,0.385275353,0.167154806,0.40872873,1,,,,,,
,html-keyboard-response,368,783619,0.0-188.0-1.0,null,<p></p>,,null,,,,,,,,,,,,,,,,
,do_recog,369,786040,0.0-189.0-0.0,914,,,,53,,,,410,probe-153,,,,,1,[object Object],45,1,1,
,html-keyboard-response,370,787042,0.0-189.0-1.0,null,<p></p>,,null,,,,,,,,,,,,,,,,
,do_trial,371,790249,0.0-190.0-0.0,666,,,,49,"0,0,1",6,blank,411,null,0.427136489,0.108701802,0.413496442,0,,,,,,
,html-keyboard-response,372,791251,0.0-190.0-1.0,null,<p></p>,,null,,,,,,,,,,,,,,,,
,do_recog,373,793615,0.0-191.0-0.0,858,,,,53,,,,412,probe-123,,,,,1,[object Object],162,4,1,
,html-keyboard-response,374,794618,0.0-191.0-1.0,null,<p></p>,,null,,,,,,,,,,,,,,,,
,do_trial,375,797884,0.0-192.0-0.0,729,,,,51,"1,0,0",6,blank,413,null,0.509120251,0.1561267,0.263184307,0,,,,,,
,html-keyboard-response,376,798886,0.0-192.0-1.0,null,<p></p>,,null,,,,,,,,,,,,,,,,
,do_trial,377,801884,0.0-193.0-0.0,461,,,,50,"1,0,1",6,blank,414,null,0.431740086,0.166575387,0.347329191,0,,,,,,
,html-keyboard-response,378,802887,0.0-193.0-1.0,null,<p></p>,,null,,,,,,,,,,,,,,,,
,do_trial,379,806074,0.0-194.0-0.0,650,,,,49,"1,1,0",6,blank,415,null,0.553065835,0.238378498,0.270931682,1,,,,,,
,html-keyboard-response,380,807077,0.0-194.0-1.0,null,<p></p>,,null,,,,,,,,,,,,,,,,
,do_recog,381,809423,0.0-195.0-0.0,839,,,,53,,,,416,probe-113,,,,,1,[object Object],204,5,1,
,html-keyboard-response,382,810426,0.0-195.0-1.0,null,<p></p>,,null,,,,,,,,,,,,,,,,
,do_trial,383,813748,0.0-196.0-0.0,785,,,,49,"1,0,0",6,blank,417,null,0.668188189,0.228159412,0.267021042,1,,,,,,
,html-keyboard-response,384,814750,0.0-196.0-1.0,null,<p></p>,,null,,,,,,,,,,,,,,,,
,do_trial,385,817822,0.0-197.0-0.0,538,,,,49,"0,0,1",6,blank,418,null,0.677395626,0.102698007,0.146100451,0,,,,,,
,html-keyboard-response,386,818825,0.0-197.0-1.0,null,<p></p>,,null,,,,,,,,,,,,,,,,
,do_trial,387,822108,0.0-198.0-0.0,747,,,,50,"0,0,0",6,blank,419,null,0.683260984,0.104518173,0.194705843,0,,,,,,
,html-keyboard-response,388,823110,0.0-198.0-1.0,null,<p></p>,,null,,,,,,,,,,,,,,,,
,do_recog,389,825982,0.0-199.0-0.0,1365,,,,53,,,,420,probe-173,,,,,1,[object Object],48,1,1,
,html-keyboard-response,390,826985,0.0-199.0-1.0,null,<p></p>,,null,,,,,,,,,,,,,,,,
,do_trial,391,830288,0.0-200.0-0.0,765,,,,51,"1,0,0",6,blank,421,null,0.654097315,0.116225191,0.270277868,0,,,,,,
,html-keyboard-response,392,831291,0.0-200.0-1.0,null,<p></p>,,null,,,,,,,,,,,,,,,,
,do_recog,393,834179,0.0-201.0-0.0,1383,,,,53,,,,422,probe-159,,,,,1,[object Object],42,1,1,
,html-keyboard-response,394,835181,0.0-201.0-1.0,null,<p></p>,,null,,,,,,,,,,,,,,,,
,do_trial,395,839667,0.0-202.0-0.0,1947,,,,50,"1,0,0",6,blank,423,null,0.633577,0.114306436,0.351665214,0,,,,,,
,html-keyboard-response,396,840670,0.0-202.0-1.0,null,<p></p>,,null,,,,,,,,,,,,,,,,
,do_trial,397,845597,0.0-203.0-0.0,2386,,,,49,"1,0,1",6,blank,424,null,0.567611107,0.150928399,0.435897883,1,,,,,,
,html-keyboard-response,398,846599,0.0-203.0-1.0,null,<p></p>,,null,,,,,,,,,,,,,,,,
,do_recog,399,849359,0.0-204.0-0.0,1253,,,,53,,,,425,probe-149,,,,,1,[object Object],126,3,1,
,html-keyboard-response,400,850362,0.0-204.0-1.0,null,<p></p>,,null,,,,,,,,,,,,,,,,
,do_trial,401,853659,0.0-205.0-0.0,761,,,,49,"1,0,0",6,blank,426,null,0.573995736,0.084126879,0.296371996,1,,,,,,
,html-keyboard-response,402,854662,0.0-205.0-1.0,null,<p></p>,,null,,,,,,,,,,,,,,,,
,do_trial,403,857827,0.0-206.0-0.0,630,,,,49,"0,0,0",6,blank,427,null,0.462030353,0.107925994,0.285278505,0,,,,,,
,html-keyboard-response,404,858830,0.0-206.0-1.0,null,<p></p>,,null,,,,,,,,,,,,,,,,
,do_trial,405,862161,0.0-207.0-0.0,795,,,,51,"1,0,1",6,blank,428,null,0.644748134,0.12792281,0.248291879,1,,,,,,
,html-keyboard-response,406,863164,0.0-207.0-1.0,null,<p></p>,,null,,,,,,,,,,,,,,,,
,do_trial,407,866105,0.0-208.0-0.0,406,,,,51,"1,0,0",6,blank,429,null,0.586873672,0.188382839,0.122310044,0,,,,,,
,html-keyboard-response,408,867107,0.0-208.0-1.0,null,<p></p>,,null,,,,,,,,,,,,,,,,
,do_recog,409,869495,0.0-209.0-0.0,881,,,,53,,,,430,probe-34,,,,,1,[object Object],125,3,1,
,html-keyboard-response,410,870497,0.0-209.0-1.0,null,<p></p>,,null,,,,,,,,,,,,,,,,
,do_trial,411,874543,0.0-210.0-0.0,1512,,,,50,"1,0,0",6,blank,431,null,0.551209414,0.054433872,0.154569661,0,,,,,,
,html-keyboard-response,412,875546,0.0-210.0-1.0,null,<p></p>,,null,,,,,,,,,,,,,,,,
,do_trial,413,878511,0.0-211.0-0.0,429,,,,51,"0,0,0",6,blank,432,null,0.647309968,0.05077365,0.294665573,0,,,,,,
,html-keyboard-response,414,879514,0.0-211.0-1.0,null,<p></p>,,null,,,,,,,,,,,,,,,,
,do_trial,415,882747,0.0-212.0-0.0,696,,,,49,"1,0,0",6,blank,433,null,0.619509014,0.112759269,0.305515572,1,,,,,,
,html-keyboard-response,416,883750,0.0-212.0-1.0,null,<p></p>,,null,,,,,,,,,,,,,,,,
,do_trial,417,887016,0.0-213.0-0.0,730,,,,49,"1,0,1",6,blank,434,null,0.527788294,0.082089446,0.315175102,1,,,,,,
,html-keyboard-response,418,888017,0.0-213.0-1.0,null,<p></p>,,null,,,,,,,,,,,,,,,,
,do_trial,419,891333,0.0-214.0-0.0,778,,,,49,"1,0,1",6,blank,435,null,0.681235627,0.076281481,0.306876139,1,,,,,,
,html-keyboard-response,420,892335,0.0-214.0-1.0,null,<p></p>,,null,,,,,,,,,,,,,,,,
,do_trial,421,895548,0.0-215.0-0.0,676,,,,49,"1,0,0",6,blank,436,null,0.76576929,0.074897743,0.262517964,1,,,,,,
,html-keyboard-response,422,896551,0.0-215.0-1.0,null,<p></p>,,null,,,,,,,,,,,,,,,,
,do_recog,423,899139,0.0-216.0-0.0,1081,,,,53,,,,437,probe-28,,,,,1,[object Object],120,3,1,
,html-keyboard-response,424,900141,0.0-216.0-1.0,null,<p></p>,,null,,,,,,,,,,,,,,,,
,do_trial,425,903215,0.0-217.0-0.0,538,,,,49,"1,0,0",6,blank,438,null,0.845797,0.066835863,0.39811997,1,,,,,,
,html-keyboard-response,426,904218,0.0-217.0-1.0,null,<p></p>,,null,,,,,,,,,,,,,,,,
,do_trial,427,907570,0.0-218.0-0.0,815,,,,49,"1,0,0",6,blank,439,null,0.774081128,0.210585391,0.335100076,1,,,,,,
,html-keyboard-response,428,908572,0.0-218.0-1.0,null,<p></p>,,null,,,,,,,,,,,,,,,,
,do_trial,429,912074,0.0-219.0-0.0,963,,,,49,"1,0,0",6,blank,440,null,0.758055416,0.200407943,0.198373951,1,,,,,,
,html-keyboard-response,430,913077,0.0-219.0-1.0,null,<p></p>,,null,,,,,,,,,,,,,,,,
,do_trial,431,916521,0.0-220.0-0.0,905,,,,49,"1,0,0",6,blank,441,null,0.740000092,0.051314903,0.123332218,1,,,,,,
,html-keyboard-response,432,917523,0.0-220.0-1.0,null,<p></p>,,null,,,,,,,,,,,,,,,,
,do_trial,433,920678,0.0-221.0-0.0,614,,,,49,"0,0,0",6,blank,442,null,0.634735492,0.181145186,0.188607498,0,,,,,,
,html-keyboard-response,434,921680,0.0-221.0-1.0,null,<p></p>,,null,,,,,,,,,,,,,,,,
,do_trial,435,924861,0.0-222.0-0.0,639,,,,50,"0,0,1",6,blank,443,null,0.503231953,0.224567568,0.366227552,0,,,,,,
,html-keyboard-response,436,925863,0.0-222.0-1.0,null,<p></p>,,null,,,,,,,,,,,,,,,,
,do_recog,437,928325,0.0-223.0-0.0,955,,,,53,,,,444,probe-128,,,,,1,[object Object],40,1,1,
,html-keyboard-response,438,929328,0.0-223.0-1.0,null,<p></p>,,null,,,,,,,,,,,,,,,,
,do_trial,439,932790,0.0-224.0-0.0,926,,,,51,"1,0,0",6,blank,445,null,0.606024233,0.147674818,0.155527847,0,,,,,,
,html-keyboard-response,440,933792,0.0-224.0-1.0,null,<p></p>,,null,,,,,,,,,,,,,,,,
,do_recog,441,936192,0.0-225.0-0.0,894,,,,53,,,,446,probe-248,,,,,0,[object Object],null,null,0,
,html-keyboard-response,442,937194,0.0-225.0-1.0,null,<p></p>,,null,,,,,,,,,,,,,,,,
,do_trial,443,940268,0.0-226.0-0.0,537,,,,51,"0,0,0",6,blank,447,null,0.42111297,0.242488603,0.176840032,0,,,,,,
,html-keyboard-response,444,941270,0.0-226.0-1.0,null,<p></p>,,null,,,,,,,,,,,,,,,,
,do_recog,445,943830,0.0-227.0-0.0,1054,,,,53,,,,448,probe-239,,,,,0,[object Object],null,null,0,
,html-keyboard-response,446,944833,0.0-227.0-1.0,null,<p></p>,,null,,,,,,,,,,,,,,,,
,do_trial,447,947941,0.0-228.0-0.0,572,,,,49,"0,0,0",6,blank,449,null,0.517397956,0.08263461,0.307313617,0,,,,,,
,html-keyboard-response,448,948944,0.0-228.0-1.0,null,<p></p>,,null,,,,,,,,,,,,,,,,
,do_trial,449,952113,0.0-229.0-0.0,630,,,,50,"0,0,1",6,blank,450,null,0.494095258,0.132172126,0.189677747,0,,,,,,
,html-keyboard-response,450,953116,0.0-229.0-1.0,null,<p></p>,,null,,,,,,,,,,,,,,,,
,do_trial,451,956201,0.0-230.0-0.0,548,,,,51,"1,0,0",6,blank,451,null,0.538222572,0.080669059,0.196304662,0,,,,,,
,html-keyboard-response,452,957203,0.0-230.0-1.0,null,<p></p>,,null,,,,,,,,,,,,,,,,
,do_trial,453,960346,0.0-231.0-0.0,606,,,,49,"0,0,1",6,blank,452,null,0.554565671,0.112818154,0.167979198,0,,,,,,
,html-keyboard-response,454,961348,0.0-231.0-1.0,null,<p></p>,,null,,,,,,,,,,,,,,,,
,do_trial,455,964343,0.0-232.0-0.0,459,,,,50,"0,0,0",6,blank,453,null,0.568317112,0.133713398,0.269755871,0,,,,,,
,html-keyboard-response,456,965346,0.0-232.0-1.0,null,<p></p>,,null,,,,,,,,,,,,,,,,
,do_recog,457,968761,0.0-233.0-0.0,1909,,,,56,,,,454,probe-237,,,,,0,[object Object],null,null,1,
,html-keyboard-response,458,969764,0.0-233.0-1.0,null,<p></p>,,null,,,,,,,,,,,,,,,,
,do_trial,459,973134,0.0-234.0-0.0,833,,,,49,"1,0,0",6,blank,455,null,0.40119465,0.344511875,0.349766002,1,,,,,,
,html-keyboard-response,460,974136,0.0-234.0-1.0,null,<p></p>,,null,,,,,,,,,,,,,,,,
,do_recog,461,977073,0.0-235.0-0.0,1430,,,,56,,,,456,probe-242,,,,,0,[object Object],null,null,1,
,html-keyboard-response,462,978076,0.0-235.0-1.0,null,<p></p>,,null,,,,,,,,,,,,,,,,
,do_trial,463,981467,0.0-236.0-0.0,855,,,,49,"1,0,1",6,blank,457,null,0.529460451,0.177795935,0.44248801,1,,,,,,
,html-keyboard-response,464,982470,0.0-236.0-1.0,null,<p></p>,,null,,,,,,,,,,,,,,,,
,do_trial,465,985708,0.0-237.0-0.0,702,,,,49,"0,1,1",6,blank,458,null,0.421110306,0.170392967,0.446995806,0,,,,,,
,html-keyboard-response,466,986710,0.0-237.0-1.0,null,<p></p>,,null,,,,,,,,,,,,,,,,
,do_trial,467,989996,0.0-238.0-0.0,748,,,,51,"1,0,0",6,blank,459,null,0.308870939,0.146623847,0.399205148,0,,,,,,
,html-keyboard-response,468,990998,0.0-238.0-1.0,null,<p></p>,,null,,,,,,,,,,,,,,,,
,do_trial,469,994080,0.0-239.0-0.0,545,,,,50,"0,0,1",6,blank,460,null,0.349047315,0.171119615,0.506846112,0,,,,,,
,html-keyboard-response,470,995083,0.0-239.0-1.0,null,<p></p>,,null,,,,,,,,,,,,,,,,
,do_trial,471,998412,0.0-240.0-0.0,793,,,,51,"1,0,1",6,blank,461,null,0.295399779,0.181251916,0.43182343,1,,,,,,
,html-keyboard-response,472,999415,0.0-240.0-1.0,null,<p></p>,,null,,,,,,,,,,,,,,,,
,do_trial,473,1002833,0.0-241.0-0.0,882,,,,51,"1,0,1",6,blank,462,null,0.198654231,0.140093071,0.403068911,1,,,,,,
,html-keyboard-response,474,1003835,0.0-241.0-1.0,null,<p></p>,,null,,,,,,,,,,,,,,,,
,do_recog,475,1006432,0.0-242.0-0.0,1091,,,,56,,,,463,probe-246,,,,,0,[object Object],null,null,1,
,html-keyboard-response,476,1007435,0.0-242.0-1.0,null,<p></p>,,null,,,,,,,,,,,,,,,,
,do_trial,477,1010880,0.0-243.0-0.0,908,,,,49,"0,0,0",6,blank,464,null,0.289050129,0.059273817,0.523309494,0,,,,,,
,html-keyboard-response,478,1011883,0.0-243.0-1.0,null,<p></p>,,null,,,,,,,,,,,,,,,,
,do_trial,479,1015012,0.0-244.0-0.0,592,,,,51,"0,0,0",6,blank,465,null,0.31054099,0.105817064,0.593222358,0,,,,,,
,html-keyboard-response,480,1016014,0.0-244.0-1.0,null,<p></p>,,null,,,,,,,,,,,,,,,,
,do_recog,481,1018862,0.0-245.0-0.0,1341,,,,56,,,,466,probe-249,,,,,0,[object Object],null,null,1,
,html-keyboard-response,482,1019864,0.0-245.0-1.0,null,<p></p>,,null,,,,,,,,,,,,,,,,
,do_trial,483,1023021,0.0-246.0-0.0,620,,,,50,"0,1,0",6,blank,467,null,0.333952149,0.239705224,0.478583287,1,,,,,,
,html-keyboard-response,484,1024024,0.0-246.0-1.0,null,<p></p>,,null,,,,,,,,,,,,,,,,
,do_trial,485,1027437,0.0-247.0-0.0,876,,,,50,"0,0,0",6,blank,468,null,0.258812366,0.162101439,0.490860515,0,,,,,,
,html-keyboard-response,486,1028440,0.0-247.0-1.0,null,<p></p>,,null,,,,,,,,,,,,,,,,
,do_recog,487,1030809,0.0-248.0-0.0,862,,,,56,,,,469,probe-252,,,,,0,[object Object],null,null,1,
,html-keyboard-response,488,1031811,0.0-248.0-1.0,null,<p></p>,,null,,,,,,,,,,,,,,,,
,do_trial,489,1035192,0.0-249.0-0.0,844,,,,49,"0,1,1",6,blank,470,null,0.304981608,0.259633119,0.510498093,0,,,,,,
,html-keyboard-response,490,1036194,0.0-249.0-1.0,null,<p></p>,,null,,,,,,,,,,,,,,,,
,do_trial,491,1039469,0.0-250.0-0.0,738,,,,51,"1,0,0",6,blank,471,null,0.375904069,0.220339478,0.613904453,0,,,,,,
,html-keyboard-response,492,1040472,0.0-250.0-1.0,null,<p></p>,,null,,,,,,,,,,,,,,,,
,do_trial,493,1043448,0.0-251.0-0.0,440,,,,50,"0,1,1",6,blank,472,null,0.268296942,0.150927607,0.516245837,1,,,,,,
,html-keyboard-response,494,1044450,0.0-251.0-1.0,null,<p></p>,,null,,,,,,,,,,,,,,,,
,do_trial,495,1047669,0.0-252.0-0.0,682,,,,50,"0,0,1",6,blank,473,null,0.215681159,0.245327243,0.587496682,0,,,,,,
,html-keyboard-response,496,1048671,0.0-252.0-1.0,null,<p></p>,,null,,,,,,,,,,,,,,,,
,do_trial,497,1051766,0.0-253.0-0.0,559,,,,51,"0,0,1",6,blank,474,null,0.177329619,0.06603107,0.579905403,1,,,,,,
,html-keyboard-response,498,1052769,0.0-253.0-1.0,null,<p></p>,,null,,,,,,,,,,,,,,,,
,do_trial,499,1055797,0.0-254.0-0.0,491,,,,51,"0,0,0",6,blank,475,null,0.260685729,0.17434326,0.588506636,0,,,,,,
,html-keyboard-response,500,1056800,0.0-254.0-1.0,null,<p></p>,,null,,,,,,,,,,,,,,,,
,do_trial,501,1059890,0.0-255.0-0.0,552,,,,49,"0,0,0",6,blank,476,null,0.253788024,0.243707907,0.676592252,0,,,,,,
,html-keyboard-response,502,1060892,0.0-255.0-1.0,null,<p></p>,,null,,,,,,,,,,,,,,,,
,do_recog,503,1063813,0.0-256.0-0.0,1413,,,,56,,,,477,probe-238,,,,,0,[object Object],null,null,1,
,html-keyboard-response,504,1064815,0.0-256.0-1.0,null,<p></p>,,null,,,,,,,,,,,,,,,,
,do_trial,505,1067995,0.0-257.0-0.0,640,,,,50,"0,0,0",6,blank,478,null,0.093823562,0.297891993,0.594763527,0,,,,,,
,html-keyboard-response,506,1068998,0.0-257.0-1.0,null,<p></p>,,null,,,,,,,,,,,,,,,,
,do_recog,507,1071474,0.0-258.0-0.0,969,,,,56,,,,479,probe-253,,,,,0,[object Object],null,null,1,
,html-keyboard-response,508,1072476,0.0-258.0-1.0,null,<p></p>,,null,,,,,,,,,,,,,,,,
,do_pick_best_pirate,509,1076557,0.0-259.0-0.0,3073,,,,49,,,,,,,,,,,,,,,
,do_pick_best_pirate,510,1080662,0.0-260.0-0.0,3098,,,,49,,,,,,,,,,,,,,,
,do_pick_best_pirate,511,1082996,0.0-261.0-0.0,1327,,,,51,,,,,,,,,,,,,,,
,do_pick_best_pirate,512,1085181,0.0-262.0-0.0,1178,,,,51,,,,,,,,,,,,,,,
,do_pick_best_pirate,513,1088566,0.0-263.0-0.0,2378,,,,50,,,,,,,,,,,,,,,
,do_pick_best_pirate,514,1090438,0.0-264.0-0.0,865,,,,49,,,,,,,,,,,,,,,
,html-keyboard-response,515,1094860,0.0-265.0-0.0,4419,<p>You are all done with the experiment!</p><p> You made $15 plus $3 in bonus payment!</p><p>Thank you for participating. You will recieve your payment within 3 days.<p><b>[Press the space bar to end the experiment]</b></p></div>,,32,,,,,,,,,,,,,,,,