"success","trial_type","trial_index","time_elapsed","internal_node_id","interactions","blur_events","focus_events","fullscreenenter_events","fullscreenexit_events","rt","stimulus","key_press","subject_id","participant_id","age","gender","prompt","response","choice_outcomes","context_n","context_img_id","trial_n","probe_img_id","pR_red","pR_white","pR_black","outcome","is_valid","image_to_show","probed_trial","probed_context","correct","probe","probed_trial_n","probed_context_n","context_im"
"true","fullscreen","0","2422","0.0-0.0","""event"",""trial"",""time""
""focus"",""0"",""0""
""focus"",""0"",""0""
""fullscreenenter"",""0"",""1439""
","
","""event"",""trial"",""time""
""focus"",""0"",""0""
""focus"",""0"",""0""
","""event"",""trial"",""time""
""fullscreenenter"",""0"",""1439""
","
","","","","","","","","","","","","","","","","","","","","","","","","","","",""
"","pavlovia","1","2427","0.0-1.0","""event"",""trial"",""time""
""focus"",""0"",""0""
""focus"",""0"",""0""
""fullscreenenter"",""0"",""1439""
","
","""event"",""trial"",""time""
""focus"",""0"",""0""
""focus"",""0"",""0""
","""event"",""trial"",""time""
""fullscreenenter"",""0"",""1439""
","
","","","","","","","","","","","","","","","","","","","","","","","","","","",""
"","welc_back","2","12207","0.0-2.0","""event"",""trial"",""time""
""focus"",""0"",""0""
""focus"",""0"",""0""
""fullscreenenter"",""0"",""1439""
","
","""event"",""trial"",""time""
""focus"",""0"",""0""
""focus"",""0"",""0""
","""event"",""trial"",""time""
""fullscreenenter"",""0"",""1439""
","
","null","run_exp/static/audio/clip_29_welcome_back.m4a","null","442","358","25","Female","<div class='center'><p>Welcome to day 2!</p><p> Yesterday, you were the head captain of a pirate ship. You asked your fellow pirates to rob other ships of their gold across six different islands.</p></div>","","","","","","","","","","","","","","","","","","",""
"","html-keyboard-response","3","16427","0.0-3.0","""event"",""trial"",""time""
""focus"",""0"",""0""
""focus"",""0"",""0""
""fullscreenenter"",""0"",""1439""
""blur"",""4"",""27646""
""focus"",""4"",""30810""
","""event"",""trial"",""time""
""blur"",""4"",""27646""
","""event"",""trial"",""time""
""focus"",""0"",""0""
""focus"",""0"",""0""
""focus"",""4"",""30810""
","""event"",""trial"",""time""
""fullscreenenter"",""0"",""1439""
","
","4218","<div class='center'><p>Welcome to day 2!</p><p> Yesterday, you were the head captain of a pirate ship. You asked your fellow pirates to rob other ships of their gold across six different islands.</p><p><b>[Press the space bar to continue]</b></p></div>","32","","","","","","","","","","","","","","","","","","","","","","","",""
"","day_1_summary_goal","4","33626","0.0-4.0","""event"",""trial"",""time""
""focus"",""0"",""0""
""focus"",""0"",""0""
""fullscreenenter"",""0"",""1439""
""blur"",""4"",""27646""
""focus"",""4"",""30810""
","""event"",""trial"",""time""
""blur"",""4"",""27646""
","""event"",""trial"",""time""
""focus"",""0"",""0""
""focus"",""0"",""0""
""focus"",""4"",""30810""
","""event"",""trial"",""time""
""fullscreenenter"",""0"",""1439""
","
","null","run_exp/static/audio/clip_30_goal_of_game.m4a","null","","","","","<div class='center'><p>Today, like yesterday, you get to pick which pirate you want to rob the next ship.</p><p>If the pirate is successful in robbing a ship, you get gold coins that look like this: </p><p><img src='run_exp/static/images/tutorial/reward.png' height='150'></p><p> If they were not successful in robbing the ship, then you will get no gold coins and you'll see a big red x like this: </p><p><img src='run_exp/static/images/tutorial/reward_no.png' height='150'></p></div>","","","","","","","","","","","","","","","","","","",""
"","html-keyboard-response","5","39114","0.0-5.0","""event"",""trial"",""time""
""focus"",""0"",""0""
""focus"",""0"",""0""
""fullscreenenter"",""0"",""1439""
""blur"",""4"",""27646""
""focus"",""4"",""30810""
","""event"",""trial"",""time""
""blur"",""4"",""27646""
","""event"",""trial"",""time""
""focus"",""0"",""0""
""focus"",""0"",""0""
""focus"",""4"",""30810""
","""event"",""trial"",""time""
""fullscreenenter"",""0"",""1439""
","
","5484.899999991059","<div class='center'><p>Today, like yesterday, you get to pick which pirate you want to rob the next ship.</p><p>If the pirate is successful in robbing a ship, you get gold coins that look like this: </p><p><img src='run_exp/static/images/tutorial/reward.png' height='150'></p><p> If they were not successful in robbing the ship, then you will get no gold coins and you'll see a big red x like this: </p><p><img src='run_exp/static/images/tutorial/reward_no.png' height='150'></p><p><b>[Press the space bar to continue]</b></p></div>","32","","","","","","","","","","","","","","","","","","","","","","","",""
"","day_1_summary_pick","6","53806","0.0-6.0","""event"",""trial"",""time""
""focus"",""0"",""0""
""focus"",""0"",""0""
""fullscreenenter"",""0"",""1439""
""blur"",""4"",""27646""
""focus"",""4"",""30810""
","""event"",""trial"",""time""
""blur"",""4"",""27646""
","""event"",""trial"",""time""
""focus"",""0"",""0""
""focus"",""0"",""0""
""focus"",""4"",""30810""
","""event"",""trial"",""time""
""fullscreenenter"",""0"",""1439""
","
","null","run_exp/static/audio/clip_31_how_to_pick_a_pirate.m4a","null","","","","","<div class='center'><p>Also, just like yesterday, you will use the 1,2,3 keys on your keyboard to pick a pirate. Press '1' to choose red beard, '2' to choose white beard, and '3' to choose black beard . You only have 3 seconds to pick a pirate, so please make a choice quickly!</p></div>","","","","","","","","","","","","","","","","","","",""
"","html-keyboard-response","7","56438","0.0-7.0","""event"",""trial"",""time""
""focus"",""0"",""0""
""focus"",""0"",""0""
""fullscreenenter"",""0"",""1439""
""blur"",""4"",""27646""
""focus"",""4"",""30810""
","""event"",""trial"",""time""
""blur"",""4"",""27646""
","""event"",""trial"",""time""
""focus"",""0"",""0""
""focus"",""0"",""0""
""focus"",""4"",""30810""
","""event"",""trial"",""time""
""fullscreenenter"",""0"",""1439""
","
","2630.0999999940395","<div class='center'><p>Also, just like yesterday, you will use the 1,2,3 keys on your keyboard to pick a pirate. Press '1' to choose red beard, '2' to choose white beard, and '3' to choose black beard . You only have 3 seconds to pick a pirate, so please make a choice quickly!</p><p><b>[Press the space bar to continue]</b></p></div>","32","","","","","","","","","","","","","","","","","","","","","","","",""
"","test_phase_begin","8","86825","0.0-8.0","""event"",""trial"",""time""
""focus"",""0"",""0""
""focus"",""0"",""0""
""fullscreenenter"",""0"",""1439""
""blur"",""4"",""27646""
""focus"",""4"",""30810""
","""event"",""trial"",""time""
""blur"",""4"",""27646""
","""event"",""trial"",""time""
""focus"",""0"",""0""
""focus"",""0"",""0""
""focus"",""4"",""30810""
","""event"",""trial"",""time""
""fullscreenenter"",""0"",""1439""
","
","null","run_exp/static/audio/clip_32_final_place.m4a","null","","","","","<div class='center'><p>You’ve arrived at the final island of your journey! Unfortunately, it’s very foggy out, so you won’t be able to see it in the distance like the other islands you've visited.</p><p>You’ll still be deciding which pirate you want to rob a ship like before. However, because of the fog, you also won’t be able to see the ship.</p><p>This means you do not have to remember the ships you rob on this island.</p><p>Unlike yesterday, you won't be visiting multiple islands today. You will stay on this island for the entire game. This game will last ~30 minutes.</p></div>","","","","","","","","","","","","","","","","","","",""
"","html-keyboard-response","9","90862","0.0-9.0","""event"",""trial"",""time""
""focus"",""0"",""0""
""focus"",""0"",""0""
""fullscreenenter"",""0"",""1439""
""blur"",""4"",""27646""
""focus"",""4"",""30810""
","""event"",""trial"",""time""
""blur"",""4"",""27646""
","""event"",""trial"",""time""
""focus"",""0"",""0""
""focus"",""0"",""0""
""focus"",""4"",""30810""
","""event"",""trial"",""time""
""fullscreenenter"",""0"",""1439""
","
","4036.2000000029802","<div class='center'><p>You’ve arrived at the final island of your journey! Unfortunately, it’s very foggy out, so you won’t be able to see it in the distance like the other islands you've visited.</p><p>You’ll still be deciding which pirate you want to rob a ship like before. However, because of the fog, you also won’t be able to see the ship.</p><p>This means you do not have to remember the ships you rob on this island.</p><p>Unlike yesterday, you won't be visiting multiple islands today. You will stay on this island for the entire game. This game will last ~30 minutes.</p><p><b>[Press the space bar to continue]</b></p></div>","32","","","","","","","","","","","","","","","","","","","","","","","",""
"","explain_probe_1","10","98565","0.0-10.0","""event"",""trial"",""time""
""focus"",""0"",""0""
""focus"",""0"",""0""
""fullscreenenter"",""0"",""1439""
""blur"",""4"",""27646""
""focus"",""4"",""30810""
","""event"",""trial"",""time""
""blur"",""4"",""27646""
","""event"",""trial"",""time""
""focus"",""0"",""0""
""focus"",""0"",""0""
""focus"",""4"",""30810""
","""event"",""trial"",""time""
""fullscreenenter"",""0"",""1439""
","
","null","run_exp/static/audio/clip_33_recognition_1.m4a","null","","","","","<div class='center'><p> Sometimes you’ll be shown a ship, and you will be asked if you saw this ship on a past island.</p><p> Here is an example of what you will see.</p><p><img src='run_exp/static/images/tutorial/example_recog_trial.png' height='500'></p></div>","","","","","","","","","","","","","","","","","","",""
"","html-keyboard-response","11","108942","0.0-11.0","""event"",""trial"",""time""
""focus"",""0"",""0""
""focus"",""0"",""0""
""fullscreenenter"",""0"",""1439""
""blur"",""4"",""27646""
""focus"",""4"",""30810""
","""event"",""trial"",""time""
""blur"",""4"",""27646""
","""event"",""trial"",""time""
""focus"",""0"",""0""
""focus"",""0"",""0""
""focus"",""4"",""30810""
","""event"",""trial"",""time""
""fullscreenenter"",""0"",""1439""
","
","10375.70000000298","<div class='center'><p> Sometimes you’ll be shown a ship, and you will be asked if you saw this ship on a past island.</p><p> Here is an example of what you will see.</p><p><img src='run_exp/static/images/tutorial/example_recog_trial.png' height='500'></p><p><b>[Press the space bar to continue]</b></p></div>","32","","","","","","","","","","","","","","","","","","","","","","","",""
"","explain_probe_2","12","130625","0.0-12.0","""event"",""trial"",""time""
""focus"",""0"",""0""
""focus"",""0"",""0""
""fullscreenenter"",""0"",""1439""
""blur"",""4"",""27646""
""focus"",""4"",""30810""
","""event"",""trial"",""time""
""blur"",""4"",""27646""
","""event"",""trial"",""time""
""focus"",""0"",""0""
""focus"",""0"",""0""
""focus"",""4"",""30810""
","""event"",""trial"",""time""
""fullscreenenter"",""0"",""1439""
","
","null","run_exp/static/audio/clip_34_recognition_2.m4a","null","","","","","<div class='center'><p> You will press the 5, 6, 7, 8 keys on your keyboard to respond.</p><p>If you are sure you saw the ship, press <b>5</b> on your keyboard.</p><p> If you think you saw it before but aren't sure, then press <b>6</b>.</p><p> If you think you have <b>not</b> seen it before but aren't sure, then press <b>7</b>.</p><p> If you are sure you did <b>not</b> see the ship before, then press <b>8</b>.</p><p><img src='run_exp/static/images/tutorial/example_recog_trial.png' height='500'></p></div>","","","","","","","","","","","","","","","","","","",""
"","html-keyboard-response","13","131633","0.0-13.0","""event"",""trial"",""time""
""focus"",""0"",""0""
""focus"",""0"",""0""
""fullscreenenter"",""0"",""1439""
""blur"",""4"",""27646""
""focus"",""4"",""30810""
","""event"",""trial"",""time""
""blur"",""4"",""27646""
","""event"",""trial"",""time""
""focus"",""0"",""0""
""focus"",""0"",""0""
""focus"",""4"",""30810""
","""event"",""trial"",""time""
""fullscreenenter"",""0"",""1439""
","
","1006.2999999970198","<div class='center'><p> You will press the 5, 6, 7, 8 keys on your keyboard to respond.</p><p>If you are sure you saw the ship, press <b>5</b> on your keyboard.</p><p> If you think you saw it before but aren't sure, then press <b>6</b>.</p><p> If you think you have <b>not</b> seen it before but aren't sure, then press <b>7</b>.</p><p> If you are sure you did <b>not</b> see the ship before, then press <b>8</b>.</p><p><img src='run_exp/static/images/tutorial/example_recog_trial.png' height='500'></p><p><b>[Press the space bar to continue]</b></p></div>","32","","","","","","","","","","","","","","","","","","","","","","","",""
"","explain_outcome","14","148825","0.0-14.0","""event"",""trial"",""time""
""focus"",""0"",""0""
""focus"",""0"",""0""
""fullscreenenter"",""0"",""1439""
""blur"",""4"",""27646""
""focus"",""4"",""30810""
","""event"",""trial"",""time""
""blur"",""4"",""27646""
","""event"",""trial"",""time""
""focus"",""0"",""0""
""focus"",""0"",""0""
""focus"",""4"",""30810""
","""event"",""trial"",""time""
""fullscreenenter"",""0"",""1439""
","
","null","run_exp/static/audio/clip_35_recognition_3.m4a","null","","","","","<div class='center'><p> If you remember correctly, then you’ll get a gold coin like this: </p><p><img src='run_exp/static/images/tutorial/reward_small.png' height='200'></p><p>If you do not remember correctly, then you'll see a red x like this: </p><p><img src='run_exp/static/images/tutorial/reward_no.png' height='200'></p><p>Importantly, when you are shown a ship, take the time to remind yourself which island you saw it on. This will help you in the next part of the study.</p></div>","","","","","","","","","","","","","","","","","","",""
"","html-keyboard-response","15","152833","0.0-15.0","""event"",""trial"",""time""
""focus"",""0"",""0""
""focus"",""0"",""0""
""fullscreenenter"",""0"",""1439""
""blur"",""4"",""27646""
""focus"",""4"",""30810""
","""event"",""trial"",""time""
""blur"",""4"",""27646""
","""event"",""trial"",""time""
""focus"",""0"",""0""
""focus"",""0"",""0""
""focus"",""4"",""30810""
","""event"",""trial"",""time""
""fullscreenenter"",""0"",""1439""
","
","4007","<div class='center'><p> If you remember correctly, then you’ll get a gold coin like this: </p><p><img src='run_exp/static/images/tutorial/reward_small.png' height='200'></p><p>If you do not remember correctly, then you'll see a red x like this: </p><p><img src='run_exp/static/images/tutorial/reward_no.png' height='200'></p><p>Importantly, when you are shown a ship, take the time to remind yourself which island you saw it on. This will help you in the next part of the study.</p><p><b>[Press the space bar to continue]</b></p></div>","32","","","","","","","","","","","","","","","","","","","","","","","",""
"","begin_test_phase","16","168625","0.0-16.0","""event"",""trial"",""time""
""focus"",""0"",""0""
""focus"",""0"",""0""
""fullscreenenter"",""0"",""1439""
""blur"",""4"",""27646""
""focus"",""4"",""30810""
","""event"",""trial"",""time""
""blur"",""4"",""27646""
","""event"",""trial"",""time""
""focus"",""0"",""0""
""focus"",""0"",""0""
""focus"",""4"",""30810""
","""event"",""trial"",""time""
""fullscreenenter"",""0"",""1439""
","
","null","run_exp/static/audio/clip_36_begin_final.m4a","null","","","","","<div class='center'><p>Let's go over the important points again. Your job is to: </p><p>1. Pick the pirate who is best at robbing ships and will bring you back gold coins. </p><p>2. Correctly remember whether or not you saw a ship before. If you did see the ship before, remind yourself on which island you saw it. </p></div>","","","","","","","","","","","","","","","","","","",""
"","html-keyboard-response","17","172372","0.0-17.0","""event"",""trial"",""time""
""focus"",""0"",""0""
""focus"",""0"",""0""
""fullscreenenter"",""0"",""1439""
""blur"",""4"",""27646""
""focus"",""4"",""30810""
","""event"",""trial"",""time""
""blur"",""4"",""27646""
","""event"",""trial"",""time""
""focus"",""0"",""0""
""focus"",""0"",""0""
""focus"",""4"",""30810""
","""event"",""trial"",""time""
""fullscreenenter"",""0"",""1439""
","
","3720.300000011921","<div class='center'><p>Let's go over the important points again. Your job is to: </p><p>1. Pick the pirate who is best at robbing ships and will bring you back gold coins. </p><p>2. Correctly remember whether or not you saw a ship before. If you did see the ship before, remind yourself on which island you saw it. </p><p><b>[Press the space bar to continue]</b></p></div>","32","","","","","","","","","","","","","","","","","","","","","","","",""
"","do_welcome","18","176379","0.0-18.0","""event"",""trial"",""time""
""focus"",""0"",""0""
""focus"",""0"",""0""
""fullscreenenter"",""0"",""1439""
""blur"",""4"",""27646""
""focus"",""4"",""30810""
","""event"",""trial"",""time""
""blur"",""4"",""27646""
","""event"",""trial"",""time""
""focus"",""0"",""0""
""focus"",""0"",""0""
""focus"",""4"",""30810""
","""event"",""trial"",""time""
""fullscreenenter"",""0"",""1439""
","
","null","","","","","","","","null","","","","","","","","","","","","","","","","","",""
"","do_trial","19","182420","0.0-19.0-0.0","""event"",""trial"",""time""
""focus"",""0"",""0""
""focus"",""0"",""0""
""fullscreenenter"",""0"",""1439""
""blur"",""4"",""27646""
""focus"",""4"",""30810""
","""event"",""trial"",""time""
""blur"",""4"",""27646""
","""event"",""trial"",""time""
""focus"",""0"",""0""
""focus"",""0"",""0""
""focus"",""4"",""30810""
","""event"",""trial"",""time""
""fullscreenenter"",""0"",""1439""
","
","null","","","","","","","","null","0,0,0","6","blank","230","null","0.35664937123784135","0.12961391823964832","0.6262344417997332","","","","","","","","","",""
"","html-keyboard-response","20","183425","0.0-19.0-1.0","""event"",""trial"",""time""
""focus"",""0"",""0""
""focus"",""0"",""0""
""fullscreenenter"",""0"",""1439""
""blur"",""4"",""27646""
""focus"",""4"",""30810""
","""event"",""trial"",""time""
""blur"",""4"",""27646""
","""event"",""trial"",""time""
""focus"",""0"",""0""
""focus"",""0"",""0""
""focus"",""4"",""30810""
","""event"",""trial"",""time""
""fullscreenenter"",""0"",""1439""
","
","null","<p></p>","null","","","","","","","","","","","","","","","","","","","","","","","",""
"","do_trial","21","188234","0.0-20.0-0.0","""event"",""trial"",""time""
""focus"",""0"",""0""
""focus"",""0"",""0""
""fullscreenenter"",""0"",""1439""
""blur"",""4"",""27646""
""focus"",""4"",""30810""
","""event"",""trial"",""time""
""blur"",""4"",""27646""
","""event"",""trial"",""time""
""focus"",""0"",""0""
""focus"",""0"",""0""
""focus"",""4"",""30810""
","""event"",""trial"",""time""
""fullscreenenter"",""0"",""1439""
","
","2271.0999999940395","","","","","","","","50","1,0,1","6","blank","231","null","0.23602903886446144","0.06427761782829419","0.6639824681496337","0","","","","","","","","",""
"","html-keyboard-response","22","189240","0.0-20.0-1.0","""event"",""trial"",""time""
""focus"",""0"",""0""
""focus"",""0"",""0""
""fullscreenenter"",""0"",""1439""
""blur"",""4"",""27646""
""focus"",""4"",""30810""
","""event"",""trial"",""time""
""blur"",""4"",""27646""
","""event"",""trial"",""time""
""focus"",""0"",""0""
""focus"",""0"",""0""
""focus"",""4"",""30810""
","""event"",""trial"",""time""
""fullscreenenter"",""0"",""1439""
","
","null","<p></p>","null","","","","","","","","","","","","","","","","","","","","","","","",""
"","do_trial","23","193948","0.0-21.0-0.0","""event"",""trial"",""time""
""focus"",""0"",""0""
""focus"",""0"",""0""
""fullscreenenter"",""0"",""1439""
""blur"",""4"",""27646""
""focus"",""4"",""30810""
","""event"",""trial"",""time""
""blur"",""4"",""27646""
","""event"",""trial"",""time""
""focus"",""0"",""0""
""focus"",""0"",""0""
""focus"",""4"",""30810""
","""event"",""trial"",""time""
""fullscreenenter"",""0"",""1439""
","
","2166.7999999970198","","","","","","","","49","0,0,1","6","blank","232","null","0.360634577342246","0.056793238148576355","0.6140802321004689","0","","","","","","","","",""
"","html-keyboard-response","24","194971","0.0-21.0-1.0","""event"",""trial"",""time""
""focus"",""0"",""0""
""focus"",""0"",""0""
""fullscreenenter"",""0"",""1439""
""blur"",""4"",""27646""
""focus"",""4"",""30810""
","""event"",""trial"",""time""
""blur"",""4"",""27646""
","""event"",""trial"",""time""
""focus"",""0"",""0""
""focus"",""0"",""0""
""focus"",""4"",""30810""
","""event"",""trial"",""time""
""fullscreenenter"",""0"",""1439""
","
","null","<p></p>","null","","","","","","","","","","","","","","","","","","","","","","","",""
"","do_trial","25","201017","0.0-22.0-0.0","""event"",""trial"",""time""
""focus"",""0"",""0""
""focus"",""0"",""0""
""fullscreenenter"",""0"",""1439""
""blur"",""4"",""27646""
""focus"",""4"",""30810""
","""event"",""trial"",""time""
""blur"",""4"",""27646""
","""event"",""trial"",""time""
""focus"",""0"",""0""
""focus"",""0"",""0""
""focus"",""4"",""30810""
","""event"",""trial"",""time""
""fullscreenenter"",""0"",""1439""
","
","null","","","","","","","","null","1,1,1","6","blank","233","null","0.41787694420899435","0.09297394464670404","0.7556011251794941","","","","","","","","","",""
"","html-keyboard-response","26","202033","0.0-22.0-1.0","""event"",""trial"",""time""
""focus"",""0"",""0""
""focus"",""0"",""0""
""fullscreenenter"",""0"",""1439""
""blur"",""4"",""27646""
""focus"",""4"",""30810""
","""event"",""trial"",""time""
""blur"",""4"",""27646""
","""event"",""trial"",""time""
""focus"",""0"",""0""
""focus"",""0"",""0""
""focus"",""4"",""30810""
","""event"",""trial"",""time""
""fullscreenenter"",""0"",""1439""
","
","null","<p></p>","null","","","","","","","","","","","","","","","","","","","","","","","",""
"","do_trial","27","205052","0.0-23.0-0.0","""event"",""trial"",""time""
""focus"",""0"",""0""
""focus"",""0"",""0""
""fullscreenenter"",""0"",""1439""
""blur"",""4"",""27646""
""focus"",""4"",""30810""
","""event"",""trial"",""time""
""blur"",""4"",""27646""
","""event"",""trial"",""time""
""focus"",""0"",""0""
""focus"",""0"",""0""
""focus"",""4"",""30810""
","""event"",""trial"",""time""
""fullscreenenter"",""0"",""1439""
","
","469.5","","","","","","","","51","0,0,1","6","blank","234","null","0.33498903073691616","0.05354700020170083","0.7396033686835815","1","","","","","","","","",""
"","html-keyboard-response","28","206055","0.0-23.0-1.0","""event"",""trial"",""time""
""focus"",""0"",""0""
""focus"",""0"",""0""
""fullscreenenter"",""0"",""1439""
""blur"",""4"",""27646""
""focus"",""4"",""30810""
","""event"",""trial"",""time""
""blur"",""4"",""27646""
","""event"",""trial"",""time""
""focus"",""0"",""0""
""focus"",""0"",""0""
""focus"",""4"",""30810""
","""event"",""trial"",""time""
""fullscreenenter"",""0"",""1439""
","
","null","<p></p>","null","","","","","","","","","","","","","","","","","","","","","","","",""
"","do_trial","29","209063","0.0-24.0-0.0","""event"",""trial"",""time""
""focus"",""0"",""0""
""focus"",""0"",""0""
""fullscreenenter"",""0"",""1439""
""blur"",""4"",""27646""
""focus"",""4"",""30810""
","""event"",""trial"",""time""
""blur"",""4"",""27646""
","""event"",""trial"",""time""
""focus"",""0"",""0""
""focus"",""0"",""0""
""focus"",""4"",""30810""
","""event"",""trial"",""time""
""fullscreenenter"",""0"",""1439""
","
","458.90000000596046","","","","","","","","49","1,0,0","6","blank","235","null","0.31955797154694804","0.15265016822067623","0.6828336547911249","1","","","","","","","","",""
"","html-keyboard-response","30","210071","0.0-24.0-1.0","""event"",""trial"",""time""
""focus"",""0"",""0""
""focus"",""0"",""0""
""fullscreenenter"",""0"",""1439""
""blur"",""4"",""27646""
""focus"",""4"",""30810""
","""event"",""trial"",""time""
""blur"",""4"",""27646""
","""event"",""trial"",""time""
""focus"",""0"",""0""
""focus"",""0"",""0""
""focus"",""4"",""30810""
","""event"",""trial"",""time""
""fullscreenenter"",""0"",""1439""
","
","null","<p></p>","null","","","","","","","","","","","","","","","","","","","","","","","",""
"","do_trial","31","212930","0.0-25.0-0.0","""event"",""trial"",""time""
""focus"",""0"",""0""
""focus"",""0"",""0""
""fullscreenenter"",""0"",""1439""
""blur"",""4"",""27646""
""focus"",""4"",""30810""
","""event"",""trial"",""time""
""blur"",""4"",""27646""
","""event"",""trial"",""time""
""focus"",""0"",""0""
""focus"",""0"",""0""
""focus"",""4"",""30810""
","""event"",""trial"",""time""
""fullscreenenter"",""0"",""1439""
","
","314.90000000596046","","","","","","","","51","0,0,0","6","blank","236","null","0.3381151200912039","0.1324236100033175","0.7132643040527645","0","","","","","","","","",""
"","html-keyboard-response","32","213947","0.0-25.0-1.0","""event"",""trial"",""time""
""focus"",""0"",""0""
""focus"",""0"",""0""
""fullscreenenter"",""0"",""1439""
""blur"",""4"",""27646""
""focus"",""4"",""30810""
","""event"",""trial"",""time""
""blur"",""4"",""27646""
","""event"",""trial"",""time""
""focus"",""0"",""0""
""focus"",""0"",""0""
""focus"",""4"",""30810""
","""event"",""trial"",""time""
""fullscreenenter"",""0"",""1439""
","
","null","<p></p>","null","","","","","","","","","","","","","","","","","","","","","","","",""
"","do_trial","33","217101","0.0-26.0-0.0","""event"",""trial"",""time""
""focus"",""0"",""0""
""focus"",""0"",""0""
""fullscreenenter"",""0"",""1439""
""blur"",""4"",""27646""
""focus"",""4"",""30810""
","""event"",""trial"",""time""
""blur"",""4"",""27646""
","""event"",""trial"",""time""
""focus"",""0"",""0""
""focus"",""0"",""0""
""focus"",""4"",""30810""
","""event"",""trial"",""time""
""fullscreenenter"",""0"",""1439""
","
","606.7999999970198","","","","","","","","50","0,0,1","6","blank","237","null","0.2684831074611017","0.05409636129071269","0.7136640884676513","0","","","","","","","","",""
"","html-keyboard-response","34","218125","0.0-26.0-1.0","""event"",""trial"",""time""
""focus"",""0"",""0""
""focus"",""0"",""0""
""fullscreenenter"",""0"",""1439""
""blur"",""4"",""27646""
""focus"",""4"",""30810""
","""event"",""trial"",""time""
""blur"",""4"",""27646""
","""event"",""trial"",""time""
""focus"",""0"",""0""
""focus"",""0"",""0""
""focus"",""4"",""30810""
","""event"",""trial"",""time""
""fullscreenenter"",""0"",""1439""
","
","null","<p></p>","null","","","","","","","","","","","","","","","","","","","","","","","",""
"","do_trial","35","221296","0.0-27.0-0.0","""event"",""trial"",""time""
""focus"",""0"",""0""
""focus"",""0"",""0""
""fullscreenenter"",""0"",""1439""
""blur"",""4"",""27646""
""focus"",""4"",""30810""
","""event"",""trial"",""time""
""blur"",""4"",""27646""
","""event"",""trial"",""time""
""focus"",""0"",""0""
""focus"",""0"",""0""
""focus"",""4"",""30810""
","""event"",""trial"",""time""
""fullscreenenter"",""0"",""1439""
","
","629.8000000119209","","","","","","","","49","0,0,1","6","blank","238","null","0.32591612549466603","0.10218935736580413","0.6822838306490142","0","","","","","","","","",""
"","html-keyboard-response","36","222298","0.0-27.0-1.0","""event"",""trial"",""time""
""focus"",""0"",""0""
""focus"",""0"",""0""
""fullscreenenter"",""0"",""1439""
""blur"",""4"",""27646""
""focus"",""4"",""30810""
","""event"",""trial"",""time""
""blur"",""4"",""27646""
","""event"",""trial"",""time""
""focus"",""0"",""0""
""focus"",""0"",""0""
""focus"",""4"",""30810""
","""event"",""trial"",""time""
""fullscreenenter"",""0"",""1439""
","
","null","<p></p>","null","","","","","","","","","","","","","","","","","","","","","","","",""
"","do_trial","37","225793","0.0-28.0-0.0","""event"",""trial"",""time""
""focus"",""0"",""0""
""focus"",""0"",""0""
""fullscreenenter"",""0"",""1439""
""blur"",""4"",""27646""
""focus"",""4"",""30810""
","""event"",""trial"",""time""
""blur"",""4"",""27646""
","""event"",""trial"",""time""
""focus"",""0"",""0""
""focus"",""0"",""0""
""focus"",""4"",""30810""
","""event"",""trial"",""time""
""fullscreenenter"",""0"",""1439""
","
","948","","","","","","","","50","0,0,0","6","blank","239","null","0.27192220340986006","0.07213399562437366","0.5918364311685264","0","","","","","","","","",""
"","html-keyboard-response","38","226810","0.0-28.0-1.0","""event"",""trial"",""time""
""focus"",""0"",""0""
""focus"",""0"",""0""
""fullscreenenter"",""0"",""1439""
""blur"",""4"",""27646""
""focus"",""4"",""30810""
","""event"",""trial"",""time""
""blur"",""4"",""27646""
","""event"",""trial"",""time""
""focus"",""0"",""0""
""focus"",""0"",""0""
""focus"",""4"",""30810""
","""event"",""trial"",""time""
""fullscreenenter"",""0"",""1439""
","
","null","<p></p>","null","","","","","","","","","","","","","","","","","","","","","","","",""
"","do_trial","39","229919","0.0-29.0-0.0","""event"",""trial"",""time""
""focus"",""0"",""0""
""focus"",""0"",""0""
""fullscreenenter"",""0"",""1439""
""blur"",""4"",""27646""
""focus"",""4"",""30810""
","""event"",""trial"",""time""
""blur"",""4"",""27646""
","""event"",""trial"",""time""
""focus"",""0"",""0""
""focus"",""0"",""0""
""focus"",""4"",""30810""
","""event"",""trial"",""time""
""fullscreenenter"",""0"",""1439""
","
","564","","","","","","","","50","0,0,1","6","blank","240","null","0.36175578786991197","0.1139358658382162","0.5172519339891186","0","","","","","","","","",""
"","html-keyboard-response","40","230921","0.0-29.0-1.0","""event"",""trial"",""time""
""focus"",""0"",""0""
""focus"",""0"",""0""
""fullscreenenter"",""0"",""1439""
""blur"",""4"",""27646""
""focus"",""4"",""30810""
","""event"",""trial"",""time""
""blur"",""4"",""27646""
","""event"",""trial"",""time""
""focus"",""0"",""0""
""focus"",""0"",""0""
""focus"",""4"",""30810""
","""event"",""trial"",""time""
""fullscreenenter"",""0"",""1439""
","
","null","<p></p>","null","","","","","","","","","","","","","","","","","","","","","","","",""
"","do_trial","41","233831","0.0-30.0-0.0","""event"",""trial"",""time""
""focus"",""0"",""0""
""focus"",""0"",""0""
""fullscreenenter"",""0"",""1439""
""blur"",""4"",""27646""
""focus"",""4"",""30810""
","""event"",""trial"",""time""
""blur"",""4"",""27646""
","""event"",""trial"",""time""
""focus"",""0"",""0""
""focus"",""0"",""0""
""focus"",""4"",""30810""
","""event"",""trial"",""time""
""fullscreenenter"",""0"",""1439""
","
","373.69999998807907","","","","","","","","51","0,0,1","6","blank","241","null","0.27189243091112436","0.09198755886908318","0.5752171090488704","1","","","","","","","","",""
"","html-keyboard-response","42","234834","0.0-30.0-1.0","""event"",""trial"",""time""
""focus"",""0"",""0""
""focus"",""0"",""0""
""fullscreenenter"",""0"",""1439""
""blur"",""4"",""27646""
""focus"",""4"",""30810""
","""event"",""trial"",""time""
""blur"",""4"",""27646""
","""event"",""trial"",""time""
""focus"",""0"",""0""
""focus"",""0"",""0""
""focus"",""4"",""30810""
","""event"",""trial"",""time""
""fullscreenenter"",""0"",""1439""
","
","null","<p></p>","null","","","","","","","","","","","","","","","","","","","","","","","",""
"","do_trial","43","237643","0.0-31.0-0.0","""event"",""trial"",""time""
""focus"",""0"",""0""
""focus"",""0"",""0""
""fullscreenenter"",""0"",""1439""
""blur"",""4"",""27646""
""focus"",""4"",""30810""
","""event"",""trial"",""time""
""blur"",""4"",""27646""
","""event"",""trial"",""time""
""focus"",""0"",""0""
""focus"",""0"",""0""
""focus"",""4"",""30810""
","""event"",""trial"",""time""
""fullscreenenter"",""0"",""1439""
","
","258.09999999403954","","","","","","","","50","0,0,0","6","blank","242","null","0.30193871590774335","0.1805577912248357","0.4025284785000862","0","","","","","","","","",""
"","html-keyboard-response","44","238647","0.0-31.0-1.0","""event"",""trial"",""time""
""focus"",""0"",""0""
""focus"",""0"",""0""
""fullscreenenter"",""0"",""1439""
""blur"",""4"",""27646""
""focus"",""4"",""30810""
","""event"",""trial"",""time""
""blur"",""4"",""27646""
","""event"",""trial"",""time""
""focus"",""0"",""0""
""focus"",""0"",""0""
""focus"",""4"",""30810""
","""event"",""trial"",""time""
""fullscreenenter"",""0"",""1439""
","
","null","<p></p>","null","","","","","","","","","","","","","","","","","","","","","","","",""
"","do_trial","45","242010","0.0-32.0-0.0","""event"",""trial"",""time""
""focus"",""0"",""0""
""focus"",""0"",""0""
""fullscreenenter"",""0"",""1439""
""blur"",""4"",""27646""
""focus"",""4"",""30810""
","""event"",""trial"",""time""
""blur"",""4"",""27646""
","""event"",""trial"",""time""
""focus"",""0"",""0""
""focus"",""0"",""0""
""focus"",""4"",""30810""
","""event"",""trial"",""time""
""fullscreenenter"",""0"",""1439""
","
","807","","","","","","","","50","0,0,1","6","blank","243","null","0.33142346252034044","0.15825834048397333","0.351828506672742","0","","","","","","","","",""
"","html-keyboard-response","46","243027","0.0-32.0-1.0","""event"",""trial"",""time""
""focus"",""0"",""0""
""focus"",""0"",""0""
""fullscreenenter"",""0"",""1439""
""blur"",""4"",""27646""
""focus"",""4"",""30810""
","""event"",""trial"",""time""
""blur"",""4"",""27646""
","""event"",""trial"",""time""
""focus"",""0"",""0""
""focus"",""0"",""0""
""focus"",""4"",""30810""
","""event"",""trial"",""time""
""fullscreenenter"",""0"",""1439""
","
","null","<p></p>","null","","","","","","","","","","","","","","","","","","","","","","","",""
"","do_trial","47","246703","0.0-33.0-0.0","""event"",""trial"",""time""
""focus"",""0"",""0""
""focus"",""0"",""0""
""fullscreenenter"",""0"",""1439""
""blur"",""4"",""27646""
""focus"",""4"",""30810""
","""event"",""trial"",""time""
""blur"",""4"",""27646""
","""event"",""trial"",""time""
""focus"",""0"",""0""
""focus"",""0"",""0""
""focus"",""4"",""30810""
","""event"",""trial"",""time""
""fullscreenenter"",""0"",""1439""
","
","1133.8999999910593","","","","","","","","50","0,0,1","6","blank","244","null","0.36145502090342","0.18771135451173265","0.24715624905315645","0","","","","","","","","",""
"","html-keyboard-response","48","247724","0.0-33.0-1.0","""event"",""trial"",""time""
""focus"",""0"",""0""
""focus"",""0"",""0""
""fullscreenenter"",""0"",""1439""
""blur"",""4"",""27646""
""focus"",""4"",""30810""
","""event"",""trial"",""time""
""blur"",""4"",""27646""
","""event"",""trial"",""time""
""focus"",""0"",""0""
""focus"",""0"",""0""
""focus"",""4"",""30810""
","""event"",""trial"",""time""
""fullscreenenter"",""0"",""1439""
","
","null","<p></p>","null","","","","","","","","","","","","","","","","","","","","","","","",""
"","do_trial","49","251334","0.0-34.0-0.0","""event"",""trial"",""time""
""focus"",""0"",""0""
""focus"",""0"",""0""
""fullscreenenter"",""0"",""1439""
""blur"",""4"",""27646""
""focus"",""4"",""30810""
","""event"",""trial"",""time""
""blur"",""4"",""27646""
","""event"",""trial"",""time""
""focus"",""0"",""0""
""focus"",""0"",""0""
""focus"",""4"",""30810""
","""event"",""trial"",""time""
""fullscreenenter"",""0"",""1439""
","
","1065.5","","","","","","","","50","0,0,0","6","blank","245","null","0.27915387528113456","0.09236387422753574","0.26773954363112223","0","","","","","","","","",""
"","html-keyboard-response","50","252352","0.0-34.0-1.0","""event"",""trial"",""time""
""focus"",""0"",""0""
""focus"",""0"",""0""
""fullscreenenter"",""0"",""1439""
""blur"",""4"",""27646""
""focus"",""4"",""30810""
","""event"",""trial"",""time""
""blur"",""4"",""27646""
","""event"",""trial"",""time""
""focus"",""0"",""0""
""focus"",""0"",""0""
""focus"",""4"",""30810""
","""event"",""trial"",""time""
""fullscreenenter"",""0"",""1439""
","
","null","<p></p>","null","","","","","","","","","","","","","","","","","","","","","","","",""
"","do_recog","51","258368","0.0-35.0-0.0","""event"",""trial"",""time""
""focus"",""0"",""0""
""focus"",""0"",""0""
""fullscreenenter"",""0"",""1439""
""blur"",""4"",""27646""
""focus"",""4"",""30810""
","""event"",""trial"",""time""
""blur"",""4"",""27646""
","""event"",""trial"",""time""
""focus"",""0"",""0""
""focus"",""0"",""0""
""focus"",""4"",""30810""
","""event"",""trial"",""time""
""fullscreenenter"",""0"",""1439""
","
","null","","","","","","","","null","","","","246","probe-207","","","","","1","[object Object]","111","2","0","","","",""
"","html-keyboard-response","52","259392","0.0-35.0-1.0","""event"",""trial"",""time""
""focus"",""0"",""0""
""focus"",""0"",""0""
""fullscreenenter"",""0"",""1439""
""blur"",""4"",""27646""
""focus"",""4"",""30810""
","""event"",""trial"",""time""
""blur"",""4"",""27646""
","""event"",""trial"",""time""
""focus"",""0"",""0""
""focus"",""0"",""0""
""focus"",""4"",""30810""
","""event"",""trial"",""time""
""fullscreenenter"",""0"",""1439""
","
","null","<p></p>","null","","","","","","","","","","","","","","","","","","","","","","","",""
"","do_trial","53","262401","0.0-36.0-0.0","""event"",""trial"",""time""
""focus"",""0"",""0""
""focus"",""0"",""0""
""fullscreenenter"",""0"",""1439""
""blur"",""4"",""27646""
""focus"",""4"",""30810""
","""event"",""trial"",""time""
""blur"",""4"",""27646""
","""event"",""trial"",""time""
""focus"",""0"",""0""
""focus"",""0"",""0""
""focus"",""4"",""30810""
","""event"",""trial"",""time""
""fullscreenenter"",""0"",""1439""
","
","453","","","","","","","","50","1,0,1","6","blank","247","null","0.35518870775547057","0.05417001811633959","0.19308305562921987","0","","","","","","","","",""
"","html-keyboard-response","54","263405","0.0-36.0-1.0","""event"",""trial"",""time""
""focus"",""0"",""0""
""focus"",""0"",""0""
""fullscreenenter"",""0"",""1439""
""blur"",""4"",""27646""
""focus"",""4"",""30810""
","""event"",""trial"",""time""
""blur"",""4"",""27646""
","""event"",""trial"",""time""
""focus"",""0"",""0""
""focus"",""0"",""0""
""focus"",""4"",""30810""
","""event"",""trial"",""time""
""fullscreenenter"",""0"",""1439""
","
","null","<p></p>","null","","","","","","","","","","","","","","","","","","","","","","","",""
"","do_recog","55","269438","0.0-37.0-0.0","""event"",""trial"",""time""
""focus"",""0"",""0""
""focus"",""0"",""0""
""fullscreenenter"",""0"",""1439""
""blur"",""4"",""27646""
""focus"",""4"",""30810""
","""event"",""trial"",""time""
""blur"",""4"",""27646""
","""event"",""trial"",""time""
""focus"",""0"",""0""
""focus"",""0"",""0""
""focus"",""4"",""30810""
","""event"",""trial"",""time""
""fullscreenenter"",""0"",""1439""
","
","null","","","","","","","","null","","","","248","probe-51","","","","","1","[object Object]","78","1","0","","","",""
"","html-keyboard-response","56","270439","0.0-37.0-1.0","""event"",""trial"",""time""
""focus"",""0"",""0""
""focus"",""0"",""0""
""fullscreenenter"",""0"",""1439""
""blur"",""4"",""27646""
""focus"",""4"",""30810""
","""event"",""trial"",""time""
""blur"",""4"",""27646""
","""event"",""trial"",""time""
""focus"",""0"",""0""
""focus"",""0"",""0""
""focus"",""4"",""30810""
","""event"",""trial"",""time""
""fullscreenenter"",""0"",""1439""
","
","null","<p></p>","null","","","","","","","","","","","","","","","","","","","","","","","",""
"","do_trial","57","274614","0.0-38.0-0.0","""event"",""trial"",""time""
""focus"",""0"",""0""
""focus"",""0"",""0""
""fullscreenenter"",""0"",""1439""
""blur"",""4"",""27646""
""focus"",""4"",""30810""
","""event"",""trial"",""time""
""blur"",""4"",""27646""
","""event"",""trial"",""time""
""focus"",""0"",""0""
""focus"",""0"",""0""
""focus"",""4"",""30810""
","""event"",""trial"",""time""
""fullscreenenter"",""0"",""1439""
","
","1632.0999999940395","","","","","","","","51","1,0,0","6","blank","249","null","0.49070467399207196","0.17210551751422123","0.29944918080710686","0","","","","","","","","",""
"","html-keyboard-response","58","275617","0.0-38.0-1.0","""event"",""trial"",""time""
""focus"",""0"",""0""
""focus"",""0"",""0""
""fullscreenenter"",""0"",""1439""
""blur"",""4"",""27646""
""focus"",""4"",""30810""
","""event"",""trial"",""time""
""blur"",""4"",""27646""
","""event"",""trial"",""time""
""focus"",""0"",""0""
""focus"",""0"",""0""
""focus"",""4"",""30810""
","""event"",""trial"",""time""
""fullscreenenter"",""0"",""1439""
","
","null","<p></p>","null","","","","","","","","","","","","","","","","","","","","","","","",""
"","do_trial","59","278963","0.0-39.0-0.0","""event"",""trial"",""time""
""focus"",""0"",""0""
""focus"",""0"",""0""
""fullscreenenter"",""0"",""1439""
""blur"",""4"",""27646""
""focus"",""4"",""30810""
","""event"",""trial"",""time""
""blur"",""4"",""27646""
","""event"",""trial"",""time""
""focus"",""0"",""0""
""focus"",""0"",""0""
""focus"",""4"",""30810""
","""event"",""trial"",""time""
""fullscreenenter"",""0"",""1439""
","
","794.5999999940395","","","","","","","","50","0,0,0","6","blank","250","null","0.5832198412082555","0.11106575344221829","0.4070244375062947","0","","","","","","","","",""
"","html-keyboard-response","60","279968","0.0-39.0-1.0","""event"",""trial"",""time""
""focus"",""0"",""0""
""focus"",""0"",""0""
""fullscreenenter"",""0"",""1439""
""blur"",""4"",""27646""
""focus"",""4"",""30810""
","""event"",""trial"",""time""
""blur"",""4"",""27646""
","""event"",""trial"",""time""
""focus"",""0"",""0""
""focus"",""0"",""0""
""focus"",""4"",""30810""
","""event"",""trial"",""time""
""fullscreenenter"",""0"",""1439""
","
","null","<p></p>","null","","","","","","","","","","","","","","","","","","","","","","","",""
"","do_trial","61","283011","0.0-40.0-0.0","""event"",""trial"",""time""
""focus"",""0"",""0""
""focus"",""0"",""0""
""fullscreenenter"",""0"",""1439""
""blur"",""4"",""27646""
""focus"",""4"",""30810""
","""event"",""trial"",""time""
""blur"",""4"",""27646""
","""event"",""trial"",""time""
""focus"",""0"",""0""
""focus"",""0"",""0""
""focus"",""4"",""30810""
","""event"",""trial"",""time""
""fullscreenenter"",""0"",""1439""
","
","487.69999998807907","","","","","","","","50","0,0,0","6","blank","251","null","0.5433626628012379","0.06367500521763916","0.32567755442872076","0","","","","","","","","",""
"","html-keyboard-response","62","284029","0.0-40.0-1.0","""event"",""trial"",""time""
""focus"",""0"",""0""
""focus"",""0"",""0""
""fullscreenenter"",""0"",""1439""
""blur"",""4"",""27646""
""focus"",""4"",""30810""
","""event"",""trial"",""time""
""blur"",""4"",""27646""
","""event"",""trial"",""time""
""focus"",""0"",""0""
""focus"",""0"",""0""
""focus"",""4"",""30810""
","""event"",""trial"",""time""
""fullscreenenter"",""0"",""1439""
","
","null","<p></p>","null","","","","","","","","","","","","","","","","","","","","","","","",""
"","do_trial","63","286867","0.0-41.0-0.0","""event"",""trial"",""time""
""focus"",""0"",""0""
""focus"",""0"",""0""
""fullscreenenter"",""0"",""1439""
""blur"",""4"",""27646""
""focus"",""4"",""30810""
","""event"",""trial"",""time""
""blur"",""4"",""27646""
","""event"",""trial"",""time""
""focus"",""0"",""0""
""focus"",""0"",""0""
""focus"",""4"",""30810""
","""event"",""trial"",""time""
""fullscreenenter"",""0"",""1439""
","
","283","","","","","","","","50","1,0,1","6","blank","252","null","0.5647486954859793","0.12677667724518477","0.29964011718234235","0","","","","","","","","",""
"","html-keyboard-response","64","287870","0.0-41.0-1.0","""event"",""trial"",""time""
""focus"",""0"",""0""
""focus"",""0"",""0""
""fullscreenenter"",""0"",""1439""
""blur"",""4"",""27646""
""focus"",""4"",""30810""
","""event"",""trial"",""time""
""blur"",""4"",""27646""
","""event"",""trial"",""time""
""focus"",""0"",""0""
""focus"",""0"",""0""
""focus"",""4"",""30810""
","""event"",""trial"",""time""
""fullscreenenter"",""0"",""1439""
","
","null","<p></p>","null","","","","","","","","","","","","","","","","","","","","","","","",""
"","do_recog","65","290092","0.0-42.0-0.0","""event"",""trial"",""time""
""focus"",""0"",""0""
""focus"",""0"",""0""
""fullscreenenter"",""0"",""1439""
""blur"",""4"",""27646""
""focus"",""4"",""30810""
","""event"",""trial"",""time""
""blur"",""4"",""27646""
","""event"",""trial"",""time""
""focus"",""0"",""0""
""focus"",""0"",""0""
""focus"",""4"",""30810""
","""event"",""trial"",""time""
""fullscreenenter"",""0"",""1439""
","
","713.1000000089407","","","","","","","","55","","","","253","probe-85","","","","","1","[object Object]","35","0","0","","","",""
"","html-keyboard-response","66","291095","0.0-42.0-1.0","""event"",""trial"",""time""
""focus"",""0"",""0""
""focus"",""0"",""0""
""fullscreenenter"",""0"",""1439""
""blur"",""4"",""27646""
""focus"",""4"",""30810""
","""event"",""trial"",""time""
""blur"",""4"",""27646""
","""event"",""trial"",""time""
""focus"",""0"",""0""
""focus"",""0"",""0""
""focus"",""4"",""30810""
","""event"",""trial"",""time""
""fullscreenenter"",""0"",""1439""
","
","null","<p></p>","null","","","","","","","","","","","","","","","","","","","","","","","",""
"","do_trial","67","294190","0.0-43.0-0.0","""event"",""trial"",""time""
""focus"",""0"",""0""
""focus"",""0"",""0""
""fullscreenenter"",""0"",""1439""
""blur"",""4"",""27646""
""focus"",""4"",""30810""
","""event"",""trial"",""time""
""blur"",""4"",""27646""
","""event"",""trial"",""time""
""focus"",""0"",""0""
""focus"",""0"",""0""
""focus"",""4"",""30810""
","""event"",""trial"",""time""
""fullscreenenter"",""0"",""1439""
","
","546.5","","","","","","","","49","1,0,0","6","blank","254","null","0.589568554128239","0.21354785414613317","0.2866282229831171","1","","","","","","","","",""
"","html-keyboard-response","68","295207","0.0-43.0-1.0","""event"",""trial"",""time""
""focus"",""0"",""0""
""focus"",""0"",""0""
""fullscreenenter"",""0"",""1439""
""blur"",""4"",""27646""
""focus"",""4"",""30810""
","""event"",""trial"",""time""
""blur"",""4"",""27646""
","""event"",""trial"",""time""
""focus"",""0"",""0""
""focus"",""0"",""0""
""focus"",""4"",""30810""
","""event"",""trial"",""time""
""fullscreenenter"",""0"",""1439""
","
","null","<p></p>","null","","","","","","","","","","","","","","","","","","","","","","","",""
"","do_trial","69","298203","0.0-44.0-0.0","""event"",""trial"",""time""
""focus"",""0"",""0""
""focus"",""0"",""0""
""fullscreenenter"",""0"",""1439""
""blur"",""4"",""27646""
""focus"",""4"",""30810""
","""event"",""trial"",""time""
""blur"",""4"",""27646""
","""event"",""trial"",""time""
""focus"",""0"",""0""
""focus"",""0"",""0""
""focus"",""4"",""30810""
","""event"",""trial"",""time""
""fullscreenenter"",""0"",""1439""
","
","428.70000000298023","","","","","","","","50","1,0,0","6","blank","255","null","0.693771242445589","0.1616976614742253","0.3784243166472453","0","","","","","","","","",""
"","html-keyboard-response","70","299207","0.0-44.0-1.0","""event"",""trial"",""time""
""focus"",""0"",""0""
""focus"",""0"",""0""
""fullscreenenter"",""0"",""1439""
""blur"",""4"",""27646""
""focus"",""4"",""30810""
","""event"",""trial"",""time""
""blur"",""4"",""27646""
","""event"",""trial"",""time""
""focus"",""0"",""0""
""focus"",""0"",""0""
""focus"",""4"",""30810""
","""event"",""trial"",""time""
""fullscreenenter"",""0"",""1439""
","
","null","<p></p>","null","","","","","","","","","","","","","","","","","","","","","","","",""
"","do_trial","71","301993","0.0-45.0-0.0","""event"",""trial"",""time""
""focus"",""0"",""0""
""focus"",""0"",""0""
""fullscreenenter"",""0"",""1439""
""blur"",""4"",""27646""
""focus"",""4"",""30810""
","""event"",""trial"",""time""
""blur"",""4"",""27646""
","""event"",""trial"",""time""
""focus"",""0"",""0""
""focus"",""0"",""0""
""focus"",""4"",""30810""
","""event"",""trial"",""time""
""fullscreenenter"",""0"",""1439""
","
","233.79999999701977","","","","","","","","49","0,1,0","6","blank","256","null","0.6946573024177974","0.21103738812529124","0.31522809553510156","0","","","","","","","","",""
"","html-keyboard-response","72","302998","0.0-45.0-1.0","""event"",""trial"",""time""
""focus"",""0"",""0""
""focus"",""0"",""0""
""fullscreenenter"",""0"",""1439""
""blur"",""4"",""27646""
""focus"",""4"",""30810""
","""event"",""trial"",""time""
""blur"",""4"",""27646""
","""event"",""trial"",""time""
""focus"",""0"",""0""
""focus"",""0"",""0""
""focus"",""4"",""30810""
","""event"",""trial"",""time""
""fullscreenenter"",""0"",""1439""
","
","null","<p></p>","null","","","","","","","","","","","","","","","","","","","","","","","",""
"","do_trial","73","305726","0.0-46.0-0.0","""event"",""trial"",""time""
""focus"",""0"",""0""
""focus"",""0"",""0""
""fullscreenenter"",""0"",""1439""
""blur"",""4"",""27646""
""focus"",""4"",""30810""
","""event"",""trial"",""time""
""blur"",""4"",""27646""
","""event"",""trial"",""time""
""focus"",""0"",""0""
""focus"",""0"",""0""
""focus"",""4"",""30810""
","""event"",""trial"",""time""
""fullscreenenter"",""0"",""1439""
","
","186.5","","","","","","","","51","1,0,0","6","blank","257","null","0.6286487840613447","0.16212706877291083","0.4406346814177388","0","","","","","","","","",""
"","html-keyboard-response","74","306730","0.0-46.0-1.0","""event"",""trial"",""time""
""focus"",""0"",""0""
""focus"",""0"",""0""
""fullscreenenter"",""0"",""1439""
""blur"",""4"",""27646""
""focus"",""4"",""30810""
","""event"",""trial"",""time""
""blur"",""4"",""27646""
","""event"",""trial"",""time""
""focus"",""0"",""0""
""focus"",""0"",""0""
""focus"",""4"",""30810""
","""event"",""trial"",""time""
""fullscreenenter"",""0"",""1439""
","
","null","<p></p>","null","","","","","","","","","","","","","","","","","","","","","","","",""
"","do_trial","75","309515","0.0-47.0-0.0","""event"",""trial"",""time""
""focus"",""0"",""0""
""focus"",""0"",""0""
""fullscreenenter"",""0"",""1439""
""blur"",""4"",""27646""
""focus"",""4"",""30810""
","""event"",""trial"",""time""
""blur"",""4"",""27646""
","""event"",""trial"",""time""
""focus"",""0"",""0""
""focus"",""0"",""0""
""focus"",""4"",""30810""
","""event"",""trial"",""time""
""fullscreenenter"",""0"",""1439""
","
","236.5","","","","","","","","50","0,0,0","6","blank","258","null","0.515691808082628","0.08007640712754235","0.33311421971023253","0","","","","","","","","",""
"","html-keyboard-response","76","310518","0.0-47.0-1.0","""event"",""trial"",""time""
""focus"",""0"",""0""
""focus"",""0"",""0""
""fullscreenenter"",""0"",""1439""
""blur"",""4"",""27646""
""focus"",""4"",""30810""
","""event"",""trial"",""time""
""blur"",""4"",""27646""
","""event"",""trial"",""time""
""focus"",""0"",""0""
""focus"",""0"",""0""
""focus"",""4"",""30810""
","""event"",""trial"",""time""
""fullscreenenter"",""0"",""1439""
","
","null","<p></p>","null","","","","","","","","","","","","","","","","","","","","","","","",""
"","do_trial","77","313149","0.0-48.0-0.0","""event"",""trial"",""time""
""focus"",""0"",""0""
""focus"",""0"",""0""
""fullscreenenter"",""0"",""1439""
""blur"",""4"",""27646""
""focus"",""4"",""30810""
","""event"",""trial"",""time""
""blur"",""4"",""27646""
","""event"",""trial"",""time""
""focus"",""0"",""0""
""focus"",""0"",""0""
""focus"",""4"",""30810""
","""event"",""trial"",""time""
""fullscreenenter"",""0"",""1439""
","
","79.59999999403954","","","","","","","","51","1,0,0","6","blank","259","null","0.744523111691961","0.10138746142791062","0.26687485923639215","0","","","","","","","","",""
"","html-keyboard-response","78","314166","0.0-48.0-1.0","""event"",""trial"",""time""
""focus"",""0"",""0""
""focus"",""0"",""0""
""fullscreenenter"",""0"",""1439""
""blur"",""4"",""27646""
""focus"",""4"",""30810""
","""event"",""trial"",""time""
""blur"",""4"",""27646""
","""event"",""trial"",""time""
""focus"",""0"",""0""
""focus"",""0"",""0""
""focus"",""4"",""30810""
","""event"",""trial"",""time""
""fullscreenenter"",""0"",""1439""
","
","null","<p></p>","null","","","","","","","","","","","","","","","","","","","","","","","",""
"","do_trial","79","317005","0.0-49.0-0.0","""event"",""trial"",""time""
""focus"",""0"",""0""
""focus"",""0"",""0""
""fullscreenenter"",""0"",""1439""
""blur"",""4"",""27646""
""focus"",""4"",""30810""
","""event"",""trial"",""time""
""blur"",""4"",""27646""
","""event"",""trial"",""time""
""focus"",""0"",""0""
""focus"",""0"",""0""
""focus"",""4"",""30810""
","""event"",""trial"",""time""
""fullscreenenter"",""0"",""1439""
","
","296.70000000298023","","","","","","","","50","0,1,0","6","blank","260","null","0.7571089603991646","0.25252204820523094","0.32642044274582405","1","","","","","","","","",""
"","html-keyboard-response","80","318008","0.0-49.0-1.0","""event"",""trial"",""time""
""focus"",""0"",""0""
""focus"",""0"",""0""
""fullscreenenter"",""0"",""1439""
""blur"",""4"",""27646""
""focus"",""4"",""30810""
","""event"",""trial"",""time""
""blur"",""4"",""27646""
","""event"",""trial"",""time""
""focus"",""0"",""0""
""focus"",""0"",""0""
""focus"",""4"",""30810""
","""event"",""trial"",""time""
""fullscreenenter"",""0"",""1439""
","
","null","<p></p>","null","","","","","","","","","","","","","","","","","","","","","","","",""
"","do_recog","81","320517","0.0-50.0-0.0","""event"",""trial"",""time""
""focus"",""0"",""0""
""focus"",""0"",""0""
""fullscreenenter"",""0"",""1439""
""blur"",""4"",""27646""
""focus"",""4"",""30810""
","""event"",""trial"",""time""
""blur"",""4"",""27646""
","""event"",""trial"",""time""
""focus"",""0"",""0""
""focus"",""0"",""0""
""focus"",""4"",""30810""
","""event"",""trial"",""time""
""fullscreenenter"",""0"",""1439""
","
","1000.7999999970198","","","","","","","","55","","","","261","probe-240","","","","","0","[object Object]","null","null","1","","","",""
"","html-keyboard-response","82","321521","0.0-50.0-1.0","""event"",""trial"",""time""
""focus"",""0"",""0""
""focus"",""0"",""0""
""fullscreenenter"",""0"",""1439""
""blur"",""4"",""27646""
""focus"",""4"",""30810""
","""event"",""trial"",""time""
""blur"",""4"",""27646""
","""event"",""trial"",""time""
""focus"",""0"",""0""
""focus"",""0"",""0""
""focus"",""4"",""30810""
","""event"",""trial"",""time""
""fullscreenenter"",""0"",""1439""
","
","null","<p></p>","null","","","","","","","","","","","","","","","","","","","","","","","",""
"","do_trial","83","324935","0.0-51.0-0.0","""event"",""trial"",""time""
""focus"",""0"",""0""
""focus"",""0"",""0""
""fullscreenenter"",""0"",""1439""
""blur"",""4"",""27646""
""focus"",""4"",""30810""
","""event"",""trial"",""time""
""blur"",""4"",""27646""
","""event"",""trial"",""time""
""focus"",""0"",""0""
""focus"",""0"",""0""
""focus"",""4"",""30810""
","""event"",""trial"",""time""
""fullscreenenter"",""0"",""1439""
","
","865.1000000089407","","","","","","","","50","1,0,0","6","blank","262","null","0.567423782783237","0.10343153314700552","0.31569161399909085","0","","","","","","","","",""
"","html-keyboard-response","84","325939","0.0-51.0-1.0","""event"",""trial"",""time""
""focus"",""0"",""0""
""focus"",""0"",""0""
""fullscreenenter"",""0"",""1439""
""blur"",""4"",""27646""
""focus"",""4"",""30810""
","""event"",""trial"",""time""
""blur"",""4"",""27646""
","""event"",""trial"",""time""
""focus"",""0"",""0""
""focus"",""0"",""0""
""focus"",""4"",""30810""
","""event"",""trial"",""time""
""fullscreenenter"",""0"",""1439""
","
","null","<p></p>","null","","","","","","","","","","","","","","","","","","","","","","","",""
"","do_trial","85","328805","0.0-52.0-0.0","""event"",""trial"",""time""
""focus"",""0"",""0""
""focus"",""0"",""0""
""fullscreenenter"",""0"",""1439""
""blur"",""4"",""27646""
""focus"",""4"",""30810""
","""event"",""trial"",""time""
""blur"",""4"",""27646""
","""event"",""trial"",""time""
""focus"",""0"",""0""
""focus"",""0"",""0""
""focus"",""4"",""30810""
","""event"",""trial"",""time""
""fullscreenenter"",""0"",""1439""
","
","312.70000000298023","","","","","","","","49","0,0,0","6","blank","263","null","0.5711948041879386","0.2733180973104863","0.19333343686959845","0","","","","","","","","",""
"","html-keyboard-response","86","329818","0.0-52.0-1.0","""event"",""trial"",""time""
""focus"",""0"",""0""
""focus"",""0"",""0""
""fullscreenenter"",""0"",""1439""
""blur"",""4"",""27646""
""focus"",""4"",""30810""
","""event"",""trial"",""time""
""blur"",""4"",""27646""
","""event"",""trial"",""time""
""focus"",""0"",""0""
""focus"",""0"",""0""
""focus"",""4"",""30810""
","""event"",""trial"",""time""
""fullscreenenter"",""0"",""1439""
","
","null","<p></p>","null","","","","","","","","","","","","","","","","","","","","","","","",""
"","do_recog","87","332355","0.0-53.0-0.0","""event"",""trial"",""time""
""focus"",""0"",""0""
""focus"",""0"",""0""
""fullscreenenter"",""0"",""1439""
""blur"",""4"",""27646""
""focus"",""4"",""30810""
","""event"",""trial"",""time""
""blur"",""4"",""27646""
","""event"",""trial"",""time""
""focus"",""0"",""0""
""focus"",""0"",""0""
""focus"",""4"",""30810""
","""event"",""trial"",""time""
""fullscreenenter"",""0"",""1439""
","
","1021.8000000119209","","","","","","","","56","","","","264","probe-163","","","","","1","[object Object]","75","1","0","","","",""
"","html-keyboard-response","88","333358","0.0-53.0-1.0","""event"",""trial"",""time""
""focus"",""0"",""0""
""focus"",""0"",""0""
""fullscreenenter"",""0"",""1439""
""blur"",""4"",""27646""
""focus"",""4"",""30810""
","""event"",""trial"",""time""
""blur"",""4"",""27646""
","""event"",""trial"",""time""
""focus"",""0"",""0""
""focus"",""0"",""0""
""focus"",""4"",""30810""
","""event"",""trial"",""time""
""fullscreenenter"",""0"",""1439""
","
","null","<p></p>","null","","","","","","","","","","","","","","","","","","","","","","","",""
"","do_trial","89","337021","0.0-54.0-0.0","""event"",""trial"",""time""
""focus"",""0"",""0""
""focus"",""0"",""0""
""fullscreenenter"",""0"",""1439""
""blur"",""4"",""27646""
""focus"",""4"",""30810""
","""event"",""trial"",""time""
""blur"",""4"",""27646""
","""event"",""trial"",""time""
""focus"",""0"",""0""
""focus"",""0"",""0""
""focus"",""4"",""30810""
","""event"",""trial"",""time""
""fullscreenenter"",""0"",""1439""
","
","1118.2999999970198","","","","","","","","51","1,0,0","6","blank","265","null","0.6723452476662578","0.15100409659420388","0.22186019841169732","0","","","","","","","","",""
"","html-keyboard-response","90","338024","0.0-54.0-1.0","""event"",""trial"",""time""
""focus"",""0"",""0""
""focus"",""0"",""0""
""fullscreenenter"",""0"",""1439""
""blur"",""4"",""27646""
""focus"",""4"",""30810""
","""event"",""trial"",""time""
""blur"",""4"",""27646""
","""event"",""trial"",""time""
""focus"",""0"",""0""
""focus"",""0"",""0""
""focus"",""4"",""30810""
","""event"",""trial"",""time""
""fullscreenenter"",""0"",""1439""
","
","null","<p></p>","null","","","","","","","","","","","","","","","","","","","","","","","",""
"","do_trial","91","341512","0.0-55.0-0.0","""event"",""trial"",""time""
""focus"",""0"",""0""
""focus"",""0"",""0""
""fullscreenenter"",""0"",""1439""
""blur"",""4"",""27646""
""focus"",""4"",""30810""
","""event"",""trial"",""time""
""blur"",""4"",""27646""
","""event"",""trial"",""time""
""focus"",""0"",""0""
""focus"",""0"",""0""
""focus"",""4"",""30810""
","""event"",""trial"",""time""
""fullscreenenter"",""0"",""1439""
","
","943.0999999940395","","","","","","","","50","1,0,1","6","blank","266","null","0.6851653516797943","0.1104159047762891","0.15851880752353245","0","","","","","","","","",""
"","html-keyboard-response","92","342523","0.0-55.0-1.0","""event"",""trial"",""time""
""focus"",""0"",""0""
""focus"",""0"",""0""
""fullscreenenter"",""0"",""1439""
""blur"",""4"",""27646""
""focus"",""4"",""30810""
","""event"",""trial"",""time""
""blur"",""4"",""27646""
","""event"",""trial"",""time""
""focus"",""0"",""0""
""focus"",""0"",""0""
""focus"",""4"",""30810""
","""event"",""trial"",""time""
""fullscreenenter"",""0"",""1439""
","
","null","<p></p>","null","","","","","","","","","","","","","","","","","","","","","","","",""
"","do_trial","93","346834","0.0-56.0-0.0","""event"",""trial"",""time""
""focus"",""0"",""0""
""focus"",""0"",""0""
""fullscreenenter"",""0"",""1439""
""blur"",""4"",""27646""
""focus"",""4"",""30810""
","""event"",""trial"",""time""
""blur"",""4"",""27646""
","""event"",""trial"",""time""
""focus"",""0"",""0""
""focus"",""0"",""0""
""focus"",""4"",""30810""
","""event"",""trial"",""time""
""fullscreenenter"",""0"",""1439""
","
","1771.1000000089407","","","","","","","","51","0,0,0","6","blank","267","null","0.7320170702828636","0.13011839311461668","0.17544435885506532","0","","","","","","","","",""
"","html-keyboard-response","94","347845","0.0-56.0-1.0","""event"",""trial"",""time""
""focus"",""0"",""0""
""focus"",""0"",""0""
""fullscreenenter"",""0"",""1439""
""blur"",""4"",""27646""
""focus"",""4"",""30810""
","""event"",""trial"",""time""
""blur"",""4"",""27646""
","""event"",""trial"",""time""
""focus"",""0"",""0""
""focus"",""0"",""0""
""focus"",""4"",""30810""
","""event"",""trial"",""time""
""fullscreenenter"",""0"",""1439""
","
","null","<p></p>","null","","","","","","","","","","","","","","","","","","","","","","","",""
"","do_trial","95","352110","0.0-57.0-0.0","""event"",""trial"",""time""
""focus"",""0"",""0""
""focus"",""0"",""0""
""fullscreenenter"",""0"",""1439""
""blur"",""4"",""27646""
""focus"",""4"",""30810""
","""event"",""trial"",""time""
""blur"",""4"",""27646""
","""event"",""trial"",""time""
""focus"",""0"",""0""
""focus"",""0"",""0""
""focus"",""4"",""30810""
","""event"",""trial"",""time""
""fullscreenenter"",""0"",""1439""
","
","1695.2000000029802","","","","","","","","50","1,0,0","6","blank","268","null","0.6062231733824214","0.07672439454879337","0.2615457876163486","0","","","","","","","","",""
"","html-keyboard-response","96","353113","0.0-57.0-1.0","""event"",""trial"",""time""
""focus"",""0"",""0""
""focus"",""0"",""0""
""fullscreenenter"",""0"",""1439""
""blur"",""4"",""27646""
""focus"",""4"",""30810""
","""event"",""trial"",""time""
""blur"",""4"",""27646""
","""event"",""trial"",""time""
""focus"",""0"",""0""
""focus"",""0"",""0""
""focus"",""4"",""30810""
","""event"",""trial"",""time""
""fullscreenenter"",""0"",""1439""
","
","null","<p></p>","null","","","","","","","","","","","","","","","","","","","","","","","",""
"","break","97","380807","0.0-58.0-0.0","""event"",""trial"",""time""
""focus"",""0"",""0""
""focus"",""0"",""0""
""fullscreenenter"",""0"",""1439""
""blur"",""4"",""27646""
""focus"",""4"",""30810""
","""event"",""trial"",""time""
""blur"",""4"",""27646""
","""event"",""trial"",""time""
""focus"",""0"",""0""
""focus"",""0"",""0""
""focus"",""4"",""30810""
","""event"",""trial"",""time""
""fullscreenenter"",""0"",""1439""
","
","27692","<div class='center'><p>Time to take a quick break! You have 2 minutes to rest, but you can move on sooner if you'd like.</p><p> Press the <b>space bar</b> to continue.</p></div>","32","","","","","","","","","","","","","","","","","","","","","","","",""
"","do_trial","98","385110","0.0-58.0-1.0","""event"",""trial"",""time""
""focus"",""0"",""0""
""focus"",""0"",""0""
""fullscreenenter"",""0"",""1439""
""blur"",""4"",""27646""
""focus"",""4"",""30810""
","""event"",""trial"",""time""
""blur"",""4"",""27646""
","""event"",""trial"",""time""
""focus"",""0"",""0""
""focus"",""0"",""0""
""focus"",""4"",""30810""
","""event"",""trial"",""time""
""fullscreenenter"",""0"",""1439""
","
","1763.3999999910593","","","","","","","","50","1,0,1","6","blank","269","null","0.4692002218426557","0.07157125273665443","0.3561764382275564","0","","","","","","","","",""
"","html-keyboard-response","99","386114","0.0-58.0-2.0","""event"",""trial"",""time""
""focus"",""0"",""0""
""focus"",""0"",""0""
""fullscreenenter"",""0"",""1439""
""blur"",""4"",""27646""
""focus"",""4"",""30810""
","""event"",""trial"",""time""
""blur"",""4"",""27646""
","""event"",""trial"",""time""
""focus"",""0"",""0""
""focus"",""0"",""0""
""focus"",""4"",""30810""
","""event"",""trial"",""time""
""fullscreenenter"",""0"",""1439""
","
","null","<p></p>","null","","","","","","","","","","","","","","","","","","","","","","","",""
"","do_trial","100","390009","0.0-59.0-0.0","""event"",""trial"",""time""
""focus"",""0"",""0""
""focus"",""0"",""0""
""fullscreenenter"",""0"",""1439""
""blur"",""4"",""27646""
""focus"",""4"",""30810""
","""event"",""trial"",""time""
""blur"",""4"",""27646""
","""event"",""trial"",""time""
""focus"",""0"",""0""
""focus"",""0"",""0""
""focus"",""4"",""30810""
","""event"",""trial"",""time""
""fullscreenenter"",""0"",""1439""
","
","1335.9000000059605","","","","","","","","51","0,0,1","6","blank","270","null","0.473467530486321","0.06593322497475435","0.2879194026718877","1","","","","","","","","",""
"","html-keyboard-response","101","391026","0.0-59.0-1.0","""event"",""trial"",""time""
""focus"",""0"",""0""
""focus"",""0"",""0""
""fullscreenenter"",""0"",""1439""
""blur"",""4"",""27646""
""focus"",""4"",""30810""
","""event"",""trial"",""time""
""blur"",""4"",""27646""
","""event"",""trial"",""time""
""focus"",""0"",""0""
""focus"",""0"",""0""
""focus"",""4"",""30810""
","""event"",""trial"",""time""
""fullscreenenter"",""0"",""1439""
","
","null","<p></p>","null","","","","","","","","","","","","","","","","","","","","","","","",""
"","do_trial","102","394838","0.0-60.0-0.0","""event"",""trial"",""time""
""focus"",""0"",""0""
""focus"",""0"",""0""
""fullscreenenter"",""0"",""1439""
""blur"",""4"",""27646""
""focus"",""4"",""30810""
","""event"",""trial"",""time""
""blur"",""4"",""27646""
","""event"",""trial"",""time""
""focus"",""0"",""0""
""focus"",""0"",""0""
""focus"",""4"",""30810""
","""event"",""trial"",""time""
""fullscreenenter"",""0"",""1439""
","
","1265.800000011921","","","","","","","","50","0,0,0","6","blank","271","null","0.4756088396787599","0.20355448689464406","0.13449651568288692","0","","","","","","","","",""
"","html-keyboard-response","103","395842","0.0-60.0-1.0","""event"",""trial"",""time""
""focus"",""0"",""0""
""focus"",""0"",""0""
""fullscreenenter"",""0"",""1439""
""blur"",""4"",""27646""
""focus"",""4"",""30810""
","""event"",""trial"",""time""
""blur"",""4"",""27646""
","""event"",""trial"",""time""
""focus"",""0"",""0""
""focus"",""0"",""0""
""focus"",""4"",""30810""
","""event"",""trial"",""time""
""fullscreenenter"",""0"",""1439""
","
","null","<p></p>","null","","","","","","","","","","","","","","","","","","","","","","","",""
"","do_recog","104","399219","0.0-61.0-0.0","""event"",""trial"",""time""
""focus"",""0"",""0""
""focus"",""0"",""0""
""fullscreenenter"",""0"",""1439""
""blur"",""4"",""27646""
""focus"",""4"",""30810""
","""event"",""trial"",""time""
""blur"",""4"",""27646""
","""event"",""trial"",""time""
""focus"",""0"",""0""
""focus"",""0"",""0""
""focus"",""4"",""30810""
","""event"",""trial"",""time""
""fullscreenenter"",""0"",""1439""
","
","1856.8999999910593","","","","","","","","55","","","","272","probe-195","","","","","1","[object Object]","32","0","0","","","",""
"","html-keyboard-response","105","400222","0.0-61.0-1.0","""event"",""trial"",""time""
""focus"",""0"",""0""
""focus"",""0"",""0""
""fullscreenenter"",""0"",""1439""
""blur"",""4"",""27646""
""focus"",""4"",""30810""
","""event"",""trial"",""time""
""blur"",""4"",""27646""
","""event"",""trial"",""time""
""focus"",""0"",""0""
""focus"",""0"",""0""
""focus"",""4"",""30810""
","""event"",""trial"",""time""
""fullscreenenter"",""0"",""1439""
","
","null","<p></p>","null","","","","","","","","","","","","","","","","","","","","","","","",""
"","do_trial","106","403864","0.0-62.0-0.0","""event"",""trial"",""time""
""focus"",""0"",""0""
""focus"",""0"",""0""
""fullscreenenter"",""0"",""1439""
""blur"",""4"",""27646""
""focus"",""4"",""30810""
","""event"",""trial"",""time""
""blur"",""4"",""27646""
","""event"",""trial"",""time""
""focus"",""0"",""0""
""focus"",""0"",""0""
""focus"",""4"",""30810""
","""event"",""trial"",""time""
""fullscreenenter"",""0"",""1439""
","
","1104","","","","","","","","51","1,0,1","6","blank","273","null","0.5015714452350695","0.16714303329768843","0.2709062384557606","1","","","","","","","","",""
"","html-keyboard-response","107","404884","0.0-62.0-1.0","""event"",""trial"",""time""
""focus"",""0"",""0""
""focus"",""0"",""0""
""fullscreenenter"",""0"",""1439""
""blur"",""4"",""27646""
""focus"",""4"",""30810""
","""event"",""trial"",""time""
""blur"",""4"",""27646""
","""event"",""trial"",""time""
""focus"",""0"",""0""
""focus"",""0"",""0""
""focus"",""4"",""30810""
","""event"",""trial"",""time""
""fullscreenenter"",""0"",""1439""
","
","null","<p></p>","null","","","","","","","","","","","","","","","","","","","","","","","",""
"","do_trial","108","408737","0.0-63.0-0.0","""event"",""trial"",""time""
""focus"",""0"",""0""
""focus"",""0"",""0""
""fullscreenenter"",""0"",""1439""
""blur"",""4"",""27646""
""focus"",""4"",""30810""
","""event"",""trial"",""time""
""blur"",""4"",""27646""
","""event"",""trial"",""time""
""focus"",""0"",""0""
""focus"",""0"",""0""
""focus"",""4"",""30810""
","""event"",""trial"",""time""
""fullscreenenter"",""0"",""1439""
","
","1319.5","","","","","","","","51","1,0,0","6","blank","274","null","0.6297934494064983","0.1080519307553161","0.22432610658541727","0","","","","","","","","",""
"","html-keyboard-response","109","409740","0.0-63.0-1.0","""event"",""trial"",""time""
""focus"",""0"",""0""
""focus"",""0"",""0""
""fullscreenenter"",""0"",""1439""
""blur"",""4"",""27646""
""focus"",""4"",""30810""
","""event"",""trial"",""time""
""blur"",""4"",""27646""
","""event"",""trial"",""time""
""focus"",""0"",""0""
""focus"",""0"",""0""
""focus"",""4"",""30810""
","""event"",""trial"",""time""
""fullscreenenter"",""0"",""1439""
","
","null","<p></p>","null","","","","","","","","","","","","","","","","","","","","","","","",""
"","do_trial","110","413051","0.0-64.0-0.0","""event"",""trial"",""time""
""focus"",""0"",""0""
""focus"",""0"",""0""
""fullscreenenter"",""0"",""1439""
""blur"",""4"",""27646""
""focus"",""4"",""30810""
","""event"",""trial"",""time""
""blur"",""4"",""27646""
","""event"",""trial"",""time""
""focus"",""0"",""0""
""focus"",""0"",""0""
""focus"",""4"",""30810""
","""event"",""trial"",""time""
""fullscreenenter"",""0"",""1439""
","
","765","","","","","","","","49","0,1,0","6","blank","275","null","0.5369521046498428","0.2720819406014838","0.17473162885078458","0","","","","","","","","",""
"","html-keyboard-response","111","414075","0.0-64.0-1.0","""event"",""trial"",""time""
""focus"",""0"",""0""
""focus"",""0"",""0""
""fullscreenenter"",""0"",""1439""
""blur"",""4"",""27646""
""focus"",""4"",""30810""
","""event"",""trial"",""time""
""blur"",""4"",""27646""
","""event"",""trial"",""time""
""focus"",""0"",""0""
""focus"",""0"",""0""
""focus"",""4"",""30810""
","""event"",""trial"",""time""
""fullscreenenter"",""0"",""1439""
","
","null","<p></p>","null","","","","","","","","","","","","","","","","","","","","","","","",""
"","do_trial","112","417947","0.0-65.0-0.0","""event"",""trial"",""time""
""focus"",""0"",""0""
""focus"",""0"",""0""
""fullscreenenter"",""0"",""1439""
""blur"",""4"",""27646""
""focus"",""4"",""30810""
","""event"",""trial"",""time""
""blur"",""4"",""27646""
","""event"",""trial"",""time""
""focus"",""0"",""0""
""focus"",""0"",""0""
""focus"",""4"",""30810""
","""event"",""trial"",""time""
""fullscreenenter"",""0"",""1439""
","
","1320.8999999910593","","","","","","","","51","1,0,0","6","blank","276","null","0.6107217315418726","0.28500263911332835","0.23734836025451972","0","","","","","","","","",""
"","html-keyboard-response","113","418951","0.0-65.0-1.0","""event"",""trial"",""time""
""focus"",""0"",""0""
""focus"",""0"",""0""
""fullscreenenter"",""0"",""1439""
""blur"",""4"",""27646""
""focus"",""4"",""30810""
","""event"",""trial"",""time""
""blur"",""4"",""27646""
","""event"",""trial"",""time""
""focus"",""0"",""0""
""focus"",""0"",""0""
""focus"",""4"",""30810""
","""event"",""trial"",""time""
""fullscreenenter"",""0"",""1439""
","
","null","<p></p>","null","","","","","","","","","","","","","","","","","","","","","","","",""
"","do_trial","114","422360","0.0-66.0-0.0","""event"",""trial"",""time""
""focus"",""0"",""0""
""focus"",""0"",""0""
""fullscreenenter"",""0"",""1439""
""blur"",""4"",""27646""
""focus"",""4"",""30810""
","""event"",""trial"",""time""
""blur"",""4"",""27646""
","""event"",""trial"",""time""
""focus"",""0"",""0""
""focus"",""0"",""0""
""focus"",""4"",""30810""
","""event"",""trial"",""time""
""fullscreenenter"",""0"",""1439""
","
","871.3999999910593","","","","","","","","50","0,1,0","6","blank","277","null","0.6469724590950889","0.22455108131061963","0.2200778787913551","1","","","","","","","","",""
"","html-keyboard-response","115","423378","0.0-66.0-1.0","""event"",""trial"",""time""
""focus"",""0"",""0""
""focus"",""0"",""0""
""fullscreenenter"",""0"",""1439""
""blur"",""4"",""27646""
""focus"",""4"",""30810""
","""event"",""trial"",""time""
""blur"",""4"",""27646""
","""event"",""trial"",""time""
""focus"",""0"",""0""
""focus"",""0"",""0""
""focus"",""4"",""30810""
","""event"",""trial"",""time""
""fullscreenenter"",""0"",""1439""
","
","null","<p></p>","null","","","","","","","","","","","","","","","","","","","","","","","",""
"","do_trial","116","427258","0.0-67.0-0.0","""event"",""trial"",""time""
""focus"",""0"",""0""
""focus"",""0"",""0""
""fullscreenenter"",""0"",""1439""
""blur"",""4"",""27646""
""focus"",""4"",""30810""
","""event"",""trial"",""time""
""blur"",""4"",""27646""
","""event"",""trial"",""time""
""focus"",""0"",""0""
""focus"",""0"",""0""
""focus"",""4"",""30810""
","""event"",""trial"",""time""
""fullscreenenter"",""0"",""1439""
","
","1319.7999999970198","","","","","","","","50","0,0,0","6","blank","278","null","0.5091979385769223","0.28667014715786066","0.16297857875579289","0","","","","","","","","",""
"","html-keyboard-response","117","428260","0.0-67.0-1.0","""event"",""trial"",""time""
""focus"",""0"",""0""
""focus"",""0"",""0""
""fullscreenenter"",""0"",""1439""
""blur"",""4"",""27646""
""focus"",""4"",""30810""
","""event"",""trial"",""time""
""blur"",""4"",""27646""
","""event"",""trial"",""time""
""focus"",""0"",""0""
""focus"",""0"",""0""
""focus"",""4"",""30810""
","""event"",""trial"",""time""
""fullscreenenter"",""0"",""1439""
","
","null","<p></p>","null","","","","","","","","","","","","","","","","","","","","","","","",""
"","do_trial","118","431988","0.0-68.0-0.0","""event"",""trial"",""time""
""focus"",""0"",""0""
""focus"",""0"",""0""
""fullscreenenter"",""0"",""1439""
""blur"",""4"",""27646""
""focus"",""4"",""30810""
","""event"",""trial"",""time""
""blur"",""4"",""27646""
","""event"",""trial"",""time""
""focus"",""0"",""0""
""focus"",""0"",""0""
""focus"",""4"",""30810""
","""event"",""trial"",""time""
""fullscreenenter"",""0"",""1439""
","
","1187","","","","","","","","49","1,1,1","6","blank","279","null","0.43541947679577775","0.27092665208927863","0.22026151408319894","1","","","","","","","","",""
"","html-keyboard-response","119","432991","0.0-68.0-1.0","""event"",""trial"",""time""
""focus"",""0"",""0""
""focus"",""0"",""0""
""fullscreenenter"",""0"",""1439""
""blur"",""4"",""27646""
""focus"",""4"",""30810""
","""event"",""trial"",""time""
""blur"",""4"",""27646""
","""event"",""trial"",""time""
""focus"",""0"",""0""
""focus"",""0"",""0""
""focus"",""4"",""30810""
","""event"",""trial"",""time""
""fullscreenenter"",""0"",""1439""
","
","null","<p></p>","null","","","","","","","","","","","","","","","","","","","","","","","",""
"","do_recog","120","436235","0.0-69.0-0.0","""event"",""trial"",""time""
""focus"",""0"",""0""
""focus"",""0"",""0""
""fullscreenenter"",""0"",""1439""
""blur"",""4"",""27646""
""focus"",""4"",""30810""
","""event"",""trial"",""time""
""blur"",""4"",""27646""
","""event"",""trial"",""time""
""focus"",""0"",""0""
""focus"",""0"",""0""
""focus"",""4"",""30810""
","""event"",""trial"",""time""
""fullscreenenter"",""0"",""1439""
","
","1731.3999999910593","","","","","","","","56","","","","280","probe-140","","","","","1","[object Object]","117","2","0","","","",""
"","html-keyboard-response","121","437238","0.0-69.0-1.0","""event"",""trial"",""time""
""focus"",""0"",""0""
""focus"",""0"",""0""
""fullscreenenter"",""0"",""1439""
""blur"",""4"",""27646""
""focus"",""4"",""30810""
","""event"",""trial"",""time""
""blur"",""4"",""27646""
","""event"",""trial"",""time""
""focus"",""0"",""0""
""focus"",""0"",""0""
""focus"",""4"",""30810""
","""event"",""trial"",""time""
""fullscreenenter"",""0"",""1439""
","
","null","<p></p>","null","","","","","","","","","","","","","","","","","","","","","","","",""
"","do_trial","122","441312","0.0-70.0-0.0","""event"",""trial"",""time""
""focus"",""0"",""0""
""focus"",""0"",""0""
""fullscreenenter"",""0"",""1439""
""blur"",""4"",""27646""
""focus"",""4"",""30810""
","""event"",""trial"",""time""
""blur"",""4"",""27646""
","""event"",""trial"",""time""
""focus"",""0"",""0""
""focus"",""0"",""0""
""focus"",""4"",""30810""
","""event"",""trial"",""time""
""fullscreenenter"",""0"",""1439""
","
","1532.6000000089407","","","","","","","","50","1,0,0","6","blank","281","null","0.4853268252064716","0.14545222257224083","0.3366256683902703","0","","","","","","","","",""
"","html-keyboard-response","123","442315","0.0-70.0-1.0","""event"",""trial"",""time""
""focus"",""0"",""0""
""focus"",""0"",""0""
""fullscreenenter"",""0"",""1439""
""blur"",""4"",""27646""
""focus"",""4"",""30810""
","""event"",""trial"",""time""
""blur"",""4"",""27646""
","""event"",""trial"",""time""
""focus"",""0"",""0""
""focus"",""0"",""0""
""focus"",""4"",""30810""
","""event"",""trial"",""time""
""fullscreenenter"",""0"",""1439""
","
","null","<p></p>","null","","","","","","","","","","","","","","","","","","","","","","","",""
"","do_recog","124","445100","0.0-71.0-0.0","""event"",""trial"",""time""
""focus"",""0"",""0""
""focus"",""0"",""0""
""fullscreenenter"",""0"",""1439""
""blur"",""4"",""27646""
""focus"",""4"",""30810""
","""event"",""trial"",""time""
""blur"",""4"",""27646""
","""event"",""trial"",""time""
""focus"",""0"",""0""
""focus"",""0"",""0""
""focus"",""4"",""30810""
","""event"",""trial"",""time""
""fullscreenenter"",""0"",""1439""
","
","1279.8999999910593","","","","","","","","54","","","","282","probe-66","","","","","1","[object Object]","112","2","1","","","",""
"","html-keyboard-response","125","446105","0.0-71.0-1.0","""event"",""trial"",""time""
""focus"",""0"",""0""
""focus"",""0"",""0""
""fullscreenenter"",""0"",""1439""
""blur"",""4"",""27646""
""focus"",""4"",""30810""
","""event"",""trial"",""time""
""blur"",""4"",""27646""
","""event"",""trial"",""time""
""focus"",""0"",""0""
""focus"",""0"",""0""
""focus"",""4"",""30810""
","""event"",""trial"",""time""
""fullscreenenter"",""0"",""1439""
","
","null","<p></p>","null","","","","","","","","","","","","","","","","","","","","","","","",""
"","do_trial","126","450001","0.0-72.0-0.0","""event"",""trial"",""time""
""focus"",""0"",""0""
""focus"",""0"",""0""
""fullscreenenter"",""0"",""1439""
""blur"",""4"",""27646""
""focus"",""4"",""30810""
","""event"",""trial"",""time""
""blur"",""4"",""27646""
","""event"",""trial"",""time""
""focus"",""0"",""0""
""focus"",""0"",""0""
""focus"",""4"",""30810""
","""event"",""trial"",""time""
""fullscreenenter"",""0"",""1439""
","
","1334.3999999910593","","","","","","","","51","0,0,0","6","blank","283","null","0.5167262776977966","0.06822381482070618","0.41405767136370336","0","","","","","","","","",""
"","html-keyboard-response","127","451004","0.0-72.0-1.0","""event"",""trial"",""time""
""focus"",""0"",""0""
""focus"",""0"",""0""
""fullscreenenter"",""0"",""1439""
""blur"",""4"",""27646""
""focus"",""4"",""30810""
","""event"",""trial"",""time""
""blur"",""4"",""27646""
","""event"",""trial"",""time""
""focus"",""0"",""0""
""focus"",""0"",""0""
""focus"",""4"",""30810""
","""event"",""trial"",""time""
""fullscreenenter"",""0"",""1439""
","
","null","<p></p>","null","","","","","","","","","","","","","","","","","","","","","","","",""
"","do_trial","128","455433","0.0-73.0-0.0","""event"",""trial"",""time""
""focus"",""0"",""0""
""focus"",""0"",""0""
""fullscreenenter"",""0"",""1439""
""blur"",""4"",""27646""
""focus"",""4"",""30810""
","""event"",""trial"",""time""
""blur"",""4"",""27646""
","""event"",""trial"",""time""
""focus"",""0"",""0""
""focus"",""0"",""0""
""focus"",""4"",""30810""
","""event"",""trial"",""time""
""fullscreenenter"",""0"",""1439""
","
","1856.5","","","","","","","","51","0,0,0","6","blank","284","null","0.6127721319881012","0.17140811330050085","0.4644969707624192","0","","","","","","","","",""
"","html-keyboard-response","129","456445","0.0-73.0-1.0","""event"",""trial"",""time""
""focus"",""0"",""0""
""focus"",""0"",""0""
""fullscreenenter"",""0"",""1439""
""blur"",""4"",""27646""
""focus"",""4"",""30810""
","""event"",""trial"",""time""
""blur"",""4"",""27646""
","""event"",""trial"",""time""
""focus"",""0"",""0""
""focus"",""0"",""0""
""focus"",""4"",""30810""
","""event"",""trial"",""time""
""fullscreenenter"",""0"",""1439""
","
","null","<p></p>","null","","","","","","","","","","","","","","","","","","","","","","","",""
"","do_trial","130","460266","0.0-74.0-0.0","""event"",""trial"",""time""
""focus"",""0"",""0""
""focus"",""0"",""0""
""fullscreenenter"",""0"",""1439""
""blur"",""4"",""27646""
""focus"",""4"",""30810""
","""event"",""trial"",""time""
""blur"",""4"",""27646""
","""event"",""trial"",""time""
""focus"",""0"",""0""
""focus"",""0"",""0""
""focus"",""4"",""30810""
","""event"",""trial"",""time""
""fullscreenenter"",""0"",""1439""
","
","1280.5","","","","","","","","49","1,0,0","6","blank","285","null","0.6464997047091602","0.205199473504535","0.42262252535782047","1","","","","","","","","",""
"","html-keyboard-response","131","461271","0.0-74.0-1.0","""event"",""trial"",""time""
""focus"",""0"",""0""
""focus"",""0"",""0""
""fullscreenenter"",""0"",""1439""
""blur"",""4"",""27646""
""focus"",""4"",""30810""
","""event"",""trial"",""time""
""blur"",""4"",""27646""
","""event"",""trial"",""time""
""focus"",""0"",""0""
""focus"",""0"",""0""
""focus"",""4"",""30810""
","""event"",""trial"",""time""
""fullscreenenter"",""0"",""1439""
","
","null","<p></p>","null","","","","","","","","","","","","","","","","","","","","","","","",""
"","do_trial","132","464134","0.0-75.0-0.0","""event"",""trial"",""time""
""focus"",""0"",""0""
""focus"",""0"",""0""
""fullscreenenter"",""0"",""1439""
""blur"",""4"",""27646""
""focus"",""4"",""30810""
","""event"",""trial"",""time""
""blur"",""4"",""27646""
","""event"",""trial"",""time""
""focus"",""0"",""0""
""focus"",""0"",""0""
""focus"",""4"",""30810""
","""event"",""trial"",""time""
""fullscreenenter"",""0"",""1439""
","
","308.90000000596046","","","","","","","","50","0,0,1","6","blank","286","null","0.4620595950956699","0.11829555469798696","0.31102002664933603","0","","","","","","","","",""
"","html-keyboard-response","133","465152","0.0-75.0-1.0","""event"",""trial"",""time""
""focus"",""0"",""0""
""focus"",""0"",""0""
""fullscreenenter"",""0"",""1439""
""blur"",""4"",""27646""
""focus"",""4"",""30810""
","""event"",""trial"",""time""
""blur"",""4"",""27646""
","""event"",""trial"",""time""
""focus"",""0"",""0""
""focus"",""0"",""0""
""focus"",""4"",""30810""
","""event"",""trial"",""time""
""fullscreenenter"",""0"",""1439""
","
","null","<p></p>","null","","","","","","","","","","","","","","","","","","","","","","","",""
"","do_trial","134","468185","0.0-76.0-0.0","""event"",""trial"",""time""
""focus"",""0"",""0""
""focus"",""0"",""0""
""fullscreenenter"",""0"",""1439""
""blur"",""4"",""27646""
""focus"",""4"",""30810""
","""event"",""trial"",""time""
""blur"",""4"",""27646""
","""event"",""trial"",""time""
""focus"",""0"",""0""
""focus"",""0"",""0""
""focus"",""4"",""30810""
","""event"",""trial"",""time""
""fullscreenenter"",""0"",""1439""
","
","493.79999999701977","","","","","","","","49","1,0,1","6","blank","287","null","0.7277232937417303","0.16999640892402051","0.3147692475660129","1","","","","","","","","",""
"","html-keyboard-response","135","469203","0.0-76.0-1.0","""event"",""trial"",""time""
""focus"",""0"",""0""
""focus"",""0"",""0""
""fullscreenenter"",""0"",""1439""
""blur"",""4"",""27646""
""focus"",""4"",""30810""
","""event"",""trial"",""time""
""blur"",""4"",""27646""
","""event"",""trial"",""time""
""focus"",""0"",""0""
""focus"",""0"",""0""
""focus"",""4"",""30810""
","""event"",""trial"",""time""
""fullscreenenter"",""0"",""1439""
","
","null","<p></p>","null","","","","","","","","","","","","","","","","","","","","","","","",""
"","do_trial","136","472897","0.0-77.0-0.0","""event"",""trial"",""time""
""focus"",""0"",""0""
""focus"",""0"",""0""
""fullscreenenter"",""0"",""1439""
""blur"",""4"",""27646""
""focus"",""4"",""30810""
","""event"",""trial"",""time""
""blur"",""4"",""27646""
","""event"",""trial"",""time""
""focus"",""0"",""0""
""focus"",""0"",""0""
""focus"",""4"",""30810""
","""event"",""trial"",""time""
""fullscreenenter"",""0"",""1439""
","
","1149.7000000029802","","","","","","","","49","1,1,0","6","blank","288","null","0.8078996412773664","0.16809434865146375","0.3520317376887887","1","","","","","","","","",""
"","html-keyboard-response","137","473899","0.0-77.0-1.0","""event"",""trial"",""time""
""focus"",""0"",""0""
""focus"",""0"",""0""
""fullscreenenter"",""0"",""1439""
""blur"",""4"",""27646""
""focus"",""4"",""30810""
","""event"",""trial"",""time""
""blur"",""4"",""27646""
","""event"",""trial"",""time""
""focus"",""0"",""0""
""focus"",""0"",""0""
""focus"",""4"",""30810""
","""event"",""trial"",""time""
""fullscreenenter"",""0"",""1439""
","
","null","<p></p>","null","","","","","","","","","","","","","","","","","","","","","","","",""
"","do_recog","138","476902","0.0-78.0-0.0","""event"",""trial"",""time""
""focus"",""0"",""0""
""focus"",""0"",""0""
""fullscreenenter"",""0"",""1439""
""blur"",""4"",""27646""
""focus"",""4"",""30810""
","""event"",""trial"",""time""
""blur"",""4"",""27646""
","""event"",""trial"",""time""
""focus"",""0"",""0""
""focus"",""0"",""0""
""focus"",""4"",""30810""
","""event"",""trial"",""time""
""fullscreenenter"",""0"",""1439""
","
","1494","","","","","","","","55","","","","289","probe-155","","","","","1","[object Object]","156","3","0","","","",""
"","html-keyboard-response","139","477911","0.0-78.0-1.0","""event"",""trial"",""time""
""focus"",""0"",""0""
""focus"",""0"",""0""
""fullscreenenter"",""0"",""1439""
""blur"",""4"",""27646""
""focus"",""4"",""30810""
","""event"",""trial"",""time""
""blur"",""4"",""27646""
","""event"",""trial"",""time""
""focus"",""0"",""0""
""focus"",""0"",""0""
""focus"",""4"",""30810""
","""event"",""trial"",""time""
""fullscreenenter"",""0"",""1439""
","
","null","<p></p>","null","","","","","","","","","","","","","","","","","","","","","","","",""
"","do_trial","140","483026","0.0-79.0-0.0","""event"",""trial"",""time""
""focus"",""0"",""0""
""focus"",""0"",""0""
""fullscreenenter"",""0"",""1439""
""blur"",""4"",""27646""
""focus"",""4"",""30810""
","""event"",""trial"",""time""
""blur"",""4"",""27646""
","""event"",""trial"",""time""
""focus"",""0"",""0""
""focus"",""0"",""0""
""focus"",""4"",""30810""
","""event"",""trial"",""time""
""fullscreenenter"",""0"",""1439""
","
","2576.5999999940395","","","","","","","","51","1,1,1","6","blank","290","null","0.7553277995406135","0.3313365080765251","0.30767640071994173","1","","","","","","","","",""
"","html-keyboard-response","141","484029","0.0-79.0-1.0","""event"",""trial"",""time""
""focus"",""0"",""0""
""focus"",""0"",""0""
""fullscreenenter"",""0"",""1439""
""blur"",""4"",""27646""
""focus"",""4"",""30810""
","""event"",""trial"",""time""
""blur"",""4"",""27646""
","""event"",""trial"",""time""
""focus"",""0"",""0""
""focus"",""0"",""0""
""focus"",""4"",""30810""
","""event"",""trial"",""time""
""fullscreenenter"",""0"",""1439""
","
","null","<p></p>","null","","","","","","","","","","","","","","","","","","","","","","","",""
"","do_recog","142","486738","0.0-80.0-0.0","""event"",""trial"",""time""
""focus"",""0"",""0""
""focus"",""0"",""0""
""fullscreenenter"",""0"",""1439""
""blur"",""4"",""27646""
""focus"",""4"",""30810""
","""event"",""trial"",""time""
""blur"",""4"",""27646""
","""event"",""trial"",""time""
""focus"",""0"",""0""
""focus"",""0"",""0""
""focus"",""4"",""30810""
","""event"",""trial"",""time""
""fullscreenenter"",""0"",""1439""
","
","1192.2000000029802","","","","","","","","56","","","","291","probe-168","","","","","1","[object Object]","151","3","0","","","",""
"","html-keyboard-response","143","487741","0.0-80.0-1.0","""event"",""trial"",""time""
""focus"",""0"",""0""
""focus"",""0"",""0""
""fullscreenenter"",""0"",""1439""
""blur"",""4"",""27646""
""focus"",""4"",""30810""
","""event"",""trial"",""time""
""blur"",""4"",""27646""
","""event"",""trial"",""time""
""focus"",""0"",""0""
""focus"",""0"",""0""
""focus"",""4"",""30810""
","""event"",""trial"",""time""
""fullscreenenter"",""0"",""1439""
","
","null","<p></p>","null","","","","","","","","","","","","","","","","","","","","","","","",""
"","do_trial","144","491335","0.0-81.0-0.0","""event"",""trial"",""time""
""focus"",""0"",""0""
""focus"",""0"",""0""
""fullscreenenter"",""0"",""1439""
""blur"",""4"",""27646""
""focus"",""4"",""30810""
","""event"",""trial"",""time""
""blur"",""4"",""27646""
","""event"",""trial"",""time""
""focus"",""0"",""0""
""focus"",""0"",""0""
""focus"",""4"",""30810""
","""event"",""trial"",""time""
""fullscreenenter"",""0"",""1439""
","
","1050.1000000089407","","","","","","","","51","0,1,0","6","blank","292","null","0.5188362269430935","0.38389074617163566","0.3975861058453786","0","","","","","","","","",""
"","html-keyboard-response","145","492337","0.0-81.0-1.0","""event"",""trial"",""time""
""focus"",""0"",""0""
""focus"",""0"",""0""
""fullscreenenter"",""0"",""1439""
""blur"",""4"",""27646""
""focus"",""4"",""30810""
","""event"",""trial"",""time""
""blur"",""4"",""27646""
","""event"",""trial"",""time""
""focus"",""0"",""0""
""focus"",""0"",""0""
""focus"",""4"",""30810""
","""event"",""trial"",""time""
""fullscreenenter"",""0"",""1439""
","
","null","<p></p>","null","","","","","","","","","","","","","","","","","","","","","","","",""
"","do_recog","146","495177","0.0-82.0-0.0","""event"",""trial"",""time""
""focus"",""0"",""0""
""focus"",""0"",""0""
""fullscreenenter"",""0"",""1439""
""blur"",""4"",""27646""
""focus"",""4"",""30810""
","""event"",""trial"",""time""
""blur"",""4"",""27646""
","""event"",""trial"",""time""
""focus"",""0"",""0""
""focus"",""0"",""0""
""focus"",""4"",""30810""
","""event"",""trial"",""time""
""fullscreenenter"",""0"",""1439""
","
","1317.8999999910593","","","","","","","","55","","","","293","probe-129","","","","","1","[object Object]","31","0","0","","","",""
"","html-keyboard-response","147","496181","0.0-82.0-1.0","""event"",""trial"",""time""
""focus"",""0"",""0""
""focus"",""0"",""0""
""fullscreenenter"",""0"",""1439""
""blur"",""4"",""27646""
""focus"",""4"",""30810""
","""event"",""trial"",""time""
""blur"",""4"",""27646""
","""event"",""trial"",""time""
""focus"",""0"",""0""
""focus"",""0"",""0""
""focus"",""4"",""30810""
","""event"",""trial"",""time""
""fullscreenenter"",""0"",""1439""
","
","null","<p></p>","null","","","","","","","","","","","","","","","","","","","","","","","",""
"","do_trial","148","499992","0.0-83.0-0.0","""event"",""trial"",""time""
""focus"",""0"",""0""
""focus"",""0"",""0""
""fullscreenenter"",""0"",""1439""
""blur"",""4"",""27646""
""focus"",""4"",""30810""
","""event"",""trial"",""time""
""blur"",""4"",""27646""
","""event"",""trial"",""time""
""focus"",""0"",""0""
""focus"",""0"",""0""
""focus"",""4"",""30810""
","""event"",""trial"",""time""
""fullscreenenter"",""0"",""1439""
","
","1260.5","","","","","","","","50","1,1,0","6","blank","294","null","0.38284651819457205","0.5588523681727134","0.2877613714052714","1","","","","","","","","",""
"","html-keyboard-response","149","500995","0.0-83.0-1.0","""event"",""trial"",""time""
""focus"",""0"",""0""
""focus"",""0"",""0""
""fullscreenenter"",""0"",""1439""
""blur"",""4"",""27646""
""focus"",""4"",""30810""
","""event"",""trial"",""time""
""blur"",""4"",""27646""
","""event"",""trial"",""time""
""focus"",""0"",""0""
""focus"",""0"",""0""
""focus"",""4"",""30810""
","""event"",""trial"",""time""
""fullscreenenter"",""0"",""1439""
","
","null","<p></p>","null","","","","","","","","","","","","","","","","","","","","","","","",""
"","do_trial","150","505075","0.0-84.0-0.0","""event"",""trial"",""time""
""focus"",""0"",""0""
""focus"",""0"",""0""
""fullscreenenter"",""0"",""1439""
""blur"",""4"",""27646""
""focus"",""4"",""30810""
","""event"",""trial"",""time""
""blur"",""4"",""27646""
","""event"",""trial"",""time""
""focus"",""0"",""0""
""focus"",""0"",""0""
""focus"",""4"",""30810""
","""event"",""trial"",""time""
""fullscreenenter"",""0"",""1439""
","
","1530.5","","","","","","","","50","0,1,0","6","blank","295","null","0.2168679795343562","0.6637367981641741","0.24518340425806456","1","","","","","","","","",""
"","html-keyboard-response","151","506077","0.0-84.0-1.0","""event"",""trial"",""time""
""focus"",""0"",""0""
""focus"",""0"",""0""
""fullscreenenter"",""0"",""1439""
""blur"",""4"",""27646""
""focus"",""4"",""30810""
","""event"",""trial"",""time""
""blur"",""4"",""27646""
","""event"",""trial"",""time""
""focus"",""0"",""0""
""focus"",""0"",""0""
""focus"",""4"",""30810""
","""event"",""trial"",""time""
""fullscreenenter"",""0"",""1439""
","
","null","<p></p>","null","","","","","","","","","","","","","","","","","","","","","","","",""
"","do_trial","152","509574","0.0-85.0-0.0","""event"",""trial"",""time""
""focus"",""0"",""0""
""focus"",""0"",""0""
""fullscreenenter"",""0"",""1439""
""blur"",""4"",""27646""
""focus"",""4"",""30810""
","""event"",""trial"",""time""
""blur"",""4"",""27646""
","""event"",""trial"",""time""
""focus"",""0"",""0""
""focus"",""0"",""0""
""focus"",""4"",""30810""
","""event"",""trial"",""time""
""fullscreenenter"",""0"",""1439""
","
","951.2000000029802","","","","","","","","49","0,1,0","6","blank","296","null","0.17000136356958742","0.5829248429535334","0.16477358676626438","0","","","","","","","","",""
"","html-keyboard-response","153","510591","0.0-85.0-1.0","""event"",""trial"",""time""
""focus"",""0"",""0""
""focus"",""0"",""0""
""fullscreenenter"",""0"",""1439""
""blur"",""4"",""27646""
""focus"",""4"",""30810""
","""event"",""trial"",""time""
""blur"",""4"",""27646""
","""event"",""trial"",""time""
""focus"",""0"",""0""
""focus"",""0"",""0""
""focus"",""4"",""30810""
","""event"",""trial"",""time""
""fullscreenenter"",""0"",""1439""
","
","null","<p></p>","null","","","","","","","","","","","","","","","","","","","","","","","",""
"","do_trial","154","514634","0.0-86.0-0.0","""event"",""trial"",""time""
""focus"",""0"",""0""
""focus"",""0"",""0""
""fullscreenenter"",""0"",""1439""
""blur"",""4"",""27646""
""focus"",""4"",""30810""
","""event"",""trial"",""time""
""blur"",""4"",""27646""
","""event"",""trial"",""time""
""focus"",""0"",""0""
""focus"",""0"",""0""
""focus"",""4"",""30810""
","""event"",""trial"",""time""
""fullscreenenter"",""0"",""1439""
","
","1499.5","","","","","","","","51","0,1,0","6","blank","297","null","0.05132264340201189","0.7258238579547097","0.23229060440154403","0","","","","","","","","",""
"","html-keyboard-response","155","515658","0.0-86.0-1.0","""event"",""trial"",""time""
""focus"",""0"",""0""
""focus"",""0"",""0""
""fullscreenenter"",""0"",""1439""
""blur"",""4"",""27646""
""focus"",""4"",""30810""
","""event"",""trial"",""time""
""blur"",""4"",""27646""
","""event"",""trial"",""time""
""focus"",""0"",""0""
""focus"",""0"",""0""
""focus"",""4"",""30810""
","""event"",""trial"",""time""
""fullscreenenter"",""0"",""1439""
","
","null","<p></p>","null","","","","","","","","","","","","","","","","","","","","","","","",""
"","do_trial","156","519567","0.0-87.0-0.0","""event"",""trial"",""time""
""focus"",""0"",""0""
""focus"",""0"",""0""
""fullscreenenter"",""0"",""1439""
""blur"",""4"",""27646""
""focus"",""4"",""30810""
","""event"",""trial"",""time""
""blur"",""4"",""27646""
","""event"",""trial"",""time""
""focus"",""0"",""0""
""focus"",""0"",""0""
""focus"",""4"",""30810""
","""event"",""trial"",""time""
""fullscreenenter"",""0"",""1439""
","
","1360.0999999940395","","","","","","","","50","0,0,0","6","blank","298","null","0.08823137785636405","0.6989817946225554","0.16287145751870463","0","","","","","","","","",""
"","html-keyboard-response","157","520570","0.0-87.0-1.0","""event"",""trial"",""time""
""focus"",""0"",""0""
""focus"",""0"",""0""
""fullscreenenter"",""0"",""1439""
""blur"",""4"",""27646""
""focus"",""4"",""30810""
","""event"",""trial"",""time""
""blur"",""4"",""27646""
","""event"",""trial"",""time""
""focus"",""0"",""0""
""focus"",""0"",""0""
""focus"",""4"",""30810""
","""event"",""trial"",""time""
""fullscreenenter"",""0"",""1439""
","
","null","<p></p>","null","","","","","","","","","","","","","","","","","","","","","","","",""
"","do_recog","158","523782","0.0-88.0-0.0","""event"",""trial"",""time""
""focus"",""0"",""0""
""focus"",""0"",""0""
""fullscreenenter"",""0"",""1439""
""blur"",""4"",""27646""
""focus"",""4"",""30810""
","""event"",""trial"",""time""
""blur"",""4"",""27646""
","""event"",""trial"",""time""
""focus"",""0"",""0""
""focus"",""0"",""0""
""focus"",""4"",""30810""
","""event"",""trial"",""time""
""fullscreenenter"",""0"",""1439""
","
