"success","trial_type","trial_index","time_elapsed","internal_node_id","interactions","blur_events","focus_events","fullscreenenter_events","fullscreenexit_events","rt","stimulus","key_press","subject_id","participant_id","age","gender","prompt","response","choice_outcomes","context_n","context_img_id","trial_n","probe_img_id","pR_red","pR_white","pR_black","outcome","is_valid","image_to_show","probed_trial","probed_context","correct","probe","probed_trial_n","probed_context_n","context_im"
"true","fullscreen","0","3140","0.0-0.0","""event"",""trial"",""time""
""fullscreenenter"",""0"",""2145""
","
","
","""event"",""trial"",""time""
""fullscreenenter"",""0"",""2145""
","
","","","","","","","","","","","","","","","","","","","","","","","","","","",""
"","pavlovia","1","3146","0.0-1.0","""event"",""trial"",""time""
""fullscreenenter"",""0"",""2145""
","
","
","""event"",""trial"",""time""
""fullscreenenter"",""0"",""2145""
","
","","","","","","","","","","","","","","","","","","","","","","","","","","",""
"","welc_back","2","12960","0.0-2.0","""event"",""trial"",""time""
""fullscreenenter"",""0"",""2145""
","
","
","""event"",""trial"",""time""
""fullscreenenter"",""0"",""2145""
","
","null","run_exp/static/audio/clip_29_welcome_back.m4a","null","414","70","22","Female","<div class='center'><p>Welcome to day 2!</p><p> Yesterday, you were the head captain of a pirate ship. You asked your fellow pirates to rob other ships of their gold across six different islands.</p></div>","","","","","","","","","","","","","","","","","","",""
"","html-keyboard-response","3","14417","0.0-3.0","""event"",""trial"",""time""
""fullscreenenter"",""0"",""2145""
","
","
","""event"",""trial"",""time""
""fullscreenenter"",""0"",""2145""
","
","1451.5999999996275","<div class='center'><p>Welcome to day 2!</p><p> Yesterday, you were the head captain of a pirate ship. You asked your fellow pirates to rob other ships of their gold across six different islands.</p><p><b>[Press the space bar to continue]</b></p></div>","32","","","","","","","","","","","","","","","","","","","","","","","",""
"","day_1_summary_goal","4","31603","0.0-4.0","""event"",""trial"",""time""
""fullscreenenter"",""0"",""2145""
","
","
","""event"",""trial"",""time""
""fullscreenenter"",""0"",""2145""
","
","null","run_exp/static/audio/clip_30_goal_of_game.m4a","null","","","","","<div class='center'><p>Today, like yesterday, you get to pick which pirate you want to rob the next ship.</p><p>If the pirate is successful in robbing a ship, you get gold coins that look like this: </p><p><img src='run_exp/static/images/tutorial/reward.png' height='150'></p><p> If they were not successful in robbing the ship, then you will get no gold coins and you'll see a big red x like this: </p><p><img src='run_exp/static/images/tutorial/reward_no.png' height='150'></p></div>","","","","","","","","","","","","","","","","","","",""
"","html-keyboard-response","5","32229","0.0-5.0","""event"",""trial"",""time""
""fullscreenenter"",""0"",""2145""
","
","
","""event"",""trial"",""time""
""fullscreenenter"",""0"",""2145""
","
","622.2999999998137","<div class='center'><p>Today, like yesterday, you get to pick which pirate you want to rob the next ship.</p><p>If the pirate is successful in robbing a ship, you get gold coins that look like this: </p><p><img src='run_exp/static/images/tutorial/reward.png' height='150'></p><p> If they were not successful in robbing the ship, then you will get no gold coins and you'll see a big red x like this: </p><p><img src='run_exp/static/images/tutorial/reward_no.png' height='150'></p><p><b>[Press the space bar to continue]</b></p></div>","32","","","","","","","","","","","","","","","","","","","","","","","",""
"","day_1_summary_pick","6","46920","0.0-6.0","""event"",""trial"",""time""
""fullscreenenter"",""0"",""2145""
","
","
","""event"",""trial"",""time""
""fullscreenenter"",""0"",""2145""
","
","null","run_exp/static/audio/clip_31_how_to_pick_a_pirate.m4a","null","","","","","<div class='center'><p>Also, just like yesterday, you will use the 1,2,3 keys on your keyboard to pick a pirate. Press '1' to choose red beard, '2' to choose white beard, and '3' to choose black beard . You only have 3 seconds to pick a pirate, so please make a choice quickly!</p></div>","","","","","","","","","","","","","","","","","","",""
"","html-keyboard-response","7","47762","0.0-7.0","""event"",""trial"",""time""
""fullscreenenter"",""0"",""2145""
","
","
","""event"",""trial"",""time""
""fullscreenenter"",""0"",""2145""
","
","840.1999999992549","<div class='center'><p>Also, just like yesterday, you will use the 1,2,3 keys on your keyboard to pick a pirate. Press '1' to choose red beard, '2' to choose white beard, and '3' to choose black beard . You only have 3 seconds to pick a pirate, so please make a choice quickly!</p><p><b>[Press the space bar to continue]</b></p></div>","32","","","","","","","","","","","","","","","","","","","","","","","",""
"","test_phase_begin","8","78152","0.0-8.0","""event"",""trial"",""time""
""fullscreenenter"",""0"",""2145""
","
","
","""event"",""trial"",""time""
""fullscreenenter"",""0"",""2145""
","
","null","run_exp/static/audio/clip_32_final_place.m4a","null","","","","","<div class='center'><p>You’ve arrived at the final island of your journey! Unfortunately, it’s very foggy out, so you won’t be able to see it in the distance like the other islands you've visited.</p><p>You’ll still be deciding which pirate you want to rob a ship like before. However, because of the fog, you also won’t be able to see the ship.</p><p>This means you do not have to remember the ships you rob on this island.</p><p>Unlike yesterday, you won't be visiting multiple islands today. You will stay on this island for the entire game. This game will last ~30 minutes.</p></div>","","","","","","","","","","","","","","","","","","",""
"","html-keyboard-response","9","79775","0.0-9.0","""event"",""trial"",""time""
""fullscreenenter"",""0"",""2145""
","
","
","""event"",""trial"",""time""
""fullscreenenter"",""0"",""2145""
","
","1621.7999999998137","<div class='center'><p>You’ve arrived at the final island of your journey! Unfortunately, it’s very foggy out, so you won’t be able to see it in the distance like the other islands you've visited.</p><p>You’ll still be deciding which pirate you want to rob a ship like before. However, because of the fog, you also won’t be able to see the ship.</p><p>This means you do not have to remember the ships you rob on this island.</p><p>Unlike yesterday, you won't be visiting multiple islands today. You will stay on this island for the entire game. This game will last ~30 minutes.</p><p><b>[Press the space bar to continue]</b></p></div>","32","","","","","","","","","","","","","","","","","","","","","","","",""
"","explain_probe_1","10","87474","0.0-10.0","""event"",""trial"",""time""
""fullscreenenter"",""0"",""2145""
","
","
","""event"",""trial"",""time""
""fullscreenenter"",""0"",""2145""
","
","null","run_exp/static/audio/clip_33_recognition_1.m4a","null","","","","","<div class='center'><p> Sometimes you’ll be shown a ship, and you will be asked if you saw this ship on a past island.</p><p> Here is an example of what you will see.</p><p><img src='run_exp/static/images/tutorial/example_recog_trial.png' height='500'></p></div>","","","","","","","","","","","","","","","","","","",""
"","html-keyboard-response","11","92443","0.0-11.0","""event"",""trial"",""time""
""fullscreenenter"",""0"",""2145""
","
","
","""event"",""trial"",""time""
""fullscreenenter"",""0"",""2145""
","
","4966.5","<div class='center'><p> Sometimes you’ll be shown a ship, and you will be asked if you saw this ship on a past island.</p><p> Here is an example of what you will see.</p><p><img src='run_exp/static/images/tutorial/example_recog_trial.png' height='500'></p><p><b>[Press the space bar to continue]</b></p></div>","32","","","","","","","","","","","","","","","","","","","","","","","",""
"","explain_probe_2","12","114162","0.0-12.0","""event"",""trial"",""time""
""fullscreenenter"",""0"",""2145""
","
","
","""event"",""trial"",""time""
""fullscreenenter"",""0"",""2145""
","
","null","run_exp/static/audio/clip_34_recognition_2.m4a","null","","","","","<div class='center'><p> You will press the 5, 6, 7, 8 keys on your keyboard to respond.</p><p>If you are sure you saw the ship, press <b>5</b> on your keyboard.</p><p> If you think you saw it before but aren't sure, then press <b>6</b>.</p><p> If you think you have <b>not</b> seen it before but aren't sure, then press <b>7</b>.</p><p> If you are sure you did <b>not</b> see the ship before, then press <b>8</b>.</p><p><img src='run_exp/static/images/tutorial/example_recog_trial.png' height='500'></p></div>","","","","","","","","","","","","","","","","","","",""
"","html-keyboard-response","13","114605","0.0-13.0","""event"",""trial"",""time""
""fullscreenenter"",""0"",""2145""
","
","
","""event"",""trial"",""time""
""fullscreenenter"",""0"",""2145""
","
","441.6000000005588","<div class='center'><p> You will press the 5, 6, 7, 8 keys on your keyboard to respond.</p><p>If you are sure you saw the ship, press <b>5</b> on your keyboard.</p><p> If you think you saw it before but aren't sure, then press <b>6</b>.</p><p> If you think you have <b>not</b> seen it before but aren't sure, then press <b>7</b>.</p><p> If you are sure you did <b>not</b> see the ship before, then press <b>8</b>.</p><p><img src='run_exp/static/images/tutorial/example_recog_trial.png' height='500'></p><p><b>[Press the space bar to continue]</b></p></div>","32","","","","","","","","","","","","","","","","","","","","","","","",""
"","explain_outcome","14","131804","0.0-14.0","""event"",""trial"",""time""
""fullscreenenter"",""0"",""2145""
","
","
","""event"",""trial"",""time""
""fullscreenenter"",""0"",""2145""
","
","null","run_exp/static/audio/clip_35_recognition_3.m4a","null","","","","","<div class='center'><p> If you remember correctly, then you’ll get a gold coin like this: </p><p><img src='run_exp/static/images/tutorial/reward_small.png' height='200'></p><p>If you do not remember correctly, then you'll see a red x like this: </p><p><img src='run_exp/static/images/tutorial/reward_no.png' height='200'></p><p>Importantly, when you are shown a ship, take the time to remind yourself which island you saw it on. This will help you in the next part of the study.</p></div>","","","","","","","","","","","","","","","","","","",""
"","html-keyboard-response","15","133017","0.0-15.0","""event"",""trial"",""time""
""fullscreenenter"",""0"",""2145""
","
","
","""event"",""trial"",""time""
""fullscreenenter"",""0"",""2145""
","
","1210.199999999255","<div class='center'><p> If you remember correctly, then you’ll get a gold coin like this: </p><p><img src='run_exp/static/images/tutorial/reward_small.png' height='200'></p><p>If you do not remember correctly, then you'll see a red x like this: </p><p><img src='run_exp/static/images/tutorial/reward_no.png' height='200'></p><p>Importantly, when you are shown a ship, take the time to remind yourself which island you saw it on. This will help you in the next part of the study.</p><p><b>[Press the space bar to continue]</b></p></div>","32","","","","","","","","","","","","","","","","","","","","","","","",""
"","begin_test_phase","16","148828","0.0-16.0","""event"",""trial"",""time""
""fullscreenenter"",""0"",""2145""
","
","
","""event"",""trial"",""time""
""fullscreenenter"",""0"",""2145""
","
","null","run_exp/static/audio/clip_36_begin_final.m4a","null","","","","","<div class='center'><p>Let's go over the important points again. Your job is to: </p><p>1. Pick the pirate who is best at robbing ships and will bring you back gold coins. </p><p>2. Correctly remember whether or not you saw a ship before. If you did see the ship before, remind yourself on which island you saw it. </p></div>","","","","","","","","","","","","","","","","","","",""
"","html-keyboard-response","17","149223","0.0-17.0","""event"",""trial"",""time""
""fullscreenenter"",""0"",""2145""
","
","
","""event"",""trial"",""time""
""fullscreenenter"",""0"",""2145""
","
","358.70000000018626","<div class='center'><p>Let's go over the important points again. Your job is to: </p><p>1. Pick the pirate who is best at robbing ships and will bring you back gold coins. </p><p>2. Correctly remember whether or not you saw a ship before. If you did see the ship before, remind yourself on which island you saw it. </p><p><b>[Press the space bar to continue]</b></p></div>","32","","","","","","","","","","","","","","","","","","","","","","","",""
"","do_welcome","18","153238","0.0-18.0","""event"",""trial"",""time""
""fullscreenenter"",""0"",""2145""
","
","
","""event"",""trial"",""time""
""fullscreenenter"",""0"",""2145""
","
","null","","","","","","","","null","","","","","","","","","","","","","","","","","",""
"","do_trial","19","156916","0.0-19.0-0.0","""event"",""trial"",""time""
""fullscreenenter"",""0"",""2145""
","
","
","""event"",""trial"",""time""
""fullscreenenter"",""0"",""2145""
","
","1118.9000000003725","","","","","","","","49","0,0,0","6","blank","230","null","0.5509595217959354","0.6987323193730474","0.1353496188185207","0","","","","","","","","",""
"","html-keyboard-response","20","157923","0.0-19.0-1.0","""event"",""trial"",""time""
""fullscreenenter"",""0"",""2145""
","
","
","""event"",""trial"",""time""
""fullscreenenter"",""0"",""2145""
","
","null","<p></p>","null","","","","","","","","","","","","","","","","","","","","","","","",""
"","do_trial","21","160728","0.0-20.0-0.0","""event"",""trial"",""time""
""fullscreenenter"",""0"",""2145""
","
","
","""event"",""trial"",""time""
""fullscreenenter"",""0"",""2145""
","
","249.59999999962747","","","","","","","","50","0,1,0","6","blank","231","null","0.4309779161396729","0.6572241434224092","0.0944574265308718","1","","","","","","","","",""
"","html-keyboard-response","22","161732","0.0-20.0-1.0","""event"",""trial"",""time""
""fullscreenenter"",""0"",""2145""
","
","
","""event"",""trial"",""time""
""fullscreenenter"",""0"",""2145""
","
","null","<p></p>","null","","","","","","","","","","","","","","","","","","","","","","","",""
"","do_trial","23","164529","0.0-21.0-0.0","""event"",""trial"",""time""
""fullscreenenter"",""0"",""2145""
","
","
","""event"",""trial"",""time""
""fullscreenenter"",""0"",""2145""
","
","244.59999999962747","","","","","","","","50","0,1,0","6","blank","232","null","0.40831191029458097","0.6145158266463038","0.1425482872841938","1","","","","","","","","",""
"","html-keyboard-response","24","165532","0.0-21.0-1.0","""event"",""trial"",""time""
""fullscreenenter"",""0"",""2145""
","
","
","""event"",""trial"",""time""
""fullscreenenter"",""0"",""2145""
","
","null","<p></p>","null","","","","","","","","","","","","","","","","","","","","","","","",""
"","do_trial","25","168088","0.0-22.0-0.0","""event"",""trial"",""time""
""fullscreenenter"",""0"",""2145""
","
","
","""event"",""trial"",""time""
""fullscreenenter"",""0"",""2145""
","
","0.20000000018626451","","","","","","","","50","1,1,0","6","blank","233","null","0.36619536176926853","0.7254427220707649","0.06710050682929404","1","","","","","","","","",""
"","html-keyboard-response","26","169094","0.0-22.0-1.0","""event"",""trial"",""time""
""fullscreenenter"",""0"",""2145""
","
","
","""event"",""trial"",""time""
""fullscreenenter"",""0"",""2145""
","
","null","<p></p>","null","","","","","","","","","","","","","","","","","","","","","","","",""
"","do_trial","27","171780","0.0-23.0-0.0","""event"",""trial"",""time""
""fullscreenenter"",""0"",""2145""
","
","
","""event"",""trial"",""time""
""fullscreenenter"",""0"",""2145""
","
","129.3999999994412","","","","","","","","50","0,1,0","6","blank","234","null","0.3084952678323567","0.6307521920375264","0.050210298351433896","1","","","","","","","","",""
"","html-keyboard-response","28","172787","0.0-23.0-1.0","""event"",""trial"",""time""
""fullscreenenter"",""0"",""2145""
","
","
","""event"",""trial"",""time""
""fullscreenenter"",""0"",""2145""
","
","null","<p></p>","null","","","","","","","","","","","","","","","","","","","","","","","",""
"","do_trial","29","175558","0.0-24.0-0.0","""event"",""trial"",""time""
""fullscreenenter"",""0"",""2145""
","
","
","""event"",""trial"",""time""
""fullscreenenter"",""0"",""2145""
","
","212.5","","","","","","","","50","0,1,0","6","blank","235","null","0.3191400922117181","0.5284760945277912","0.07946315524993885","1","","","","","","","","",""
"","html-keyboard-response","30","176566","0.0-24.0-1.0","""event"",""trial"",""time""
""fullscreenenter"",""0"",""2145""
","
","
","""event"",""trial"",""time""
""fullscreenenter"",""0"",""2145""
","
","null","<p></p>","null","","","","","","","","","","","","","","","","","","","","","","","",""
"","do_trial","31","179362","0.0-25.0-0.0","""event"",""trial"",""time""
""fullscreenenter"",""0"",""2145""
","
","
","""event"",""trial"",""time""
""fullscreenenter"",""0"",""2145""
","
","249.6000000005588","","","","","","","","50","0,0,0","6","blank","236","null","0.3150786502715664","0.46965242018526016","0.06921686432735728","0","","","","","","","","",""
"","html-keyboard-response","32","180365","0.0-25.0-1.0","""event"",""trial"",""time""
""fullscreenenter"",""0"",""2145""
","
","
","""event"",""trial"",""time""
""fullscreenenter"",""0"",""2145""
","
","null","<p></p>","null","","","","","","","","","","","","","","","","","","","","","","","",""
"","do_trial","33","182956","0.0-26.0-0.0","""event"",""trial"",""time""
""fullscreenenter"",""0"",""2145""
","
","
","""event"",""trial"",""time""
""fullscreenenter"",""0"",""2145""
","
","47.700000000186265","","","","","","","","50","0,1,0","6","blank","237","null","0.3296418191933518","0.509777017867405","0.08349904743499911","1","","","","","","","","",""
"","html-keyboard-response","34","183963","0.0-26.0-1.0","""event"",""trial"",""time""
""fullscreenenter"",""0"",""2145""
","
","
","""event"",""trial"",""time""
""fullscreenenter"",""0"",""2145""
","
","null","<p></p>","null","","","","","","","","","","","","","","","","","","","","","","","",""
"","do_trial","35","186584","0.0-27.0-0.0","""event"",""trial"",""time""
""fullscreenenter"",""0"",""2145""
","
","
","""event"",""trial"",""time""
""fullscreenenter"",""0"",""2145""
","
","71.6000000005588","","","","","","","","50","0,0,0","6","blank","238","null","0.27217557340220744","0.43227101387378725","0.09024932697379943","0","","","","","","","","",""
"","html-keyboard-response","36","187589","0.0-27.0-1.0","""event"",""trial"",""time""
""fullscreenenter"",""0"",""2145""
","
","
","""event"",""trial"",""time""
""fullscreenenter"",""0"",""2145""
","
","null","<p></p>","null","","","","","","","","","","","","","","","","","","","","","","","",""
"","do_trial","37","190428","0.0-28.0-0.0","""event"",""trial"",""time""
""fullscreenenter"",""0"",""2145""
","
","
","""event"",""trial"",""time""
""fullscreenenter"",""0"",""2145""
","
","283","","","","","","","","50","0,0,0","6","blank","239","null","0.21683828421587617","0.3707091569583275","0.146813159891949","0","","","","","","","","",""
"","html-keyboard-response","38","191435","0.0-28.0-1.0","""event"",""trial"",""time""
""fullscreenenter"",""0"",""2145""
","
","
","""event"",""trial"",""time""
""fullscreenenter"",""0"",""2145""
","
","null","<p></p>","null","","","","","","","","","","","","","","","","","","","","","","","",""
"","do_trial","39","194227","0.0-29.0-0.0","""event"",""trial"",""time""
""fullscreenenter"",""0"",""2145""
","
","
","""event"",""trial"",""time""
""fullscreenenter"",""0"",""2145""
","
","240.3999999994412","","","","","","","","51","0,1,0","6","blank","240","null","0.08349626587910448","0.40735094485962137","0.1981223240290515","0","","","","","","","","",""
"","html-keyboard-response","40","195234","0.0-29.0-1.0","""event"",""trial"",""time""
""fullscreenenter"",""0"",""2145""
","
","
","""event"",""trial"",""time""
""fullscreenenter"",""0"",""2145""
","
","null","<p></p>","null","","","","","","","","","","","","","","","","","","","","","","","",""
"","do_recog","41","201251","0.0-30.0-0.0","""event"",""trial"",""time""
""fullscreenenter"",""0"",""2145""
","
","
","""event"",""trial"",""time""
""fullscreenenter"",""0"",""2145""
","
","null","","","","","","","","null","","","","241","probe-103","","","","","1","[object Object]","152","3","0","","","",""
"","html-keyboard-response","42","202259","0.0-30.0-1.0","""event"",""trial"",""time""
""fullscreenenter"",""0"",""2145""
","
","
","""event"",""trial"",""time""
""fullscreenenter"",""0"",""2145""
","
","null","<p></p>","null","","","","","","","","","","","","","","","","","","","","","","","",""
"","do_trial","43","205797","0.0-31.0-0.0","""event"",""trial"",""time""
""fullscreenenter"",""0"",""2145""
","
","
","""event"",""trial"",""time""
""fullscreenenter"",""0"",""2145""
","
","992.0999999996275","","","","","","","","51","0,1,0","6","blank","242","null","0.058196314299416234","0.3574591176920104","0.20405039006948744","0","","","","","","","","",""
"","html-keyboard-response","44","206801","0.0-31.0-1.0","""event"",""trial"",""time""
""fullscreenenter"",""0"",""2145""
","
","
","""event"",""trial"",""time""
""fullscreenenter"",""0"",""2145""
","
","null","<p></p>","null","","","","","","","","","","","","","","","","","","","","","","","",""
"","do_recog","45","210900","0.0-32.0-0.0","""event"",""trial"",""time""
""fullscreenenter"",""0"",""2145""
","
","
","""event"",""trial"",""time""
""fullscreenenter"",""0"",""2145""
","
","2587.800000000745","","","","","","","","55","","","","243","probe-101","","","","","1","[object Object]","74","1","0","","","",""
"","html-keyboard-response","46","211907","0.0-32.0-1.0","""event"",""trial"",""time""
""fullscreenenter"",""0"",""2145""
","
","
","""event"",""trial"",""time""
""fullscreenenter"",""0"",""2145""
","
","null","<p></p>","null","","","","","","","","","","","","","","","","","","","","","","","",""
"","do_trial","47","215229","0.0-33.0-0.0","""event"",""trial"",""time""
""fullscreenenter"",""0"",""2145""
","
","
","""event"",""trial"",""time""
""fullscreenenter"",""0"",""2145""
","
","776.2999999998137","","","","","","","","49","0,0,0","6","blank","244","null","0.085410201247885","0.1237657863010254","0.4067756892359027","0","","","","","","","","",""
"","html-keyboard-response","48","216236","0.0-33.0-1.0","""event"",""trial"",""time""
""fullscreenenter"",""0"",""2145""
","
","
","""event"",""trial"",""time""
""fullscreenenter"",""0"",""2145""
","
","null","<p></p>","null","","","","","","","","","","","","","","","","","","","","","","","",""
"","do_recog","49","219891","0.0-34.0-0.0","""event"",""trial"",""time""
""fullscreenenter"",""0"",""2145""
","
","
","""event"",""trial"",""time""
""fullscreenenter"",""0"",""2145""
","
","2145.7000000001863","","","","","","","","54","","","","245","probe-196","","","","","1","[object Object]","113","2","1","","","",""
"","html-keyboard-response","50","220898","0.0-34.0-1.0","""event"",""trial"",""time""
""fullscreenenter"",""0"",""2145""
","
","
","""event"",""trial"",""time""
""fullscreenenter"",""0"",""2145""
","
","null","<p></p>","null","","","","","","","","","","","","","","","","","","","","","","","",""
"","do_trial","51","223900","0.0-35.0-0.0","""event"",""trial"",""time""
""fullscreenenter"",""0"",""2145""
","
","
","""event"",""trial"",""time""
""fullscreenenter"",""0"",""2145""
","
","448.20000000018626","","","","","","","","51","0,0,0","6","blank","246","null","0.11113478023176128","0.10278205016567778","0.6078913723558789","0","","","","","","","","",""
"","html-keyboard-response","52","224907","0.0-35.0-1.0","""event"",""trial"",""time""
""fullscreenenter"",""0"",""2145""
","
","
","""event"",""trial"",""time""
""fullscreenenter"",""0"",""2145""
","
","null","<p></p>","null","","","","","","","","","","","","","","","","","","","","","","","",""
"","do_trial","53","227920","0.0-36.0-0.0","""event"",""trial"",""time""
""fullscreenenter"",""0"",""2145""
","
","
","""event"",""trial"",""time""
""fullscreenenter"",""0"",""2145""
","
","454.5","","","","","","","","49","0,0,1","6","blank","247","null","0.19088840722275344","0.18142074885692455","0.6926612642595359","0","","","","","","","","",""
"","html-keyboard-response","54","228926","0.0-36.0-1.0","""event"",""trial"",""time""
""fullscreenenter"",""0"",""2145""
","
","
","""event"",""trial"",""time""
""fullscreenenter"",""0"",""2145""
","
","null","<p></p>","null","","","","","","","","","","","","","","","","","","","","","","","",""
"","do_trial","55","231821","0.0-37.0-0.0","""event"",""trial"",""time""
""fullscreenenter"",""0"",""2145""
","
","
","""event"",""trial"",""time""
""fullscreenenter"",""0"",""2145""
","
","329.29999999981374","","","","","","","","50","0,0,1","6","blank","248","null","0.22201824698674752","0.2660462322045985","0.7313815930439057","0","","","","","","","","",""
"","html-keyboard-response","56","232825","0.0-37.0-1.0","""event"",""trial"",""time""
""fullscreenenter"",""0"",""2145""
","
","
","""event"",""trial"",""time""
""fullscreenenter"",""0"",""2145""
","
","null","<p></p>","null","","","","","","","","","","","","","","","","","","","","","","","",""
"","do_trial","57","235674","0.0-38.0-0.0","""event"",""trial"",""time""
""fullscreenenter"",""0"",""2145""
","
","
","""event"",""trial"",""time""
""fullscreenenter"",""0"",""2145""
","
","298.70000000018626","","","","","","","","51","0,0,1","6","blank","249","null","0.18645578877298108","0.23795357352507815","0.703519926943044","1","","","","","","","","",""
"","html-keyboard-response","58","236682","0.0-38.0-1.0","""event"",""trial"",""time""
""fullscreenenter"",""0"",""2145""
","
","
","""event"",""trial"",""time""
""fullscreenenter"",""0"",""2145""
","
","null","<p></p>","null","","","","","","","","","","","","","","","","","","","","","","","",""
"","do_trial","59","239888","0.0-39.0-0.0","""event"",""trial"",""time""
""fullscreenenter"",""0"",""2145""
","
","
","""event"",""trial"",""time""
""fullscreenenter"",""0"",""2145""
","
","646.1000000005588","","","","","","","","51","0,0,0","6","blank","250","null","0.12013588362806252","0.37367028019017495","0.6317205627444449","0","","","","","","","","",""
"","html-keyboard-response","60","240895","0.0-39.0-1.0","""event"",""trial"",""time""
""fullscreenenter"",""0"",""2145""
","
","
","""event"",""trial"",""time""
""fullscreenenter"",""0"",""2145""
","
","null","<p></p>","null","","","","","","","","","","","","","","","","","","","","","","","",""
"","do_trial","61","243811","0.0-40.0-0.0","""event"",""trial"",""time""
""fullscreenenter"",""0"",""2145""
","
","
","""event"",""trial"",""time""
""fullscreenenter"",""0"",""2145""
","
","371.79999999981374","","","","","","","","49","0,0,0","6","blank","251","null","0.0603275179441853","0.33572495638281497","0.59591307529201","0","","","","","","","","",""
"","html-keyboard-response","62","244815","0.0-40.0-1.0","""event"",""trial"",""time""
""fullscreenenter"",""0"",""2145""
","
","
","""event"",""trial"",""time""
""fullscreenenter"",""0"",""2145""
","
","null","<p></p>","null","","","","","","","","","","","","","","","","","","","","","","","",""
"","do_trial","63","247768","0.0-41.0-0.0","""event"",""trial"",""time""
""fullscreenenter"",""0"",""2145""
","
","
","""event"",""trial"",""time""
""fullscreenenter"",""0"",""2145""
","
","404","","","","","","","","49","0,0,1","6","blank","252","null","0.057028035487059106","0.2798578878641925","0.7106021896038398","0","","","","","","","","",""
"","html-keyboard-response","64","248777","0.0-41.0-1.0","""event"",""trial"",""time""
""fullscreenenter"",""0"",""2145""
","
","
","""event"",""trial"",""time""
""fullscreenenter"",""0"",""2145""
","
","null","<p></p>","null","","","","","","","","","","","","","","","","","","","","","","","",""
"","do_recog","65","252377","0.0-42.0-0.0","""event"",""trial"",""time""
""fullscreenenter"",""0"",""2145""
","
","
","""event"",""trial"",""time""
""fullscreenenter"",""0"",""2145""
","
","2085.4000000003725","","","","","","","","54","","","","253","probe-30","","","","","1","[object Object]","38","0","1","","","",""
"","html-keyboard-response","66","253384","0.0-42.0-1.0","""event"",""trial"",""time""
""fullscreenenter"",""0"",""2145""
","
","
","""event"",""trial"",""time""
""fullscreenenter"",""0"",""2145""
","
","null","<p></p>","null","","","","","","","","","","","","","","","","","","","","","","","",""
"","do_trial","67","256300","0.0-43.0-0.0","""event"",""trial"",""time""
""fullscreenenter"",""0"",""2145""
","
","
","""event"",""trial"",""time""
""fullscreenenter"",""0"",""2145""
","
","360","","","","","","","","50","0,0,1","6","blank","254","null","0.060127740388450146","0.14734983622215123","0.7141336471507566","0","","","","","","","","",""
"","html-keyboard-response","68","257306","0.0-43.0-1.0","""event"",""trial"",""time""
""fullscreenenter"",""0"",""2145""
","
","
","""event"",""trial"",""time""
""fullscreenenter"",""0"",""2145""
","
","null","<p></p>","null","","","","","","","","","","","","","","","","","","","","","","","",""
"","do_trial","69","260183","0.0-44.0-0.0","""event"",""trial"",""time""
""fullscreenenter"",""0"",""2145""
","
","
","""event"",""trial"",""time""
""fullscreenenter"",""0"",""2145""
","
","327.90000000037253","","","","","","","","51","0,0,1","6","blank","255","null","0.1490570905437104","0.054653222943889135","0.6227508849328472","1","","","","","","","","",""
"","html-keyboard-response","70","261188","0.0-44.0-1.0","""event"",""trial"",""time""
""fullscreenenter"",""0"",""2145""
","
","
","""event"",""trial"",""time""
""fullscreenenter"",""0"",""2145""
","
","null","<p></p>","null","","","","","","","","","","","","","","","","","","","","","","","",""
"","do_trial","71","264198","0.0-45.0-0.0","""event"",""trial"",""time""
""fullscreenenter"",""0"",""2145""
","
","
","""event"",""trial"",""time""
""fullscreenenter"",""0"",""2145""
","
","454.5","","","","","","","","51","1,1,1","6","blank","256","null","0.11799940981353521","0.1216778481826675","0.738141671643806","1","","","","","","","","",""
"","html-keyboard-response","72","265205","0.0-45.0-1.0","""event"",""trial"",""time""
""fullscreenenter"",""0"",""2145""
","
","
","""event"",""trial"",""time""
""fullscreenenter"",""0"",""2145""
","
","null","<p></p>","null","","","","","","","","","","","","","","","","","","","","","","","",""
"","do_recog","73","268954","0.0-46.0-0.0","""event"",""trial"",""time""
""fullscreenenter"",""0"",""2145""
","
","
","""event"",""trial"",""time""
""fullscreenenter"",""0"",""2145""
","
","2239.2000000001863","","","","","","","","55","","","","257","probe-66","","","","","1","[object Object]","155","3","0","","","",""
"","html-keyboard-response","74","269958","0.0-46.0-1.0","""event"",""trial"",""time""
""fullscreenenter"",""0"",""2145""
","
","
","""event"",""trial"",""time""
""fullscreenenter"",""0"",""2145""
","
","null","<p></p>","null","","","","","","","","","","","","","","","","","","","","","","","",""
"","do_trial","75","272854","0.0-47.0-0.0","""event"",""trial"",""time""
""fullscreenenter"",""0"",""2145""
","
","
","""event"",""trial"",""time""
""fullscreenenter"",""0"",""2145""
","
","343.09999999962747","","","","","","","","51","0,0,1","6","blank","258","null","0.05634560933690282","0.1555475924962299","0.7688924567407908","1","","","","","","","","",""
"","html-keyboard-response","76","273861","0.0-47.0-1.0","""event"",""trial"",""time""
""fullscreenenter"",""0"",""2145""
","
","
","""event"",""trial"",""time""
""fullscreenenter"",""0"",""2145""
","
","null","<p></p>","null","","","","","","","","","","","","","","","","","","","","","","","",""
"","do_trial","77","276745","0.0-48.0-0.0","""event"",""trial"",""time""
""fullscreenenter"",""0"",""2145""
","
","
","""event"",""trial"",""time""
""fullscreenenter"",""0"",""2145""
","
","335.09999999962747","","","","","","","","51","0,0,1","6","blank","259","null","0.09613760505094172","0.2913052339805717","0.6858919948872092","1","","","","","","","","",""
"","html-keyboard-response","78","277752","0.0-48.0-1.0","""event"",""trial"",""time""
""fullscreenenter"",""0"",""2145""
","
","
","""event"",""trial"",""time""
""fullscreenenter"",""0"",""2145""
","
","null","<p></p>","null","","","","","","","","","","","","","","","","","","","","","","","",""
"","do_trial","79","280624","0.0-49.0-0.0","""event"",""trial"",""time""
""fullscreenenter"",""0"",""2145""
","
","
","""event"",""trial"",""time""
""fullscreenenter"",""0"",""2145""
","
","315.09999999962747","","","","","","","","51","1,0,0","6","blank","260","null","0.17657692341689812","0.2628365583963052","0.7009736160101575","0","","","","","","","","",""
"","html-keyboard-response","80","281629","0.0-49.0-1.0","""event"",""trial"",""time""
""fullscreenenter"",""0"",""2145""
","
","
","""event"",""trial"",""time""
""fullscreenenter"",""0"",""2145""
","
","null","<p></p>","null","","","","","","","","","","","","","","","","","","","","","","","",""
"","do_recog","81","284924","0.0-50.0-0.0","""event"",""trial"",""time""
""fullscreenenter"",""0"",""2145""
","
","
","""event"",""trial"",""time""
""fullscreenenter"",""0"",""2145""
","
","1780.3999999994412","","","","","","","","53","","","","261","probe-19","","","","","1","[object Object]","157","3","1","","","",""
"","html-keyboard-response","82","285931","0.0-50.0-1.0","""event"",""trial"",""time""
""fullscreenenter"",""0"",""2145""
","
","
","""event"",""trial"",""time""
""fullscreenenter"",""0"",""2145""
","
","null","<p></p>","null","","","","","","","","","","","","","","","","","","","","","","","",""
"","do_trial","83","289525","0.0-51.0-0.0","""event"",""trial"",""time""
""fullscreenenter"",""0"",""2145""
","
","
","""event"",""trial"",""time""
""fullscreenenter"",""0"",""2145""
","
","1044.0999999996275","","","","","","","","50","0,1,1","6","blank","262","null","0.12393670661140012","0.29550221146273176","0.5589784594475642","1","","","","","","","","",""
"","html-keyboard-response","84","290531","0.0-51.0-1.0","""event"",""trial"",""time""
""fullscreenenter"",""0"",""2145""
","
","
","""event"",""trial"",""time""
""fullscreenenter"",""0"",""2145""
","
","null","<p></p>","null","","","","","","","","","","","","","","","","","","","","","","","",""
"","do_trial","85","293400","0.0-52.0-0.0","""event"",""trial"",""time""
""fullscreenenter"",""0"",""2145""
","
","
","""event"",""trial"",""time""
""fullscreenenter"",""0"",""2145""
","
","315","","","","","","","","50","1,0,1","6","blank","263","null","0.19700854463186665","0.25084961097169844","0.4626034181122099","0","","","","","","","","",""
"","html-keyboard-response","86","294407","0.0-52.0-1.0","""event"",""trial"",""time""
""fullscreenenter"",""0"",""2145""
","
","
","""event"",""trial"",""time""
""fullscreenenter"",""0"",""2145""
","
","null","<p></p>","null","","","","","","","","","","","","","","","","","","","","","","","",""
"","do_trial","87","297189","0.0-53.0-0.0","""event"",""trial"",""time""
""fullscreenenter"",""0"",""2145""
","
","
","""event"",""trial"",""time""
""fullscreenenter"",""0"",""2145""
","
","227.79999999981374","","","","","","","","51","1,1,0","6","blank","264","null","0.21638308715043397","0.2587374043098988","0.6029861757544177","0","","","","","","","","",""
"","html-keyboard-response","88","298196","0.0-53.0-1.0","""event"",""trial"",""time""
""fullscreenenter"",""0"",""2145""
","
","
","""event"",""trial"",""time""
""fullscreenenter"",""0"",""2145""
","
","null","<p></p>","null","","","","","","","","","","","","","","","","","","","","","","","",""
"","do_trial","89","300985","0.0-54.0-0.0","""event"",""trial"",""time""
""fullscreenenter"",""0"",""2145""
","
","
","""event"",""trial"",""time""
""fullscreenenter"",""0"",""2145""
","
","238.79999999981374","","","","","","","","50","0,1,0","6","blank","265","null","0.31847463864226305","0.38324653461328384","0.6625626173505605","1","","","","","","","","",""
"","html-keyboard-response","90","301993","0.0-54.0-1.0","""event"",""trial"",""time""
""fullscreenenter"",""0"",""2145""
","
","
","""event"",""trial"",""time""
""fullscreenenter"",""0"",""2145""
","
","null","<p></p>","null","","","","","","","","","","","","","","","","","","","","","","","",""
"","do_trial","91","304865","0.0-55.0-0.0","""event"",""trial"",""time""
""fullscreenenter"",""0"",""2145""
","
","
","""event"",""trial"",""time""
""fullscreenenter"",""0"",""2145""
","
","319.5","","","","","","","","50","0,0,1","6","blank","266","null","0.128166327063967","0.3105842986712346","0.5985739504965827","0","","","","","","","","",""
"","html-keyboard-response","92","305872","0.0-55.0-1.0","""event"",""trial"",""time""
""fullscreenenter"",""0"",""2145""
","
","
","""event"",""trial"",""time""
""fullscreenenter"",""0"",""2145""
","
","null","<p></p>","null","","","","","","","","","","","","","","","","","","","","","","","",""
"","do_recog","93","309221","0.0-56.0-0.0","""event"",""trial"",""time""
""fullscreenenter"",""0"",""2145""
","
","
","""event"",""trial"",""time""
""fullscreenenter"",""0"",""2145""
","
","1836.2000000001863","","","","","","","","54","","","","267","probe-163","","","","","1","[object Object]","70","1","1","","","",""
"","html-keyboard-response","94","310225","0.0-56.0-1.0","""event"",""trial"",""time""
""fullscreenenter"",""0"",""2145""
","
","
","""event"",""trial"",""time""
""fullscreenenter"",""0"",""2145""
","
","null","<p></p>","null","","","","","","","","","","","","","","","","","","","","","","","",""
"","do_trial","95","313188","0.0-57.0-0.0","""event"",""trial"",""time""
""fullscreenenter"",""0"",""2145""
","
","
","""event"",""trial"",""time""
""fullscreenenter"",""0"",""2145""
","
","410.09999999962747","","","","","","","","49","0,0,0","6","blank","268","null","0.193467646127785","0.2812917497682312","0.6239567590184101","0","","","","","","","","",""
"","html-keyboard-response","96","314195","0.0-57.0-1.0","""event"",""trial"",""time""
""fullscreenenter"",""0"",""2145""
","
","
","""event"",""trial"",""time""
""fullscreenenter"",""0"",""2145""
","
","null","<p></p>","null","","","","","","","","","","","","","","","","","","","","","","","",""
"","break","97","315596","0.0-58.0-0.0","""event"",""trial"",""time""
""fullscreenenter"",""0"",""2145""
","
","
","""event"",""trial"",""time""
""fullscreenenter"",""0"",""2145""
","
","1399.0999999996275","<div class='center'><p>Time to take a quick break! You have 2 minutes to rest, but you can move on sooner if you'd like.</p><p> Press the <b>space bar</b> to continue.</p></div>","32","","","","","","","","","","","","","","","","","","","","","","","",""
"","do_recog","98","318999","0.0-58.0-1.0","""event"",""trial"",""time""
""fullscreenenter"",""0"",""2145""
","
","
","""event"",""trial"",""time""
""fullscreenenter"",""0"",""2145""
","
","1889.7000000001863","","","","","","","","55","","","","269","probe-209","","","","","1","[object Object]","198","4","0","","","",""
"","html-keyboard-response","99","320004","0.0-58.0-2.0","""event"",""trial"",""time""
""fullscreenenter"",""0"",""2145""
","
","
","""event"",""trial"",""time""
""fullscreenenter"",""0"",""2145""
","
","null","<p></p>","null","","","","","","","","","","","","","","","","","","","","","","","",""
"","do_trial","100","322989","0.0-59.0-0.0","""event"",""trial"",""time""
""fullscreenenter"",""0"",""2145""
","
","
","""event"",""trial"",""time""
""fullscreenenter"",""0"",""2145""
","
","449.70000000018626","","","","","","","","51","1,0,1","6","blank","270","null","0.11759332654947306","0.25791198101486595","0.693997613842282","1","","","","","","","","",""
"","html-keyboard-response","101","323996","0.0-59.0-1.0","""event"",""trial"",""time""
""fullscreenenter"",""0"",""2145""
","
","
","""event"",""trial"",""time""
""fullscreenenter"",""0"",""2145""
","
","null","<p></p>","null","","","","","","","","","","","","","","","","","","","","","","","",""
"","do_trial","102","327018","0.0-60.0-0.0","""event"",""trial"",""time""
""fullscreenenter"",""0"",""2145""
","
","
","""event"",""trial"",""time""
""fullscreenenter"",""0"",""2145""
","
","471.40000000037253","","","","","","","","51","0,0,0","6","blank","271","null","0.12032341684068028","0.235734587782147","0.4546786396746984","0","","","","","","","","",""
"","html-keyboard-response","103","328024","0.0-60.0-1.0","""event"",""trial"",""time""
""fullscreenenter"",""0"",""2145""
","
","
","""event"",""trial"",""time""
""fullscreenenter"",""0"",""2145""
","
","null","<p></p>","null","","","","","","","","","","","","","","","","","","","","","","","",""
"","do_recog","104","331831","0.0-61.0-0.0","""event"",""trial"",""time""
""fullscreenenter"",""0"",""2145""
","
","
","""event"",""trial"",""time""
""fullscreenenter"",""0"",""2145""
","
","2291.5","","","","","","","","55","","","","272","probe-241","","","","","0","[object Object]","null","null","1","","","",""
"","html-keyboard-response","105","332838","0.0-61.0-1.0","""event"",""trial"",""time""
""fullscreenenter"",""0"",""2145""
","
","
","""event"",""trial"",""time""
""fullscreenenter"",""0"",""2145""
","
","null","<p></p>","null","","","","","","","","","","","","","","","","","","","","","","","",""
"","do_trial","106","335787","0.0-62.0-0.0","""event"",""trial"",""time""
""fullscreenenter"",""0"",""2145""
","
","
","""event"",""trial"",""time""
""fullscreenenter"",""0"",""2145""
","
","395.59999999962747","","","","","","","","51","0,0,1","6","blank","273","null","0.10199916832537714","0.43196469001163423","0.6779968153424776","1","","","","","","","","",""
"","html-keyboard-response","107","336794","0.0-62.0-1.0","""event"",""trial"",""time""
""fullscreenenter"",""0"",""2145""
","
","
","""event"",""trial"",""time""
""fullscreenenter"",""0"",""2145""
","
","null","<p></p>","null","","","","","","","","","","","","","","","","","","","","","","","",""
"","do_recog","108","339918","0.0-63.0-0.0","""event"",""trial"",""time""
""fullscreenenter"",""0"",""2145""
","
","
","""event"",""trial"",""time""
""fullscreenenter"",""0"",""2145""
","
","1608.2000000001863","","","","","","","","54","","","","274","probe-245","","","","","0","[object Object]","null","null","0","","","",""
"","html-keyboard-response","109","340925","0.0-63.0-1.0","""event"",""trial"",""time""
""fullscreenenter"",""0"",""2145""
","
","
","""event"",""trial"",""time""
""fullscreenenter"",""0"",""2145""
","
","null","<p></p>","null","","","","","","","","","","","","","","","","","","","","","","","",""
"","do_trial","110","343866","0.0-64.0-0.0","""event"",""trial"",""time""
""fullscreenenter"",""0"",""2145""
","
","
","""event"",""trial"",""time""
""fullscreenenter"",""0"",""2145""
","
","379.20000000018626","","","","","","","","50","0,1,1","6","blank","275","null","0.06140835420977125","0.4605699804724759","0.5757574594664145","1","","","","","","","","",""
"","html-keyboard-response","111","344873","0.0-64.0-1.0","""event"",""trial"",""time""
""fullscreenenter"",""0"",""2145""
","
","
","""event"",""trial"",""time""
""fullscreenenter"",""0"",""2145""
","
","null","<p></p>","null","","","","","","","","","","","","","","","","","","","","","","","",""
"","do_trial","112","347741","0.0-65.0-0.0","""event"",""trial"",""time""
""fullscreenenter"",""0"",""2145""
","
","
","""event"",""trial"",""time""
""fullscreenenter"",""0"",""2145""
","
","307.70000000018626","","","","","","","","50","0,1,0","6","blank","276","null","0.12929522697639345","0.35602229425053294","0.5892960649406123","1","","","","","","","","",""
"","html-keyboard-response","113","348748","0.0-65.0-1.0","""event"",""trial"",""time""
""fullscreenenter"",""0"",""2145""
","
","
","""event"",""trial"",""time""
""fullscreenenter"",""0"",""2145""
","
","null","<p></p>","null","","","","","","","","","","","","","","","","","","","","","","","",""
"","do_trial","114","351684","0.0-66.0-0.0","""event"",""trial"",""time""
""fullscreenenter"",""0"",""2145""
","
","
","""event"",""trial"",""time""
""fullscreenenter"",""0"",""2145""
","
","380.79999999981374","","","","","","","","50","0,0,1","6","blank","277","null","0.1083077206314493","0.3308836067716825","0.6824247297858703","0","","","","","","","","",""
"","html-keyboard-response","115","352688","0.0-66.0-1.0","""event"",""trial"",""time""
""fullscreenenter"",""0"",""2145""
","
","
","""event"",""trial"",""time""
""fullscreenenter"",""0"",""2145""
","
","null","<p></p>","null","","","","","","","","","","","","","","","","","","","","","","","",""
"","do_recog","116","355614","0.0-67.0-0.0","""event"",""trial"",""time""
""fullscreenenter"",""0"",""2145""
","
","
","""event"",""trial"",""time""
""fullscreenenter"",""0"",""2145""
","
","1415.5999999996275","","","","","","","","53","","","","278","probe-198","","","","","1","[object Object]","196","4","1","","","",""
"","html-keyboard-response","117","356621","0.0-67.0-1.0","""event"",""trial"",""time""
""fullscreenenter"",""0"",""2145""
","
","
","""event"",""trial"",""time""
""fullscreenenter"",""0"",""2145""
","
","null","<p></p>","null","","","","","","","","","","","","","","","","","","","","","","","",""
"","do_trial","118","359572","0.0-68.0-0.0","""event"",""trial"",""time""
""fullscreenenter"",""0"",""2145""
","
","
","""event"",""trial"",""time""
""fullscreenenter"",""0"",""2145""
","
","394","","","","","","","","49","0,0,0","6","blank","279","null","0.0753155893097641","0.23105029457542117","0.5513982176474638","0","","","","","","","","",""
"","html-keyboard-response","119","360579","0.0-68.0-1.0","""event"",""trial"",""time""
""fullscreenenter"",""0"",""2145""
","
","
","""event"",""trial"",""time""
""fullscreenenter"",""0"",""2145""
","
","null","<p></p>","null","","","","","","","","","","","","","","","","","","","","","","","",""
"","do_trial","120","363614","0.0-69.0-0.0","""event"",""trial"",""time""
""fullscreenenter"",""0"",""2145""
","
","
","""event"",""trial"",""time""
""fullscreenenter"",""0"",""2145""
","
","473.90000000037253","","","","","","","","51","0,0,0","6","blank","280","null","0.07290939486059754","0.27072189326384993","0.5677621244370027","0","","","","","","","","",""
"","html-keyboard-response","121","364621","0.0-69.0-1.0","""event"",""trial"",""time""
""fullscreenenter"",""0"",""2145""
","
","
","""event"",""trial"",""time""
""fullscreenenter"",""0"",""2145""
","
","null","<p></p>","null","","","","","","","","","","","","","","","","","","","","","","","",""
"","do_trial","122","367469","0.0-70.0-0.0","""event"",""trial"",""time""
""fullscreenenter"",""0"",""2145""
","
","
","""event"",""trial"",""time""
""fullscreenenter"",""0"",""2145""
","
","296.3999999994412","","","","","","","","50","0,0,0","6","blank","281","null","0.12756538605480083","0.2561427959054425","0.5920372814151914","0","","","","","","","","",""
"","html-keyboard-response","123","368477","0.0-70.0-1.0","""event"",""trial"",""time""
""fullscreenenter"",""0"",""2145""
","
","
","""event"",""trial"",""time""
""fullscreenenter"",""0"",""2145""
","
","null","<p></p>","null","","","","","","","","","","","","","","","","","","","","","","","",""
"","do_trial","124","371311","0.0-71.0-0.0","""event"",""trial"",""time""
""fullscreenenter"",""0"",""2145""
","
","
","""event"",""trial"",""time""
""fullscreenenter"",""0"",""2145""
","
","275.1000000005588","","","","","","","","51","0,0,1","6","blank","282","null","0.08535567090852135","0.11876083228383175","0.7756542592873341","1","","","","","","","","",""
"","html-keyboard-response","125","372318","0.0-71.0-1.0","""event"",""trial"",""time""
""fullscreenenter"",""0"",""2145""
","
","
","""event"",""trial"",""time""
""fullscreenenter"",""0"",""2145""
","
","null","<p></p>","null","","","","","","","","","","","","","","","","","","","","","","","",""
"","do_recog","126","375145","0.0-72.0-0.0","""event"",""trial"",""time""
""fullscreenenter"",""0"",""2145""
","
","
","""event"",""trial"",""time""
""fullscreenenter"",""0"",""2145""
","
","1314.2000000001863","","","","","","","","53","","","","283","probe-159","","","","","1","[object Object]","37","0","1","","","",""
"","html-keyboard-response","127","376152","0.0-72.0-1.0","""event"",""trial"",""time""
""fullscreenenter"",""0"",""2145""
","
","
","""event"",""trial"",""time""
""fullscreenenter"",""0"",""2145""
","
","null","<p></p>","null","","","","","","","","","","","","","","","","","","","","","","","",""
"","do_trial","128","379056","0.0-73.0-0.0","""event"",""trial"",""time""
""fullscreenenter"",""0"",""2145""
","
","
","""event"",""trial"",""time""
""fullscreenenter"",""0"",""2145""
","
","346.20000000018626","","","","","","","","51","0,0,1","6","blank","284","null","0.08969254067997313","0.16761073360563558","0.8221206023678126","1","","","","","","","","",""
"","html-keyboard-response","129","380061","0.0-73.0-1.0","""event"",""trial"",""time""
""fullscreenenter"",""0"",""2145""
","
","
","""event"",""trial"",""time""
""fullscreenenter"",""0"",""2145""
","
","null","<p></p>","null","","","","","","","","","","","","","","","","","","","","","","","",""
"","do_trial","130","382975","0.0-74.0-0.0","""event"",""trial"",""time""
""fullscreenenter"",""0"",""2145""
","
","
","""event"",""trial"",""time""
""fullscreenenter"",""0"",""2145""
","
","357.40000000037253","","","","","","","","51","0,0,1","6","blank","285","null","0.08779208247260614","0.097058783537494","0.7517372698385498","1","","","","","","","","",""
"","html-keyboard-response","131","383982","0.0-74.0-1.0","""event"",""trial"",""time""
""fullscreenenter"",""0"",""2145""
","
","
","""event"",""trial"",""time""
""fullscreenenter"",""0"",""2145""
","
","null","<p></p>","null","","","","","","","","","","","","","","","","","","","","","","","",""
"","do_trial","132","387148","0.0-75.0-0.0","""event"",""trial"",""time""
""fullscreenenter"",""0"",""2145""
","
","
","""event"",""trial"",""time""
""fullscreenenter"",""0"",""2145""
","
","611.4000000003725","","","","","","","","51","0,1,1","6","blank","286","null","0.07313275905602763","0.22022690902390427","0.7505506324646599","1","","","","","","","","",""
"","html-keyboard-response","133","388155","0.0-75.0-1.0","""event"",""trial"",""time""
""fullscreenenter"",""0"",""2145""
","
","
","""event"",""trial"",""time""
""fullscreenenter"",""0"",""2145""
","
","null","<p></p>","null","","","","","","","","","","","","","","","","","","","","","","","",""
"","do_trial","134","391132","0.0-76.0-0.0","""event"",""trial"",""time""
""fullscreenenter"",""0"",""2145""
","
","
","""event"",""trial"",""time""
""fullscreenenter"",""0"",""2145""
","
","419.29999999981374","","","","","","","","51","0,0,1","6","blank","287","null","0.15454322347493116","0.3647096328843968","0.8819168823861938","1","","","","","","","","",""
"","html-keyboard-response","135","392138","0.0-76.0-1.0","""event"",""trial"",""time""
""fullscreenenter"",""0"",""2145""
","
","
","""event"",""trial"",""time""
""fullscreenenter"",""0"",""2145""
","
","null","<p></p>","null","","","","","","","","","","","","","","","","","","","","","","","",""
"","do_trial","136","395116","0.0-77.0-0.0","""event"",""trial"",""time""
""fullscreenenter"",""0"",""2145""
","
","
","""event"",""trial"",""time""
""fullscreenenter"",""0"",""2145""
","
","421","","","","","","","","51","0,1,1","6","blank","288","null","0.20116439339493725","0.39775437414751785","0.7403152171626369","1","","","","","","","","",""
"","html-keyboard-response","137","396122","0.0-77.0-1.0","""event"",""trial"",""time""
""fullscreenenter"",""0"",""2145""
","
","
","""event"",""trial"",""time""
""fullscreenenter"",""0"",""2145""
","
","null","<p></p>","null","","","","","","","","","","","","","","","","","","","","","","","",""
"","do_trial","138","399257","0.0-78.0-0.0","""event"",""trial"",""time""
""fullscreenenter"",""0"",""2145""
","
","
","""event"",""trial"",""time""
""fullscreenenter"",""0"",""2145""
","
","579.6000000005588","","","","","","","","51","0,0,1","6","blank","289","null","0.07627794885890893","0.32312163948471706","0.8440834001148947","1","","","","","","","","",""
"","html-keyboard-response","139","400264","0.0-78.0-1.0","""event"",""trial"",""time""
""fullscreenenter"",""0"",""2145""
","
","
","""event"",""trial"",""time""
""fullscreenenter"",""0"",""2145""
","
","null","<p></p>","null","","","","","","","","","","","","","","","","","","","","","","","",""
"","do_recog","140","403239","0.0-79.0-0.0","""event"",""trial"",""time""
""fullscreenenter"",""0"",""2145""
","
","
","""event"",""trial"",""time""
""fullscreenenter"",""0"",""2145""
","
","1466.7000000001863","","","","","","","","55","","","","290","probe-204","","","","","1","[object Object]","192","4","0","","","",""
"","html-keyboard-response","141","404246","0.0-79.0-1.0","""event"",""trial"",""time""
""fullscreenenter"",""0"",""2145""
","
","
","""event"",""trial"",""time""
""fullscreenenter"",""0"",""2145""
","
","null","<p></p>","null","","","","","","","","","","","","","","","","","","","","","","","",""
"","do_trial","142","407175","0.0-80.0-0.0","""event"",""trial"",""time""
""fullscreenenter"",""0"",""2145""
","
","
","""event"",""trial"",""time""
""fullscreenenter"",""0"",""2145""
","
","380.20000000018626","","","","","","","","51","0,0,1","6","blank","291","null","0.17803013595330724","0.3670706550563552","0.8494736232654916","1","","","","","","","","",""
"","html-keyboard-response","143","408180","0.0-80.0-1.0","""event"",""trial"",""time""
""fullscreenenter"",""0"",""2145""
","
","
","""event"",""trial"",""time""
""fullscreenenter"",""0"",""2145""
","
","null","<p></p>","null","","","","","","","","","","","","","","","","","","","","","","","",""
"","do_trial","144","411106","0.0-81.0-0.0","""event"",""trial"",""time""
""fullscreenenter"",""0"",""2145""
","
","
","""event"",""trial"",""time""
""fullscreenenter"",""0"",""2145""
","
","376.09999999962747","","","","","","","","51","0,0,1","6","blank","292","null","0.10412691820706636","0.30321146510688385","0.7488563361107233","1","","","","","","","","",""
"","html-keyboard-response","145","412113","0.0-81.0-1.0","""event"",""trial"",""time""
""fullscreenenter"",""0"",""2145""
","
","
","""event"",""trial"",""time""
""fullscreenenter"",""0"",""2145""
","
","null","<p></p>","null","","","","","","","","","","","","","","","","","","","","","","","",""
"","do_recog","146","415186","0.0-82.0-0.0","""event"",""trial"",""time""
""fullscreenenter"",""0"",""2145""
","
","
","""event"",""trial"",""time""
""fullscreenenter"",""0"",""2145""
","
","1561.800000000745","","","","","","","","54","","","","293","probe-224","","","","","1","[object Object]","190","4","1","","","",""
"","html-keyboard-response","147","416193","0.0-82.0-1.0","""event"",""trial"",""time""
""fullscreenenter"",""0"",""2145""
","
","
","""event"",""trial"",""time""
""fullscreenenter"",""0"",""2145""
","
","null","<p></p>","null","","","","","","","","","","","","","","","","","","","","","","","",""
"","do_trial","148","419133","0.0-83.0-0.0","""event"",""trial"",""time""
""fullscreenenter"",""0"",""2145""
","
","
","""event"",""trial"",""time""
""fullscreenenter"",""0"",""2145""
","
","387.5","","","","","","","","51","0,1,0","6","blank","294","null","0.08742701294830245","0.36008404223655954","0.7494819439215716","0","","","","","","","","",""
"","html-keyboard-response","149","420140","0.0-83.0-1.0","""event"",""trial"",""time""
""fullscreenenter"",""0"",""2145""
","
","
","""event"",""trial"",""time""
""fullscreenenter"",""0"",""2145""
","
","null","<p></p>","null","","","","","","","","","","","","","","","","","","","","","","","",""
"","do_trial","150","423089","0.0-84.0-0.0","""event"",""trial"",""time""
""fullscreenenter"",""0"",""2145""
","
","
","""event"",""trial"",""time""
""fullscreenenter"",""0"",""2145""
","
","403.5","","","","","","","","49","0,1,1","6","blank","295","null","0.1392683077142193","0.28441841275667973","0.6863285078770153","0","","","","","","","","",""
"","html-keyboard-response","151","424096","0.0-84.0-1.0","""event"",""trial"",""time""
""fullscreenenter"",""0"",""2145""
","
","
","""event"",""trial"",""time""
""fullscreenenter"",""0"",""2145""
","
","null","<p></p>","null","","","","","","","","","","","","","","","","","","","","","","","",""
"","do_recog","152","426973","0.0-85.0-0.0","""event"",""trial"",""time""
""fullscreenenter"",""0"",""2145""
","
","
","""event"",""trial"",""time""
""fullscreenenter"",""0"",""2145""
","
","1366.5","","","","","","","","54","","","","296","probe-89","","","","","1","[object Object]","194","4","1","","","",""
"","html-keyboard-response","153","427977","0.0-85.0-1.0","""event"",""trial"",""time""
""fullscreenenter"",""0"",""2145""
","
","
","""event"",""trial"",""time""
""fullscreenenter"",""0"",""2145""
","
","null","<p></p>","null","","","","","","","","","","","","","","","","","","","","","","","",""
"","do_trial","154","430855","0.0-86.0-0.0","""event"",""trial"",""time""
""fullscreenenter"",""0"",""2145""
","
","
","""event"",""trial"",""time""
""fullscreenenter"",""0"",""2145""
","
","319.79999999981374","","","","","","","","50","0,0,0","6","blank","297","null","0.06018317024497595","0.5356634288477308","0.4059568687080077","0","","","","","","","","",""
"","html-keyboard-response","155","431862","0.0-86.0-1.0","""event"",""trial"",""time""
""fullscreenenter"",""0"",""2145""
","
","
","""event"",""trial"",""time""
""fullscreenenter"",""0"",""2145""
","
","null","<p></p>","null","","","","","","","","","","","","","","","","","","","","","","","",""
"","do_trial","156","434914","0.0-87.0-0.0","""event"",""trial"",""time""
""fullscreenenter"",""0"",""2145""
","
","
","""event"",""trial"",""time""
""fullscreenenter"",""0"",""2145""
","
","501","","","","","","","","51","0,1,1","6","blank","298","null","0.1511255034903018","0.6418208026121711","0.21119096333152634","1","","","","","","","","",""
"","html-keyboard-response","157","435919","0.0-87.0-1.0","""event"",""trial"",""time""
""fullscreenenter"",""0"",""2145""
","
","
","""event"",""trial"",""time""
""fullscreenenter"",""0"",""2145""
","
","null","<p></p>","null","","","","","","","","","","","","","","","","","","","","","","","",""
"","do_trial","158","438867","0.0-88.0-0.0","""event"",""trial"",""time""
""fullscreenenter"",""0"",""2145""
","
","
","""event"",""trial"",""time""
""fullscreenenter"",""0"",""2145""
","
","390.29999999981374","","","","","","","","51","0,1,0","6","blank","299","null","0.11055413479259883","0.6584822769148315","0.2482943881723903","0","","","","","","","","",""
"","html-keyboard-response","159","439874","0.0-88.0-1.0","""event"",""trial"",""time""
""fullscreenenter"",""0"",""2145""
","
","
","""event"",""trial"",""time""
""fullscreenenter"",""0"",""2145""
","
","null","<p></p>","null","","","","","","","","","","","","","","","","","","","","","","","",""
"","do_trial","160","442796","0.0-89.0-0.0","""event"",""trial"",""time""
""fullscreenenter"",""0"",""2145""
","
","
","""event"",""trial"",""time""
""fullscreenenter"",""0"",""2145""
","
","361.5","","","","","","","","51","0,1,0","6","blank","300","null","0.2778300911194036","0.6845165384870798","0.08954779726792263","0","","","","","","","","",""
"","html-keyboard-response","161","443803","0.0-89.0-1.0","""event"",""trial"",""time""
""fullscreenenter"",""0"",""2145""
","
","
","""event"",""trial"",""time""
""fullscreenenter"",""0"",""2145""
","
","null","<p></p>","null","","","","","","","","","","","","","","","","","","","","","","","",""
"","do_trial","162","446609","0.0-90.0-0.0","""event"",""trial"",""time""
""fullscreenenter"",""0"",""2145""
","
","
","""event"",""trial"",""time""
""fullscreenenter"",""0"",""2145""
","
","259.69999999925494","","","","","","","","50","0,0,0","6","blank","301","null","0.2797355986086257","0.6335906894767187","0.11595398707441636","0","","","","","","","","",""
"","html-keyboard-response","163","447616","0.0-90.0-1.0","""event"",""trial"",""time""
""fullscreenenter"",""0"",""2145""
","
","
","""event"",""trial"",""time""
""fullscreenenter"",""0"",""2145""
","
","null","<p></p>","null","","","","","","","","","","","","","","","","","","","","","","","",""
"","do_trial","164","450526","0.0-91.0-0.0","""event"",""trial"",""time""
""fullscreenenter"",""0"",""2145""
","
","
","""event"",""trial"",""time""
""fullscreenenter"",""0"",""2145""
","
","354","","","","","","","","49","0,0,0","6","blank","302","null","0.3622896227772713","0.531630276739074","0.06261481084891635","0","","","","","","","","",""
"","html-keyboard-response","165","451533","0.0-91.0-1.0","""event"",""trial"",""time""
""fullscreenenter"",""0"",""2145""
","
","
","""event"",""trial"",""time""
""fullscreenenter"",""0"",""2145""
","
","null","<p></p>","null","","","","","","","","","","","","","","","","","","","","","","","",""
"","do_trial","166","454420","0.0-92.0-0.0","""event"",""trial"",""time""
""fullscreenenter"",""0"",""2145""
","
","
","""event"",""trial"",""time""
""fullscreenenter"",""0"",""2145""
","
","335.40000000037253","","","","","","","","51","0,0,0","6","blank","303","null","0.25763626857717653","0.5139119777677568","0.19943104162393843","0","","","","","","","","",""
"","html-keyboard-response","167","455422","0.0-92.0-1.0","""event"",""trial"",""time""
""fullscreenenter"",""0"",""2145""
","
","
","""event"",""trial"",""time""
""fullscreenenter"",""0"",""2145""
","
","null","<p></p>","null","","","","","","","","","","","","","","","","","","","","","","","",""
"","do_recog","168","458286","0.0-93.0-0.0","""event"",""trial"",""time""
""fullscreenenter"",""0"",""2145""
","
","
","""event"",""trial"",""time""
""fullscreenenter"",""0"",""2145""
","
","1351.2000000001863","","","","","","","","53","","","","304","probe-83","","","","","1","[object Object]","197","4","1","","","",""
"","html-keyboard-response","169","459294","0.0-93.0-1.0","""event"",""trial"",""time""
""fullscreenenter"",""0"",""2145""
","
","
","""event"",""trial"",""time""
""fullscreenenter"",""0"",""2145""
","
","null","<p></p>","null","","","","","","","","","","","","","","","","","","","","","","","",""
"","do_trial","170","462668","0.0-94.0-0.0","""event"",""trial"",""time""
""fullscreenenter"",""0"",""2145""
","
","
","""event"",""trial"",""time""
""fullscreenenter"",""0"",""2145""
","
","819.5","","","","","","","","50","0,0,1","6","blank","305","null","0.4069110446600192","0.5450604563321951","0.1481958002350796","0","","","","","","","","",""
"","html-keyboard-response","171","463672","0.0-94.0-1.0","""event"",""trial"",""time""
""fullscreenenter"",""0"",""2145""
","
","
","""event"",""trial"",""time""
""fullscreenenter"",""0"",""2145""
","
","null","<p></p>","null","","","","","","","","","","","","","","","","","","","","","","","",""
"","do_trial","172","466649","0.0-95.0-0.0","""event"",""trial"",""time""
""fullscreenenter"",""0"",""2145""
","
","
","""event"",""trial"",""time""
""fullscreenenter"",""0"",""2145""
","
","425.79999999981374","","","","","","","","50","1,0,0","6","blank","306","null","0.46712831171884533","0.5846924915092189","0.08600987990144361","0","","","","","","","","",""
"","html-keyboard-response","173","467657","0.0-95.0-1.0","""event"",""trial"",""time""
""fullscreenenter"",""0"",""2145""
","
","
","""event"",""trial"",""time""
""fullscreenenter"",""0"",""2145""
","
","null","<p></p>","null","","","","","","","","","","","","","","","","","","","","","","","",""
"","do_trial","174","470614","0.0-96.0-0.0","""event"",""trial"",""time""
""fullscreenenter"",""0"",""2145""
","
","
","""event"",""trial"",""time""
""fullscreenenter"",""0"",""2145""
","
","406.40000000037253","","","","","","","","49","1,1,0","6","blank","307","null","0.3962724506875952","0.6036751130553243","0.15635932008425277","1","","","","","","","","",""
"","html-keyboard-response","175","471617","0.0-96.0-1.0","""event"",""trial"",""time""
""fullscreenenter"",""0"",""2145""
","
","
","""event"",""trial"",""time""
""fullscreenenter"",""0"",""2145""
","
","null","<p></p>","null","","","","","","","","","","","","","","","","","","","","","","","",""
"","do_trial","176","474506","0.0-97.0-0.0","""event"",""trial"",""time""
""fullscreenenter"",""0"",""2145""
","
","
","""event"",""trial"",""time""
""fullscreenenter"",""0"",""2145""
","
","333.6000000005588","","","","","","","","49","0,1,0","6","blank","308","null","0.4374001882964337","0.3935776747708768","0.1085345664848592","0","","","","","","","","",""
"","html-keyboard-response","177","475513","0.0-97.0-1.0","""event"",""trial"",""time""
""fullscreenenter"",""0"",""2145""
","
","
","""event"",""trial"",""time""
""fullscreenenter"",""0"",""2145""
","
","null","<p></p>","null","","","","","","","","","","","","","","","","","","","","","","","",""
"","break","178","476369","0.0-98.0-0.0","""event"",""trial"",""time""
""fullscreenenter"",""0"",""2145""
","
","
","""event"",""trial"",""time""
""fullscreenenter"",""0"",""2145""
","
","853.6000000005588","<div class='center'><p>Time to take a quick break! You have 2 minutes to rest, but you can move on sooner if you'd like.</p><p> Press the <b>space bar</b> to continue.</p></div>","32","","","","","","","","","","","","","","","","","","","","","","","",""
"","do_trial","179","479686","0.0-98.0-1.0","""event"",""trial"",""time""
""fullscreenenter"",""0"",""2145""
","
","
","""event"",""trial"",""time""
""fullscreenenter"",""0"",""2145""
","
","758.2000000001863","","","","","","","","51","0,1,0","6","blank","309","null","0.4105618210813934","0.5212066706082957","0.2614159779217352","0","","","","","","","","",""
"","html-keyboard-response","180","480693","0.0-98.0-2.0","""event"",""trial"",""time""
""fullscreenenter"",""0"",""2145""
","
","
","""event"",""trial"",""time""
""fullscreenenter"",""0"",""2145""
","
","null","<p></p>","null","","","","","","","","","","","","","","","","","","","","","","","",""
"","do_trial","181","483479","0.0-99.0-0.0","""event"",""trial"",""time""
""fullscreenenter"",""0"",""2145""
","
","
","""event"",""trial"",""time""
""fullscreenenter"",""0"",""2145""
","
","238.29999999981374","","","","","","","","51","0,1,1","6","blank","310","null","0.49990527325310896","0.616177301191035","0.2866028844656557","1","","","","","","","","",""
"","html-keyboard-response","182","484486","0.0-99.0-1.0","""event"",""trial"",""time""
""fullscreenenter"",""0"",""2145""
","
","
","""event"",""trial"",""time""
""fullscreenenter"",""0"",""2145""
","
","null","<p></p>","null","","","","","","","","","","","","","","","","","","","","","","","",""
"","do_trial","183","487413","0.0-100.0-0.0","""event"",""trial"",""time""
""fullscreenenter"",""0"",""2145""
","
","
","""event"",""trial"",""time""
""fullscreenenter"",""0"",""2145""
","
","372.59999999962747","","","","","","","","51","1,1,1","6","blank","311","null","0.5065248420812468","0.609073902112037","0.27765647977747393","1","","","","","","","","",""
"","html-keyboard-response","184","488419","0.0-100.0-1.0","""event"",""trial"",""time""
""fullscreenenter"",""0"",""2145""
","
","
","""event"",""trial"",""time""
""fullscreenenter"",""0"",""2145""
","
","null","<p></p>","null","","","","","","","","","","","","","","","","","","","","","","","",""
"","do_recog","185","491825","0.0-101.0-0.0","""event"",""trial"",""time""
""fullscreenenter"",""0"",""2145""
","
","
","""event"",""trial"",""time""
""fullscreenenter"",""0"",""2145""
","
","1891.5","","","","","","","","54","","","","312","probe-203","","","","","1","[object Object]","191","4","1","","","",""
"","html-keyboard-response","186","492832","0.0-101.0-1.0","""event"",""trial"",""time""
""fullscreenenter"",""0"",""2145""
","
","
","""event"",""trial"",""time""
""fullscreenenter"",""0"",""2145""
","
","null","<p></p>","null","","","","","","","","","","","","","","","","","","","","","","","",""
"","do_trial","187","495746","0.0-102.0-0.0","""event"",""trial"",""time""
""fullscreenenter"",""0"",""2145""
","
","
","""event"",""trial"",""time""
""fullscreenenter"",""0"",""2145""
","
","358.90000000037253","","","","","","","","51","1,0,1","6","blank","313","null","0.38764857585259954","0.4593171792608386","0.09909940125957287","1","","","","","","","","",""
"","html-keyboard-response","188","496753","0.0-102.0-1.0","""event"",""trial"",""time""
""fullscreenenter"",""0"",""2145""
","
","
","""event"",""trial"",""time""
""fullscreenenter"",""0"",""2145""
","
","null","<p></p>","null","","","","","","","","","","","","","","","","","","","","","","","",""
"","do_trial","189","499693","0.0-103.0-0.0","""event"",""trial"",""time""
""fullscreenenter"",""0"",""2145""
","
","
","""event"",""trial"",""time""
""fullscreenenter"",""0"",""2145""
","
","385.79999999981374","","","","","","","","51","0,0,1","6","blank","314","null","0.2687229604280196","0.39113789288694867","0.1922052043412954","1","","","","","","","","",""
"","html-keyboard-response","190","500701","0.0-103.0-1.0","""event"",""trial"",""time""
""fullscreenenter"",""0"",""2145""
","
","
","""event"",""trial"",""time""
""fullscreenenter"",""0"",""2145""
","
","null","<p></p>","null","","","","","","","","","","","","","","","","","","","","","","","",""
"","do_trial","191","503675","0.0-104.0-0.0","""event"",""trial"",""time""
""fullscreenenter"",""0"",""2145""
","
","
","""event"",""trial"",""time""
""fullscreenenter"",""0"",""2145""
","
","431.40000000037253","","","","","","","","51","1,0,1","6","blank","315","null","0.281265493583445","0.5229918441521499","0.1474457669299787","1","","","","","","","","",""
"","html-keyboard-response","192","504681","0.0-104.0-1.0","""event"",""trial"",""time""
""fullscreenenter"",""0"",""2145""
","
","
","""event"",""trial"",""time""
""fullscreenenter"",""0"",""2145""
","
","null","<p></p>","null","","","","","","","","","","","","","","","","","","","","","","","",""
"","do_trial","193","507808","0.0-105.0-0.0","""event"",""trial"",""time""
""fullscreenenter"",""0"",""2145""
","
","
","""event"",""trial"",""time""
""fullscreenenter"",""0"",""2145""
","
","570.7000000001863","","","","","","","","51","0,0,0","6","blank","316","null","0.14546923071411652","0.45448250087527053","0.18631614115122339","0","","","","","","","","",""
"","html-keyboard-response","194","508814","0.0-105.0-1.0","""event"",""trial"",""time""
""fullscreenenter"",""0"",""2145""
","
","
","""event"",""trial"",""time""
""fullscreenenter"",""0"",""2145""
","
","null","<p></p>","null","","","","","","","","","","","","","","","","","","","","","","","",""
"","do_trial","195","511703","0.0-106.0-0.0","""event"",""trial"",""time""
""fullscreenenter"",""0"",""2145""
","
","
","""event"",""trial"",""time""
""fullscreenenter"",""0"",""2145""
","
","332.5","","","","","","","","50","1,1,0","6","blank","317","null","0.2763525847964136","0.48885332832896355","0.06540079969216236","1","","","","","","","","",""
"","html-keyboard-response","196","512711","0.0-106.0-1.0","""event"",""trial"",""time""
""fullscreenenter"",""0"",""2145""
","
","
","""event"",""trial"",""time""
""fullscreenenter"",""0"",""2145""
","
","null","<p></p>","null","","","","","","","","","","","","","","","","","","","","","","","",""
"","do_trial","197","515267","0.0-107.0-0.0","""event"",""trial"",""time""
""fullscreenenter"",""0"",""2145""
","
","
","""event"",""trial"",""time""
""fullscreenenter"",""0"",""2145""
","
","0","","","","","","","","50","1,1,0","6","blank","318","null","0.28991454721755266","0.5381137119883986","0.050814117756438404","1","","","","","","","","",""
"","html-keyboard-response","198","516274","0.0-107.0-1.0","""event"",""trial"",""time""
""fullscreenenter"",""0"",""2145""
","
","
","""event"",""trial"",""time""
""fullscreenenter"",""0"",""2145""
","
","null","<p></p>","null","","","","","","","","","","","","","","","","","","","","","","","",""
"","do_trial","199","519383","0.0-108.0-0.0","""event"",""trial"",""time""
""fullscreenenter"",""0"",""2145""
","
","
","""event"",""trial"",""time""
""fullscreenenter"",""0"",""2145""
","
","552.3999999994412","","","","","","","","50","0,0,0","6","blank","319","null","0.24831176681270486","0.6504548227817784","0.10642255240927254","0","","","","","","","","",""
"","html-keyboard-response","200","520390","0.0-108.0-1.0","""event"",""trial"",""time""
""fullscreenenter"",""0"",""2145""
","
","
","""event"",""trial"",""time""
""fullscreenenter"",""0"",""2145""
","
","null","<p></p>","null","","","","","","","","","","","","","","","","","","","","","","","",""
"","do_recog","201","523737","0.0-109.0-0.0","""event"",""trial"",""time""
""fullscreenenter"",""0"",""2145""
","
","
","""event"",""trial"",""time""
""fullscreenenter"",""0"",""2145""
","
","1837.7000000001863","","","","","","","","53","","","","320","probe-193","","","","","1","[object Object]","72","1","1","","","",""
"","html-keyboard-response","202","524744","0.0-109.0-1.0","""event"",""trial"",""time""
""fullscreenenter"",""0"",""2145""
","
","
","""event"",""trial"",""time""
""fullscreenenter"",""0"",""2145""
","
","null","<p></p>","null","","","","","","","","","","","","","","","","","","","","","","","",""
"","do_trial","203","527846","0.0-110.0-0.0","""event"",""trial"",""time""
""fullscreenenter"",""0"",""2145""
","
","
","""event"",""trial"",""time""
""fullscreenenter"",""0"",""2145""
","
","544","","","","","","","","50","1,1,0","6","blank","321","null","0.3267424692368408","0.5255815756396338","0.1229674438051929","1","","","","","","","","",""
"","html-keyboard-response","204","528848","0.0-110.0-1.0","""event"",""trial"",""time""
""fullscreenenter"",""0"",""2145""
","
","
","""event"",""trial"",""time""
""fullscreenenter"",""0"",""2145""
","
","null","<p></p>","null","","","","","","","","","","","","","","","","","","","","","","","",""
"","do_trial","205","531944","0.0-111.0-0.0","""event"",""trial"",""time""
""fullscreenenter"",""0"",""2145""
","
","
","""event"",""trial"",""time""
""fullscreenenter"",""0"",""2145""
","
","539.2999999998137","","","","","","","","50","1,0,0","6","blank","322","null","0.4371103066030196","0.7047027119693523","0.0935443204401173","0","","","","","","","","",""
"","html-keyboard-response","206","532951","0.0-111.0-1.0","""event"",""trial"",""time""
""fullscreenenter"",""0"",""2145""
","
","
","""event"",""trial"",""time""
""fullscreenenter"",""0"",""2145""
","
","null","<p></p>","null","","","","","","","","","","","","","","","","","","","","","","","",""
"","do_trial","207","536362","0.0-112.0-0.0","""event"",""trial"",""time""
""fullscreenenter"",""0"",""2145""
","
","
","""event"",""trial"",""time""
""fullscreenenter"",""0"",""2145""
","
","855.5999999996275","","","","","","","","50","0,0,0","6","blank","323","null","0.34698023035173253","0.46075752818401217","0.16424132290945959","0","","","","","","","","",""
"","html-keyboard-response","208","537368","0.0-112.0-1.0","""event"",""trial"",""time""
""fullscreenenter"",""0"",""2145""
","
","
","""event"",""trial"",""time""
""fullscreenenter"",""0"",""2145""
","
","null","<p></p>","null","","","","","","","","","","","","","","","","","","","","","","","",""
"","do_trial","209","540570","0.0-113.0-0.0","""event"",""trial"",""time""
""fullscreenenter"",""0"",""2145""
","
","
","""event"",""trial"",""time""
""fullscreenenter"",""0"",""2145""
","
","648.1999999992549","","","","","","","","51","0,0,0","6","blank","324","null","0.2183982497401669","0.5215015345899335","0.08369927599449174","0","","","","","","","","",""
"","html-keyboard-response","210","541574","0.0-113.0-1.0","""event"",""trial"",""time""
""fullscreenenter"",""0"",""2145""
","
","
","""event"",""trial"",""time""
""fullscreenenter"",""0"",""2145""
","
","null","<p></p>","null","","","","","","","","","","","","","","","","","","","","","","","",""
"","do_trial","211","544656","0.0-114.0-0.0","""event"",""trial"",""time""
""fullscreenenter"",""0"",""2145""
","
","
","""event"",""trial"",""time""
""fullscreenenter"",""0"",""2145""
","
","526.2999999998137","","","","","","","","49","0,1,1","6","blank","325","null","0.2170758396967159","0.5994606726258627","0.17379039750813263","0","","","","","","","","",""
"","html-keyboard-response","212","545664","0.0-114.0-1.0","""event"",""trial"",""time""
""fullscreenenter"",""0"",""2145""
","
","
","""event"",""trial"",""time""
""fullscreenenter"",""0"",""2145""
","
","null","<p></p>","null","","","","","","","","","","","","","","","","","","","","","","","",""
"","do_trial","213","548601","0.0-115.0-0.0","""event"",""trial"",""time""
""fullscreenenter"",""0"",""2145""
","
","
","""event"",""trial"",""time""
""fullscreenenter"",""0"",""2145""
","
","379.1000000005588","","","","","","","","50","1,0,0","6","blank","326","null","0.34533195926584825","0.5447399195419498","0.13814825480398057","0","","","","","","","","",""
"","html-keyboard-response","214","549608","0.0-115.0-1.0","""event"",""trial"",""time""
""fullscreenenter"",""0"",""2145""
","
","
","""event"",""trial"",""time""
""fullscreenenter"",""0"",""2145""
","
","null","<p></p>","null","","","","","","","","","","","","","","","","","","","","","","","",""
"","do_recog","215","552424","0.0-116.0-0.0","""event"",""trial"",""time""
""fullscreenenter"",""0"",""2145""
","
","
","""event"",""trial"",""time""
""fullscreenenter"",""0"",""2145""
","
","1300.7000000001863","","","","","","","","53","","","","327","probe-134","","","","","1","[object Object]","75","1","1","","","",""
"","html-keyboard-response","216","553431","0.0-116.0-1.0","""event"",""trial"",""time""
""fullscreenenter"",""0"",""2145""
","
","
","""event"",""trial"",""time""
""fullscreenenter"",""0"",""2145""
","
","null","<p></p>","null","","","","","","","","","","","","","","","","","","","","","","","",""
"","do_trial","217","556281","0.0-117.0-0.0","""event"",""trial"",""time""
""fullscreenenter"",""0"",""2145""
","
","
","""event"",""trial"",""time""
""fullscreenenter"",""0"",""2145""
","
","295.79999999981374","","","","","","","","51","0,1,0","6","blank","328","null","0.2869884306363034","0.5645021587766295","0.09471226575975575","0","","","","","","","","",""
"","html-keyboard-response","218","557288","0.0-117.0-1.0","""event"",""trial"",""time""
""fullscreenenter"",""0"",""2145""
","
","
","""event"",""trial"",""time""
""fullscreenenter"",""0"",""2145""
","
","null","<p></p>","null","","","","","","","","","","","","","","","","","","","","","","","",""
"","do_trial","219","560133","0.0-118.0-0.0","""event"",""trial"",""time""
""fullscreenenter"",""0"",""2145""
","
","
","""event"",""trial"",""time""
""fullscreenenter"",""0"",""2145""
","
","291.59999999962747","","","","","","","","51","0,1,0","6","blank","329","null","0.32415593851343916","0.6634070699097635","0.2142128223580192","0","","","","","","","","",""
"","html-keyboard-response","220","561141","0.0-118.0-1.0","""event"",""trial"",""time""
""fullscreenenter"",""0"",""2145""
","
","
","""event"",""trial"",""time""
""fullscreenenter"",""0"",""2145""
","
","null","<p></p>","null","","","","","","","","","","","","","","","","","","","","","","","",""
"","do_recog","221","564739","0.0-119.0-0.0","""event"",""trial"",""time""
""fullscreenenter"",""0"",""2145""
","
","
","""event"",""trial"",""time""
""fullscreenenter"",""0"",""2145""
","
","2086.5","","","","","","","","53","","","","330","probe-146","","","","","1","[object Object]","36","0","1","","","",""
"","html-keyboard-response","222","565742","0.0-119.0-1.0","""event"",""trial"",""time""
""fullscreenenter"",""0"",""2145""
","
","
","""event"",""trial"",""time""
""fullscreenenter"",""0"",""2145""
","
","null","<p></p>","null","","","","","","","","","","","","","","","","","","","","","","","",""
"","do_trial","223","569143","0.0-120.0-0.0","""event"",""trial"",""time""
""fullscreenenter"",""0"",""2145""
","
","
","""event"",""trial"",""time""
""fullscreenenter"",""0"",""2145""
","
","851.5999999996275","","","","","","","","50","0,1,1","6","blank","331","null","0.27486586320721684","0.6612268750828783","0.20385480123693517","1","","","","","","","","",""
"","html-keyboard-response","224","570150","0.0-120.0-1.0","""event"",""trial"",""time""
""fullscreenenter"",""0"",""2145""
","
","
","""event"",""trial"",""time""
""fullscreenenter"",""0"",""2145""
","
","null","<p></p>","null","","","","","","","","","","","","","","","","","","","","","","","",""
"","do_trial","225","573366","0.0-121.0-0.0","""event"",""trial"",""time""
""fullscreenenter"",""0"",""2145""
","
","
","""event"",""trial"",""time""
""fullscreenenter"",""0"",""2145""
","
","661.7999999998137","","","","","","","","51","0,0,0","6","blank","332","null","0.27512539871502983","0.5552776448951773","0.15507285358197412","0","","","","","","","","",""
"","html-keyboard-response","226","574374","0.0-121.0-1.0","""event"",""trial"",""time""
""fullscreenenter"",""0"",""2145""
","
","
","""event"",""trial"",""time""
""fullscreenenter"",""0"",""2145""
","
","null","<p></p>","null","","","","","","","","","","","","","","","","","","","","","","","",""
"","do_recog","227","577298","0.0-122.0-0.0","""event"",""trial"",""time""
""fullscreenenter"",""0"",""2145""
","
","
","""event"",""trial"",""time""
""fullscreenenter"",""0"",""2145""
","
","1412.3999999994412","","","","","","","","54","","","","333","probe-251","","","","","0","[object Object]","null","null","0","","","",""
"","html-keyboard-response","228","578305","0.0-122.0-1.0","""event"",""trial"",""time""
""fullscreenenter"",""0"",""2145""
","
","
","""event"",""trial"",""time""
""fullscreenenter"",""0"",""2145""
","
","null","<p></p>","null","","","","","","","","","","","","","","","","","","","","","","","",""
"","do_trial","229","581178","0.0-123.0-0.0","""event"",""trial"",""time""
""fullscreenenter"",""0"",""2145""
","
","
","""event"",""trial"",""time""
""fullscreenenter"",""0"",""2145""
","
","326.80000000074506","","","","","","","","50","0,0,0","6","blank","334","null","0.19558565106280512","0.6072694865561369","0.1190203886830449","0","","","","","","","","",""
"","html-keyboard-response","230","582183","0.0-123.0-1.0","""event"",""trial"",""time""
""fullscreenenter"",""0"",""2145""
","
","
","""event"",""trial"",""time""
""fullscreenenter"",""0"",""2145""
","
","null","<p></p>","null","","","","","","","","","","","","","","","","","","","","","","","",""
"","do_trial","231","585014","0.0-124.0-0.0","""event"",""trial"",""time""
""fullscreenenter"",""0"",""2145""
","
","
","""event"",""trial"",""time""
""fullscreenenter"",""0"",""2145""
","
","274.59999999962747","","","","","","","","50","0,1,0","6","blank","335","null","0.13282490357747717","0.5972060828654447","0.07220684061624782","1","","","","","","","","",""
"","html-keyboard-response","232","586022","0.0-124.0-1.0","""event"",""trial"",""time""
""fullscreenenter"",""0"",""2145""
","
","
","""event"",""trial"",""time""
""fullscreenenter"",""0"",""2145""
","
","null","<p></p>","null","","","","","","","","","","","","","","","","","","","","","","","",""
"","do_trial","233","588970","0.0-125.0-0.0","""event"",""trial"",""time""
""fullscreenenter"",""0"",""2145""
","
","
","""event"",""trial"",""time""
""fullscreenenter"",""0"",""2145""
","
","399.5","","","","","","","","50","0,1,0","6","blank","336","null","0.1077370027856581","0.596213148309612","0.11597731678466139","1","","","","","","","","",""
"","html-keyboard-response","234","589977","0.0-125.0-1.0","""event"",""trial"",""time""
""fullscreenenter"",""0"",""2145""
","
","
","""event"",""trial"",""time""
""fullscreenenter"",""0"",""2145""
","
","null","<p></p>","null","","","","","","","","","","","","","","","","","","","","","","","",""
"","do_recog","235","593174","0.0-126.0-0.0","""event"",""trial"",""time""
""fullscreenenter"",""0"",""2145""
","
","
","""event"",""trial"",""time""
""fullscreenenter"",""0"",""2145""
","
","1688.4000000003725","","","","","","","","54","","","","337","probe-33","","","","","1","[object Object]","33","0","1","","","",""
"","html-keyboard-response","236","594178","0.0-126.0-1.0","""event"",""trial"",""time""
""fullscreenenter"",""0"",""2145""
","
","
","""event"",""trial"",""time""
""fullscreenenter"",""0"",""2145""
","
","null","<p></p>","null","","","","","","","","","","","","","","","","","","","","","","","",""
"","do_trial","237","597042","0.0-127.0-0.0","""event"",""trial"",""time""
""fullscreenenter"",""0"",""2145""
","
","
","""event"",""trial"",""time""
""fullscreenenter"",""0"",""2145""
","
","307.09999999962747","","","","","","","","51","0,1,0","6","blank","338","null","0.2764848292352861","0.6578901799762731","0.13333075101563263","0","","","","","","","","",""
"","html-keyboard-response","238","598049","0.0-127.0-1.0","""event"",""trial"",""time""
""fullscreenenter"",""0"",""2145""
","
","
","""event"",""trial"",""time""
""fullscreenenter"",""0"",""2145""
","
","null","<p></p>","null","","","","","","","","","","","","","","","","","","","","","","","",""
"","do_recog","239","601104","0.0-128.0-0.0","""event"",""trial"",""time""
""fullscreenenter"",""0"",""2145""
","
","
","""event"",""trial"",""time""
""fullscreenenter"",""0"",""2145""
","
","1542.5999999996275","","","","","","","","53","","","","339","probe-229","","","","","1","[object Object]","116","2","1","","","",""
"","html-keyboard-response","240","602111","0.0-128.0-1.0","""event"",""trial"",""time""
""fullscreenenter"",""0"",""2145""
","
","
","""event"",""trial"",""time""
""fullscreenenter"",""0"",""2145""
","
","null","<p></p>","null","","","","","","","","","","","","","","","","","","","","","","","",""
"","do_trial","241","605123","0.0-129.0-0.0","""event"",""trial"",""time""
""fullscreenenter"",""0"",""2145""
","
","
","""event"",""trial"",""time""
""fullscreenenter"",""0"",""2145""
","
","455.90000000037253","","","","","","","","49","0,1,0","6","blank","340","null","0.32269738631660894","0.6192694542356335","0.38148474956845163","0","","","","","","","","",""
"","html-keyboard-response","242","606125","0.0-129.0-1.0","""event"",""trial"",""time""
""fullscreenenter"",""0"",""2145""
","
","
","""event"",""trial"",""time""
""fullscreenenter"",""0"",""2145""
","
","null","<p></p>","null","","","","","","","","","","","","","","","","","","","","","","","",""
"","do_trial","243","609037","0.0-130.0-0.0","""event"",""trial"",""time""
""fullscreenenter"",""0"",""2145""
","
","
","""event"",""trial"",""time""
""fullscreenenter"",""0"",""2145""
","
","356.09999999962747","","","","","","","","51","0,0,0","6","blank","341","null","0.3817877105066904","0.7225515797219026","0.18669067586705976","0","","","","","","","","",""
"","html-keyboard-response","244","610044","0.0-130.0-1.0","""event"",""trial"",""time""
""fullscreenenter"",""0"",""2145""
","
","
","""event"",""trial"",""time""
""fullscreenenter"",""0"",""2145""
","
","null","<p></p>","null","","","","","","","","","","","","","","","","","","","","","","","",""
"","do_trial","245","612913","0.0-131.0-0.0","""event"",""trial"",""time""
""fullscreenenter"",""0"",""2145""
","
","
","""event"",""trial"",""time""
""fullscreenenter"",""0"",""2145""
","
","308.40000000037253","","","","","","","","50","1,0,1","6","blank","342","null","0.27789384084223306","0.6289374239211588","0.09370721018186695","0","","","","","","","","",""
"","html-keyboard-response","246","613920","0.0-131.0-1.0","""event"",""trial"",""time""
""fullscreenenter"",""0"",""2145""
","
","
","""event"",""trial"",""time""
""fullscreenenter"",""0"",""2145""
","
","null","<p></p>","null","","","","","","","","","","","","","","","","","","","","","","","",""
"","do_trial","247","616906","0.0-132.0-0.0","""event"",""trial"",""time""
""fullscreenenter"",""0"",""2145""
","
","
","""event"",""trial"",""time""
""fullscreenenter"",""0"",""2145""
","
","421","","","","","","","","51","0,0,1","6","blank","343","null","0.4040571558396709","0.5617745029799304","0.2146807691366199","1","","","","","","","","",""
"","html-keyboard-response","248","617913","0.0-132.0-1.0","""event"",""trial"",""time""
""fullscreenenter"",""0"",""2145""
","
","
","""event"",""trial"",""time""
""fullscreenenter"",""0"",""2145""
","
","null","<p></p>","null","","","","","","","","","","","","","","","","","","","","","","","",""
"","do_trial","249","620867","0.0-133.0-0.0","""event"",""trial"",""time""
""fullscreenenter"",""0"",""2145""
","
","
","""event"",""trial"",""time""
""fullscreenenter"",""0"",""2145""
","
","398.70000000018626","","","","","","","","51","0,1,0","6","blank","344","null","0.44718519267118273","0.5171541225148246","0.3012568740210027","0","","","","","","","","",""
"","html-keyboard-response","250","621874","0.0-133.0-1.0","""event"",""trial"",""time""
""fullscreenenter"",""0"",""2145""
","
","
","""event"",""trial"",""time""
""fullscreenenter"",""0"",""2145""
","
","null","<p></p>","null","","","","","","","","","","","","","","","","","","","","","","","",""
"","do_recog","251","624681","0.0-134.0-0.0","""event"",""trial"",""time""
""fullscreenenter"",""0"",""2145""
","
","
","""event"",""trial"",""time""
""fullscreenenter"",""0"",""2145""
","
","1295.7999999998137","","","","","","","","53","","","","345","probe-64","","","","","1","[object Object]","112","2","1","","","",""
"","html-keyboard-response","252","625684","0.0-134.0-1.0","""event"",""trial"",""time""
""fullscreenenter"",""0"",""2145""
","
","
","""event"",""trial"",""time""
""fullscreenenter"",""0"",""2145""
","
","null","<p></p>","null","","","","","","","","","","","","","","","","","","","","","","","",""
"","do_trial","253","628575","0.0-135.0-0.0","""event"",""trial"",""time""
""fullscreenenter"",""0"",""2145""
","
","
","""event"",""trial"",""time""
""fullscreenenter"",""0"",""2145""
","
","331.40000000037253","","","","","","","","49","0,1,1","6","blank","346","null","0.2833057189654727","0.4627732775722282","0.2803890231208949","0","","","","","","","","",""
"","html-keyboard-response","254","629580","0.0-135.0-1.0","""event"",""trial"",""time""
""fullscreenenter"",""0"",""2145""
","
","
","""event"",""trial"",""time""
""fullscreenenter"",""0"",""2145""
","
","null","<p></p>","null","","","","","","","","","","","","","","","","","","","","","","","",""
"","do_recog","255","632650","0.0-136.0-0.0","""event"",""trial"",""time""
""fullscreenenter"",""0"",""2145""
","
","
","""event"",""trial"",""time""
""fullscreenenter"",""0"",""2145""
","
","1558.8999999994412","","","","","","","","54","","","","347","probe-132","","","","","1","[object Object]","150","3","1","","","",""
"","html-keyboard-response","256","633657","0.0-136.0-1.0","""event"",""trial"",""time""
""fullscreenenter"",""0"",""2145""
","
","
","""event"",""trial"",""time""
""fullscreenenter"",""0"",""2145""
","
","null","<p></p>","null","","","","","","","","","","","","","","","","","","","","","","","",""
"","do_trial","257","636608","0.0-137.0-0.0","""event"",""trial"",""time""
""fullscreenenter"",""0"",""2145""
","
","
","""event"",""trial"",""time""
""fullscreenenter"",""0"",""2145""
","
","397.90000000037253","","","","","","","","49","0,0,0","6","blank","348","null","0.26428255380240523","0.3052360232147591","0.41238187476055466","0","","","","","","","","",""
"","html-keyboard-response","258","637614","0.0-137.0-1.0","""event"",""trial"",""time""
""fullscreenenter"",""0"",""2145""
","
","
","""event"",""trial"",""time""
""fullscreenenter"",""0"",""2145""
","
","null","<p></p>","null","","","","","","","","","","","","","","","","","","","","","","","",""
"","break","259","638520","0.0-138.0-0.0","""event"",""trial"",""time""
""fullscreenenter"",""0"",""2145""
","
","
","""event"",""trial"",""time""
""fullscreenenter"",""0"",""2145""
","
","904.1000000005588","<div class='center'><p>Time to take a quick break! You have 2 minutes to rest, but you can move on sooner if you'd like.</p><p> Press the <b>space bar</b> to continue.</p></div>","32","","","","","","","","","","","","","","","","","","","","","","","",""
"","do_recog","260","642074","0.0-138.0-1.0","""event"",""trial"",""time""
""fullscreenenter"",""0"",""2145""
","
","
","""event"",""trial"",""time""
""fullscreenenter"",""0"",""2145""
","
","2039.2999999998137","","","","","","","","54","","","","349","probe-80","","","","","1","[object Object]","77","1","1","","","",""
"","html-keyboard-response","261","643081","0.0-138.0-2.0","""event"",""trial"",""time""
""fullscreenenter"",""0"",""2145""
","
","
","""event"",""trial"",""time""
""fullscreenenter"",""0"",""2145""
","
","null","<p></p>","null","","","","","","","","","","","","","","","","","","","","","","","",""
"","do_trial","262","646137","0.0-139.0-0.0","""event"",""trial"",""time""
""fullscreenenter"",""0"",""2145""
","
","
","""event"",""trial"",""time""
""fullscreenenter"",""0"",""2145""
","
","499.59999999962747","","","","","","","","50","0,0,0","6","blank","350","null","0.1580854041361014","0.22222907761021343","0.578846046230657","0","","","","","","","","",""
"","html-keyboard-response","263","647144","0.0-139.0-1.0","""event"",""trial"",""time""
""fullscreenenter"",""0"",""2145""
","
","
","""event"",""trial"",""time""
""fullscreenenter"",""0"",""2145""
","
","null","<p></p>","null","","","","","","","","","","","","","","","","","","","","","","","",""
"","do_trial","264","649966","0.0-140.0-0.0","""event"",""trial"",""time""
""fullscreenenter"",""0"",""2145""
","
","
","""event"",""trial"",""time""
""fullscreenenter"",""0"",""2145""
","
","266.5","","","","","","","","51","0,1,0","6","blank","351","null","0.11978380062323986","0.22798456910390918","0.5348511089153903","0","","","","","","","","",""
"","html-keyboard-response","265","650973","0.0-140.0-1.0","""event"",""trial"",""time""
""fullscreenenter"",""0"",""2145""
","
","
","""event"",""trial"",""time""
""fullscreenenter"",""0"",""2145""
","
","null","<p></p>","null","","","","","","","","","","","","","","","","","","","","","","","",""
"","do_recog","266","654492","0.0-141.0-0.0","""event"",""trial"",""time""
""fullscreenenter"",""0"",""2145""
","
","
","""event"",""trial"",""time""
""fullscreenenter"",""0"",""2145""
","
","2006","","","","","","","","55","","","","352","probe-111","","","","","1","[object Object]","159","3","0","","","",""
"","html-keyboard-response","267","655499","0.0-141.0-1.0","""event"",""trial"",""time""
""fullscreenenter"",""0"",""2145""
","
","
","""event"",""trial"",""time""
""fullscreenenter"",""0"",""2145""
","
","null","<p></p>","null","","","","","","","","","","","","","","","","","","","","","","","",""
"","do_trial","268","658392","0.0-142.0-0.0","""event"",""trial"",""time""
""fullscreenenter"",""0"",""2145""
","
","
","""event"",""trial"",""time""
""fullscreenenter"",""0"",""2145""
","
","325.79999999981374","","","","","","","","51","0,0,1","6","blank","353","null","0.0635965617768798","0.1984090502122728","0.5349173532901927","1","","","","","","","","",""
"","html-keyboard-response","269","659395","0.0-142.0-1.0","""event"",""trial"",""time""
""fullscreenenter"",""0"",""2145""
","
","
","""event"",""trial"",""time""
""fullscreenenter"",""0"",""2145""
","
","null","<p></p>","null","","","","","","","","","","","","","","","","","","","","","","","",""
"","do_trial","270","662324","0.0-143.0-0.0","""event"",""trial"",""time""
""fullscreenenter"",""0"",""2145""
","
","
","""event"",""trial"",""time""
""fullscreenenter"",""0"",""2145""
","
","377.59999999962747","","","","","","","","51","0,0,1","6","blank","354","null","0.056150709016310335","0.23569156122452836","0.6048254989989696","1","","","","","","","","",""
"","html-keyboard-response","271","663329","0.0-143.0-1.0","""event"",""trial"",""time""
""fullscreenenter"",""0"",""2145""
","
","
","""event"",""trial"",""time""
""fullscreenenter"",""0"",""2145""
","
","null","<p></p>","null","","","","","","","","","","","","","","","","","","","","","","","",""
"","do_trial","272","666225","0.0-144.0-0.0","""event"",""trial"",""time""
""fullscreenenter"",""0"",""2145""
","
","
","""event"",""trial"",""time""
""fullscreenenter"",""0"",""2145""
","
","338","","","","","","","","51","0,0,1","6","blank","355","null","0.1454396482359586","0.18734851850127027","0.7955391626521349","1","","","","","","","","",""
"","html-keyboard-response","273","667233","0.0-144.0-1.0","""event"",""trial"",""time""
""fullscreenenter"",""0"",""2145""
","
","
","""event"",""trial"",""time""
""fullscreenenter"",""0"",""2145""
","
","null","<p></p>","null","","","","","","","","","","","","","","","","","","","","","","","",""
"","do_trial","274","670263","0.0-145.0-0.0","""event"",""trial"",""time""
""fullscreenenter"",""0"",""2145""
","
","
","""event"",""trial"",""time""
""fullscreenenter"",""0"",""2145""
","
","482.29999999981374","","","","","","","","51","0,0,0","6","blank","356","null","0.08976995270953368","0.24953031465411238","0.6646726300020258","0","","","","","","","","",""
"","html-keyboard-response","275","671271","0.0-145.0-1.0","""event"",""trial"",""time""
""fullscreenenter"",""0"",""2145""
","
","
","""event"",""trial"",""time""
""fullscreenenter"",""0"",""2145""
","
","null","<p></p>","null","","","","","","","","","","","","","","","","","","","","","","","",""
"","do_recog","276","674282","0.0-146.0-0.0","""event"",""trial"",""time""
""fullscreenenter"",""0"",""2145""
","
","
","""event"",""trial"",""time""
""fullscreenenter"",""0"",""2145""
","
","1497.5999999996275","","","","","","","","53","","","","357","probe-135","","","","","1","[object Object]","156","3","1","","","",""
"","html-keyboard-response","277","675287","0.0-146.0-1.0","""event"",""trial"",""time""
""fullscreenenter"",""0"",""2145""
","
","
