"success","trial_type","trial_index","time_elapsed","internal_node_id","rt","stimulus","key_press","subject_id","participant_id","age","gender","prompt","response","choice_outcomes","context_n","context_img_id","trial_n","probe_img_id","pR_red","pR_white","pR_black","outcome","is_valid","image_to_show","probed_trial","probed_context","correct","probe","probed_trial_n","probed_context_n","context_im"
"true","fullscreen","0","1956","0.0-0.0","","","","","","","","","","","","","","","","","","","","","","","","","","",""
"","pavlovia","1","1960","0.0-1.0","","","","","","","","","","","","","","","","","","","","","","","","","","",""
"","welc_back","2","14641","0.0-2.0","null","run_exp/static/audio/clip_29_welcome_back.m4a","null","36","5","8","male","<div class='center'><p>Welcome to day 2!</p><p> Yesterday, you were the head captain of a pirate ship. You and your fellow pirates robbed ships for their gold and traveled to six different islands .</p></div>","","","","","","","","","","","","","","","","","","",""
"","html-keyboard-response","3","15594","0.0-3.0","952.5100000319071","<div class='center'><p>Welcome to day 2!</p><p> Yesterday, you were the head captain of a pirate ship. You and your fellow pirates robbed ships for their gold and traveled to six different islands .</p><p><b>[Press the space bar to continue]</b></p></div>","32","","","","","","","","","","","","","","","","","","","","","","","",""
"","day_1_summary_goal","4","35562","0.0-4.0","null","run_exp/static/audio/clip_30_goal_of_game.m4a","null","","","","","<div class='center'><p>Today, like yesterday, you get to pick which pirate you want to rob the next ship.</p><p>If the pirate is successful in robbing a ship, you get gold coins that look like this: </p><p><img src='run_exp/static/images/tutorial/reward.png' height='150'></p><p> If they were not successful in robbing the ship, then you will get no gold coins and you'll see a big red x like this: </p><p><img src='run_exp/static/images/tutorial/reward_no.png' height='150'></p></div>","","","","","","","","","","","","","","","","","","",""
"","html-keyboard-response","5","82721","0.0-5.0","47158.40499999467","<div class='center'><p>Today, like yesterday, you get to pick which pirate you want to rob the next ship.</p><p>If the pirate is successful in robbing a ship, you get gold coins that look like this: </p><p><img src='run_exp/static/images/tutorial/reward.png' height='150'></p><p> If they were not successful in robbing the ship, then you will get no gold coins and you'll see a big red x like this: </p><p><img src='run_exp/static/images/tutorial/reward_no.png' height='150'></p><p><b>[Press the space bar to continue]</b></p></div>","32","","","","","","","","","","","","","","","","","","","","","","","",""
"","day_1_summary_pick","6","100542","0.0-6.0","null","run_exp/static/audio/clip_31_how_to_pick_a_pirate.m4a","null","","","","","<div class='center'><p>Also, just like yesterday, you will use the 1,2,3 keys on your keyboard to pick a pirate. Press '1' to choose red beard, '2' to choose white beard, and '3' to choose black beard . You only have 3 seconds to pick a pirate, so please make a choice quickly!</p></div>","","","","","","","","","","","","","","","","","","",""
"","html-keyboard-response","7","102191","0.0-7.0","1647.9249999974854","<div class='center'><p>Also, just like yesterday, you will use the 1,2,3 keys on your keyboard to pick a pirate. Press '1' to choose red beard, '2' to choose white beard, and '3' to choose black beard . You only have 3 seconds to pick a pirate, so please make a choice quickly!</p><p><b>[Press the space bar to continue]</b></p></div>","32","","","","","","","","","","","","","","","","","","","","","","","",""
"","test_phase_begin","8","126652","0.0-8.0","null","run_exp/static/audio/clip_32_final_place.m4a","null","","","","","<div class='center'><p>You’ve arrived at the final island of your journey! Unfortunately, it’s very foggy out, so you won’t be able to see it in the distance like the other islands you've visited.</p><p>You’ll still be deciding which pirate you want to rob a ship like before. However, because of the fog, you also won’t be able to see the ship.</p><p>This means you do not have to remember the ships you rob on this island.</p></p></div>","","","","","","","","","","","","","","","","","","",""
"","html-keyboard-response","9","128504","0.0-9.0","1851.265000004787","<div class='center'><p>You’ve arrived at the final island of your journey! Unfortunately, it’s very foggy out, so you won’t be able to see it in the distance like the other islands you've visited.</p><p>You’ll still be deciding which pirate you want to rob a ship like before. However, because of the fog, you also won’t be able to see the ship.</p><p>This means you do not have to remember the ships you rob on this island.</p></p><p><b>[Press the space bar to continue]</b></p></div>","32","","","","","","","","","","","","","","","","","","","","","","","",""
"","explain_probe_1","10","137949","0.0-10.0","null","run_exp/static/audio/clip_33_recognition_1.m4a","null","","","","","<div class='center'><p> Sometimes you’ll be shown a ship, and you will be asked if you saw this ship on a past island.</p><p> Here is an example of what you will see.</p><p><img src='run_exp/static/images/tutorial/example_recog_trial.png' height='500'></p></div>","","","","","","","","","","","","","","","","","","",""
"","html-keyboard-response","11","141339","0.0-11.0","3389.209999993909","<div class='center'><p> Sometimes you’ll be shown a ship, and you will be asked if you saw this ship on a past island.</p><p> Here is an example of what you will see.</p><p><img src='run_exp/static/images/tutorial/example_recog_trial.png' height='500'></p><p><b>[Press the space bar to continue]</b></p></div>","32","","","","","","","","","","","","","","","","","","","","","","","",""
"","explain_probe_2","12","168181","0.0-12.0","null","run_exp/static/audio/clip_34_recognition_2.m4a","null","","","","","<div class='center'><p> You will press the 5, 6, 7, 8 keys on your keyboard to respond.</p><p>If you are very sure saw the ship, press <b>5</b> on your keyboard.</p><p> If you think you  saw it before but are not sure, then press <b>6</b>.</p><p> If you think you have <b>not</b> seen it before but are not sure, then press <b>7</b>.</p><p> If you are sure you did <b>not</b> see the ship before, then press <b>8</b>.</p><p><img src='run_exp/static/images/tutorial/example_recog_trial.png' height='500'></p></div>","","","","","","","","","","","","","","","","","","",""
"","html-keyboard-response","13","172736","0.0-13.0","4553.760000038892","<div class='center'><p> You will press the 5, 6, 7, 8 keys on your keyboard to respond.</p><p>If you are very sure saw the ship, press <b>5</b> on your keyboard.</p><p> If you think you  saw it before but are not sure, then press <b>6</b>.</p><p> If you think you have <b>not</b> seen it before but are not sure, then press <b>7</b>.</p><p> If you are sure you did <b>not</b> see the ship before, then press <b>8</b>.</p><p><img src='run_exp/static/images/tutorial/example_recog_trial.png' height='500'></p><p><b>[Press the space bar to continue]</b></p></div>","32","","","","","","","","","","","","","","","","","","","","","","","",""
"","explain_outcome","14","194280","0.0-14.0","null","run_exp/static/audio/clip_35_recognition_3.m4a","null","","","","","<div class='center'><p> If you remember correctly, then you’ll get a gold coin like this: </p><p><img src='run_exp/static/images/tutorial/reward_small.png' height='200'></p><p>If you do not remember correctly, then you'll see a red x like this: </p><p><img src='run_exp/static/images/tutorial/reward_no.png' height='200'></p><p>Importantly, when you are shown a ship, take the time to remind yourself which island you saw it on. This will help you in the next part of the study.</p></div>","","","","","","","","","","","","","","","","","","",""
"","html-keyboard-response","15","197952","0.0-15.0","3671.085000038147","<div class='center'><p> If you remember correctly, then you’ll get a gold coin like this: </p><p><img src='run_exp/static/images/tutorial/reward_small.png' height='200'></p><p>If you do not remember correctly, then you'll see a red x like this: </p><p><img src='run_exp/static/images/tutorial/reward_no.png' height='200'></p><p>Importantly, when you are shown a ship, take the time to remind yourself which island you saw it on. This will help you in the next part of the study.</p><p><b>[Press the space bar to continue]</b></p></div>","32","","","","","","","","","","","","","","","","","","","","","","","",""
"","begin_test_phase","16","222492","0.0-16.0","null","run_exp/static/audio/clip_36_begin_final.m4a","null","","","","","<div class='center'><p>Let's go over the important points again. Your job is to: </p><p>1. Pick the pirate who is best at robbing ships and will bring you back gold coins. </p><p>2. Correctly remember whether or not you saw a ship before. If you did see the ship before, remind yourself on which island you saw the ship. </p></div>","","","","","","","","","","","","","","","","","","",""
"","html-keyboard-response","17","231419","0.0-17.0","8893.5899999924","<div class='center'><p>Let's go over the important points again. Your job is to: </p><p>1. Pick the pirate who is best at robbing ships and will bring you back gold coins. </p><p>2. Correctly remember whether or not you saw a ship before. If you did see the ship before, remind yourself on which island you saw the ship. </p><p><b>[Press the space bar to continue]</b></p></div>","32","","","","","","","","","","","","","","","","","","","","","","","",""
"","do_welcome","18","232927","0.0-18.0","null","","","","","","","","null","","","","","","","","","","","","","","","","","",""
"","do_trial","19","238980","0.0-19.0-0.0","null","","","","","","","","null","0,0,0","6","blank","230","null","0.3336079791636714","0.11002156755725194","0.6267334863481214","","","","","","","","","",""
"","html-keyboard-response","20","239987","0.0-19.0-1.0","null","<p></p>","null","","","","","","","","","","","","","","","","","","","","","","","",""
"","do_trial","21","242956","0.0-20.0-0.0","418.41500002192333","","","","","","","","49","1,0,1","6","blank","231","null","0.3710609313103402","0.09524391644730158","0.6980241999351466","1","","","","","","","","",""
"","html-keyboard-response","22","243959","0.0-20.0-1.0","null","<p></p>","null","","","","","","","","","","","","","","","","","","","","","","","",""
"","do_trial","23","246919","0.0-21.0-0.0","411.35000000940636","","","","","","","","49","1,0,1","6","blank","232","null","0.3877756486360871","0.06900694186065869","0.7365044829594405","1","","","","","","","","",""
"","html-keyboard-response","24","247921","0.0-21.0-1.0","null","<p></p>","null","","","","","","","","","","","","","","","","","","","","","","","",""
"","do_trial","25","250991","0.0-22.0-0.0","523.3749999897555","","","","","","","","49","0,0,0","6","blank","233","null","0.4173670814573635","0.09744477840560455","0.5938126575681425","0","","","","","","","","",""
"","html-keyboard-response","26","251997","0.0-22.0-1.0","null","<p></p>","null","","","","","","","","","","","","","","","","","","","","","","","",""
"","do_trial","27","255426","0.0-23.0-0.0","886.9549999944866","","","","","","","","49","0,1,1","6","blank","234","null","0.2840606347961678","0.10623116095598652","0.4347469577321479","0","","","","","","","","",""
"","html-keyboard-response","28","256430","0.0-23.0-1.0","null","<p></p>","null","","","","","","","","","","","","","","","","","","","","","","","",""
"","do_trial","29","259974","0.0-24.0-0.0","995.0199999730103","","","","","","","","49","0,0,1","6","blank","235","null","0.39129262809675985","0.05486249628020812","0.4396515576860414","0","","","","","","","","",""
"","html-keyboard-response","30","260979","0.0-24.0-1.0","null","<p></p>","null","","","","","","","","","","","","","","","","","","","","","","","",""
"","do_trial","31","263949","0.0-25.0-0.0","424.2350000422448","","","","","","","","49","0,0,0","6","blank","236","null","0.24726693608330347","0.06789191028817701","0.4944851047547241","0","","","","","","","","",""
"","html-keyboard-response","32","264955","0.0-25.0-1.0","null","<p></p>","null","","","","","","","","","","","","","","","","","","","","","","","",""
"","do_trial","33","268923","0.0-26.0-0.0","1417.9499999736436","","","","","","","","49","0,0,1","6","blank","237","null","0.23042437954467596","0.06115463886153826","0.44752759677783766","0","","","","","","","","",""
"","html-keyboard-response","34","269927","0.0-26.0-1.0","null","<p></p>","null","","","","","","","","","","","","","","","","","","","","","","","",""
"","do_trial","35","273462","0.0-27.0-0.0","987.6800000201911","","","","","","","","49","1,0,0","6","blank","238","null","0.3075957594423122","0.09229198320714549","0.36526640336262356","1","","","","","","","","",""
"","html-keyboard-response","36","274467","0.0-27.0-1.0","null","<p></p>","null","","","","","","","","","","","","","","","","","","","","","","","",""
"","do_trial","37","277533","0.0-28.0-0.0","519.2699999897741","","","","","","","","49","0,0,1","6","blank","239","null","0.28804355178448493","0.11236904566976912","0.40008085705500185","0","","","","","","","","",""
"","html-keyboard-response","38","278537","0.0-28.0-1.0","null","<p></p>","null","","","","","","","","","","","","","","","","","","","","","","","",""
"","do_trial","39","284596","0.0-29.0-0.0","null","","","","","","","","null","0,0,0","6","blank","240","null","0.26763248357205427","0.1781757234672714","0.35610825279906944","","","","","","","","","",""
"","html-keyboard-response","40","285598","0.0-29.0-1.0","null","<p></p>","null","","","","","","","","","","","","","","","","","","","","","","","",""
"","do_trial","41","290708","0.0-30.0-0.0","2560.4399999720044","","","","","","","","49","0,0,0","6","blank","241","null","0.07061261765035468","0.19765710579669318","0.38879278487938523","0","","","","","","","","",""
"","html-keyboard-response","42","291714","0.0-30.0-1.0","null","<p></p>","null","","","","","","","","","","","","","","","","","","","","","","","",""
"","do_recog","43","294807","0.0-31.0-0.0","1579.2950000031851","","","","","","","","53","","","","242","probe-172","","","","","1","[object Object]","204","5","1","","","",""
"","html-keyboard-response","44","295811","0.0-31.0-1.0","null","<p></p>","null","","","","","","","","","","","","","","","","","","","","","","","",""
"","do_trial","45","298765","0.0-32.0-0.0","405.3800000110641","","","","","","","","49","0,0,1","6","blank","243","null","0.23766337541186502","0.41095618433735925","0.3662938981133888","0","","","","","","","","",""
"","html-keyboard-response","46","299771","0.0-32.0-1.0","null","<p></p>","null","","","","","","","","","","","","","","","","","","","","","","","",""
"","do_recog","47","303505","0.0-33.0-0.0","2226.34500003187","","","","","","","","53","","","","244","probe-11","","","","","1","[object Object]","83","2","1","","","",""
"","html-keyboard-response","48","304508","0.0-33.0-1.0","null","<p></p>","null","","","","","","","","","","","","","","","","","","","","","","","",""
"","do_trial","49","309603","0.0-34.0-0.0","2547.729999991134","","","","","","","","49","0,0,1","6","blank","245","null","0.18269766477393806","0.2520852875961604","0.30114829474508076","0","","","","","","","","",""
"","html-keyboard-response","50","310608","0.0-34.0-1.0","null","<p></p>","null","","","","","","","","","","","","","","","","","","","","","","","",""
"","do_recog","51","316615","0.0-35.0-0.0","null","","","","","","","","null","","","","246","probe-03","","","","","1","[object Object]","207","5","0","","","",""
"","html-keyboard-response","52","317619","0.0-35.0-1.0","null","<p></p>","null","","","","","","","","","","","","","","","","","","","","","","","",""
"","do_trial","53","320621","0.0-36.0-0.0","453.4049999783747","","","","","","","","49","0,1,0","6","blank","247","null","0.16116767896941286","0.27079901382719795","0.26677427101653745","0","","","","","","","","",""
"","html-keyboard-response","54","321627","0.0-36.0-1.0","null","<p></p>","null","","","","","","","","","","","","","","","","","","","","","","","",""
"","do_trial","55","324598","0.0-37.0-0.0","428.7499999627471","","","","","","","","49","0,0,0","6","blank","248","null","0.16451204607678105","0.33673719449711925","0.30059166252284175","0","","","","","","","","",""
"","html-keyboard-response","56","325600","0.0-37.0-1.0","null","<p></p>","null","","","","","","","","","","","","","","","","","","","","","","","",""
"","do_trial","57","330931","0.0-38.0-0.0","2727.815000049304","","","","","","","","49","0,1,1","6","blank","249","null","0.226187092525932","0.4877847012504974","0.2863056061348207","0","","","","","","","","",""
"","html-keyboard-response","58","331934","0.0-38.0-1.0","null","<p></p>","null","","","","","","","","","","","","","","","","","","","","","","","",""
"","do_trial","59","335024","0.0-39.0-0.0","544.4499999866821","","","","","","","","49","1,1,1","6","blank","250","null","0.3222926787044839","0.42041841783988815","0.3405591882104784","1","","","","","","","","",""
"","html-keyboard-response","60","336029","0.0-39.0-1.0","null","<p></p>","null","","","","","","","","","","","","","","","","","","","","","","","",""
"","do_trial","61","339491","0.0-40.0-0.0","912.9700000048615","","","","","","","","49","1,0,0","6","blank","251","null","0.3650505464261294","0.6243400614022009","0.2648860446050775","1","","","","","","","","",""
"","html-keyboard-response","62","340496","0.0-40.0-1.0","null","<p></p>","null","","","","","","","","","","","","","","","","","","","","","","","",""
"","do_recog","63","344575","0.0-41.0-0.0","2571.34500000393","","","","","","","","53","","","","252","probe-55","","","","","1","[object Object]","127","3","1","","","",""
"","html-keyboard-response","64","345581","0.0-41.0-1.0","null","<p></p>","null","","","","","","","","","","","","","","","","","","","","","","","",""
"","do_trial","65","349265","0.0-42.0-0.0","1132.77000002563","","","","","","","","49","0,0,1","6","blank","253","null","0.3810940431183117","0.6258873084009692","0.2137901806128361","0","","","","","","","","",""
"","html-keyboard-response","66","350269","0.0-42.0-1.0","null","<p></p>","null","","","","","","","","","","","","","","","","","","","","","","","",""
"","do_trial","67","353228","0.0-43.0-0.0","412.7949999528937","","","","","","","","49","0,1,0","6","blank","254","null","0.20015212760401033","0.8080846813555692","0.10452711835407844","0","","","","","","","","",""
"","html-keyboard-response","68","354230","0.0-43.0-1.0","null","<p></p>","null","","","","","","","","","","","","","","","","","","","","","","","",""
"","do_trial","69","357272","0.0-44.0-0.0","498.32499999320135","","","","","","","","49","0,0,0","6","blank","255","null","0.1688816045246336","0.7339277696687228","0.09346821603995167","0","","","","","","","","",""
"","html-keyboard-response","70","358274","0.0-44.0-1.0","null","<p></p>","null","","","","","","","","","","","","","","","","","","","","","","","",""
"","do_trial","71","360879","0.0-45.0-0.0","56.19999999180436","","","","","","","","49","1,0,0","6","blank","256","null","0.26505782981297815","0.7649950195463713","0.16748450254595196","1","","","","","","","","",""
"","html-keyboard-response","72","361884","0.0-45.0-1.0","null","<p></p>","null","","","","","","","","","","","","","","","","","","","","","","","",""
"","do_recog","73","364781","0.0-46.0-0.0","1385.4150000261143","","","","","","","","53","","","","257","probe-195","","","","","1","[object Object]","129","3","1","","","",""
"","html-keyboard-response","74","365782","0.0-46.0-1.0","null","<p></p>","null","","","","","","","","","","","","","","","","","","","","","","","",""
"","do_trial","75","369115","0.0-47.0-0.0","785.5250000138767","","","","","","","","49","1,1,0","6","blank","258","null","0.23644584655573936","0.787896586934159","0.07191117277213536","1","","","","","","","","",""
"","html-keyboard-response","76","370118","0.0-47.0-1.0","null","<p></p>","null","","","","","","","","","","","","","","","","","","","","","","","",""
"","do_trial","77","373539","0.0-48.0-0.0","874.3900000117719","","","","","","","","49","1,0,0","6","blank","259","null","0.3705182177765562","0.8900016604468463","0.07139385746698046","1","","","","","","","","",""
"","html-keyboard-response","78","374543","0.0-48.0-1.0","null","<p></p>","null","","","","","","","","","","","","","","","","","","","","","","","",""
"","do_recog","79","377442","0.0-49.0-0.0","1389.7900000447407","","","","","","","","53","","","","260","probe-234","","","","","0","[object Object]","null","null","0","","","",""
"","html-keyboard-response","80","378446","0.0-49.0-1.0","null","<p></p>","null","","","","","","","","","","","","","","","","","","","","","","","",""
"","do_trial","81","381468","0.0-50.0-0.0","470.8400000235997","","","","","","","","49","0,0,0","6","blank","261","null","0.35551249467427765","0.6182508007475706","0.21311336415028176","0","","","","","","","","",""
"","html-keyboard-response","82","382469","0.0-50.0-1.0","null","<p></p>","null","","","","","","","","","","","","","","","","","","","","","","","",""
"","do_recog","83","385036","0.0-51.0-0.0","1055.9249999932945","","","","","","","","53","","","","262","probe-242","","","","","0","[object Object]","null","null","0","","","",""
"","html-keyboard-response","84","386040","0.0-51.0-1.0","null","<p></p>","null","","","","","","","","","","","","","","","","","","","","","","","",""
"","do_trial","85","388637","0.0-52.0-0.0","45.014999981503934","","","","","","","","49","0,1,0","6","blank","263","null","0.15604172102533007","0.7407318787033157","0.2356716741660244","0","","","","","","","","",""
"","html-keyboard-response","86","389639","0.0-52.0-1.0","null","<p></p>","null","","","","","","","","","","","","","","","","","","","","","","","",""
"","do_trial","87","392528","0.0-53.0-0.0","340.35499999299645","","","","","","","","49","0,1,0","6","blank","264","null","0.14774016277929128","0.7927462569209014","0.26719760534193593","0","","","","","","","","",""
"","html-keyboard-response","88","393539","0.0-53.0-1.0","null","<p></p>","null","","","","","","","","","","","","","","","","","","","","","","","",""
"","do_trial","89","396593","0.0-54.0-0.0","479.2149999993853","","","","","","","","49","0,1,0","6","blank","265","null","0.3032976448682016","0.7866163890576853","0.16844505597458978","0","","","","","","","","",""
"","html-keyboard-response","90","397597","0.0-54.0-1.0","null","<p></p>","null","","","","","","","","","","","","","","","","","","","","","","","",""
"","do_trial","91","400527","0.0-55.0-0.0","381.01500004995614","","","","","","","","49","0,1,0","6","blank","266","null","0.3412688832984731","0.5882363088040775","0.21333644035505944","0","","","","","","","","",""
"","html-keyboard-response","92","401532","0.0-55.0-1.0","null","<p></p>","null","","","","","","","","","","","","","","","","","","","","","","","",""
"","do_trial","93","404270","0.0-56.0-0.0","190.70500001544133","","","","","","","","50","1,1,0","6","blank","267","null","0.3540636595778743","0.6653505748843437","0.21602039508437074","1","","","","","","","","",""
"","html-keyboard-response","94","405275","0.0-56.0-1.0","null","<p></p>","null","","","","","","","","","","","","","","","","","","","","","","","",""
"","do_recog","95","407880","0.0-57.0-0.0","1094.295000017155","","","","","","","","53","","","","268","probe-57","","","","","1","[object Object]","160","4","1","","","",""
"","html-keyboard-response","96","408885","0.0-57.0-1.0","null","<p></p>","null","","","","","","","","","","","","","","","","","","","","","","","",""
"","do_trial","97","411758","0.0-58.0-0.0","325.2900000079535","","","","","","","","50","1,0,0","6","blank","269","null","0.3559232692966159","0.7146598874089135","0.223701018134359","0","","","","","","","","",""
"","html-keyboard-response","98","412760","0.0-58.0-1.0","null","<p></p>","null","","","","","","","","","","","","","","","","","","","","","","","",""
"","do_recog","99","417036","0.0-59.0-0.0","2765.300000028219","","","","","","","","53","","","","270","probe-26","","","","","1","[object Object]","42","1","1","","","",""
"","html-keyboard-response","100","418042","0.0-59.0-1.0","null","<p></p>","null","","","","","","","","","","","","","","","","","","","","","","","",""
"","do_trial","101","421443","0.0-60.0-0.0","851.7700000084005","","","","","","","","50","1,1,0","6","blank","271","null","0.37266029766360226","0.6656181327136509","0.09902978068855225","1","","","","","","","","",""
"","html-keyboard-response","102","422447","0.0-60.0-1.0","null","<p></p>","null","","","","","","","","","","","","","","","","","","","","","","","",""
"","do_trial","103","428500","0.0-61.0-0.0","null","","","","","","","","null","0,0,0","6","blank","272","null","0.2807889877303131","0.6381895110037334","0.07163160661296983","","","","","","","","","",""
"","html-keyboard-response","104","429504","0.0-61.0-1.0","null","<p></p>","null","","","","","","","","","","","","","","","","","","","","","","","",""
"","do_recog","105","432106","0.0-62.0-0.0","1093.7549999798648","","","","","","","","53","","","","273","probe-136","","","","","1","[object Object]","126","3","1","","","",""
"","html-keyboard-response","106","433111","0.0-62.0-1.0","null","<p></p>","null","","","","","","","","","","","","","","","","","","","","","","","",""
"","do_trial","107","439163","0.0-63.0-0.0","null","","","","","","","","null","1,0,0","6","blank","274","null","0.375087834023915","0.5708011221629561","0.05420329748382404","","","","","","","","","",""
"","html-keyboard-response","108","440165","0.0-63.0-1.0","null","<p></p>","null","","","","","","","","","","","","","","","","","","","","","","","",""
"","do_trial","109","446216","0.0-64.0-0.0","null","","","","","","","","null","1,1,0","6","blank","275","null","0.4171414367356252","0.5629741437833986","0.09328133185839324","","","","","","","","","",""
"","html-keyboard-response","110","447221","0.0-64.0-1.0","null","<p></p>","null","","","","","","","","","","","","","","","","","","","","","","","",""
"","do_trial","111","452020","0.0-65.0-0.0","2253.5550000029616","","","","","","","","49","1,1,0","6","blank","276","null","0.3191504148240484","0.5248547202492394","0.05686385601288103","1","","","","","","","","",""
"","html-keyboard-response","112","453025","0.0-65.0-1.0","null","<p></p>","null","","","","","","","","","","","","","","","","","","","","","","","",""
"","do_trial","113","456124","0.0-66.0-0.0","548.7399999983609","","","","","","","","49","1,1,0","6","blank","277","null","0.3069924948514197","0.4867798374126429","0.11529993615799448","1","","","","","","","","",""
"","html-keyboard-response","114","457130","0.0-66.0-1.0","null","<p></p>","null","","","","","","","","","","","","","","","","","","","","","","","",""
"","do_trial","115","461169","0.0-67.0-0.0","1488.0550000234507","","","","","","","","49","1,0,0","6","blank","278","null","0.45481618883319924","0.3763636788573119","0.1587345315321427","1","","","","","","","","",""
"","html-keyboard-response","116","462172","0.0-67.0-1.0","null","<p></p>","null","","","","","","","","","","","","","","","","","","","","","","","",""
"","do_trial","117","468223","0.0-68.0-0.0","null","","","","","","","","null","0,1,0","6","blank","279","null","0.3350726798954791","0.401810211275681","0.10535605287266574","","","","","","","","","",""
"","html-keyboard-response","118","469226","0.0-68.0-1.0","null","<p></p>","null","","","","","","","","","","","","","","","","","","","","","","","",""
"","do_recog","119","471980","0.0-69.0-0.0","1242.4800000153482","","","","","","","","53","","","","280","probe-243","","","","","0","[object Object]","null","null","0","","","",""
"","html-keyboard-response","120","472981","0.0-69.0-1.0","null","<p></p>","null","","","","","","","","","","","","","","","","","","","","","","","",""
"","do_trial","121","475660","0.0-70.0-0.0","128.87000001501292","","","","","","","","49","0,1,0","6","blank","281","null","0.1897444085455","0.40988171518012523","0.11317257689206046","0","","","","","","","","",""
"","html-keyboard-response","122","476663","0.0-70.0-1.0","null","<p></p>","null","","","","","","","","","","","","","","","","","","","","","","","",""
"","do_trial","123","479915","0.0-71.0-0.0","705.9250000165775","","","","","","","","49","0,1,0","6","blank","282","null","0.18530432823986864","0.5200813754798178","0.15677525221392757","0","","","","","","","","",""
"","html-keyboard-response","124","480917","0.0-71.0-1.0","null","<p></p>","null","","","","","","","","","","","","","","","","","","","","","","","",""
"","do_trial","125","484427","0.0-72.0-0.0","959.3999999924563","","","","","","","","49","0,0,0","6","blank","283","null","0.323103299945322","0.5079212375737929","0.28539337422983674","0","","","","","","","","",""
"","html-keyboard-response","126","485428","0.0-72.0-1.0","null","<p></p>","null","","","","","","","","","","","","","","","","","","","","","","","",""
"","do_trial","127","489383","0.0-73.0-0.0","1407.8750000335276","","","","","","","","49","0,0,0","6","blank","284","null","0.22397059232034677","0.5219434539183931","0.14547916814968456","0","","","","","","","","",""
"","html-keyboard-response","128","490385","0.0-73.0-1.0","null","<p></p>","null","","","","","","","","","","","","","","","","","","","","","","","",""
"","do_trial","129","493889","0.0-74.0-0.0","958.2799999625422","","","","","","","","49","0,0,1","6","blank","285","null","0.23757811909629617","0.5808922421065728","0.18541587030446308","0","","","","","","","","",""
"","html-keyboard-response","130","494894","0.0-74.0-1.0","null","<p></p>","null","","","","","","","","","","","","","","","","","","","","","","","",""
"","do_trial","131","498602","0.0-75.0-0.0","1159.3700000084937","","","","","","","","50","0,1,0","6","blank","286","null","0.32384430566426664","0.7593275179655257","0.14779618244713172","1","","","","","","","","",""
"","html-keyboard-response","132","499607","0.0-75.0-1.0","null","<p></p>","null","","","","","","","","","","","","","","","","","","","","","","","",""
"","do_trial","133","502950","0.0-76.0-0.0","792.699999990873","","","","","","","","50","0,1,0","6","blank","287","null","0.3014589444887144","0.7258521394527142","0.10308945004536516","1","","","","","","","","",""
"","html-keyboard-response","134","503956","0.0-76.0-1.0","null","<p></p>","null","","","","","","","","","","","","","","","","","","","","","","","",""
"","do_recog","135","506885","0.0-77.0-0.0","1422.484999988228","","","","","","","","53","","","","288","probe-203","","","","","1","[object Object]","48","1","1","","","",""
"","html-keyboard-response","136","507887","0.0-77.0-1.0","null","<p></p>","null","","","","","","","","","","","","","","","","","","","","","","","",""
"","do_trial","137","511112","0.0-78.0-0.0","678.3700000378303","","","","","","","","50","0,1,0","6","blank","289","null","0.21069588032311323","0.77710052453652","0.16771105347543688","1","","","","","","","","",""
"","html-keyboard-response","138","512117","0.0-78.0-1.0","null","<p></p>","null","","","","","","","","","","","","","","","","","","","","","","","",""
"","do_trial","139","515320","0.0-79.0-0.0","653.8600000203587","","","","","","","","50","0,1,0","6","blank","290","null","0.12472941864592337","0.6391826648741648","0.09426235386940171","1","","","","","","","","",""
"","html-keyboard-response","140","516324","0.0-79.0-1.0","null","<p></p>","null","","","","","","","","","","","","","","","","","","","","","","","",""
"","do_trial","141","518933","0.0-80.0-0.0","58.610000007320195","","","","","","","","50","0,1,0","6","blank","291","null","0.2306064696096402","0.5536993528504155","0.12392293558161203","1","","","","","","","","",""
"","html-keyboard-response","142","519938","0.0-80.0-1.0","null","<p></p>","null","","","","","","","","","","","","","","","","","","","","","","","",""
"","do_trial","143","522731","0.0-81.0-0.0","246.7000000178814","","","","","","","","50","1,1,0","6","blank","292","null","0.3161867487121695","0.5939845463475164","0.20095448934164284","1","","","","","","","","",""
"","html-keyboard-response","144","523732","0.0-81.0-1.0","null","<p></p>","null","","","","","","","","","","","","","","","","","","","","","","","",""
"","do_trial","145","526423","0.0-82.0-0.0","147.45500002754852","","","","","","","","50","0,1,1","6","blank","293","null","0.49904382874600894","0.40946856861675884","0.24590198981454273","1","","","","","","","","",""
"","html-keyboard-response","146","527425","0.0-82.0-1.0","null","<p></p>","null","","","","","","","","","","","","","","","","","","","","","","","",""
"","do_recog","147","530950","0.0-83.0-0.0","2016.8350000167266","","","","","","","","53","","","","294","probe-133","","","","","1","[object Object]","87","2","1","","","",""
"","html-keyboard-response","148","531955","0.0-83.0-1.0","null","<p></p>","null","","","","","","","","","","","","","","","","","","","","","","","",""
"","do_trial","149","534996","0.0-84.0-0.0","492.4200000241399","","","","","","","","50","0,0,0","6","blank","295","null","0.6573368547265629","0.23627311862459224","0.2588359264870944","0","","","","","","","","",""
"","html-keyboard-response","150","536002","0.0-84.0-1.0","null","<p></p>","null","","","","","","","","","","","","","","","","","","","","","","","",""
"","do_trial","151","539039","0.0-85.0-0.0","485.964999999851","","","","","","","","50","0,0,1","6","blank","296","null","0.6838666074645318","0.09814704827255753","0.20301809078979421","0","","","","","","","","",""
"","html-keyboard-response","152","540042","0.0-85.0-1.0","null","<p></p>","null","","","","","","","","","","","","","","","","","","","","","","","",""
"","do_trial","153","543421","0.0-86.0-0.0","830.9950000257231","","","","","","","","50","0,0,0","6","blank","297","null","0.6246786177656228","0.10985716207543451","0.29834496060662874","0","","","","","","","","",""
"","html-keyboard-response","154","544425","0.0-86.0-1.0","null","<p></p>","null","","","","","","","","","","","","","","","","","","","","","","","",""
"","do_trial","155","548471","0.0-87.0-0.0","1497.3349999636412","","","","","","","","50","1,0,1","6","blank","298","null","0.5657706732220504","0.2612436540476078","0.32767172675464784","0","","","","","","","","",""
"","html-keyboard-response","156","549477","0.0-87.0-1.0","null","<p></p>","null","","","","","","","","","","","","","","","","","","","","","","","",""
"","do_trial","157","552279","0.0-88.0-0.0","255.69999997969717","","","","","","","","50","0,0,1","6","blank","299","null","0.5276004566231707","0.1894795902791417","0.3798668272764929","0","","","","","","","","",""
"","html-keyboard-response","158","553284","0.0-88.0-1.0","null","<p></p>","null","","","","","","","","","","","","","","","","","","","","","","","",""
"","do_trial","159","556267","0.0-89.0-0.0","436.27000000560656","","","","","","","","51","0,0,1","6","blank","300","null","0.6476845662534275","0.1445975066189287","0.19875431056706916","1","","","","","","","","",""
"","html-keyboard-response","160","557272","0.0-89.0-1.0","null","<p></p>","null","","","","","","","","","","","","","","","","","","","","","","","",""
"","do_trial","161","560221","0.0-90.0-0.0","402.1900000516325","","","","","","","","51","0,0,0","6","blank","301","null","0.49435026649848907","0.05580662359882112","0.2024846066431319","0","","","","","","","","",""
"","html-keyboard-response","162","561227","0.0-90.0-1.0","null","<p></p>","null","","","","","","","","","","","","","","","","","","","","","","","",""
"","do_recog","163","563988","0.0-91.0-0.0","1250.5749999545515","","","","","","","","53","","","","302","probe-241","","","","","0","[object Object]","null","null","0","","","",""
"","html-keyboard-response","164","564992","0.0-91.0-1.0","null","<p></p>","null","","","","","","","","","","","","","","","","","","","","","","","",""
"","do_trial","165","567868","0.0-92.0-0.0","327.7300000190735","","","","","","","","51","0,1,1","6","blank","303","null","0.7642740766112209","0.1289231457229643","0.29570816477567063","1","","","","","","","","",""
"","html-keyboard-response","166","568871","0.0-92.0-1.0","null","<p></p>","null","","","","","","","","","","","","","","","","","","","","","","","",""
"","do_recog","167","574881","0.0-93.0-0.0","null","","","","","","","","null","","","","304","probe-188","","","","","1","[object Object]","169","4","0","","","",""
"","html-keyboard-response","168","575882","0.0-93.0-1.0","null","<p></p>","null","","","","","","","","","","","","","","","","","","","","","","","",""
"","do_trial","169","578654","0.0-94.0-0.0","224.39499996835366","","","","","","","","51","1,0,0","6","blank","305","null","0.6164845614191232","0.15975713932504884","0.2928349145207034","0","","","","","","","","",""
"","html-keyboard-response","170","579659","0.0-94.0-1.0","null","<p></p>","null","","","","","","","","","","","","","","","","","","","","","","","",""
"","do_trial","171","582679","0.0-95.0-0.0","470.94000002834946","","","","","","","","51","0,0,0","6","blank","306","null","0.4596528111987971","0.09794054219679989","0.31275935873071353","0","","","","","","","","",""
"","html-keyboard-response","172","583684","0.0-95.0-1.0","null","<p></p>","null","","","","","","","","","","","","","","","","","","","","","","","",""
"","do_recog","173","589700","0.0-96.0-0.0","null","","","","","","","","null","","","","307","probe-199","","","","","1","[object Object]","85","2","0","","","",""
"","html-keyboard-response","174","590705","0.0-96.0-1.0","null","<p></p>","null","","","","","","","","","","","","","","","","","","","","","","","",""
"","do_trial","175","593906","0.0-97.0-0.0","653.2200000365265","","","","","","","","51","0,0,1","6","blank","308","null","0.5435459374166353","0.17936501360286833","0.42027782542228237","1","","","","","","","","",""
"","html-keyboard-response","176","594911","0.0-97.0-1.0","null","<p></p>","null","","","","","","","","","","","","","","","","","","","","","","","",""
"","do_recog","177","597519","0.0-98.0-0.0","1099.0599999786355","","","","","","","","53","","","","309","probe-162","","","","","1","[object Object]","201","5","1","","","",""
"","html-keyboard-response","178","598522","0.0-98.0-1.0","null","<p></p>","null","","","","","","","","","","","","","","","","","","","","","","","",""
"","do_trial","179","601245","0.0-99.0-0.0","176.64000001968816","","","","","","","","51","0,0,0","6","blank","310","null","0.4888686129480826","0.3173968195334567","0.309409255352985","0","","","","","","","","",""
"","html-keyboard-response","180","602247","0.0-99.0-1.0","null","<p></p>","null","","","","","","","","","","","","","","","","","","","","","","","",""
"","do_trial","181","606380","0.0-100.0-0.0","1581.9300000439398","","","","","","","","51","1,0,1","6","blank","311","null","0.6075198838942207","0.11576803952581606","0.147356008604545","1","","","","","","","","",""
"","html-keyboard-response","182","607383","0.0-100.0-1.0","null","<p></p>","null","","","","","","","","","","","","","","","","","","","","","","","",""
"","do_trial","183","612267","0.0-101.0-0.0","2336.2400000332855","","","","","","","","51","1,1,0","6","blank","312","null","0.5898670023945364","0.24391454139589763","0.15577142690380127","0","","","","","","","","",""
"","html-keyboard-response","184","613271","0.0-101.0-1.0","null","<p></p>","null","","","","","","","","","","","","","","","","","","","","","","","",""
"","do_trial","185","616201","0.0-102.0-0.0","379.4750000233762","","","","","","","","51","1,0,0","6","blank","313","null","0.6527839798120308","0.2515252131964975","0.07922267695144695","0","","","","","","","","",""
"","html-keyboard-response","186","617204","0.0-102.0-1.0","null","<p></p>","null","","","","","","","","","","","","","","","","","","","","","","","",""
"","do_trial","187","620779","0.0-103.0-0.0","1028.4749999991618","","","","","","","","51","0,0,0","6","blank","314","null","0.5391795406374181","0.14117728908303184","0.30103928572470623","0","","","","","","","","",""
"","html-keyboard-response","188","621785","0.0-103.0-1.0","null","<p></p>","null","","","","","","","","","","","","","","","","","","","","","","","",""
"","do_trial","189","624726","0.0-104.0-0.0","391.89500000793487","","","","","","","","51","0,0,0","6","blank","315","null","0.6121270211571153","0.17061223765164024","0.23063547201657486","0","","","","","","","","",""
"","html-keyboard-response","190","625728","0.0-104.0-1.0","null","<p></p>","null","","","","","","","","","","","","","","","","","","","","","","","",""
"","do_recog","191","628231","0.0-105.0-0.0","996.2650000234134","","","","","","","","53","","","","316","probe-202","","","","","1","[object Object]","165","4","1","","","",""
"","html-keyboard-response","192","629233","0.0-105.0-1.0","null","<p></p>","null","","","","","","","","","","","","","","","","","","","","","","","",""
"","do_trial","193","631886","0.0-106.0-0.0","104.81499996967614","","","","","","","","51","1,0,0","6","blank","317","null","0.6235805653624249","0.13167323320068466","0.2011586684777847","0","","","","","","","","",""
"","html-keyboard-response","194","632889","0.0-106.0-1.0","null","<p></p>","null","","","","","","","","","","","","","","","","","","","","","","","",""
"","do_trial","195","635913","0.0-107.0-0.0","476.29000002052635","","","","","","","","51","1,0,0","6","blank","318","null","0.5245206332848767","0.17348661947916313","0.2469077145468038","0","","","","","","","","",""
"","html-keyboard-response","196","636916","0.0-107.0-1.0","null","<p></p>","null","","","","","","","","","","","","","","","","","","","","","","","",""
"","do_trial","197","639918","0.0-108.0-0.0","452.7449999586679","","","","","","","","51","1,0,0","6","blank","319","null","0.5586956096445842","0.05318604313327672","0.27295201060941005","0","","","","","","","","",""
"","html-keyboard-response","198","640924","0.0-108.0-1.0","null","<p></p>","null","","","","","","","","","","","","","","","","","","","","","","","",""
"","do_trial","199","643796","0.0-109.0-0.0","323.4350000275299","","","","","","","","51","1,0,1","6","blank","320","null","0.6201906660237038","0.13033216355279392","0.36752772980754744","1","","","","","","","","",""
"","html-keyboard-response","200","644797","0.0-109.0-1.0","null","<p></p>","null","","","","","","","","","","","","","","","","","","","","","","","",""
"","do_recog","201","647353","0.0-110.0-0.0","1049.2300000041723","","","","","","","","53","","","","321","probe-126","","","","","1","[object Object]","82","2","1","","","",""
"","html-keyboard-response","202","648356","0.0-110.0-1.0","null","<p></p>","null","","","","","","","","","","","","","","","","","","","","","","","",""
"","do_trial","203","651161","0.0-111.0-0.0","255.9950000140816","","","","","","","","51","1,0,0","6","blank","322","null","0.6016313450831673","0.09992366982171616","0.28926698902391684","0","","","","","","","","",""
"","html-keyboard-response","204","652165","0.0-111.0-1.0","null","<p></p>","null","","","","","","","","","","","","","","","","","","","","","","","",""
"","do_recog","205","654552","0.0-112.0-0.0","878.5049999714829","","","","","","","","53","","","","323","probe-20","","","","","1","[object Object]","124","3","1","","","",""
"","html-keyboard-response","206","655554","0.0-112.0-1.0","null","<p></p>","null","","","","","","","","","","","","","","","","","","","","","","","",""
"","do_trial","207","658541","0.0-113.0-0.0","438.6499999673106","","","","","","","","51","1,0,1","6","blank","324","null","0.6844390627522605","0.08691483799989555","0.24444067662770985","1","","","","","","","","",""
"","html-keyboard-response","208","659544","0.0-113.0-1.0","null","<p></p>","null","","","","","","","","","","","","","","","","","","","","","","","",""
"","do_trial","209","663159","0.0-114.0-0.0","1065.8549999934621","","","","","","","","51","0,0,0","6","blank","325","null","0.6595168481000446","0.08770389034912389","0.27920938227807723","0","","","","","","","","",""
"","html-keyboard-response","210","664163","0.0-114.0-1.0","null","<p></p>","null","","","","","","","","","","","","","","","","","","","","","","","",""
"","do_trial","211","667013","0.0-115.0-0.0","303.3150000264868","","","","","","","","51","1,0,0","6","blank","326","null","0.6052995470366226","0.05312006632417304","0.21044535308138262","0","","","","","","","","",""
"","html-keyboard-response","212","668016","0.0-115.0-1.0","null","<p></p>","null","","","","","","","","","","","","","","","","","","","","","","","",""
"","do_recog","213","671765","0.0-116.0-0.0","2239.819999958854","","","","","","","","53","","","","327","probe-05","","","","","1","[object Object]","125","3","1","","","",""
"","html-keyboard-response","214","672768","0.0-116.0-1.0","null","<p></p>","null","","","","","","","","","","","","","","","","","","","","","","","",""
"","do_trial","215","676172","0.0-117.0-0.0","854.0149999898858","","","","","","","","51","0,0,1","6","blank","328","null","0.6392219423104597","0.10856600994077831","0.388876885196858","1","","","","","","","","",""
"","html-keyboard-response","216","677178","0.0-117.0-1.0","null","<p></p>","null","","","","","","","","","","","","","","","","","","","","","","","",""
"","do_trial","217","679817","0.0-118.0-0.0","91.94499999284744","","","","","","","","51","1,0,1","6","blank","329","null","0.670304896959914","0.10936835681114479","0.3716180676357933","1","","","","","","","","",""
"","html-keyboard-response","218","680819","0.0-118.0-1.0","null","<p></p>","null","","","","","","","","","","","","","","","","","","","","","","","",""
"","do_trial","219","685422","0.0-119.0-0.0","2056.4400000148453","","","","","","","","51","0,0,1","6","blank","330","null","0.7367778631812228","0.09307179773328107","0.30171983083384996","1","","","","","","","","",""
"","html-keyboard-response","220","686427","0.0-119.0-1.0","null","<p></p>","null","","","","","","","","","","","","","","","","","","","","","","","",""
"","do_trial","221","689595","0.0-120.0-0.0","620.3600000008009","","","","","","","","51","1,0,0","6","blank","331","null","0.7595567784985643","0.20567922221523383","0.3218779875910362","0","","","","","","","","",""
"","html-keyboard-response","222","690600","0.0-120.0-1.0","null","<p></p>","null","","","","","","","","","","","","","","","","","","","","","","","",""
"","do_trial","223","695601","0.0-121.0-0.0","2451.549999997951","","","","","","","","51","1,0,1","6","blank","332","null","0.6598746841244798","0.12361552688103718","0.32882570223935953","1","","","","","","","","",""
"","html-keyboard-response","224","696604","0.0-121.0-1.0","null","<p></p>","null","","","","","","","","","","","","","","","","","","","","","","","",""
"","do_recog","225","699834","0.0-122.0-0.0","1718.6900000087917","","","","","","","","53","","","","333","probe-139","","","","","1","[object Object]","81","2","1","","","",""
"","html-keyboard-response","226","700838","0.0-122.0-1.0","null","<p></p>","null","","","","","","","","","","","","","","","","","","","","","","","",""
"","do_trial","227","703682","0.0-123.0-0.0","296.1650000070222","","","","","","","","51","1,0,0","6","blank","334","null","0.6310543835872435","0.06406528568396026","0.3589700934747227","0","","","","","","","","",""
"","html-keyboard-response","228","704687","0.0-123.0-1.0","null","<p></p>","null","","","","","","","","","","","","","","","","","","","","","","","",""
"","do_recog","229","707588","0.0-124.0-0.0","1392.87499996135","","","","","","","","53","","","","335","probe-228","","","","","1","[object Object]","164","4","1","","","",""
"","html-keyboard-response","230","708592","0.0-124.0-1.0","null","<p></p>","null","","","","","","","","","","","","","","","","","","","","","","","",""
"","do_trial","231","711452","0.0-125.0-0.0","311.7750000092201","","","","","","","","51","1,0,0","6","blank","336","null","0.5695658883788847","0.09062781981829235","0.2817644371905926","0","","","","","","","","",""
"","html-keyboard-response","232","712453","0.0-125.0-1.0","null","<p></p>","null","","","","","","","","","","","","","","","","","","","","","","","",""
"","do_trial","233","715436","0.0-126.0-0.0","435.6400000397116","","","","","","","","51","1,0,0","6","blank","337","null","0.6667461777571373","0.09534357582238481","0.2664308580802011","0","","","","","","","","",""
"","html-keyboard-response","234","716440","0.0-126.0-1.0","null","<p></p>","null","","","","","","","","","","","","","","","","","","","","","","","",""
"","do_trial","235","719171","0.0-127.0-0.0","182.764999975916","","","","","","","","51","1,0,0","6","blank","338","null","0.77403552118879","0.057040761890070034","0.2963925858399688","0","","","","","","","","",""
"","html-keyboard-response","236","720175","0.0-127.0-1.0","null","<p></p>","null","","","","","","","","","","","","","","","","","","","","","","","",""
"","do_trial","237","722991","0.0-128.0-0.0","266.12499996554106","","","","","","","","51","1,0,0","6","blank","339","null","0.8173996169400698","0.2036165210507645","0.21271077751842746","0","","","","","","","","",""
"","html-keyboard-response","238","723996","0.0-128.0-1.0","null","<p></p>","null","","","","","","","","","","","","","","","","","","","","","","","",""
"","do_trial","239","727638","0.0-129.0-0.0","1093.7700000358745","","","","","","","","50","1,1,0","6","blank","340","null","0.7990513433109054","0.17443604212040112","0.29016208824868434","1","","","","","","","","",""
"","html-keyboard-response","240","728643","0.0-129.0-1.0","null","<p></p>","null","","","","","","","","","","","","","","","","","","","","","","","",""
"","do_trial","241","731447","0.0-130.0-0.0","259.60499997017905","","","","","","","","50","1,0,0","6","blank","341","null","0.7400133870753877","0.23639200519425863","0.22179019855541846","0","","","","","","","","",""
"","html-keyboard-response","242","732450","0.0-130.0-1.0","null","<p></p>","null","","","","","","","","","","","","","","","","","","","","","","","",""
"","do_recog","243","735179","0.0-131.0-0.0","1221.625000005588","","","","","","","","53","","","","342","probe-106","","","","","1","[object Object]","47","1","1","","","",""
"","html-keyboard-response","244","736181","0.0-131.0-1.0","null","<p></p>","null","","","","","","","","","","","","","","","","","","","","","","","",""
"","do_trial","245","741235","0.0-132.0-0.0","2506.9950000033714","","","","","","","","50","1,0,0","6","blank","343","null","0.7012074114756334","0.22468323378597965","0.18345728344255308","0","","","","","","","","",""
"","html-keyboard-response","246","742237","0.0-132.0-1.0","null","<p></p>","null","","","","","","","","","","","","","","","","","","","","","","","",""
"","do_recog","247","745066","0.0-133.0-0.0","1321.2550000171177","","","","","","","","53","","","","344","probe-222","","","","","1","[object Object]","46","1","1","","","",""
"","html-keyboard-response","248","746068","0.0-133.0-1.0","null","<p></p>","null","","","","","","","","","","","","","","","","","","","","","","","",""
"","do_trial","249","750122","0.0-134.0-0.0","1506.0400000074878","","","","","","","","51","1,0,0","6","blank","345","null","0.652705961531383","0.3381760516740425","0.13040186149537647","0","","","","","","","","",""
"","html-keyboard-response","250","751128","0.0-134.0-1.0","null","<p></p>","null","","","","","","","","","","","","","","","","","","","","","","","",""
"","do_trial","251","753824","0.0-135.0-0.0","142.8550000418909","","","","","","","","51","0,1,1","6","blank","346","null","0.6066192764673807","0.3259267000315741","0.32399754995662783","1","","","","","","","","",""
"","html-keyboard-response","252","754826","0.0-135.0-1.0","null","<p></p>","null","","","","","","","","","","","","","","","","","","","","","","","",""
"","do_trial","253","758558","0.0-136.0-0.0","1183.8400000124238","","","","","","","","51","1,1,1","6","blank","347","null","0.4896855209474105","0.5497166784991411","0.2637763907411205","1","","","","","","","","",""
"","html-keyboard-response","254","759563","0.0-136.0-1.0","null","<p></p>","null","","","","","","","","","","","","","","","","","","","","","","","",""
"","do_trial","255","763848","0.0-137.0-0.0","1737.0949999894947","","","","","","","","51","1,1,0","6","blank","348","null","0.42326616942671413","0.6782313447322896","0.10881439698301268","0","","","","","","","","",""
"","html-keyboard-response","256","764850","0.0-137.0-1.0","null","<p></p>","null","","","","","","","","","","","","","","","","","","","","","","","",""
"","do_trial","257","768295","0.0-138.0-0.0","896.8949999543838","","","","","","","","51","0,1,0","6","blank","349","null","0.3325158870668565","0.6695723777395045","0.1590811681508062","0","","","","","","","","",""
"","html-keyboard-response","258","769301","0.0-138.0-1.0","null","<p></p>","null","","","","","","","","","","","","","","","","","","","","","","","",""
"","do_recog","259","773230","0.0-139.0-0.0","2421.4849999989383","","","","","","","","53","","","","350","probe-114","","","","","1","[object Object]","200","5","1","","","",""
"","html-keyboard-response","260","774234","0.0-139.0-1.0","null","<p></p>","null","","","","","","","","","","","","","","","","","","","","","","","",""
"","do_trial","261","777700","0.0-140.0-0.0","917.1549999737181","","","","","","","","51","0,1,0","6","blank","351","null","0.2868019524196225","0.6741268016234531","0.11970068761405608","0","","","","","","","","",""
"","html-keyboard-response","262","778704","0.0-140.0-1.0","null","<p></p>","null","","","","","","","","","","","","","","","","","","","","","","","",""
"","do_trial","263","781703","0.0-141.0-0.0","451.4949999866076","","","","","","","","51","0,1,0","6","blank","352","null","0.36267639422605946","0.6635811162637222","0.07821410699197127","0","","","","","","","","",""
"","html-keyboard-response","264","782708","0.0-141.0-1.0","null","<p></p>","null","","","","","","","","","","","","","","","","","","","","","","","",""
"","do_recog","265","785097","0.0-142.0-0.0","879.6650000149384","","","","","","","","53","","","","353","probe-148","","","","","1","[object Object]","162","4","1","","","",""
"","html-keyboard-response","266","786101","0.0-142.0-1.0","null","<p></p>","null","","","","","","","","","","","","","","","","","","","","","","","",""
"","do_trial","267","788936","0.0-143.0-0.0","286.09000000869855","","","","","","","","51","1,1,0","6","blank","354","null","0.3096238987691447","0.5868152625743498","0.1856220027028061","0","","","","","","","","",""
"","html-keyboard-response","268","789939","0.0-143.0-1.0","null","<p></p>","null","","","","","","","","","","","","","","","","","","","","","","","",""
"","do_trial","269","792763","0.0-144.0-0.0","278.31999998306856","","","","","","","","50","0,1,0","6","blank","355","null","0.2461679673791037","0.4910278165364002","0.058107948245356804","1","","","","","","","","",""
"","html-keyboard-response","270","793766","0.0-144.0-1.0","null","<p></p>","null","","","","","","","","","","","","","","","","","","","","","","","",""
"","do_trial","271","796815","0.0-145.0-0.0","501.6850000247359","","","","","","","","50","0,1,0","6","blank","356","null","0.22720170344932483","0.4583177369206771","0.06263756419674696","1","","","","","","","","",""
"","html-keyboard-response","272","797818","0.0-145.0-1.0","null","<p></p>","null","","","","","","","","","","","","","","","","","","","","","","","",""
"","do_recog","273","800348","0.0-146.0-0.0","1021.4700000360608","","","","","","","","53","","","","357","probe-192","","","","","1","[object Object]","168","4","1","","","",""
"","html-keyboard-response","274","801353","0.0-146.0-1.0","null","<p></p>","null","","","","","","","","","","","","","","","","","","","","","","","",""
"","do_trial","275","804227","0.0-147.0-0.0","326.4199999975972","","","","","","","","50","1,1,0","6","blank","358","null","0.17782242849508173","0.4581816143182759","0.05756989384810215","1","","","","","","","","",""
"","html-keyboard-response","276","805230","0.0-147.0-1.0","null","<p></p>","null","","","","","","","","","","","","","","","","","","","","","","","",""
"","do_trial","277","808276","0.0-148.0-0.0","500.995000009425","","","","","","","","50","1,1,0","6","blank","359","null","0.25532167852747845","0.5721002986115785","0.08300585679049878","1","","","","","","","","",""
"","html-keyboard-response","278","809282","0.0-148.0-1.0","null","<p></p>","null","","","","","","","","","","","","","","","","","","","","","","","",""
"","do_trial","279","812793","0.0-149.0-0.0","965.7200000365265","","","","","","","","50","0,0,0","6","blank","360","null","0.23704507744132813","0.5414992501997241","0.18092374426006952","0","","","","","","","","",""
"","html-keyboard-response","280","813797","0.0-149.0-1.0","null","<p></p>","null","","","","","","","","","","","","","","","","","","","","","","","",""
"","do_recog","281","817072","0.0-150.0-0.0","1766.8100000009872","","","","","","","","53","","","","361","probe-245","","","","","0","[object Object]","null","null","0","","","",""
"","html-keyboard-response","282","818077","0.0-150.0-1.0","null","<p></p>","null","","","","","","","","","","","","","","","","","","","","","","","",""
"","do_trial","283","820985","0.0-151.0-0.0","356.9449999486096","","","","","","","","50","1,1,0","6","blank","362","null","0.2564899832198929","0.5287582968592216","0.06456032846870756","1","","","","","","","","",""
"","html-keyboard-response","284","821987","0.0-151.0-1.0","null","<p></p>","null","","","","","","","","","","","","","","","","","","","","","","","",""
"","do_recog","285","825037","0.0-152.0-0.0","1544.2599999951199","","","","","","","","53","","","","363","probe-171","","","","","1","[object Object]","49","1","1","","","",""
"","html-keyboard-response","286","826040","0.0-152.0-1.0","null","<p></p>","null","","","","","","","","","","","","","","","","","","","","","","","",""
"","do_trial","287","829398","0.0-153.0-0.0","808.0249999766238","","","","","","","","50","0,1,0","6","blank","364","null","0.23680050011115947","0.7124899870455584","0.15323665995278046","1","","","","","","","","",""
"","html-keyboard-response","288","830401","0.0-153.0-1.0","null","<p></p>","null","","","","","","","","","","","","","","","","","","","","","","","",""
"","do_recog","289","833060","0.0-154.0-0.0","1148.7750000087544","","","","","","","","53","","","","365","probe-74","","","","","1","[object Object]","120","3","1","","","",""
"","html-keyboard-response","290","834065","0.0-154.0-1.0","null","<p></p>","null","","","","","","","","","","","","","","","","","","","","","","","",""
"","do_trial","291","837724","0.0-155.0-0.0","1105.1050000241958","","","","","","","","50","0,0,1","6","blank","366","null","0.1711369779409587","0.5159990088931499","0.11614870489431034","0","","","","","","","","",""
"","html-keyboard-response","292","838727","0.0-155.0-1.0","null","<p></p>","null","","","","","","","","","","","","","","","","","","","","","","","",""
"","do_trial","293","842123","0.0-156.0-0.0","846.045000012964","","","","","","","","50","0,0,0","6","blank","367","null","0.4139803389978072","0.5081672214124384","0.08599855299894428","0","","","","","","","","",""
"","html-keyboard-response","294","843125","0.0-156.0-1.0","null","<p></p>","null","","","","","","","","","","","","","","","","","","","","","","","",""
"","do_trial","295","847510","0.0-157.0-0.0","1837.4199999962002","","","","","","","","50","1,0,0","6","blank","368","null","0.33643385459936603","0.4895270299751167","0.05310564983703766","0","","","","","","","","",""
"","html-keyboard-response","296","848515","0.0-157.0-1.0","null","<p></p>","null","","","","","","","","","","","","","","","","","","","","","","","",""
"","do_trial","297","851188","0.0-158.0-0.0","128.12000000849366","","","","","","","","49","1,0,0","6","blank","369","null","0.4551711318598679","0.5596956791782397","0.09292612278078313","1","","","","","","","","",""
"","html-keyboard-response","298","852192","0.0-158.0-1.0","null","<p></p>","null","","","","","","","","","","","","","","","","","","","","","","","",""
"","do_trial","299","854995","0.0-159.0-0.0","253.97999997949228","","","","","","","","49","0,1,0","6","blank","370","null","0.3059185285822922","0.5723740179416216","0.1289719049604924","0","","","","","","","","",""
"","html-keyboard-response","300","855998","0.0-159.0-1.0","null","<p></p>","null","","","","","","","","","","","","","","","","","","","","","","","",""
"","do_trial","301","859512","0.0-160.0-0.0","963.3150000008754","","","","","","","","49","0,1,0","6","blank","371","null","0.3166444742144796","0.518179252754204","0.06244570604334438","0","","","","","","","","",""
"","html-keyboard-response","302","860518","0.0-160.0-1.0","null","<p></p>","null","","","","","","","","","","","","","","","","","","","","","","","",""
"","do_recog","303","863080","0.0-161.0-0.0","1051.5550000127405","","","","","","","","53","","","","372","probe-160","","","","","1","[object Object]","161","4","1","","","",""
"","html-keyboard-response","304","864084","0.0-161.0-1.0","null","<p></p>","null","","","","","","","","","","","","","","","","","","","","","","","",""
"","do_trial","305","867353","0.0-162.0-0.0","717.8399999975227","","","","","","","","49","0,0,0","6","blank","373","null","0.2857285545317722","0.5103021830572054","0.1480888817144289","0","","","","","","","","",""
"","html-keyboard-response","306","868356","0.0-162.0-1.0","null","<p></p>","null","","","","","","","","","","","","","","","","","","","","","","","",""
"","do_recog","307","871298","0.0-163.0-0.0","1433.545000036247","","","","","","","","53","","","","374","probe-254","","","","","0","[object Object]","null","null","0","","","",""
"","html-keyboard-response","308","872300","0.0-163.0-1.0","null","<p></p>","null","","","","","","","","","","","","","","","","","","","","","","","",""
"","do_trial","309","876296","0.0-164.0-0.0","1444.9499999755062","","","","","","","","49","0,1,0","6","blank","375","null","0.46808326528601485","0.5682627248653929","0.13615660398667817","0","","","","","","","","",""
"","html-keyboard-response","310","877300","0.0-164.0-1.0","null","<p></p>","null","","","","","","","","","","","","","","","","","","","","","","","",""
"","do_trial","311","880526","0.0-165.0-0.0","678.7749999784864","","","","","","","","49","0,1,0","6","blank","376","null","0.3707954818552874","0.7943053885637201","0.16047031943833026","0","","","","","","","","",""
"","html-keyboard-response","312","881530","0.0-165.0-1.0","null","<p></p>","null","","","","","","","","","","","","","","","","","","","","","","","",""
"","do_recog","313","884563","0.0-166.0-0.0","1523.0199999641627","","","","","","","","53","","","","377","probe-224","","","","","1","[object Object]","208","5","1","","","",""
"","html-keyboard-response","314","885567","0.0-166.0-1.0","null","<p></p>","null","","","","","","","","","","","","","","","","","","","","","","","",""
"","do_trial","315","889468","0.0-167.0-0.0","1349.1550000035204","","","","","","","","49","0,1,0","6","blank","378","null","0.3857080225229042","0.7255727160229958","0.17892685218541143","0","","","","","","","","",""
"","html-keyboard-response","316","890472","0.0-167.0-1.0","null","<p></p>","null","","","","","","","","","","","","","","","","","","","","","","","",""
"","do_trial","317","893582","0.0-168.0-0.0","562.1400000527501","","","","","","","","49","0,0,0","6","blank","379","null","0.339723069497527","0.8676938872576396","0.21281722255384627","0","","","","","","","","",""
"","html-keyboard-response","318","894586","0.0-168.0-1.0","null","<p></p>","null","","","","","","","","","","","","","","","","","","","","","","","",""
"","do_trial","319","897565","0.0-169.0-0.0","427.96500003896654","","","","","","","","49","1,1,0","6","blank","380","null","0.4566452307355403","0.875685398882834","0.11986272696813503","1","","","","","","","","",""
"","html-keyboard-response","320","898570","0.0-169.0-1.0","null","<p></p>","null","","","","","","","","","","","","","","","","","","","","","","","",""
"","do_trial","321","902049","0.0-170.0-0.0","929.340000031516","","","","","","","","49","0,1,0","6","blank","381","null","0.3201474897974319","0.7441621346056182","0.0586724753525136","0","","","","","","","","",""
"","html-keyboard-response","322","903055","0.0-170.0-1.0","null","<p></p>","null","","","","","","","","","","","","","","","","","","","","","","","",""
"","do_trial","323","906750","0.0-171.0-0.0","1147.365000040736","","","","","","","","49","0,1,0","6","blank","382","null","0.4548165990005412","0.6192170176660062","0.13383061585093078","0","","","","","","","","",""
"","html-keyboard-response","324","907754","0.0-171.0-1.0","null","<p></p>","null","","","","","","","","","","","","","","","","","","","","","","","",""
"","do_recog","325","910584","0.0-172.0-0.0","1320.8350000204518","","","","","","","","53","","","","383","probe-96","","","","","1","[object Object]","84","2","1","","","",""
"","html-keyboard-response","326","911586","0.0-172.0-1.0","null","<p></p>","null","","","","","","","","","","","","","","","","","","","","","","","",""
"","do_trial","327","914561","0.0-173.0-0.0","426.77499999990687","","","","","","","","49","1,0,1","6","blank","384","null","0.28263066343396165","0.6351539755725044","0.13044293882246863","1","","","","","","","","",""
"","html-keyboard-response","328","915566","0.0-173.0-1.0","null","<p></p>","null","","","","","","","","","","","","","","","","","","","","","","","",""
"","do_trial","329","919080","0.0-174.0-0.0","963.5949999792501","","","","","","","","49","0,1,0","6","blank","385","null","0.22860727886331556","0.5507394983015459","0.23320979685830012","0","","","","","","","","",""
"","html-keyboard-response","330","920083","0.0-174.0-1.0","null","<p></p>","null","","","","","","","","","","","","","","","","","","","","","","","",""
"","do_trial","331","922959","0.0-175.0-0.0","324.3699999875389","","","","","","","","50","0,0,0","6","blank","386","null","0.11012979670902057","0.5261818122076085","0.08440230796610168","0","","","","","","","","",""
"","html-keyboard-response","332","923964","0.0-175.0-1.0","null","<p></p>","null","","","","","","","","","","","","","","","","","","","","","","","",""
"","do_trial","333","926939","0.0-176.0-0.0","428.69999998947605","","","","","","","","51","0,0,0","6","blank","387","null","0.2923023640912426","0.4721670219406083","0.1548055130179843","0","","","","","","","","",""
"","html-keyboard-response","334","927943","0.0-176.0-1.0","null","<p></p>","null","","","","","","","","","","","","","","","","","","","","","","","",""
"","do_recog","335","933956","0.0-177.0-0.0","null","","","","","","","","null","","","","388","probe-212","","","","","1","[object Object]","123","3","0","","","",""
"","html-keyboard-response","336","934958","0.0-177.0-1.0","null","<p></p>","null","","","","","","","","","","","","","","","","","","","","","","","",""
"","do_trial","337","937996","0.0-178.0-0.0","487.49500000849366","","","","","","","","51","0,1,0","6","blank","389","null","0.3143465550503521","0.6069009202063292","0.111768804604247","0","","","","","","","","",""
"","html-keyboard-response","338","939002","0.0-178.0-1.0","null","<p></p>","null","","","","","","","","","","","","","","","","","","","","","","","",""
"","do_recog","339","945013","0.0-179.0-0.0","null","","","","","","","","null","","","","390","probe-95","","","","","1","[object Object]","206","5","0","","","",""
"","html-keyboard-response","340","946016","0.0-179.0-1.0","null","<p></p>","null","","","","","","","","","","","","","","","","","","","","","","","",""
"","do_trial","341","949320","0.0-180.0-0.0","754.5350000145845","","","","","","","","51","0,0,0","6","blank","391","null","0.3986629597336381","0.5009634583821978","0.08914830108352348","0","","","","","","","","",""
"","html-keyboard-response","342","950326","0.0-180.0-1.0","null","<p></p>","null","","","","","","","","","","","","","","","","","","","","","","","",""
"","do_trial","343","953059","0.0-181.0-0.0","185.75499998405576","","","","","","","","51","1,0,0","6","blank","392","null","0.4953802601713717","0.5462176762502376","0.10848590687848873","0","","","","","","","","",""
"","html-keyboard-response","344","954063","0.0-181.0-1.0","null","<p></p>","null","","","","","","","","","","","","","","","","","","","","","","","",""
"","do_trial","345","957521","0.0-182.0-0.0","910.8199999900535","","","","","","","","51","1,1,0","6","blank","393","null","0.42258913574367507","0.6797498882589946","0.27222746430002004","0","","","","","","","","",""
"","html-keyboard-response","346","958526","0.0-182.0-1.0","null","<p></p>","null","","","","","","","","","","","","","","","","","","","","","","","",""
"","do_trial","347","961820","0.0-183.0-0.0","748.250000004191","","","","","","","","49","0,1,0","6","blank","394","null","0.26802806313111416","0.5311123172601999","0.18113507229443987","0","","","","","","","","",""
"","html-keyboard-response","348","962822","0.0-183.0-1.0","null","<p></p>","null","","","","","","","","","","","","","","","","","","","","","","","",""
"","do_trial","349","965775","0.0-184.0-0.0","404.0600000298582","","","","","","","","51","0,1,0","6","blank","395","null","0.2956792961912072","0.7005223377761632","0.08305407040154995","0","","","","","","","","",""
"","html-keyboard-response","350","966780","0.0-184.0-1.0","null","<p></p>","null","","","","","","","","","","","","","","","","","","","","","","","",""
"","do_trial","351","969327","0.0-185.0-0.0","0.22499996703118086","","","","","","","","50","0,1,0","6","blank","396","null","0.2599240919227697","0.8239613352586053","0.07441654944633949","1","","","","","","","","",""
"","html-keyboard-response","352","970333","0.0-185.0-1.0","null","<p></p>","null","","","","","","","","","","","","","","","","","","","","","","","",""
"","do_trial","353","973532","0.0-186.0-0.0","650.3500000108033","","","","","","","","49","1,0,0","6","blank","397","null","0.393531031025285","0.8134039242019043","0.09086547561999772","1","","","","","","","","",""
"","html-keyboard-response","354","974535","0.0-186.0-1.0","null","<p></p>","null","","","","","","","","","","","","","","","","","","","","","","","",""
"","do_recog","355","978271","0.0-187.0-0.0","2226.79500002414","","","","","","","","53","","","","398","probe-180","","","","","1","[object Object]","45","1","1","","","",""
"","html-keyboard-response","356","979275","0.0-187.0-1.0","null","<p></p>","null","","","","","","","","","","","","","","","","","","","","","","","",""
"","do_trial","357","981893","0.0-188.0-0.0","68.76499997451901","","","","","","","","49","0,0,0","6","blank","399","null","0.3490849275191333","0.742989412771888","0.17025267605236633","0","","","","","","","","",""
"","html-keyboard-response","358","982898","0.0-188.0-1.0","null","<p></p>","null","","","","","","","","","","","","","","","","","","","","","","","",""
"","do_trial","359","986465","0.0-189.0-0.0","1017.2700000111945","","","","","","","","50","0,1,0","6","blank","400","null","0.6640381512110023","0.5010789009553515","0.13091444898649804","1","","","","","","","","",""
"","html-keyboard-response","360","987469","0.0-189.0-1.0","null","<p></p>","null","","","","","","","","","","","","","","","","","","","","","","","",""
"","do_recog","361","993482","0.0-190.0-0.0","null","","","","","","","","null","","","","401","probe-62","","","","","1","[object Object]","166","4","0","","","",""
"","html-keyboard-response","362","994483","0.0-190.0-1.0","null","<p></p>","null","","","","","","","","","","","","","","","","","","","","","","","",""
"","do_trial","363","997035","0.0-191.0-0.0","0.13500003842636943","","","","","","","","49","1,0,0","6","blank","402","null","0.5329822649736512","0.33815054784396226","0.08335554984016222","1","","","","","","","","",""
"","html-keyboard-response","364","998038","0.0-191.0-1.0","null","<p></p>","null","","","","","","","","","","","","","","","","","","","","","","","",""
"","do_recog","365","1000455","0.0-192.0-0.0","909.3599999905564","","","","","","","","53","","","","403","probe-219","","","","","1","[object Object]","89","2","1","","","",""
"","html-keyboard-response","366","1001459","0.0-192.0-1.0","null","<p></p>","null","","","","","","","","","","","","","","","","","","","","","","","",""
"","do_trial","367","1004468","0.0-193.0-0.0","460.44500003336","","","","","","","","49","1,0,0","6","blank","404","null","0.6458870611596516","0.4390896272122305","0.19907349733937602","1","","","","","","","","",""
"","html-keyboard-response","368","1005470","0.0-193.0-1.0","null","<p></p>","null","","","","","","","","","","","","","","","","","","","","","","","",""
"","do_recog","369","1008099","0.0-194.0-0.0","1120.9600000292994","","","","","","","","53","","","","405","probe-40","","","","","1","[object Object]","88","2","1","","","",""
"","html-keyboard-response","370","1009102","0.0-194.0-1.0","null","<p></p>","null","","","","","","","","","","","","","","","","","","","","","","","",""
"","do_trial","371","1012214","0.0-195.0-0.0","562.7000000094995","","","","","","","","49","0,1,0","6","blank","406","null","0.5572556685361724","0.434298356422444","0.11670868171916572","0","","","","","","","","",""
"","html-keyboard-response","372","1013220","0.0-195.0-1.0","null","<p></p>","null","","","","","","","","","","","","","","","","","","","","","","","",""
"","do_trial","373","1016124","0.0-196.0-0.0","353.99999999208376","","","","","","","","49","1,1,1","6","blank","407","null","0.552834212116865","0.3096340154757546","0.16243328924843475","1","","","","","","","","",""
"","html-keyboard-response","374","1017129","0.0-196.0-1.0","null","<p></p>","null","","","","","","","","","","","","","","","","","","","","","","","",""
"","do_trial","375","1020688","0.0-197.0-0.0","1011.4750000066124","","","","","","","","49","0,0,0","6","blank","408","null","0.505265642104089","0.2267614758583564","0.20739031814502362","0","","","","","","","","",""
"","html-keyboard-response","376","1021691","0.0-197.0-1.0","null","<p></p>","null","","","","","","","","","","","","","","","","","","","","","","","",""
"","do_recog","377","1024355","0.0-198.0-0.0","1157.2750000050291","","","","","","","","53","","","","409","probe-12","","","","","1","[object Object]","44","1","1","","","",""
"","html-keyboard-response","378","1025358","0.0-198.0-1.0","null","<p></p>","null","","","","","","","","","","","","","","","","","","","","","","","",""
"","do_trial","379","1028569","0.0-199.0-0.0","665.2199999662116","","","","","","","","49","0,0,0","6","blank","410","null","0.7123820235494334","0.3240525555285765","0.17790837908545726","0","","","","","","","","",""
"","html-keyboard-response","380","1029574","0.0-199.0-1.0","null","<p></p>","null","","","","","","","","","","","","","","","","","","","","","","","",""
"","do_trial","381","1033225","0.0-200.0-0.0","1102.8650000225753","","","","","","","","51","1,0,0","6","blank","411","null","0.7086988866527537","0.27365763043898744","0.15442994120664258","0","","","","","","","","",""
"","html-keyboard-response","382","1034228","0.0-200.0-1.0","null","<p></p>","null","","","","","","","","","","","","","","","","","","","","","","","",""
"","do_trial","383","1037252","0.0-201.0-0.0","476.410000002943","","","","","","","","51","0,1,0","6","blank","412","null","0.6979887929287135","0.2584041143059909","0.1801992873126822","0","","","","","","","","",""
"","html-keyboard-response","384","1038257","0.0-201.0-1.0","null","<p></p>","null","","","","","","","","","","","","","","","","","","","","","","","",""
"","do_recog","385","1041642","0.0-202.0-0.0","1873.7399999517947","","","","","","","","53","","","","413","probe-213","","","","","1","[object Object]","43","1","1","","","",""
"","html-keyboard-response","386","1042646","0.0-202.0-1.0","null","<p></p>","null","","","","","","","","","","","","","","","","","","","","","","","",""
"","do_trial","387","1046099","0.0-203.0-0.0","900.374999968335","","","","","","","","49","1,0,0","6","blank","414","null","0.5833616275857364","0.326255949939987","0.16585964639083817","1","","","","","","","","",""
"","html-keyboard-response","388","1047104","0.0-203.0-1.0","null","<p></p>","null","","","","","","","","","","","","","","","","","","","","","","","",""
"","do_trial","389","1050094","0.0-204.0-0.0","442.0449999743141","","","","","","","","49","0,1,0","6","blank","415","null","0.7115400135705704","0.326845604007001","0.09662443625284334","0","","","","","","","","",""
"","html-keyboard-response","390","1051097","0.0-204.0-1.0","null","<p></p>","null","","","","","","","","","","","","","","","","","","","","","","","",""
"","do_recog","391","1057107","0.0-205.0-0.0","null","","","","","","","","null","","","","416","probe-155","","","","","1","[object Object]","41","1","0","","","",""
"","html-keyboard-response","392","1058110","0.0-205.0-1.0","null","<p></p>","null","","","","","","","","","","","","","","","","","","","","","","","",""
"","do_trial","393","1060986","0.0-206.0-0.0","318.5599999851547","","","","","","","","51","1,1,0","6","blank","417","null","0.6233248221889118","0.27057271169477476","0.11874693057220016","0","","","","","","","","",""
"","html-keyboard-response","394","1061988","0.0-206.0-1.0","null","<p></p>","null","","","","","","","","","","","","","","","","","","","","","","","",""
"","do_trial","395","1065591","0.0-207.0-0.0","1054.9050000263378","","","","","","","","51","1,0,0","6","blank","418","null","0.6120528159271083","0.41654190491732423","0.15151978216640963","0","","","","","","","","",""
"","html-keyboard-response","396","1066592","0.0-207.0-1.0","null","<p></p>","null","","","","","","","","","","","","","","","","","","","","","","","",""
"","do_trial","397","1069521","0.0-208.0-0.0","377.7600000030361","","","","","","","","49","1,0,0","6","blank","419","null","0.6713364964654843","0.33973074905090833","0.245093593486614","1","","","","","","","","",""
"","html-keyboard-response","398","1070525","0.0-208.0-1.0","null","<p></p>","null","","","","","","","","","","","","","","","","","","","","","","","",""
"","do_trial","399","1073723","0.0-209.0-0.0","653.6599999526516","","","","","","","","49","1,1,0","6","blank","420","null","0.7242805608944047","0.3157174334109446","0.19846823674347888","1","","","","","","","","",""
"","html-keyboard-response","400","1074729","0.0-209.0-1.0","null","<p></p>","null","","","","","","","","","","","","","","","","","","","","","","","",""
"","do_trial","401","1078667","0.0-210.0-0.0","1388.1599999731407","","","","","","","","49","1,0,0","6","blank","421","null","0.7304971927202971","0.2602833113157426","0.23275569022497108","1","","","","","","","","",""
"","html-keyboard-response","402","1079673","0.0-210.0-1.0","null","<p></p>","null","","","","","","","","","","","","","","","","","","","","","","","",""
"","do_trial","403","1082964","0.0-211.0-0.0","744.9150000466034","","","","","","","","49","0,0,0","6","blank","422","null","0.6373552543341928","0.27412038078046","0.244759590267441","0","","","","","","","","",""
"","html-keyboard-response","404","1083967","0.0-211.0-1.0","null","<p></p>","null","","","","","","","","","","","","","","","","","","","","","","","",""
"","do_recog","405","1089977","0.0-212.0-0.0","null","","","","","","","","null","","","","423","probe-104","","","","","1","[object Object]","121","3","0","","","",""
"","html-keyboard-response","406","1090980","0.0-212.0-1.0","null","<p></p>","null","","","","","","","","","","","","","","","","","","","","","","","",""
"","do_trial","407","1094205","0.0-213.0-0.0","678.6950000096112","","","","","","","","49","0,0,0","6","blank","424","null","0.46652144244223337","0.23636035919066659","0.14325815703189201","0","","","","","","","","",""
"","html-keyboard-response","408","1095210","0.0-213.0-1.0","null","<p></p>","null","","","","","","","","","","","","","","","","","","","","","","","",""
"","do_trial","409","1098153","0.0-214.0-0.0","393.42999999644235","","","","","","","","49","0,0,0","6","blank","425","null","0.35137791246202016","0.3433874857196662","0.10972613929966606","0","","","","","","","","",""
"","html-keyboard-response","410","1099158","0.0-214.0-1.0","null","<p></p>","null","","","","","","","","","","","","","","","","","","","","","","","",""
"","do_trial","411","1102463","0.0-215.0-0.0","760.7250000000931","","","","","","","","49","0,0,0","6","blank","426","null","0.42850529748717003","0.4167244809615197","0.0550786664567382","0","","","","","","","","",""
"","html-keyboard-response","412","1103467","0.0-215.0-1.0","null","<p></p>","null","","","","","","","","","","","","","","","","","","","","","","","",""
"","do_recog","413","1109479","0.0-216.0-0.0","null","","","","","","","","null","","","","427","probe-163","","","","","1","[object Object]","202","5","0","","","",""
"","html-keyboard-response","414","1110484","0.0-216.0-1.0","null","<p></p>","null","","","","","","","","","","","","","","","","","","","","","","","",""
"","do_trial","415","1113480","0.0-217.0-0.0","447.0600000349805","","","","","","","","49","0,0,0","6","blank","428","null","0.46271461955663923","0.3381332433113164","0.052072592544730796","0","","","","","","","","",""
"","html-keyboard-response","416","1114484","0.0-217.0-1.0","null","<p></p>","null","","","","","","","","","","","","","","","","","","","","","","","",""
"","do_trial","417","1118486","0.0-218.0-0.0","1454.524999950081","","","","","","","","49","0,0,0","6","blank","429","null","0.5171198813577381","0.34957233647744085","0.07728312714430417","0","","","","","","","","",""
"","html-keyboard-response","418","1119489","0.0-218.0-1.0","null","<p></p>","null","","","","","","","","","","","","","","","","","","","","","","","",""
"","do_trial","419","1123587","0.0-219.0-0.0","1551.0600000270642","","","","","","","","51","1,1,0","6","blank","430","null","0.6359825307085224","0.4047790372692165","0.14603302159026185","0","","","","","","","","",""
"","html-keyboard-response","420","1124592","0.0-219.0-1.0","null","<p></p>","null","","","","","","","","","","","","","","","","","","","","","","","",""
"","do_trial","421","1128012","0.0-220.0-0.0","869.1349999862723","","","","","","","","49","1,1,0","6","blank","431","null","0.5580841600233132","0.3393412457214796","0.10928138282491494","1","","","","","","","","",""
"","html-keyboard-response","422","1129014","0.0-220.0-1.0","null","<p></p>","null","","","","","","","","","","","","","","","","","","","","","","","",""
"","do_trial","423","1132079","0.0-221.0-0.0","518.1650000158697","","","","","","","","51","1,1,0","6","blank","432","null","0.46588273714163714","0.298222404603951","0.06439824950459873","0","","","","","","","","",""
"","html-keyboard-response","424","1133085","0.0-221.0-1.0","null","<p></p>","null","","","","","","","","","","","","","","","","","","","","","","","",""
"","do_trial","425","1136068","0.0-222.0-0.0","432.4800000176765","","","","","","","","49","0,1,0","6","blank","433","null","0.5487516884081745","0.2876923231537265","0.13786703547346493","0","","","","","","","","",""
"","html-keyboard-response","426","1137074","0.0-222.0-1.0","null","<p></p>","null","","","","","","","","","","","","","","","","","","","","","","","",""
"","do_recog","427","1143083","0.0-223.0-0.0","null","","","","","","","","null","","","","434","probe-85","","","","","1","[object Object]","86","2","0","","","",""
"","html-keyboard-response","428","1144086","0.0-223.0-1.0","null","<p></p>","null","","","","","","","","","","","","","","","","","","","","","","","",""
"","do_trial","429","1146877","0.0-224.0-0.0","242.65000002924353","","","","","","","","49","1,0,0","6","blank","435","null","0.656538853188229","0.17567883156457534","0.13352773818597918","1","","","","","","","","",""
"","html-keyboard-response","430","1147881","0.0-224.0-1.0","null","<p></p>","null","","","","","","","","","","","","","","","","","","","","","","","",""
"","do_recog","431","1150946","0.0-225.0-0.0","1556.395000021439","","","","","","","","53","","","","436","probe-63","","","","","1","[object Object]","80","2","1","","","",""
"","html-keyboard-response","432","1151948","0.0-225.0-1.0","null","<p></p>","null","","","","","","","","","","","","","","","","","","","","","","","",""
"","do_trial","433","1157035","0.0-226.0-0.0","2532.0449999999255","","","","","","","","49","1,0,0","6","blank","437","null","0.6450973731257679","0.17555993870591854","0.07368636998108775","1","","","","","","","","",""
"","html-keyboard-response","434","1158039","0.0-226.0-1.0","null","<p></p>","null","","","","","","","","","","","","","","","","","","","","","","","",""
"","do_trial","435","1161371","0.0-227.0-0.0","782.8599999775179","","","","","","","","49","0,1,1","6","blank","438","null","0.720866514241544","0.290993392075777","0.08697752982610137","0","","","","","","","","",""
"","html-keyboard-response","436","1162377","0.0-227.0-1.0","null","<p></p>","null","","","","","","","","","","","","","","","","","","","","","","","",""
"","do_trial","437","1165276","0.0-228.0-0.0","352.565000008326","","","","","","","","49","1,0,0","6","blank","439","null","0.6501220786922239","0.2291314038173836","0.2102185083188865","1","","","","","","","","",""
"","html-keyboard-response","438","1166279","0.0-228.0-1.0","null","<p></p>","null","","","","","","","","","","","","","","","","","","","","","","","",""
"","do_trial","439","1170046","0.0-229.0-0.0","1217.8449999773875","","","","","","","","49","1,0,1","6","blank","440","null","0.690678713728195","0.22166203501155907","0.146460303628114","1","","","","","","","","",""
"","html-keyboard-response","440","1171049","0.0-229.0-1.0","null","<p></p>","null","","","","","","","","","","","","","","","","","","","","","","","",""
"","do_recog","441","1174118","0.0-230.0-0.0","1560.1949999690987","","","","","","","","53","","","","441","probe-119","","","","","1","[object Object]","209","5","1","","","",""
"","html-keyboard-response","442","1175121","0.0-230.0-1.0","null","<p></p>","null","","","","","","","","","","","","","","","","","","","","","","","",""
"","do_trial","443","1179543","0.0-231.0-0.0","1871.5050000464544","","","","","","","","49","1,0,0","6","blank","442","null","0.7452130651142908","0.41257076688476063","0.16126252197901295","1","","","","","","","","",""
"","html-keyboard-response","444","1180547","0.0-231.0-1.0","null","<p></p>","null","","","","","","","","","","","","","","","","","","","","","","","",""
"","do_recog","445","1182979","0.0-232.0-0.0","922.7850000024773","","","","","","","","53","","","","443","probe-17","","","","","1","[object Object]","163","4","1","","","",""
"","html-keyboard-response","446","1183980","0.0-232.0-1.0","null","<p></p>","null","","","","","","","","","","","","","","","","","","","","","","","",""
"","do_trial","447","1190029","0.0-233.0-0.0","null","","","","","","","","null","0,0,0","6","blank","444","null","0.6850010562559717","0.4166013200342228","0.26026182890153915","","","","","","","","","",""
"","html-keyboard-response","448","1191031","0.0-233.0-1.0","null","<p></p>","null","","","","","","","","","","","","","","","","","","","","","","","",""
"","do_trial","449","1195234","0.0-234.0-0.0","1655.5050000315532","","","","","","","","49","1,0,0","6","blank","445","null","0.7258898119309792","0.35722577088189456","0.08509387023364028","1","","","","","","","","",""
"","html-keyboard-response","450","1196240","0.0-234.0-1.0","null","<p></p>","null","","","","","","","","","","","","","","","","","","","","","","","",""
"","do_trial","451","1200156","0.0-235.0-0.0","1368.5399999958463","","","","","","","","49","1,0,0","6","blank","446","null","0.6674061020477503","0.39025132908444604","0.15416197795306072","1","","","","","","","","",""
"","html-keyboard-response","452","1201159","0.0-235.0-1.0","null","<p></p>","null","","","","","","","","","","","","","","","","","","","","","","","",""
"","do_trial","453","1205219","0.0-236.0-0.0","1512.5150000094436","","","","","","","","49","1,1,1","6","blank","447","null","0.6659359748623527","0.4056529905094449","0.11004983091401707","1","","","","","","","","",""
"","html-keyboard-response","454","1206224","0.0-236.0-1.0","null","<p></p>","null","","","","","","","","","","","","","","","","","","","","","","","",""
"","do_trial","455","1209223","0.0-237.0-0.0","450.8700000005774","","","","","","","","49","0,0,0","6","blank","448","null","0.6522650305692571","0.394438335925494","0.07790840971008456","0","","","","","","","","",""
"","html-keyboard-response","456","1210227","0.0-237.0-1.0","null","<p></p>","null","","","","","","","","","","","","","","","","","","","","","","","",""
"","do_trial","457","1213351","0.0-238.0-0.0","575.8150000474416","","","","","","","","49","1,1,0","6","blank","449","null","0.7925846184564768","0.3154434264446356","0.08105390621199937","1","","","","","","","","",""
"","html-keyboard-response","458","1214358","0.0-238.0-1.0","null","<p></p>","null","","","","","","","","","","","","","","","","","","","","","","","",""
"","do_recog","459","1217169","0.0-239.0-0.0","1301.4900000416674","","","","","","","","53","","","","450","probe-48","","","","","1","[object Object]","40","1","1","","","",""
"","html-keyboard-response","460","1218174","0.0-239.0-1.0","null","<p></p>","null","","","","","","","","","","","","","","","","","","","","","","","",""
"","do_trial","461","1220851","0.0-240.0-0.0","128.21499997517094","","","","","","","","49","1,0,0","6","blank","451","null","0.526048897070818","0.2389044311413645","0.05680130210587461","1","","","","","","","","",""
"","html-keyboard-response","462","1221853","0.0-240.0-1.0","null","<p></p>","null","","","","","","","","","","","","","","","","","","","","","","","",""
"","do_recog","463","1225118","0.0-241.0-0.0","1753.2099999953061","","","","","","","","53","","","","452","probe-100","","","","","1","[object Object]","122","3","1","","","",""
"","html-keyboard-response","464","1226123","0.0-241.0-1.0","null","<p></p>","null","","","","","","","","","","","","","","","","","","","","","","","",""
"","do_trial","465","1229308","0.0-242.0-0.0","636.9699999922886","","","","","","","","49","1,0,0","6","blank","453","null","0.4485921656426767","0.38824667726535145","0.07545890454555201","1","","","","","","","","",""
"","html-keyboard-response","466","1230313","0.0-242.0-1.0","null","<p></p>","null","","","","","","","","","","","","","","","","","","","","","","","",""
"","do_trial","467","1233478","0.0-243.0-0.0","616.379999963101","","","","","","","","49","0,0,0","6","blank","454","null","0.3987210062092288","0.32933522058303993","0.20214080077603178","0","","","","","","","","",""
"","html-keyboard-response","468","1234483","0.0-243.0-1.0","null","<p></p>","null","","","","","","","","","","","","","","","","","","","","","","","",""
"","do_trial","469","1239053","0.0-244.0-0.0","2024.9150000163354","","","","","","","","49","0,0,0","6","blank","455","null","0.30639540820145317","0.3364837581106044","0.35534167339983364","0","","","","","","","","",""
"","html-keyboard-response","470","1240056","0.0-244.0-1.0","null","<p></p>","null","","","","","","","","","","","","","","","","","","","","","","","",""
"","do_trial","471","1243431","0.0-245.0-0.0","829.9250000272878","","","","","","","","49","0,0,0","6","blank","456","null","0.05924873224104012","0.30273546254981876","0.3988775646671533","0","","","","","","","","",""
"","html-keyboard-response","472","1244435","0.0-245.0-1.0","null","<p></p>","null","","","","","","","","","","","","","","","","","","","","","","","",""
"","do_trial","473","1248096","0.0-246.0-0.0","1111.0449999687262","","","","","","","","49","1,0,1","6","blank","457","null","0.13807900978100715","0.16424178263529246","0.5486197271392608","1","","","","","","","","",""
"","html-keyboard-response","474","1249101","0.0-246.0-1.0","null","<p></p>","null","","","","","","","","","","","","","","","","","","","","","","","",""
"","do_trial","475","1252229","0.0-247.0-0.0","580.9149999986403","","","","","","","","49","0,1,1","6","blank","458","null","0.13515573086490168","0.21237387666682916","0.6558308973497977","0","","","","","","","","",""
"","html-keyboard-response","476","1253233","0.0-247.0-1.0","null","<p></p>","null","","","","","","","","","","","","","","","","","","","","","","","",""
"","do_recog","477","1256414","0.0-248.0-0.0","1674.3850000202656","","","","","","","","53","","","","459","probe-45","","","","","1","[object Object]","128","3","1","","","",""
"","html-keyboard-response","478","1257420","0.0-248.0-1.0","null","<p></p>","null","","","","","","","","","","","","","","","","","","","","","","","",""
"","do_trial","479","1262070","0.0-249.0-0.0","2101.5149999875575","","","","","","","","49","0,0,0","6","blank","460","null","0.1301368512395814","0.2773304380265596","0.6138487706549726","0","","","","","","","","",""
"","html-keyboard-response","480","1263072","0.0-249.0-1.0","null","<p></p>","null","","","","","","","","","","","","","","","","","","","","","","","",""
"","do_recog","481","1266087","0.0-250.0-0.0","1506.9599999696948","","","","","","","","53","","","","461","probe-56","","","","","1","[object Object]","203","5","1","","","",""
"","html-keyboard-response","482","1267091","0.0-250.0-1.0","null","<p></p>","null","","","","","","","","","","","","","","","","","","","","","","","",""
"","do_trial","483","1272123","0.0-251.0-0.0","2484.1449999948964","","","","","","","","49","0,0,1","6","blank","462","null","0.18378336404767606","0.3372230642940636","0.4981037123737398","0","","","","","","","","",""
"","html-keyboard-response","484","1273127","0.0-251.0-1.0","null","<p></p>","null","","","","","","","","","","","","","","","","","","","","","","","",""
"","do_recog","485","1275709","0.0-252.0-0.0","1074.3249999941327","","","","","","","","53","","","","463","probe-08","","","","","1","[object Object]","167","4","1","","","",""
"","html-keyboard-response","486","1276713","0.0-252.0-1.0","null","<p></p>","null","","","","","","","","","","","","","","","","","","","","","","","",""
"","do_trial","487","1280243","0.0-253.0-0.0","981.5550000057556","","","","","","","","49","0,0,0","6","blank","464","null","0.2005300374309653","0.32414859803157753","0.5213506135671225","0","","","","","","","","",""
"","html-keyboard-response","488","1281248","0.0-253.0-1.0","null","<p></p>","null","","","","","","","","","","","","","","","","","","","","","","","",""
"","do_recog","489","1284135","0.0-254.0-0.0","1380.1949999760836","","","","","","","","53","","","","465","probe-239","","","","","0","[object Object]","null","null","0","","","",""
"","html-keyboard-response","490","1285137","0.0-254.0-1.0","null","<p></p>","null","","","","","","","","","","","","","","","","","","","","","","","",""
"","do_trial","491","1291194","0.0-255.0-0.0","null","","","","","","","","null","0,1,1","6","blank","466","null","0.27065974248860053","0.28323036814923","0.536354142393864","","","","","","","","","",""
"","html-keyboard-response","492","1292198","0.0-255.0-1.0","null","<p></p>","null","","","","","","","","","","","","","","","","","","","","","","","",""
"","do_trial","493","1295706","0.0-256.0-0.0","953.5150000010617","","","","","","","","49","0,0,0","6","blank","467","null","0.1507982173956389","0.34884407914979676","0.5626621543845997","0","","","","","","","","",""
"","html-keyboard-response","494","1296710","0.0-256.0-1.0","null","<p></p>","null","","","","","","","","","","","","","","","","","","","","","","","",""
"","do_trial","495","1299968","0.0-257.0-0.0","712.7949999994598","","","","","","","","49","0,0,1","6","blank","468","null","0.06354089151957779","0.276353445407422","0.6765912334892126","0","","","","","","","","",""
"","html-keyboard-response","496","1300971","0.0-257.0-1.0","null","<p></p>","null","","","","","","","","","","","","","","","","","","","","","","","",""
"","do_recog","497","1306982","0.0-258.0-0.0","null","","","","","","","","null","","","","469","probe-248","","","","","0","[object Object]","null","null","0","","","",""
"","html-keyboard-response","498","1307986","0.0-258.0-1.0","null","<p></p>","null","","","","","","","","","","","","","","","","","","","","","","","",""
"","do_trial","499","1312874","0.0-259.0-0.0","2339.4850000040606","","","","","","","","49","1,0,1","6","blank","470","null","0.1601624943437546","0.2908853388025818","0.6700532741648471","1","","","","","","","","",""
"","html-keyboard-response","500","1313878","0.0-259.0-1.0","null","<p></p>","null","","","","","","","","","","","","","","","","","","","","","","","",""
"","do_trial","501","1316891","0.0-260.0-0.0","464.5699999528006","","","","","","","","49","0,0,1","6","blank","471","null","0.17640811707535786","0.28925383218579764","0.6894303457847686","0","","","","","","","","",""
"","html-keyboard-response","502","1317896","0.0-260.0-1.0","null","<p></p>","null","","","","","","","","","","","","","","","","","","","","","","","",""
"","do_recog","503","1321018","0.0-261.0-0.0","1612.2600000235252","","","","","","","","53","","","","472","probe-251","","","","","0","[object Object]","null","null","0","","","",""
"","html-keyboard-response","504","1322024","0.0-261.0-1.0","null","<p></p>","null","","","","","","","","","","","","","","","","","","","","","","","",""
"","do_trial","505","1325409","0.0-262.0-0.0","838.8150000246242","","","","","","","","49","0,0,1","6","blank","473","null","0.12665515444186976","0.16478801882178154","0.6776877035007906","0","","","","","","","","",""
"","html-keyboard-response","506","1326412","0.0-262.0-1.0","null","<p></p>","null","","","","","","","","","","","","","","","","","","","","","","","",""
"","do_trial","507","1329458","0.0-263.0-0.0","501.04999996256083","","","","","","","","49","0,0,0","6","blank","474","null","0.19522642925918327","0.21712436064356375","0.5966904362382844","0","","","","","","","","",""
"","html-keyboard-response","508","1330461","0.0-263.0-1.0","null","<p></p>","null","","","","","","","","","","","","","","","","","","","","","","","",""
"","do_trial","509","1335611","0.0-264.0-0.0","2602.034999988973","","","","","","","","49","0,0,0","6","blank","475","null","0.0954249451853816","0.24520474215336002","0.6013759800487817","0","","","","","","","","",""
"","html-keyboard-response","510","1336619","0.0-264.0-1.0","null","<p></p>","null","","","","","","","","","","","","","","","","","","","","","","","",""
"","do_trial","511","1340850","0.0-265.0-0.0","1682.944999949541","","","","","","","","49","0,1,1","6","blank","476","null","0.20048169749316805","0.17690999898862272","0.461329818088771","0","","","","","","","","",""
