"success","trial_type","trial_index","time_elapsed","internal_node_id","interactions","blur_events","focus_events","fullscreenenter_events","fullscreenexit_events","rt","stimulus","key_press","subject_id","participant_id","age","gender","prompt","response","choice_outcomes","context_n","context_img_id","trial_n","probe_img_id","pR_red","pR_white","pR_black","outcome","is_valid","image_to_show","probed_trial","probed_context","correct","probe","probed_trial_n","probed_context_n","context_im"
"true","fullscreen","0","13832","0.0-0.0","""event"",""trial"",""time""
""fullscreenenter"",""0"",""12857""
","
","
","""event"",""trial"",""time""
""fullscreenenter"",""0"",""12857""
","
","","","","","","","","","","","","","","","","","","","","","","","","","","",""
"","pavlovia","1","13836","0.0-1.0","""event"",""trial"",""time""
""fullscreenenter"",""0"",""12857""
","
","
","""event"",""trial"",""time""
""fullscreenenter"",""0"",""12857""
","
","","","","","","","","","","","","","","","","","","","","","","","","","","",""
"","welc_back","2","23680","0.0-2.0","""event"",""trial"",""time""
""fullscreenenter"",""0"",""12857""
","
","
","""event"",""trial"",""time""
""fullscreenenter"",""0"",""12857""
","
","null","run_exp/static/audio/clip_29_welcome_back.m4a","null","544","42","20","Female","<div class='center'><p>Welcome to day 2!</p><p> Yesterday, you were the head captain of a pirate ship. You asked your fellow pirates to rob other ships of their gold across six different islands.</p></div>","","","","","","","","","","","","","","","","","","",""
"","html-keyboard-response","3","27265","0.0-3.0","""event"",""trial"",""time""
""fullscreenenter"",""0"",""12857""
","
","
","""event"",""trial"",""time""
""fullscreenenter"",""0"",""12857""
","
","3583.4000000059605","<div class='center'><p>Welcome to day 2!</p><p> Yesterday, you were the head captain of a pirate ship. You asked your fellow pirates to rob other ships of their gold across six different islands.</p><p><b>[Press the space bar to continue]</b></p></div>","32","","","","","","","","","","","","","","","","","","","","","","","",""
"","day_1_summary_goal","4","44461","0.0-4.0","""event"",""trial"",""time""
""fullscreenenter"",""0"",""12857""
","
","
","""event"",""trial"",""time""
""fullscreenenter"",""0"",""12857""
","
","null","run_exp/static/audio/clip_30_goal_of_game.m4a","null","","","","","<div class='center'><p>Today, like yesterday, you get to pick which pirate you want to rob the next ship.</p><p>If the pirate is successful in robbing a ship, you get gold coins that look like this: </p><p><img src='run_exp/static/images/tutorial/reward.png' height='150'></p><p> If they were not successful in robbing the ship, then you will get no gold coins and you'll see a big red x like this: </p><p><img src='run_exp/static/images/tutorial/reward_no.png' height='150'></p></div>","","","","","","","","","","","","","","","","","","",""
"","html-keyboard-response","5","44944","0.0-5.0","""event"",""trial"",""time""
""fullscreenenter"",""0"",""12857""
","
","
","""event"",""trial"",""time""
""fullscreenenter"",""0"",""12857""
","
","481.90000000596046","<div class='center'><p>Today, like yesterday, you get to pick which pirate you want to rob the next ship.</p><p>If the pirate is successful in robbing a ship, you get gold coins that look like this: </p><p><img src='run_exp/static/images/tutorial/reward.png' height='150'></p><p> If they were not successful in robbing the ship, then you will get no gold coins and you'll see a big red x like this: </p><p><img src='run_exp/static/images/tutorial/reward_no.png' height='150'></p><p><b>[Press the space bar to continue]</b></p></div>","32","","","","","","","","","","","","","","","","","","","","","","","",""
"","day_1_summary_pick","6","59647","0.0-6.0","""event"",""trial"",""time""
""fullscreenenter"",""0"",""12857""
","
","
","""event"",""trial"",""time""
""fullscreenenter"",""0"",""12857""
","
","null","run_exp/static/audio/clip_31_how_to_pick_a_pirate.m4a","null","","","","","<div class='center'><p>Also, just like yesterday, you will use the 1,2,3 keys on your keyboard to pick a pirate. Press '1' to choose red beard, '2' to choose white beard, and '3' to choose black beard . You only have 3 seconds to pick a pirate, so please make a choice quickly!</p></div>","","","","","","","","","","","","","","","","","","",""
"","html-keyboard-response","7","62395","0.0-7.0","""event"",""trial"",""time""
""fullscreenenter"",""0"",""12857""
","
","
","""event"",""trial"",""time""
""fullscreenenter"",""0"",""12857""
","
","2747.5","<div class='center'><p>Also, just like yesterday, you will use the 1,2,3 keys on your keyboard to pick a pirate. Press '1' to choose red beard, '2' to choose white beard, and '3' to choose black beard . You only have 3 seconds to pick a pirate, so please make a choice quickly!</p><p><b>[Press the space bar to continue]</b></p></div>","32","","","","","","","","","","","","","","","","","","","","","","","",""
"","test_phase_begin","8","92781","0.0-8.0","""event"",""trial"",""time""
""fullscreenenter"",""0"",""12857""
","
","
","""event"",""trial"",""time""
""fullscreenenter"",""0"",""12857""
","
","null","run_exp/static/audio/clip_32_final_place.m4a","null","","","","","<div class='center'><p>You’ve arrived at the final island of your journey! Unfortunately, it’s very foggy out, so you won’t be able to see it in the distance like the other islands you've visited.</p><p>You’ll still be deciding which pirate you want to rob a ship like before. However, because of the fog, you also won’t be able to see the ship.</p><p>This means you do not have to remember the ships you rob on this island.</p><p>Unlike yesterday, you won't be visiting multiple islands today. You will stay on this island for the entire game. This game will last ~30 minutes.</p></div>","","","","","","","","","","","","","","","","","","",""
"","html-keyboard-response","9","93670","0.0-9.0","""event"",""trial"",""time""
""fullscreenenter"",""0"",""12857""
","
","
","""event"",""trial"",""time""
""fullscreenenter"",""0"",""12857""
","
","887.6999999880791","<div class='center'><p>You’ve arrived at the final island of your journey! Unfortunately, it’s very foggy out, so you won’t be able to see it in the distance like the other islands you've visited.</p><p>You’ll still be deciding which pirate you want to rob a ship like before. However, because of the fog, you also won’t be able to see the ship.</p><p>This means you do not have to remember the ships you rob on this island.</p><p>Unlike yesterday, you won't be visiting multiple islands today. You will stay on this island for the entire game. This game will last ~30 minutes.</p><p><b>[Press the space bar to continue]</b></p></div>","32","","","","","","","","","","","","","","","","","","","","","","","",""
"","explain_probe_1","10","101372","0.0-10.0","""event"",""trial"",""time""
""fullscreenenter"",""0"",""12857""
","
","
","""event"",""trial"",""time""
""fullscreenenter"",""0"",""12857""
","
","null","run_exp/static/audio/clip_33_recognition_1.m4a","null","","","","","<div class='center'><p> Sometimes you’ll be shown a ship, and you will be asked if you saw this ship on a past island.</p><p> Here is an example of what you will see.</p><p><img src='run_exp/static/images/tutorial/example_recog_trial.png' height='500'></p></div>","","","","","","","","","","","","","","","","","","",""
"","html-keyboard-response","11","106499","0.0-11.0","""event"",""trial"",""time""
""fullscreenenter"",""0"",""12857""
","
","
","""event"",""trial"",""time""
""fullscreenenter"",""0"",""12857""
","
","5125.700000017881","<div class='center'><p> Sometimes you’ll be shown a ship, and you will be asked if you saw this ship on a past island.</p><p> Here is an example of what you will see.</p><p><img src='run_exp/static/images/tutorial/example_recog_trial.png' height='500'></p><p><b>[Press the space bar to continue]</b></p></div>","32","","","","","","","","","","","","","","","","","","","","","","","",""
"","explain_probe_2","12","128215","0.0-12.0","""event"",""trial"",""time""
""fullscreenenter"",""0"",""12857""
","
","
","""event"",""trial"",""time""
""fullscreenenter"",""0"",""12857""
","
","null","run_exp/static/audio/clip_34_recognition_2.m4a","null","","","","","<div class='center'><p> You will press the 5, 6, 7, 8 keys on your keyboard to respond.</p><p>If you are sure you saw the ship, press <b>5</b> on your keyboard.</p><p> If you think you saw it before but aren't sure, then press <b>6</b>.</p><p> If you think you have <b>not</b> seen it before but aren't sure, then press <b>7</b>.</p><p> If you are sure you did <b>not</b> see the ship before, then press <b>8</b>.</p><p><img src='run_exp/static/images/tutorial/example_recog_trial.png' height='500'></p></div>","","","","","","","","","","","","","","","","","","",""
"","html-keyboard-response","13","128790","0.0-13.0","""event"",""trial"",""time""
""fullscreenenter"",""0"",""12857""
","
","
","""event"",""trial"",""time""
""fullscreenenter"",""0"",""12857""
","
","574.7999999821186","<div class='center'><p> You will press the 5, 6, 7, 8 keys on your keyboard to respond.</p><p>If you are sure you saw the ship, press <b>5</b> on your keyboard.</p><p> If you think you saw it before but aren't sure, then press <b>6</b>.</p><p> If you think you have <b>not</b> seen it before but aren't sure, then press <b>7</b>.</p><p> If you are sure you did <b>not</b> see the ship before, then press <b>8</b>.</p><p><img src='run_exp/static/images/tutorial/example_recog_trial.png' height='500'></p><p><b>[Press the space bar to continue]</b></p></div>","32","","","","","","","","","","","","","","","","","","","","","","","",""
"","explain_outcome","14","146001","0.0-14.0","""event"",""trial"",""time""
""fullscreenenter"",""0"",""12857""
","
","
","""event"",""trial"",""time""
""fullscreenenter"",""0"",""12857""
","
","null","run_exp/static/audio/clip_35_recognition_3.m4a","null","","","","","<div class='center'><p> If you remember correctly, then you’ll get a gold coin like this: </p><p><img src='run_exp/static/images/tutorial/reward_small.png' height='200'></p><p>If you do not remember correctly, then you'll see a red x like this: </p><p><img src='run_exp/static/images/tutorial/reward_no.png' height='200'></p><p>Importantly, when you are shown a ship, take the time to remind yourself which island you saw it on. This will help you in the next part of the study.</p></div>","","","","","","","","","","","","","","","","","","",""
"","html-keyboard-response","15","147533","0.0-15.0","""event"",""trial"",""time""
""fullscreenenter"",""0"",""12857""
","
","
","""event"",""trial"",""time""
""fullscreenenter"",""0"",""12857""
","
","1531.2999999821186","<div class='center'><p> If you remember correctly, then you’ll get a gold coin like this: </p><p><img src='run_exp/static/images/tutorial/reward_small.png' height='200'></p><p>If you do not remember correctly, then you'll see a red x like this: </p><p><img src='run_exp/static/images/tutorial/reward_no.png' height='200'></p><p>Importantly, when you are shown a ship, take the time to remind yourself which island you saw it on. This will help you in the next part of the study.</p><p><b>[Press the space bar to continue]</b></p></div>","32","","","","","","","","","","","","","","","","","","","","","","","",""
"","begin_test_phase","16","163346","0.0-16.0","""event"",""trial"",""time""
""fullscreenenter"",""0"",""12857""
","
","
","""event"",""trial"",""time""
""fullscreenenter"",""0"",""12857""
","
","null","run_exp/static/audio/clip_36_begin_final.m4a","null","","","","","<div class='center'><p>Let's go over the important points again. Your job is to: </p><p>1. Pick the pirate who is best at robbing ships and will bring you back gold coins. </p><p>2. Correctly remember whether or not you saw a ship before. If you did see the ship before, remind yourself on which island you saw it. </p></div>","","","","","","","","","","","","","","","","","","",""
"","html-keyboard-response","17","165546","0.0-17.0","""event"",""trial"",""time""
""fullscreenenter"",""0"",""12857""
","
","
","""event"",""trial"",""time""
""fullscreenenter"",""0"",""12857""
","
","2163.7000000178814","<div class='center'><p>Let's go over the important points again. Your job is to: </p><p>1. Pick the pirate who is best at robbing ships and will bring you back gold coins. </p><p>2. Correctly remember whether or not you saw a ship before. If you did see the ship before, remind yourself on which island you saw it. </p><p><b>[Press the space bar to continue]</b></p></div>","32","","","","","","","","","","","","","","","","","","","","","","","",""
"","do_welcome","18","169556","0.0-18.0","""event"",""trial"",""time""
""fullscreenenter"",""0"",""12857""
","
","
","""event"",""trial"",""time""
""fullscreenenter"",""0"",""12857""
","
","null","","","","","","","","null","","","","","","","","","","","","","","","","","",""
"","do_trial","19","173041","0.0-19.0-0.0","""event"",""trial"",""time""
""fullscreenenter"",""0"",""12857""
","
","
","""event"",""trial"",""time""
""fullscreenenter"",""0"",""12857""
","
","942.5","","","","","","","","50","0,1,1","6","blank","230","null","0.1497735422426629","0.6691199185749647","0.27626446620231315","1","","","","","","","","",""
"","html-keyboard-response","20","174048","0.0-19.0-1.0","""event"",""trial"",""time""
""fullscreenenter"",""0"",""12857""
""fullscreenexit"",""21"",""176583""
","
","
","""event"",""trial"",""time""
""fullscreenenter"",""0"",""12857""
","""event"",""trial"",""time""
""fullscreenexit"",""21"",""176583""
","null","<p></p>","null","","","","","","","","","","","","","","","","","","","","","","","",""
"","do_trial","21","177021","0.0-20.0-0.0","""event"",""trial"",""time""
""fullscreenenter"",""0"",""12857""
""fullscreenexit"",""21"",""176583""
","
","
","""event"",""trial"",""time""
""fullscreenenter"",""0"",""12857""
","""event"",""trial"",""time""
""fullscreenexit"",""21"",""176583""
","435.30000001192093","","","","","","","","50","0,0,1","6","blank","231","null","0.12501304497140311","0.5267608731126899","0.2329034438654866","0","","","","","","","","",""
"","html-keyboard-response","22","178024","0.0-20.0-1.0","""event"",""trial"",""time""
""fullscreenenter"",""0"",""12857""
""fullscreenexit"",""21"",""176583""
","
","
","""event"",""trial"",""time""
""fullscreenenter"",""0"",""12857""
","""event"",""trial"",""time""
""fullscreenexit"",""21"",""176583""
","null","<p></p>","null","","","","","","","","","","","","","","","","","","","","","","","",""
"","do_trial","23","181496","0.0-21.0-0.0","""event"",""trial"",""time""
""fullscreenenter"",""0"",""12857""
""fullscreenexit"",""21"",""176583""
","
","
","""event"",""trial"",""time""
""fullscreenenter"",""0"",""12857""
","""event"",""trial"",""time""
""fullscreenexit"",""21"",""176583""
","911.6000000238419","","","","","","","","50","0,0,0","6","blank","232","null","0.13182629796782017","0.5263994575088772","0.2580813418768203","0","","","","","","","","",""
"","html-keyboard-response","24","182502","0.0-21.0-1.0","""event"",""trial"",""time""
""fullscreenenter"",""0"",""12857""
""fullscreenexit"",""21"",""176583""
","
","
","""event"",""trial"",""time""
""fullscreenenter"",""0"",""12857""
","""event"",""trial"",""time""
""fullscreenexit"",""21"",""176583""
","null","<p></p>","null","","","","","","","","","","","","","","","","","","","","","","","",""
"","do_trial","25","185627","0.0-22.0-0.0","""event"",""trial"",""time""
""fullscreenenter"",""0"",""12857""
""fullscreenexit"",""21"",""176583""
","
","
","""event"",""trial"",""time""
""fullscreenenter"",""0"",""12857""
","""event"",""trial"",""time""
""fullscreenexit"",""21"",""176583""
","584.0999999940395","","","","","","","","50","0,1,0","6","blank","233","null","0.055565583235587815","0.4817436621188241","0.22416043847181502","1","","","","","","","","",""
"","html-keyboard-response","26","186631","0.0-22.0-1.0","""event"",""trial"",""time""
""fullscreenenter"",""0"",""12857""
""fullscreenexit"",""21"",""176583""
","
","
","""event"",""trial"",""time""
""fullscreenenter"",""0"",""12857""
","""event"",""trial"",""time""
""fullscreenexit"",""21"",""176583""
","null","<p></p>","null","","","","","","","","","","","","","","","","","","","","","","","",""
"","do_trial","27","189454","0.0-23.0-0.0","""event"",""trial"",""time""
""fullscreenenter"",""0"",""12857""
""fullscreenexit"",""21"",""176583""
","
","
","""event"",""trial"",""time""
""fullscreenenter"",""0"",""12857""
","""event"",""trial"",""time""
""fullscreenexit"",""21"",""176583""
","284.89999997615814","","","","","","","","50","0,0,0","6","blank","234","null","0.16921637748979218","0.49755886956018996","0.2379439024649599","0","","","","","","","","",""
"","html-keyboard-response","28","190459","0.0-23.0-1.0","""event"",""trial"",""time""
""fullscreenenter"",""0"",""12857""
""fullscreenexit"",""21"",""176583""
","
","
","""event"",""trial"",""time""
""fullscreenenter"",""0"",""12857""
","""event"",""trial"",""time""
""fullscreenexit"",""21"",""176583""
","null","<p></p>","null","","","","","","","","","","","","","","","","","","","","","","","",""
"","do_trial","29","193102","0.0-24.0-0.0","""event"",""trial"",""time""
""fullscreenenter"",""0"",""12857""
""fullscreenexit"",""21"",""176583""
","
","
","""event"",""trial"",""time""
""fullscreenenter"",""0"",""12857""
","""event"",""trial"",""time""
""fullscreenexit"",""21"",""176583""
","97.19999998807907","","","","","","","","51","0,1,1","6","blank","235","null","0.14634918313557632","0.5822918499438401","0.24824970045873457","1","","","","","","","","",""
"","html-keyboard-response","30","194109","0.0-24.0-1.0","""event"",""trial"",""time""
""fullscreenenter"",""0"",""12857""
""fullscreenexit"",""21"",""176583""
","
","
","""event"",""trial"",""time""
""fullscreenenter"",""0"",""12857""
","""event"",""trial"",""time""
""fullscreenexit"",""21"",""176583""
","null","<p></p>","null","","","","","","","","","","","","","","","","","","","","","","","",""
"","do_trial","31","196920","0.0-25.0-0.0","""event"",""trial"",""time""
""fullscreenenter"",""0"",""12857""
""fullscreenexit"",""21"",""176583""
","
","
","""event"",""trial"",""time""
""fullscreenenter"",""0"",""12857""
","""event"",""trial"",""time""
""fullscreenexit"",""21"",""176583""
","264.2999999821186","","","","","","","","51","0,0,0","6","blank","236","null","0.15417301628215746","0.6347822548936621","0.2762174803469436","0","","","","","","","","",""
"","html-keyboard-response","32","197926","0.0-25.0-1.0","""event"",""trial"",""time""
""fullscreenenter"",""0"",""12857""
""fullscreenexit"",""21"",""176583""
","
","
","""event"",""trial"",""time""
""fullscreenenter"",""0"",""12857""
","""event"",""trial"",""time""
""fullscreenexit"",""21"",""176583""
","null","<p></p>","null","","","","","","","","","","","","","","","","","","","","","","","",""
"","do_trial","33","200709","0.0-26.0-0.0","""event"",""trial"",""time""
""fullscreenenter"",""0"",""12857""
""fullscreenexit"",""21"",""176583""
","
","
","""event"",""trial"",""time""
""fullscreenenter"",""0"",""12857""
","""event"",""trial"",""time""
""fullscreenexit"",""21"",""176583""
","241.5","","","","","","","","51","0,1,0","6","blank","237","null","0.1139130799617412","0.8060205464661577","0.2134882970389169","0","","","","","","","","",""
"","html-keyboard-response","34","201714","0.0-26.0-1.0","""event"",""trial"",""time""
""fullscreenenter"",""0"",""12857""
""fullscreenexit"",""21"",""176583""
","
","
","""event"",""trial"",""time""
""fullscreenenter"",""0"",""12857""
","""event"",""trial"",""time""
""fullscreenexit"",""21"",""176583""
","null","<p></p>","null","","","","","","","","","","","","","","","","","","","","","","","",""
"","do_trial","35","204462","0.0-27.0-0.0","""event"",""trial"",""time""
""fullscreenenter"",""0"",""12857""
""fullscreenexit"",""21"",""176583""
","
","
","""event"",""trial"",""time""
""fullscreenenter"",""0"",""12857""
","""event"",""trial"",""time""
""fullscreenexit"",""21"",""176583""
","204","","","","","","","","51","0,1,1","6","blank","238","null","0.07301137148091963","0.7792771178324569","0.3219974588681496","1","","","","","","","","",""
"","html-keyboard-response","36","205468","0.0-27.0-1.0","""event"",""trial"",""time""
""fullscreenenter"",""0"",""12857""
""fullscreenexit"",""21"",""176583""
","
","
","""event"",""trial"",""time""
""fullscreenenter"",""0"",""12857""
","""event"",""trial"",""time""
""fullscreenexit"",""21"",""176583""
","null","<p></p>","null","","","","","","","","","","","","","","","","","","","","","","","",""
"","do_trial","37","208413","0.0-28.0-0.0","""event"",""trial"",""time""
""fullscreenenter"",""0"",""12857""
""fullscreenexit"",""21"",""176583""
","
","
","""event"",""trial"",""time""
""fullscreenenter"",""0"",""12857""
","""event"",""trial"",""time""
""fullscreenexit"",""21"",""176583""
","404","","","","","","","","51","0,1,1","6","blank","239","null","0.057977734741705936","0.6762569444515684","0.34416915466025605","1","","","","","","","","",""
"","html-keyboard-response","38","209418","0.0-28.0-1.0","""event"",""trial"",""time""
""fullscreenenter"",""0"",""12857""
""fullscreenexit"",""21"",""176583""
","
","
","""event"",""trial"",""time""
""fullscreenenter"",""0"",""12857""
","""event"",""trial"",""time""
""fullscreenexit"",""21"",""176583""
","null","<p></p>","null","","","","","","","","","","","","","","","","","","","","","","","",""
"","do_trial","39","212203","0.0-29.0-0.0","""event"",""trial"",""time""
""fullscreenenter"",""0"",""12857""
""fullscreenexit"",""21"",""176583""
","
","
","""event"",""trial"",""time""
""fullscreenenter"",""0"",""12857""
","""event"",""trial"",""time""
""fullscreenexit"",""21"",""176583""
","239.09999999403954","","","","","","","","51","0,1,1","6","blank","240","null","0.1410012939999714","0.5358810146567106","0.32543800416245505","1","","","","","","","","",""
"","html-keyboard-response","40","213207","0.0-29.0-1.0","""event"",""trial"",""time""
""fullscreenenter"",""0"",""12857""
""fullscreenexit"",""21"",""176583""
","
","
","""event"",""trial"",""time""
""fullscreenenter"",""0"",""12857""
","""event"",""trial"",""time""
""fullscreenexit"",""21"",""176583""
","null","<p></p>","null","","","","","","","","","","","","","","","","","","","","","","","",""
"","do_trial","41","216021","0.0-30.0-0.0","""event"",""trial"",""time""
""fullscreenenter"",""0"",""12857""
""fullscreenexit"",""21"",""176583""
","
","
","""event"",""trial"",""time""
""fullscreenenter"",""0"",""12857""
","""event"",""trial"",""time""
""fullscreenexit"",""21"",""176583""
","269.5","","","","","","","","51","0,1,1","6","blank","241","null","0.22766050436781687","0.44937499240310375","0.38813139895172244","1","","","","","","","","",""
"","html-keyboard-response","42","217025","0.0-30.0-1.0","""event"",""trial"",""time""
""fullscreenenter"",""0"",""12857""
""fullscreenexit"",""21"",""176583""
","
","
","""event"",""trial"",""time""
""fullscreenenter"",""0"",""12857""
","""event"",""trial"",""time""
""fullscreenexit"",""21"",""176583""
","null","<p></p>","null","","","","","","","","","","","","","","","","","","","","","","","",""
"","do_recog","43","223041","0.0-31.0-0.0","""event"",""trial"",""time""
""fullscreenenter"",""0"",""12857""
""fullscreenexit"",""21"",""176583""
","
","
","""event"",""trial"",""time""
""fullscreenenter"",""0"",""12857""
","""event"",""trial"",""time""
""fullscreenexit"",""21"",""176583""
","null","","","","","","","","null","","","","242","probe-62","","","","","1","[object Object]","151","3","0","","","",""
"","html-keyboard-response","44","224048","0.0-31.0-1.0","""event"",""trial"",""time""
""fullscreenenter"",""0"",""12857""
""fullscreenexit"",""21"",""176583""
","
","
","""event"",""trial"",""time""
""fullscreenenter"",""0"",""12857""
","""event"",""trial"",""time""
""fullscreenexit"",""21"",""176583""
","null","<p></p>","null","","","","","","","","","","","","","","","","","","","","","","","",""
"","do_trial","45","227921","0.0-32.0-0.0","""event"",""trial"",""time""
""fullscreenenter"",""0"",""12857""
""fullscreenexit"",""21"",""176583""
","
","
","""event"",""trial"",""time""
""fullscreenenter"",""0"",""12857""
","""event"",""trial"",""time""
""fullscreenexit"",""21"",""176583""
","1329.699999988079","","","","","","","","50","1,0,0","6","blank","243","null","0.34522356957584366","0.19123305708334745","0.25950815167840174","0","","","","","","","","",""
"","html-keyboard-response","46","228927","0.0-32.0-1.0","""event"",""trial"",""time""
""fullscreenenter"",""0"",""12857""
""fullscreenexit"",""21"",""176583""
","
","
","""event"",""trial"",""time""
""fullscreenenter"",""0"",""12857""
","""event"",""trial"",""time""
""fullscreenexit"",""21"",""176583""
","null","<p></p>","null","","","","","","","","","","","","","","","","","","","","","","","",""
"","do_trial","47","231826","0.0-33.0-0.0","""event"",""trial"",""time""
""fullscreenenter"",""0"",""12857""
""fullscreenexit"",""21"",""176583""
","
","
","""event"",""trial"",""time""
""fullscreenenter"",""0"",""12857""
","""event"",""trial"",""time""
""fullscreenexit"",""21"",""176583""
","354.30000001192093","","","","","","","","51","0,0,0","6","blank","244","null","0.3713013177055038","0.20302584901947515","0.23074967835754123","0","","","","","","","","",""
"","html-keyboard-response","48","232833","0.0-33.0-1.0","""event"",""trial"",""time""
""fullscreenenter"",""0"",""12857""
""fullscreenexit"",""21"",""176583""
","
","
","""event"",""trial"",""time""
""fullscreenenter"",""0"",""12857""
","""event"",""trial"",""time""
""fullscreenexit"",""21"",""176583""
","null","<p></p>","null","","","","","","","","","","","","","","","","","","","","","","","",""
"","do_trial","49","235871","0.0-34.0-0.0","""event"",""trial"",""time""
""fullscreenenter"",""0"",""12857""
""fullscreenexit"",""21"",""176583""
","
","
","""event"",""trial"",""time""
""fullscreenenter"",""0"",""12857""
","""event"",""trial"",""time""
""fullscreenexit"",""21"",""176583""
","492.30000001192093","","","","","","","","51","1,0,0","6","blank","245","null","0.4548481872256055","0.2461204856734996","0.2118985350450927","0","","","","","","","","",""
"","html-keyboard-response","50","236874","0.0-34.0-1.0","""event"",""trial"",""time""
""fullscreenenter"",""0"",""12857""
""fullscreenexit"",""21"",""176583""
","
","
","""event"",""trial"",""time""
""fullscreenenter"",""0"",""12857""
","""event"",""trial"",""time""
""fullscreenexit"",""21"",""176583""
","null","<p></p>","null","","","","","","","","","","","","","","","","","","","","","","","",""
"","do_trial","51","239666","0.0-35.0-0.0","""event"",""trial"",""time""
""fullscreenenter"",""0"",""12857""
""fullscreenexit"",""21"",""176583""
","
","
","""event"",""trial"",""time""
""fullscreenenter"",""0"",""12857""
","""event"",""trial"",""time""
""fullscreenexit"",""21"",""176583""
","244.40000000596046","","","","","","","","51","1,0,0","6","blank","246","null","0.41358579701655546","0.13504091505461793","0.23206722075866787","0","","","","","","","","",""
"","html-keyboard-response","52","240672","0.0-35.0-1.0","""event"",""trial"",""time""
""fullscreenenter"",""0"",""12857""
""fullscreenexit"",""21"",""176583""
","
","
","""event"",""trial"",""time""
""fullscreenenter"",""0"",""12857""
","""event"",""trial"",""time""
""fullscreenexit"",""21"",""176583""
","null","<p></p>","null","","","","","","","","","","","","","","","","","","","","","","","",""
"","do_trial","53","243217","0.0-36.0-0.0","""event"",""trial"",""time""
""fullscreenenter"",""0"",""12857""
""fullscreenexit"",""21"",""176583""
","
","
","""event"",""trial"",""time""
""fullscreenenter"",""0"",""12857""
","""event"",""trial"",""time""
""fullscreenexit"",""21"",""176583""
","0.09999999403953552","","","","","","","","51","0,0,0","6","blank","247","null","0.4454173245211678","0.1413634422980902","0.275213435265321","0","","","","","","","","",""
"","html-keyboard-response","54","244224","0.0-36.0-1.0","""event"",""trial"",""time""
""fullscreenenter"",""0"",""12857""
""fullscreenexit"",""21"",""176583""
","
","
","""event"",""trial"",""time""
""fullscreenenter"",""0"",""12857""
","""event"",""trial"",""time""
""fullscreenexit"",""21"",""176583""
","null","<p></p>","null","","","","","","","","","","","","","","","","","","","","","","","",""
"","do_recog","55","247680","0.0-37.0-0.0","""event"",""trial"",""time""
""fullscreenenter"",""0"",""12857""
""fullscreenexit"",""21"",""176583""
","
","
","""event"",""trial"",""time""
""fullscreenenter"",""0"",""12857""
","""event"",""trial"",""time""
""fullscreenexit"",""21"",""176583""
","1946.2000000178814","","","","","","","","56","","","","248","probe-241","","","","","0","[object Object]","null","null","1","","","",""
"","html-keyboard-response","56","248687","0.0-37.0-1.0","""event"",""trial"",""time""
""fullscreenenter"",""0"",""12857""
""fullscreenexit"",""21"",""176583""
","
","
","""event"",""trial"",""time""
""fullscreenenter"",""0"",""12857""
","""event"",""trial"",""time""
""fullscreenexit"",""21"",""176583""
","null","<p></p>","null","","","","","","","","","","","","","","","","","","","","","","","",""
"","do_trial","57","252175","0.0-38.0-0.0","""event"",""trial"",""time""
""fullscreenenter"",""0"",""12857""
""fullscreenexit"",""21"",""176583""
","
","
","""event"",""trial"",""time""
""fullscreenenter"",""0"",""12857""
","""event"",""trial"",""time""
""fullscreenexit"",""21"",""176583""
","946","","","","","","","","51","1,0,0","6","blank","249","null","0.6363540783486642","0.11427897123689645","0.25803139272902803","0","","","","","","","","",""
"","html-keyboard-response","58","253180","0.0-38.0-1.0","""event"",""trial"",""time""
""fullscreenenter"",""0"",""12857""
""fullscreenexit"",""21"",""176583""
","
","
","""event"",""trial"",""time""
""fullscreenenter"",""0"",""12857""
","""event"",""trial"",""time""
""fullscreenexit"",""21"",""176583""
","null","<p></p>","null","","","","","","","","","","","","","","","","","","","","","","","",""
"","do_recog","59","259191","0.0-39.0-0.0","""event"",""trial"",""time""
""fullscreenenter"",""0"",""12857""
""fullscreenexit"",""21"",""176583""
","
","
","""event"",""trial"",""time""
""fullscreenenter"",""0"",""12857""
","""event"",""trial"",""time""
""fullscreenexit"",""21"",""176583""
","null","","","","","","","","null","","","","250","probe-11","","","","","1","[object Object]","30","0","0","","","",""
"","html-keyboard-response","60","260195","0.0-39.0-1.0","""event"",""trial"",""time""
""fullscreenenter"",""0"",""12857""
""fullscreenexit"",""21"",""176583""
","
","
","""event"",""trial"",""time""
""fullscreenenter"",""0"",""12857""
","""event"",""trial"",""time""
""fullscreenexit"",""21"",""176583""
","null","<p></p>","null","","","","","","","","","","","","","","","","","","","","","","","",""
"","do_trial","61","263837","0.0-40.0-0.0","""event"",""trial"",""time""
""fullscreenenter"",""0"",""12857""
""fullscreenexit"",""21"",""176583""
","
","
","""event"",""trial"",""time""
""fullscreenenter"",""0"",""12857""
","""event"",""trial"",""time""
""fullscreenexit"",""21"",""176583""
","1096.7000000178814","","","","","","","","51","1,0,1","6","blank","251","null","0.5778381991033108","0.0624291285228042","0.35047366012775916","1","","","","","","","","",""
"","html-keyboard-response","62","264842","0.0-40.0-1.0","""event"",""trial"",""time""
""fullscreenenter"",""0"",""12857""
""fullscreenexit"",""21"",""176583""
","
","
","""event"",""trial"",""time""
""fullscreenenter"",""0"",""12857""
","""event"",""trial"",""time""
""fullscreenexit"",""21"",""176583""
","null","<p></p>","null","","","","","","","","","","","","","","","","","","","","","","","",""
"","do_trial","63","267780","0.0-41.0-0.0","""event"",""trial"",""time""
""fullscreenenter"",""0"",""12857""
""fullscreenexit"",""21"",""176583""
","
","
","""event"",""trial"",""time""
""fullscreenenter"",""0"",""12857""
","""event"",""trial"",""time""
""fullscreenexit"",""21"",""176583""
","391.80000001192093","","","","","","","","51","0,0,1","6","blank","252","null","0.6189794004161138","0.22530006003732544","0.28037307476304785","1","","","","","","","","",""
"","html-keyboard-response","64","268786","0.0-41.0-1.0","""event"",""trial"",""time""
""fullscreenenter"",""0"",""12857""
""fullscreenexit"",""21"",""176583""
","
","
","""event"",""trial"",""time""
""fullscreenenter"",""0"",""12857""
","""event"",""trial"",""time""
""fullscreenexit"",""21"",""176583""
","null","<p></p>","null","","","","","","","","","","","","","","","","","","","","","","","",""
"","do_trial","65","271621","0.0-42.0-0.0","""event"",""trial"",""time""
""fullscreenenter"",""0"",""12857""
""fullscreenexit"",""21"",""176583""
","
","
","""event"",""trial"",""time""
""fullscreenenter"",""0"",""12857""
","""event"",""trial"",""time""
""fullscreenexit"",""21"",""176583""
","291.40000000596046","","","","","","","","51","1,0,0","6","blank","253","null","0.6507237068480273","0.18979599316146864","0.43522523911866345","0","","","","","","","","",""
"","html-keyboard-response","66","272622","0.0-42.0-1.0","""event"",""trial"",""time""
""fullscreenenter"",""0"",""12857""
""fullscreenexit"",""21"",""176583""
","
","
","""event"",""trial"",""time""
""fullscreenenter"",""0"",""12857""
","""event"",""trial"",""time""
""fullscreenexit"",""21"",""176583""
","null","<p></p>","null","","","","","","","","","","","","","","","","","","","","","","","",""
"","do_trial","67","275499","0.0-43.0-0.0","""event"",""trial"",""time""
""fullscreenenter"",""0"",""12857""
""fullscreenexit"",""21"",""176583""
","
","
","""event"",""trial"",""time""
""fullscreenenter"",""0"",""12857""
","""event"",""trial"",""time""
""fullscreenexit"",""21"",""176583""
","335","","","","","","","","51","1,0,0","6","blank","254","null","0.7363215241664915","0.09196952595894665","0.3243753161840334","0","","","","","","","","",""
"","html-keyboard-response","68","276501","0.0-43.0-1.0","""event"",""trial"",""time""
""fullscreenenter"",""0"",""12857""
""fullscreenexit"",""21"",""176583""
","
","
","""event"",""trial"",""time""
""fullscreenenter"",""0"",""12857""
","""event"",""trial"",""time""
""fullscreenexit"",""21"",""176583""
","null","<p></p>","null","","","","","","","","","","","","","","","","","","","","","","","",""
"","do_trial","69","279672","0.0-44.0-0.0","""event"",""trial"",""time""
""fullscreenenter"",""0"",""12857""
""fullscreenexit"",""21"",""176583""
""blur"",""70"",""280628""
","""event"",""trial"",""time""
""blur"",""70"",""280628""
","
","""event"",""trial"",""time""
""fullscreenenter"",""0"",""12857""
","""event"",""trial"",""time""
""fullscreenexit"",""21"",""176583""
","633.7000000178814","","","","","","","","51","1,0,0","6","blank","255","null","0.6168585367100119","0.10210092776194034","0.38011932463429554","0","","","","","","","","",""
"","html-keyboard-response","70","280678","0.0-44.0-1.0","""event"",""trial"",""time""
""fullscreenenter"",""0"",""12857""
""fullscreenexit"",""21"",""176583""
""blur"",""70"",""280628""
""focus"",""71"",""286056""
","""event"",""trial"",""time""
""blur"",""70"",""280628""
","""event"",""trial"",""time""
""focus"",""71"",""286056""
","""event"",""trial"",""time""
""fullscreenenter"",""0"",""12857""
","""event"",""trial"",""time""
""fullscreenexit"",""21"",""176583""
","null","<p></p>","null","","","","","","","","","","","","","","","","","","","","","","","",""
"","do_trial","71","286721","0.0-45.0-0.0","""event"",""trial"",""time""
""fullscreenenter"",""0"",""12857""
""fullscreenexit"",""21"",""176583""
""blur"",""70"",""280628""
""focus"",""71"",""286056""
","""event"",""trial"",""time""
""blur"",""70"",""280628""
","""event"",""trial"",""time""
""focus"",""71"",""286056""
","""event"",""trial"",""time""
""fullscreenenter"",""0"",""12857""
","""event"",""trial"",""time""
""fullscreenexit"",""21"",""176583""
","null","","","","","","","","null","1,0,0","6","blank","256","null","0.6599255950802327","0.1319640993273137","0.39324526061482346","","","","","","","","","",""
"","html-keyboard-response","72","287725","0.0-45.0-1.0","""event"",""trial"",""time""
""fullscreenenter"",""0"",""12857""
""fullscreenexit"",""21"",""176583""
""blur"",""70"",""280628""
""focus"",""71"",""286056""
","""event"",""trial"",""time""
""blur"",""70"",""280628""
","""event"",""trial"",""time""
""focus"",""71"",""286056""
","""event"",""trial"",""time""
""fullscreenenter"",""0"",""12857""
","""event"",""trial"",""time""
""fullscreenexit"",""21"",""176583""
","null","<p></p>","null","","","","","","","","","","","","","","","","","","","","","","","",""
"","do_trial","73","290582","0.0-46.0-0.0","""event"",""trial"",""time""
""fullscreenenter"",""0"",""12857""
""fullscreenexit"",""21"",""176583""
""blur"",""70"",""280628""
""focus"",""71"",""286056""
","""event"",""trial"",""time""
""blur"",""70"",""280628""
","""event"",""trial"",""time""
""focus"",""71"",""286056""
","""event"",""trial"",""time""
""fullscreenenter"",""0"",""12857""
","""event"",""trial"",""time""
""fullscreenexit"",""21"",""176583""
","313","","","","","","","","51","1,0,1","6","blank","257","null","0.5173511867923941","0.09088021424384944","0.4398948481939135","1","","","","","","","","",""
"","html-keyboard-response","74","291588","0.0-46.0-1.0","""event"",""trial"",""time""
""fullscreenenter"",""0"",""12857""
""fullscreenexit"",""21"",""176583""
""blur"",""70"",""280628""
""focus"",""71"",""286056""
","""event"",""trial"",""time""
""blur"",""70"",""280628""
","""event"",""trial"",""time""
""focus"",""71"",""286056""
","""event"",""trial"",""time""
""fullscreenenter"",""0"",""12857""
","""event"",""trial"",""time""
""fullscreenexit"",""21"",""176583""
","null","<p></p>","null","","","","","","","","","","","","","","","","","","","","","","","",""
"","do_recog","75","294938","0.0-47.0-0.0","""event"",""trial"",""time""
""fullscreenenter"",""0"",""12857""
""fullscreenexit"",""21"",""176583""
""blur"",""70"",""280628""
""focus"",""71"",""286056""
","""event"",""trial"",""time""
""blur"",""70"",""280628""
","""event"",""trial"",""time""
""focus"",""71"",""286056""
","""event"",""trial"",""time""
""fullscreenenter"",""0"",""12857""
","""event"",""trial"",""time""
""fullscreenexit"",""21"",""176583""
","1843","","","","","","","","53","","","","258","probe-133","","","","","1","[object Object]","35","0","1","","","",""
"","html-keyboard-response","76","295944","0.0-47.0-1.0","""event"",""trial"",""time""
""fullscreenenter"",""0"",""12857""
""fullscreenexit"",""21"",""176583""
""blur"",""70"",""280628""
""focus"",""71"",""286056""
","""event"",""trial"",""time""
""blur"",""70"",""280628""
","""event"",""trial"",""time""
""focus"",""71"",""286056""
","""event"",""trial"",""time""
""fullscreenenter"",""0"",""12857""
","""event"",""trial"",""time""
""fullscreenexit"",""21"",""176583""
","null","<p></p>","null","","","","","","","","","","","","","","","","","","","","","","","",""
"","do_trial","77","298961","0.0-48.0-0.0","""event"",""trial"",""time""
""fullscreenenter"",""0"",""12857""
""fullscreenexit"",""21"",""176583""
""blur"",""70"",""280628""
""focus"",""71"",""286056""
","""event"",""trial"",""time""
""blur"",""70"",""280628""
","""event"",""trial"",""time""
""focus"",""71"",""286056""
","""event"",""trial"",""time""
""fullscreenenter"",""0"",""12857""
","""event"",""trial"",""time""
""fullscreenexit"",""21"",""176583""
","472.5","","","","","","","","51","0,0,1","6","blank","259","null","0.5031087643285366","0.1869237742516122","0.4731586389348247","1","","","","","","","","",""
"","html-keyboard-response","78","299967","0.0-48.0-1.0","""event"",""trial"",""time""
""fullscreenenter"",""0"",""12857""
""fullscreenexit"",""21"",""176583""
""blur"",""70"",""280628""
""focus"",""71"",""286056""
","""event"",""trial"",""time""
""blur"",""70"",""280628""
","""event"",""trial"",""time""
""focus"",""71"",""286056""
","""event"",""trial"",""time""
""fullscreenenter"",""0"",""12857""
","""event"",""trial"",""time""
""fullscreenexit"",""21"",""176583""
","null","<p></p>","null","","","","","","","","","","","","","","","","","","","","","","","",""
"","do_trial","79","302788","0.0-49.0-0.0","""event"",""trial"",""time""
""fullscreenenter"",""0"",""12857""
""fullscreenexit"",""21"",""176583""
""blur"",""70"",""280628""
""focus"",""71"",""286056""
","""event"",""trial"",""time""
""blur"",""70"",""280628""
","""event"",""trial"",""time""
""focus"",""71"",""286056""
","""event"",""trial"",""time""
""fullscreenenter"",""0"",""12857""
","""event"",""trial"",""time""
""fullscreenexit"",""21"",""176583""
","279.69999998807907","","","","","","","","51","1,0,1","6","blank","260","null","0.581511608291436","0.07434957545260337","0.3491348055950615","1","","","","","","","","",""
"","html-keyboard-response","80","303794","0.0-49.0-1.0","""event"",""trial"",""time""
""fullscreenenter"",""0"",""12857""
""fullscreenexit"",""21"",""176583""
""blur"",""70"",""280628""
""focus"",""71"",""286056""
","""event"",""trial"",""time""
""blur"",""70"",""280628""
","""event"",""trial"",""time""
""focus"",""71"",""286056""
","""event"",""trial"",""time""
""fullscreenenter"",""0"",""12857""
","""event"",""trial"",""time""
""fullscreenexit"",""21"",""176583""
","null","<p></p>","null","","","","","","","","","","","","","","","","","","","","","","","",""
"","do_trial","81","306646","0.0-50.0-0.0","""event"",""trial"",""time""
""fullscreenenter"",""0"",""12857""
""fullscreenexit"",""21"",""176583""
""blur"",""70"",""280628""
""focus"",""71"",""286056""
","""event"",""trial"",""time""
""blur"",""70"",""280628""
","""event"",""trial"",""time""
""focus"",""71"",""286056""
","""event"",""trial"",""time""
""fullscreenenter"",""0"",""12857""
","""event"",""trial"",""time""
""fullscreenexit"",""21"",""176583""
","307.7999999821186","","","","","","","","51","0,1,0","6","blank","261","null","0.5997572703191552","0.13346490191310717","0.20371655996325025","0","","","","","","","","",""
"","html-keyboard-response","82","307652","0.0-50.0-1.0","""event"",""trial"",""time""
""fullscreenenter"",""0"",""12857""
""fullscreenexit"",""21"",""176583""
""blur"",""70"",""280628""
""focus"",""71"",""286056""
","""event"",""trial"",""time""
""blur"",""70"",""280628""
","""event"",""trial"",""time""
""focus"",""71"",""286056""
","""event"",""trial"",""time""
""fullscreenenter"",""0"",""12857""
","""event"",""trial"",""time""
""fullscreenexit"",""21"",""176583""
","null","<p></p>","null","","","","","","","","","","","","","","","","","","","","","","","",""
"","do_trial","83","310317","0.0-51.0-0.0","""event"",""trial"",""time""
""fullscreenenter"",""0"",""12857""
""fullscreenexit"",""21"",""176583""
""blur"",""70"",""280628""
""focus"",""71"",""286056""
","""event"",""trial"",""time""
""blur"",""70"",""280628""
","""event"",""trial"",""time""
""focus"",""71"",""286056""
","""event"",""trial"",""time""
""fullscreenenter"",""0"",""12857""
","""event"",""trial"",""time""
""fullscreenexit"",""21"",""176583""
","116.09999999403954","","","","","","","","51","0,0,0","6","blank","262","null","0.6736859243072805","0.0656463642850168","0.3557916357999204","0","","","","","","","","",""
"","html-keyboard-response","84","311324","0.0-51.0-1.0","""event"",""trial"",""time""
""fullscreenenter"",""0"",""12857""
""fullscreenexit"",""21"",""176583""
""blur"",""70"",""280628""
""focus"",""71"",""286056""
","""event"",""trial"",""time""
""blur"",""70"",""280628""
","""event"",""trial"",""time""
""focus"",""71"",""286056""
","""event"",""trial"",""time""
""fullscreenenter"",""0"",""12857""
","""event"",""trial"",""time""
""fullscreenexit"",""21"",""176583""
","null","<p></p>","null","","","","","","","","","","","","","","","","","","","","","","","",""
"","do_trial","85","314164","0.0-52.0-0.0","""event"",""trial"",""time""
""fullscreenenter"",""0"",""12857""
""fullscreenexit"",""21"",""176583""
""blur"",""70"",""280628""
""focus"",""71"",""286056""
","""event"",""trial"",""time""
""blur"",""70"",""280628""
","""event"",""trial"",""time""
""focus"",""71"",""286056""
","""event"",""trial"",""time""
""fullscreenenter"",""0"",""12857""
","""event"",""trial"",""time""
""fullscreenexit"",""21"",""176583""
","295.5","","","","","","","","51","1,0,0","6","blank","263","null","0.6714359121758523","0.06984217184964063","0.30623972256062765","0","","","","","","","","",""
"","html-keyboard-response","86","315170","0.0-52.0-1.0","""event"",""trial"",""time""
""fullscreenenter"",""0"",""12857""
""fullscreenexit"",""21"",""176583""
""blur"",""70"",""280628""
""focus"",""71"",""286056""
","""event"",""trial"",""time""
""blur"",""70"",""280628""
","""event"",""trial"",""time""
""focus"",""71"",""286056""
","""event"",""trial"",""time""
""fullscreenenter"",""0"",""12857""
","""event"",""trial"",""time""
""fullscreenexit"",""21"",""176583""
","null","<p></p>","null","","","","","","","","","","","","","","","","","","","","","","","",""
"","do_trial","87","317720","0.0-53.0-0.0","""event"",""trial"",""time""
""fullscreenenter"",""0"",""12857""
""fullscreenexit"",""21"",""176583""
""blur"",""70"",""280628""
""focus"",""71"",""286056""
","""event"",""trial"",""time""
""blur"",""70"",""280628""
","""event"",""trial"",""time""
""focus"",""71"",""286056""
","""event"",""trial"",""time""
""fullscreenenter"",""0"",""12857""
","""event"",""trial"",""time""
""fullscreenexit"",""21"",""176583""
","2.7999999821186066","","","","","","","","49","1,0,0","6","blank","264","null","0.49464329361822734","0.062422941873026085","0.1821934509839491","1","","","","","","","","",""
"","html-keyboard-response","88","318726","0.0-53.0-1.0","""event"",""trial"",""time""
""fullscreenenter"",""0"",""12857""
""fullscreenexit"",""21"",""176583""
""blur"",""70"",""280628""
""focus"",""71"",""286056""
","""event"",""trial"",""time""
""blur"",""70"",""280628""
","""event"",""trial"",""time""
""focus"",""71"",""286056""
","""event"",""trial"",""time""
""fullscreenenter"",""0"",""12857""
","""event"",""trial"",""time""
""fullscreenexit"",""21"",""176583""
","null","<p></p>","null","","","","","","","","","","","","","","","","","","","","","","","",""
"","do_trial","89","321572","0.0-54.0-0.0","""event"",""trial"",""time""
""fullscreenenter"",""0"",""12857""
""fullscreenexit"",""21"",""176583""
""blur"",""70"",""280628""
""focus"",""71"",""286056""
","""event"",""trial"",""time""
""blur"",""70"",""280628""
","""event"",""trial"",""time""
""focus"",""71"",""286056""
","""event"",""trial"",""time""
""fullscreenenter"",""0"",""12857""
","""event"",""trial"",""time""
""fullscreenexit"",""21"",""176583""
","300.7999999821186","","","","","","","","49","1,0,0","6","blank","265","null","0.45678392137632146","0.06510646614007008","0.3107758455792554","1","","","","","","","","",""
"","html-keyboard-response","90","322579","0.0-54.0-1.0","""event"",""trial"",""time""
""fullscreenenter"",""0"",""12857""
""fullscreenexit"",""21"",""176583""
""blur"",""70"",""280628""
""focus"",""71"",""286056""
","""event"",""trial"",""time""
""blur"",""70"",""280628""
","""event"",""trial"",""time""
""focus"",""71"",""286056""
","""event"",""trial"",""time""
""fullscreenenter"",""0"",""12857""
","""event"",""trial"",""time""
""fullscreenexit"",""21"",""176583""
","null","<p></p>","null","","","","","","","","","","","","","","","","","","","","","","","",""
"","do_recog","91","326425","0.0-55.0-0.0","""event"",""trial"",""time""
""fullscreenenter"",""0"",""12857""
""fullscreenexit"",""21"",""176583""
""blur"",""70"",""280628""
""focus"",""71"",""286056""
","""event"",""trial"",""time""
""blur"",""70"",""280628""
","""event"",""trial"",""time""
""focus"",""71"",""286056""
","""event"",""trial"",""time""
""fullscreenenter"",""0"",""12857""
","""event"",""trial"",""time""
""fullscreenexit"",""21"",""176583""
","2336.300000011921","","","","","","","","53","","","","266","probe-145","","","","","1","[object Object]","34","0","1","","","",""
"","html-keyboard-response","92","327430","0.0-55.0-1.0","""event"",""trial"",""time""
""fullscreenenter"",""0"",""12857""
""fullscreenexit"",""21"",""176583""
""blur"",""70"",""280628""
""focus"",""71"",""286056""
","""event"",""trial"",""time""
""blur"",""70"",""280628""
","""event"",""trial"",""time""
""focus"",""71"",""286056""
","""event"",""trial"",""time""
""fullscreenenter"",""0"",""12857""
","""event"",""trial"",""time""
""fullscreenexit"",""21"",""176583""
","null","<p></p>","null","","","","","","","","","","","","","","","","","","","","","","","",""
"","do_trial","93","330368","0.0-56.0-0.0","""event"",""trial"",""time""
""fullscreenenter"",""0"",""12857""
""fullscreenexit"",""21"",""176583""
""blur"",""70"",""280628""
""focus"",""71"",""286056""
","""event"",""trial"",""time""
""blur"",""70"",""280628""
","""event"",""trial"",""time""
""focus"",""71"",""286056""
","""event"",""trial"",""time""
""fullscreenenter"",""0"",""12857""
","""event"",""trial"",""time""
""fullscreenexit"",""21"",""176583""
","397.69999998807907","","","","","","","","49","1,0,0","6","blank","267","null","0.6149608805213018","0.17931832806191567","0.3371782263099485","1","","","","","","","","",""
"","html-keyboard-response","94","331372","0.0-56.0-1.0","""event"",""trial"",""time""
""fullscreenenter"",""0"",""12857""
""fullscreenexit"",""21"",""176583""
""blur"",""70"",""280628""
""focus"",""71"",""286056""
","""event"",""trial"",""time""
""blur"",""70"",""280628""
","""event"",""trial"",""time""
""focus"",""71"",""286056""
","""event"",""trial"",""time""
""fullscreenenter"",""0"",""12857""
","""event"",""trial"",""time""
""fullscreenexit"",""21"",""176583""
","null","<p></p>","null","","","","","","","","","","","","","","","","","","","","","","","",""
"","do_recog","95","334735","0.0-57.0-0.0","""event"",""trial"",""time""
""fullscreenenter"",""0"",""12857""
""fullscreenexit"",""21"",""176583""
""blur"",""70"",""280628""
""focus"",""71"",""286056""
","""event"",""trial"",""time""
""blur"",""70"",""280628""
","""event"",""trial"",""time""
""focus"",""71"",""286056""
","""event"",""trial"",""time""
""fullscreenenter"",""0"",""12857""
","""event"",""trial"",""time""
""fullscreenexit"",""21"",""176583""
","1854.699999988079","","","","","","","","56","","","","268","probe-16","","","","","1","[object Object]","199","4","0","","","",""
"","html-keyboard-response","96","335741","0.0-57.0-1.0","""event"",""trial"",""time""
""fullscreenenter"",""0"",""12857""
""fullscreenexit"",""21"",""176583""
""blur"",""70"",""280628""
""focus"",""71"",""286056""
","""event"",""trial"",""time""
""blur"",""70"",""280628""
","""event"",""trial"",""time""
""focus"",""71"",""286056""
","""event"",""trial"",""time""
""fullscreenenter"",""0"",""12857""
","""event"",""trial"",""time""
""fullscreenexit"",""21"",""176583""
","null","<p></p>","null","","","","","","","","","","","","","","","","","","","","","","","",""
"","break","97","338216","0.0-58.0-0.0","""event"",""trial"",""time""
""fullscreenenter"",""0"",""12857""
""fullscreenexit"",""21"",""176583""
""blur"",""70"",""280628""
""focus"",""71"",""286056""
","""event"",""trial"",""time""
""blur"",""70"",""280628""
","""event"",""trial"",""time""
""focus"",""71"",""286056""
","""event"",""trial"",""time""
""fullscreenenter"",""0"",""12857""
","""event"",""trial"",""time""
""fullscreenexit"",""21"",""176583""
","2473.2000000178814","<div class='center'><p>Time to take a quick break! You have 2 minutes to rest, but you can move on sooner if you'd like.</p><p> Press the <b>space bar</b> to continue.</p></div>","32","","","","","","","","","","","","","","","","","","","","","","","",""
"","do_trial","98","341424","0.0-58.0-1.0","""event"",""trial"",""time""
""fullscreenenter"",""0"",""12857""
""fullscreenexit"",""21"",""176583""
""blur"",""70"",""280628""
""focus"",""71"",""286056""
","""event"",""trial"",""time""
""blur"",""70"",""280628""
","""event"",""trial"",""time""
""focus"",""71"",""286056""
","""event"",""trial"",""time""
""fullscreenenter"",""0"",""12857""
","""event"",""trial"",""time""
""fullscreenexit"",""21"",""176583""
","664.0999999940395","","","","","","","","49","1,1,0","6","blank","269","null","0.7334972365798876","0.15802776976507102","0.29678027032862836","1","","","","","","","","",""
"","html-keyboard-response","99","342431","0.0-58.0-2.0","""event"",""trial"",""time""
""fullscreenenter"",""0"",""12857""
""fullscreenexit"",""21"",""176583""
""blur"",""70"",""280628""
""focus"",""71"",""286056""
","""event"",""trial"",""time""
""blur"",""70"",""280628""
","""event"",""trial"",""time""
""focus"",""71"",""286056""
","""event"",""trial"",""time""
""fullscreenenter"",""0"",""12857""
","""event"",""trial"",""time""
""fullscreenexit"",""21"",""176583""
","null","<p></p>","null","","","","","","","","","","","","","","","","","","","","","","","",""
"","do_trial","100","345184","0.0-59.0-0.0","""event"",""trial"",""time""
""fullscreenenter"",""0"",""12857""
""fullscreenexit"",""21"",""176583""
""blur"",""70"",""280628""
""focus"",""71"",""286056""
","""event"",""trial"",""time""
""blur"",""70"",""280628""
","""event"",""trial"",""time""
""focus"",""71"",""286056""
","""event"",""trial"",""time""
""fullscreenenter"",""0"",""12857""
","""event"",""trial"",""time""
""fullscreenexit"",""21"",""176583""
","213.2999999821186","","","","","","","","49","0,1,1","6","blank","270","null","0.5916762443156413","0.24337655336447758","0.38580036342490653","0","","","","","","","","",""
"","html-keyboard-response","101","346191","0.0-59.0-1.0","""event"",""trial"",""time""
""fullscreenenter"",""0"",""12857""
""fullscreenexit"",""21"",""176583""
""blur"",""70"",""280628""
""focus"",""71"",""286056""
","""event"",""trial"",""time""
""blur"",""70"",""280628""
","""event"",""trial"",""time""
""focus"",""71"",""286056""
","""event"",""trial"",""time""
""fullscreenenter"",""0"",""12857""
","""event"",""trial"",""time""
""fullscreenexit"",""21"",""176583""
","null","<p></p>","null","","","","","","","","","","","","","","","","","","","","","","","",""
"","do_trial","102","349064","0.0-60.0-0.0","""event"",""trial"",""time""
""fullscreenenter"",""0"",""12857""
""fullscreenexit"",""21"",""176583""
""blur"",""70"",""280628""
""focus"",""71"",""286056""
","""event"",""trial"",""time""
""blur"",""70"",""280628""
","""event"",""trial"",""time""
""focus"",""71"",""286056""
","""event"",""trial"",""time""
""fullscreenenter"",""0"",""12857""
","""event"",""trial"",""time""
""fullscreenexit"",""21"",""176583""
","328.19999998807907","","","","","","","","50","0,0,0","6","blank","271","null","0.4957610097076459","0.17353015950479944","0.4454732782925307","0","","","","","","","","",""
"","html-keyboard-response","103","350070","0.0-60.0-1.0","""event"",""trial"",""time""
""fullscreenenter"",""0"",""12857""
""fullscreenexit"",""21"",""176583""
""blur"",""70"",""280628""
""focus"",""71"",""286056""
","""event"",""trial"",""time""
""blur"",""70"",""280628""
","""event"",""trial"",""time""
""focus"",""71"",""286056""
","""event"",""trial"",""time""
""fullscreenenter"",""0"",""12857""
","""event"",""trial"",""time""
""fullscreenexit"",""21"",""176583""
","null","<p></p>","null","","","","","","","","","","","","","","","","","","","","","","","",""
"","do_trial","104","352664","0.0-61.0-0.0","""event"",""trial"",""time""
""fullscreenenter"",""0"",""12857""
""fullscreenexit"",""21"",""176583""
""blur"",""70"",""280628""
""focus"",""71"",""286056""
","""event"",""trial"",""time""
""blur"",""70"",""280628""
","""event"",""trial"",""time""
""focus"",""71"",""286056""
","""event"",""trial"",""time""
""fullscreenenter"",""0"",""12857""
","""event"",""trial"",""time""
""fullscreenexit"",""21"",""176583""
","48","","","","","","","","51","0,1,0","6","blank","272","null","0.5846616410202092","0.07842879260159116","0.452105194101684","0","","","","","","","","",""
"","html-keyboard-response","105","353667","0.0-61.0-1.0","""event"",""trial"",""time""
""fullscreenenter"",""0"",""12857""
""fullscreenexit"",""21"",""176583""
""blur"",""70"",""280628""
""focus"",""71"",""286056""
","""event"",""trial"",""time""
""blur"",""70"",""280628""
","""event"",""trial"",""time""
""focus"",""71"",""286056""
","""event"",""trial"",""time""
""fullscreenenter"",""0"",""12857""
","""event"",""trial"",""time""
""fullscreenexit"",""21"",""176583""
","null","<p></p>","null","","","","","","","","","","","","","","","","","","","","","","","",""
"","do_recog","106","357207","0.0-62.0-0.0","""event"",""trial"",""time""
""fullscreenenter"",""0"",""12857""
""fullscreenexit"",""21"",""176583""
""blur"",""70"",""280628""
""focus"",""71"",""286056""
","""event"",""trial"",""time""
""blur"",""70"",""280628""
","""event"",""trial"",""time""
""focus"",""71"",""286056""
","""event"",""trial"",""time""
""fullscreenenter"",""0"",""12857""
","""event"",""trial"",""time""
""fullscreenexit"",""21"",""176583""
","2035.0999999940395","","","","","","","","53","","","","273","probe-39","","","","","1","[object Object]","114","2","1","","","",""
"","html-keyboard-response","107","358213","0.0-62.0-1.0","""event"",""trial"",""time""
""fullscreenenter"",""0"",""12857""
""fullscreenexit"",""21"",""176583""
""blur"",""70"",""280628""
""focus"",""71"",""286056""
","""event"",""trial"",""time""
""blur"",""70"",""280628""
","""event"",""trial"",""time""
""focus"",""71"",""286056""
","""event"",""trial"",""time""
""fullscreenenter"",""0"",""12857""
","""event"",""trial"",""time""
""fullscreenexit"",""21"",""176583""
","null","<p></p>","null","","","","","","","","","","","","","","","","","","","","","","","",""
"","do_trial","108","361243","0.0-63.0-0.0","""event"",""trial"",""time""
""fullscreenenter"",""0"",""12857""
""fullscreenexit"",""21"",""176583""
""blur"",""70"",""280628""
""focus"",""71"",""286056""
","""event"",""trial"",""time""
""blur"",""70"",""280628""
","""event"",""trial"",""time""
""focus"",""71"",""286056""
","""event"",""trial"",""time""
""fullscreenenter"",""0"",""12857""
","""event"",""trial"",""time""
""fullscreenexit"",""21"",""176583""
","482.59999999403954","","","","","","","","51","0,0,1","6","blank","274","null","0.6552782274849234","0.15460994630023198","0.3844394458685225","1","","","","","","","","",""
"","html-keyboard-response","109","362249","0.0-63.0-1.0","""event"",""trial"",""time""
""fullscreenenter"",""0"",""12857""
""fullscreenexit"",""21"",""176583""
""blur"",""70"",""280628""
""focus"",""71"",""286056""
","""event"",""trial"",""time""
""blur"",""70"",""280628""
","""event"",""trial"",""time""
""focus"",""71"",""286056""
","""event"",""trial"",""time""
""fullscreenenter"",""0"",""12857""
","""event"",""trial"",""time""
""fullscreenexit"",""21"",""176583""
","null","<p></p>","null","","","","","","","","","","","","","","","","","","","","","","","",""
"","do_trial","110","365114","0.0-64.0-0.0","""event"",""trial"",""time""
""fullscreenenter"",""0"",""12857""
""fullscreenexit"",""21"",""176583""
""blur"",""70"",""280628""
""focus"",""71"",""286056""
","""event"",""trial"",""time""
""blur"",""70"",""280628""
","""event"",""trial"",""time""
""focus"",""71"",""286056""
","""event"",""trial"",""time""
""fullscreenenter"",""0"",""12857""
","""event"",""trial"",""time""
""fullscreenexit"",""21"",""176583""
","318.5","","","","","","","","51","1,1,0","6","blank","275","null","0.5469979704647973","0.07720354835958095","0.38696332280032614","0","","","","","","","","",""
"","html-keyboard-response","111","366120","0.0-64.0-1.0","""event"",""trial"",""time""
""fullscreenenter"",""0"",""12857""
""fullscreenexit"",""21"",""176583""
""blur"",""70"",""280628""
""focus"",""71"",""286056""
","""event"",""trial"",""time""
""blur"",""70"",""280628""
","""event"",""trial"",""time""
""focus"",""71"",""286056""
","""event"",""trial"",""time""
""fullscreenenter"",""0"",""12857""
","""event"",""trial"",""time""
""fullscreenexit"",""21"",""176583""
","null","<p></p>","null","","","","","","","","","","","","","","","","","","","","","","","",""
"","do_trial","112","368955","0.0-65.0-0.0","""event"",""trial"",""time""
""fullscreenenter"",""0"",""12857""
""fullscreenexit"",""21"",""176583""
""blur"",""70"",""280628""
""focus"",""71"",""286056""
","""event"",""trial"",""time""
""blur"",""70"",""280628""
","""event"",""trial"",""time""
""focus"",""71"",""286056""
","""event"",""trial"",""time""
""fullscreenenter"",""0"",""12857""
","""event"",""trial"",""time""
""fullscreenexit"",""21"",""176583""
","291.90000000596046","","","","","","","","49","1,0,1","6","blank","276","null","0.507912239694163","0.05805209948989699","0.3715274931085577","1","","","","","","","","",""
"","html-keyboard-response","113","369958","0.0-65.0-1.0","""event"",""trial"",""time""
""fullscreenenter"",""0"",""12857""
""fullscreenexit"",""21"",""176583""
""blur"",""70"",""280628""
""focus"",""71"",""286056""
","""event"",""trial"",""time""
""blur"",""70"",""280628""
","""event"",""trial"",""time""
""focus"",""71"",""286056""
","""event"",""trial"",""time""
""fullscreenenter"",""0"",""12857""
","""event"",""trial"",""time""
""fullscreenexit"",""21"",""176583""
","null","<p></p>","null","","","","","","","","","","","","","","","","","","","","","","","",""
"","do_trial","114","372754","0.0-66.0-0.0","""event"",""trial"",""time""
""fullscreenenter"",""0"",""12857""
""fullscreenexit"",""21"",""176583""
""blur"",""70"",""280628""
""focus"",""71"",""286056""
","""event"",""trial"",""time""
""blur"",""70"",""280628""
","""event"",""trial"",""time""
""focus"",""71"",""286056""
","""event"",""trial"",""time""
""fullscreenenter"",""0"",""12857""
","""event"",""trial"",""time""
""fullscreenexit"",""21"",""176583""
","250.69999998807907","","","","","","","","49","0,0,1","6","blank","277","null","0.6222928320068932","0.14833583270022227","0.5200412856395057","0","","","","","","","","",""
"","html-keyboard-response","115","373760","0.0-66.0-1.0","""event"",""trial"",""time""
""fullscreenenter"",""0"",""12857""
""fullscreenexit"",""21"",""176583""
""blur"",""70"",""280628""
""focus"",""71"",""286056""
","""event"",""trial"",""time""
""blur"",""70"",""280628""
","""event"",""trial"",""time""
""focus"",""71"",""286056""
","""event"",""trial"",""time""
""fullscreenenter"",""0"",""12857""
","""event"",""trial"",""time""
""fullscreenexit"",""21"",""176583""
","null","<p></p>","null","","","","","","","","","","","","","","","","","","","","","","","",""
"","do_recog","116","377411","0.0-67.0-0.0","""event"",""trial"",""time""
""fullscreenenter"",""0"",""12857""
""fullscreenexit"",""21"",""176583""
""blur"",""70"",""280628""
""focus"",""71"",""286056""
","""event"",""trial"",""time""
""blur"",""70"",""280628""
","""event"",""trial"",""time""
""focus"",""71"",""286056""
","""event"",""trial"",""time""
""fullscreenenter"",""0"",""12857""
","""event"",""trial"",""time""
""fullscreenexit"",""21"",""176583""
","2141.4000000059605","","","","","","","","56","","","","278","probe-12","","","","","1","[object Object]","119","2","0","","","",""
"","html-keyboard-response","117","378417","0.0-67.0-1.0","""event"",""trial"",""time""
""fullscreenenter"",""0"",""12857""
""fullscreenexit"",""21"",""176583""
""blur"",""70"",""280628""
""focus"",""71"",""286056""
","""event"",""trial"",""time""
""blur"",""70"",""280628""
","""event"",""trial"",""time""
""focus"",""71"",""286056""
","""event"",""trial"",""time""
""fullscreenenter"",""0"",""12857""
","""event"",""trial"",""time""
""fullscreenexit"",""21"",""176583""
","null","<p></p>","null","","","","","","","","","","","","","","","","","","","","","","","",""
"","do_trial","118","381613","0.0-68.0-0.0","""event"",""trial"",""time""
""fullscreenenter"",""0"",""12857""
""fullscreenexit"",""21"",""176583""
""blur"",""70"",""280628""
""focus"",""71"",""286056""
","""event"",""trial"",""time""
""blur"",""70"",""280628""
","""event"",""trial"",""time""
""focus"",""71"",""286056""
","""event"",""trial"",""time""
""fullscreenenter"",""0"",""12857""
","""event"",""trial"",""time""
""fullscreenexit"",""21"",""176583""
","652.1000000238419","","","","","","","","49","1,1,1","6","blank","279","null","0.5979273839653229","0.1970460454329898","0.47360465686688097","1","","","","","","","","",""
"","html-keyboard-response","119","382620","0.0-68.0-1.0","""event"",""trial"",""time""
""fullscreenenter"",""0"",""12857""
""fullscreenexit"",""21"",""176583""
""blur"",""70"",""280628""
""focus"",""71"",""286056""
","""event"",""trial"",""time""
""blur"",""70"",""280628""
","""event"",""trial"",""time""
""focus"",""71"",""286056""
","""event"",""trial"",""time""
""fullscreenenter"",""0"",""12857""
","""event"",""trial"",""time""
""fullscreenexit"",""21"",""176583""
","null","<p></p>","null","","","","","","","","","","","","","","","","","","","","","","","",""
"","do_recog","120","385901","0.0-69.0-0.0","""event"",""trial"",""time""
""fullscreenenter"",""0"",""12857""
""fullscreenexit"",""21"",""176583""
""blur"",""70"",""280628""
""focus"",""71"",""286056""
","""event"",""trial"",""time""
""blur"",""70"",""280628""
","""event"",""trial"",""time""
""focus"",""71"",""286056""
","""event"",""trial"",""time""
""fullscreenenter"",""0"",""12857""
","""event"",""trial"",""time""
""fullscreenexit"",""21"",""176583""
","1771.300000011921","","","","","","","","56","","","","280","probe-71","","","","","1","[object Object]","79","1","0","","","",""
"","html-keyboard-response","121","386907","0.0-69.0-1.0","""event"",""trial"",""time""
""fullscreenenter"",""0"",""12857""
""fullscreenexit"",""21"",""176583""
""blur"",""70"",""280628""
""focus"",""71"",""286056""
","""event"",""trial"",""time""
""blur"",""70"",""280628""
","""event"",""trial"",""time""
""focus"",""71"",""286056""
","""event"",""trial"",""time""
""fullscreenenter"",""0"",""12857""
","""event"",""trial"",""time""
""fullscreenexit"",""21"",""176583""
","null","<p></p>","null","","","","","","","","","","","","","","","","","","","","","","","",""
"","do_trial","122","389944","0.0-70.0-0.0","""event"",""trial"",""time""
""fullscreenenter"",""0"",""12857""
""fullscreenexit"",""21"",""176583""
""blur"",""70"",""280628""
""focus"",""71"",""286056""
","""event"",""trial"",""time""
""blur"",""70"",""280628""
","""event"",""trial"",""time""
""focus"",""71"",""286056""
","""event"",""trial"",""time""
""fullscreenenter"",""0"",""12857""
","""event"",""trial"",""time""
""fullscreenexit"",""21"",""176583""
","491","","","","","","","","49","1,0,1","6","blank","281","null","0.7373056505249111","0.15797519600448215","0.37906099850103403","1","","","","","","","","",""
"","html-keyboard-response","123","390948","0.0-70.0-1.0","""event"",""trial"",""time""
""fullscreenenter"",""0"",""12857""
""fullscreenexit"",""21"",""176583""
""blur"",""70"",""280628""
""focus"",""71"",""286056""
","""event"",""trial"",""time""
""blur"",""70"",""280628""
","""event"",""trial"",""time""
""focus"",""71"",""286056""
","""event"",""trial"",""time""
""fullscreenenter"",""0"",""12857""
","""event"",""trial"",""time""
""fullscreenexit"",""21"",""176583""
","null","<p></p>","null","","","","","","","","","","","","","","","","","","","","","","","",""
"","do_trial","124","393915","0.0-71.0-0.0","""event"",""trial"",""time""
""fullscreenenter"",""0"",""12857""
""fullscreenexit"",""21"",""176583""
""blur"",""70"",""280628""
""focus"",""71"",""286056""
","""event"",""trial"",""time""
""blur"",""70"",""280628""
","""event"",""trial"",""time""
""focus"",""71"",""286056""
","""event"",""trial"",""time""
""fullscreenenter"",""0"",""12857""
","""event"",""trial"",""time""
""fullscreenexit"",""21"",""176583""
","420.19999998807907","","","","","","","","49","0,0,1","6","blank","282","null","0.8562682171260838","0.088152025737677","0.2195103864248175","0","","","","","","","","",""
"","html-keyboard-response","125","394921","0.0-71.0-1.0","""event"",""trial"",""time""
""fullscreenenter"",""0"",""12857""
""fullscreenexit"",""21"",""176583""
""blur"",""70"",""280628""
""focus"",""71"",""286056""
","""event"",""trial"",""time""
""blur"",""70"",""280628""
","""event"",""trial"",""time""
""focus"",""71"",""286056""
","""event"",""trial"",""time""
""fullscreenenter"",""0"",""12857""
","""event"",""trial"",""time""
""fullscreenexit"",""21"",""176583""
","null","<p></p>","null","","","","","","","","","","","","","","","","","","","","","","","",""
"","do_recog","126","399091","0.0-72.0-0.0","""event"",""trial"",""time""
""fullscreenenter"",""0"",""12857""
""fullscreenexit"",""21"",""176583""
""blur"",""70"",""280628""
""focus"",""71"",""286056""
","""event"",""trial"",""time""
""blur"",""70"",""280628""
","""event"",""trial"",""time""
""focus"",""71"",""286056""
","""event"",""trial"",""time""
""fullscreenenter"",""0"",""12857""
","""event"",""trial"",""time""
""fullscreenexit"",""21"",""176583""
","2659.600000023842","","","","","","","","55","","","","283","probe-207","","","","","1","[object Object]","190","4","0","","","",""
"","html-keyboard-response","127","400098","0.0-72.0-1.0","""event"",""trial"",""time""
""fullscreenenter"",""0"",""12857""
""fullscreenexit"",""21"",""176583""
""blur"",""70"",""280628""
""focus"",""71"",""286056""
","""event"",""trial"",""time""
""blur"",""70"",""280628""
","""event"",""trial"",""time""
""focus"",""71"",""286056""
","""event"",""trial"",""time""
""fullscreenenter"",""0"",""12857""
","""event"",""trial"",""time""
""fullscreenexit"",""21"",""176583""
","null","<p></p>","null","","","","","","","","","","","","","","","","","","","","","","","",""
"","do_trial","128","403357","0.0-73.0-0.0","""event"",""trial"",""time""
""fullscreenenter"",""0"",""12857""
""fullscreenexit"",""21"",""176583""
""blur"",""70"",""280628""
""focus"",""71"",""286056""
","""event"",""trial"",""time""
""blur"",""70"",""280628""
","""event"",""trial"",""time""
""focus"",""71"",""286056""
","""event"",""trial"",""time""
""fullscreenenter"",""0"",""12857""
","""event"",""trial"",""time""
""fullscreenexit"",""21"",""176583""
","712.2999999821186","","","","","","","","49","1,0,0","6","blank","284","null","0.8242944995217425","0.18018362527918277","0.2091421251337391","1","","","","","","","","",""
"","html-keyboard-response","129","404358","0.0-73.0-1.0","""event"",""trial"",""time""
""fullscreenenter"",""0"",""12857""
""fullscreenexit"",""21"",""176583""
""blur"",""70"",""280628""
""focus"",""71"",""286056""
","""event"",""trial"",""time""
""blur"",""70"",""280628""
","""event"",""trial"",""time""
""focus"",""71"",""286056""
","""event"",""trial"",""time""
""fullscreenenter"",""0"",""12857""
","""event"",""trial"",""time""
""fullscreenexit"",""21"",""176583""
","null","<p></p>","null","","","","","","","","","","","","","","","","","","","","","","","",""
"","do_trial","130","407310","0.0-74.0-0.0","""event"",""trial"",""time""
""fullscreenenter"",""0"",""12857""
""fullscreenexit"",""21"",""176583""
""blur"",""70"",""280628""
""focus"",""71"",""286056""
","""event"",""trial"",""time""
""blur"",""70"",""280628""
","""event"",""trial"",""time""
""focus"",""71"",""286056""
","""event"",""trial"",""time""
""fullscreenenter"",""0"",""12857""
","""event"",""trial"",""time""
""fullscreenexit"",""21"",""176583""
","402.2000000178814","","","","","","","","49","1,0,0","6","blank","285","null","0.6944804234306633","0.07229550184057328","0.3467846748104615","1","","","","","","","","",""
"","html-keyboard-response","131","408316","0.0-74.0-1.0","""event"",""trial"",""time""
""fullscreenenter"",""0"",""12857""
""fullscreenexit"",""21"",""176583""
""blur"",""70"",""280628""
""focus"",""71"",""286056""
","""event"",""trial"",""time""
""blur"",""70"",""280628""
","""event"",""trial"",""time""
""focus"",""71"",""286056""
","""event"",""trial"",""time""
""fullscreenenter"",""0"",""12857""
","""event"",""trial"",""time""
""fullscreenexit"",""21"",""176583""
","null","<p></p>","null","","","","","","","","","","","","","","","","","","","","","","","",""
"","do_trial","132","410863","0.0-75.0-0.0","""event"",""trial"",""time""
""fullscreenenter"",""0"",""12857""
""fullscreenexit"",""21"",""176583""
""blur"",""70"",""280628""
""focus"",""71"",""286056""
","""event"",""trial"",""time""
""blur"",""70"",""280628""
","""event"",""trial"",""time""
""focus"",""71"",""286056""
","""event"",""trial"",""time""
""fullscreenenter"",""0"",""12857""
","""event"",""trial"",""time""
""fullscreenexit"",""21"",""176583""
","0.20000001788139343","","","","","","","","49","1,0,0","6","blank","286","null","0.6349574214497262","0.12421892770413276","0.275979722200683","1","","","","","","","","",""
"","html-keyboard-response","133","411869","0.0-75.0-1.0","""event"",""trial"",""time""
""fullscreenenter"",""0"",""12857""
""fullscreenexit"",""21"",""176583""
""blur"",""70"",""280628""
""focus"",""71"",""286056""
","""event"",""trial"",""time""
""blur"",""70"",""280628""
","""event"",""trial"",""time""
""focus"",""71"",""286056""
","""event"",""trial"",""time""
""fullscreenenter"",""0"",""12857""
","""event"",""trial"",""time""
""fullscreenexit"",""21"",""176583""
","null","<p></p>","null","","","","","","","","","","","","","","","","","","","","","","","",""
"","do_trial","134","414441","0.0-76.0-0.0","""event"",""trial"",""time""
""fullscreenenter"",""0"",""12857""
""fullscreenexit"",""21"",""176583""
""blur"",""70"",""280628""
""focus"",""71"",""286056""
","""event"",""trial"",""time""
""blur"",""70"",""280628""
","""event"",""trial"",""time""
""focus"",""71"",""286056""
","""event"",""trial"",""time""
""fullscreenenter"",""0"",""12857""
","""event"",""trial"",""time""
""fullscreenexit"",""21"",""176583""
","27.400000005960464","","","","","","","","49","1,0,0","6","blank","287","null","0.542979363141402","0.23175037943354254","0.3009631481621118","1","","","","","","","","",""
"","html-keyboard-response","135","415447","0.0-76.0-1.0","""event"",""trial"",""time""
""fullscreenenter"",""0"",""12857""
""fullscreenexit"",""21"",""176583""
""blur"",""70"",""280628""
""focus"",""71"",""286056""
","""event"",""trial"",""time""
""blur"",""70"",""280628""
","""event"",""trial"",""time""
""focus"",""71"",""286056""
","""event"",""trial"",""time""
""fullscreenenter"",""0"",""12857""
","""event"",""trial"",""time""
""fullscreenexit"",""21"",""176583""
","null","<p></p>","null","","","","","","","","","","","","","","","","","","","","","","","",""
"","do_trial","136","418028","0.0-77.0-0.0","""event"",""trial"",""time""
""fullscreenenter"",""0"",""12857""
""fullscreenexit"",""21"",""176583""
""blur"",""70"",""280628""
""focus"",""71"",""286056""
","""event"",""trial"",""time""
""blur"",""70"",""280628""
","""event"",""trial"",""time""
""focus"",""71"",""286056""
","""event"",""trial"",""time""
""fullscreenenter"",""0"",""12857""
","""event"",""trial"",""time""
""fullscreenexit"",""21"",""176583""
","35.400000005960464","","","","","","","","49","1,1,1","6","blank","288","null","0.4564772968112467","0.2548599019352378","0.29661275816161903","1","","","","","","","","",""
"","html-keyboard-response","137","419034","0.0-77.0-1.0","""event"",""trial"",""time""
""fullscreenenter"",""0"",""12857""
""fullscreenexit"",""21"",""176583""
""blur"",""70"",""280628""
""focus"",""71"",""286056""
","""event"",""trial"",""time""
""blur"",""70"",""280628""
","""event"",""trial"",""time""
""focus"",""71"",""286056""
","""event"",""trial"",""time""
""fullscreenenter"",""0"",""12857""
","""event"",""trial"",""time""
""fullscreenexit"",""21"",""176583""
","null","<p></p>","null","","","","","","","","","","","","","","","","","","","","","","","",""
"","do_trial","138","421788","0.0-78.0-0.0","""event"",""trial"",""time""
""fullscreenenter"",""0"",""12857""
""fullscreenexit"",""21"",""176583""
""blur"",""70"",""280628""
""focus"",""71"",""286056""
","""event"",""trial"",""time""
""blur"",""70"",""280628""
","""event"",""trial"",""time""
""focus"",""71"",""286056""
","""event"",""trial"",""time""
""fullscreenenter"",""0"",""12857""
","""event"",""trial"",""time""
""fullscreenexit"",""21"",""176583""
","210.69999998807907","","","","","","","","49","1,0,1","6","blank","289","null","0.4956417855446455","0.15241830255679303","0.2892695989759882","1","","","","","","","","",""
"","html-keyboard-response","139","422794","0.0-78.0-1.0","""event"",""trial"",""time""
""fullscreenenter"",""0"",""12857""
""fullscreenexit"",""21"",""176583""
""blur"",""70"",""280628""
""focus"",""71"",""286056""
","""event"",""trial"",""time""
""blur"",""70"",""280628""
","""event"",""trial"",""time""
""focus"",""71"",""286056""
","""event"",""trial"",""time""
""fullscreenenter"",""0"",""12857""
","""event"",""trial"",""time""
""fullscreenexit"",""21"",""176583""
","null","<p></p>","null","","","","","","","","","","","","","","","","","","","","","","","",""
"","do_recog","140","425920","0.0-79.0-0.0","""event"",""trial"",""time""
""fullscreenenter"",""0"",""12857""
""fullscreenexit"",""21"",""176583""
""blur"",""70"",""280628""
""focus"",""71"",""286056""
","""event"",""trial"",""time""
""blur"",""70"",""280628""
","""event"",""trial"",""time""
""focus"",""71"",""286056""
","""event"",""trial"",""time""
""fullscreenenter"",""0"",""12857""
","""event"",""trial"",""time""
""fullscreenexit"",""21"",""176583""
","1618.800000011921","","","","","","","","53","","","","290","probe-166","","","","","1","[object Object]","77","1","1","","","",""
"","html-keyboard-response","141","426927","0.0-79.0-1.0","""event"",""trial"",""time""
""fullscreenenter"",""0"",""12857""
""fullscreenexit"",""21"",""176583""
""blur"",""70"",""280628""
""focus"",""71"",""286056""
","""event"",""trial"",""time""
""blur"",""70"",""280628""
","""event"",""trial"",""time""
""focus"",""71"",""286056""
","""event"",""trial"",""time""
""fullscreenenter"",""0"",""12857""
","""event"",""trial"",""time""
""fullscreenexit"",""21"",""176583""
","null","<p></p>","null","","","","","","","","","","","","","","","","","","","","","","","",""
"","do_trial","142","429909","0.0-80.0-0.0","""event"",""trial"",""time""
""fullscreenenter"",""0"",""12857""
""fullscreenexit"",""21"",""176583""
""blur"",""70"",""280628""
""focus"",""71"",""286056""
","""event"",""trial"",""time""
""blur"",""70"",""280628""
","""event"",""trial"",""time""
""focus"",""71"",""286056""
","""event"",""trial"",""time""
""fullscreenenter"",""0"",""12857""
","""event"",""trial"",""time""
""fullscreenexit"",""21"",""176583""
","440","","","","","","","","49","1,1,1","6","blank","291","null","0.5851892143784673","0.14369214279050627","0.33975779610880785","1","","","","","","","","",""
"","html-keyboard-response","143","430912","0.0-80.0-1.0","""event"",""trial"",""time""
""fullscreenenter"",""0"",""12857""
""fullscreenexit"",""21"",""176583""
""blur"",""70"",""280628""
""focus"",""71"",""286056""
","""event"",""trial"",""time""
""blur"",""70"",""280628""
","""event"",""trial"",""time""
""focus"",""71"",""286056""
","""event"",""trial"",""time""
""fullscreenenter"",""0"",""12857""
","""event"",""trial"",""time""
""fullscreenexit"",""21"",""176583""
","null","<p></p>","null","","","","","","","","","","","","","","","","","","","","","","","",""
"","do_recog","144","434013","0.0-81.0-0.0","""event"",""trial"",""time""
""fullscreenenter"",""0"",""12857""
""fullscreenexit"",""21"",""176583""
""blur"",""70"",""280628""
""focus"",""71"",""286056""
","""event"",""trial"",""time""
""blur"",""70"",""280628""
","""event"",""trial"",""time""
""focus"",""71"",""286056""
","""event"",""trial"",""time""
""fullscreenenter"",""0"",""12857""
","""event"",""trial"",""time""
""fullscreenexit"",""21"",""176583""
","1591.800000011921","","","","","","","","55","","","","292","probe-253","","","","","0","[object Object]","null","null","1","","","",""
"","html-keyboard-response","145","435019","0.0-81.0-1.0","""event"",""trial"",""time""
""fullscreenenter"",""0"",""12857""
""fullscreenexit"",""21"",""176583""
""blur"",""70"",""280628""
""focus"",""71"",""286056""
","""event"",""trial"",""time""
""blur"",""70"",""280628""
","""event"",""trial"",""time""
""focus"",""71"",""286056""
","""event"",""trial"",""time""
""fullscreenenter"",""0"",""12857""
","""event"",""trial"",""time""
""fullscreenexit"",""21"",""176583""
","null","<p></p>","null","","","","","","","","","","","","","","","","","","","","","","","",""
"","do_trial","146","438127","0.0-82.0-0.0","""event"",""trial"",""time""
""fullscreenenter"",""0"",""12857""
""fullscreenexit"",""21"",""176583""
""blur"",""70"",""280628""
""focus"",""71"",""286056""
","""event"",""trial"",""time""
""blur"",""70"",""280628""
","""event"",""trial"",""time""
""focus"",""71"",""286056""
","""event"",""trial"",""time""
""fullscreenenter"",""0"",""12857""
","""event"",""trial"",""time""
""fullscreenexit"",""21"",""176583""
","561","","","","","","","","49","1,0,0","6","blank","293","null","0.6097706738260914","0.12753912473954818","0.342290522374308","1","","","","","","","","",""
"","html-keyboard-response","147","439134","0.0-82.0-1.0","""event"",""trial"",""time""
""fullscreenenter"",""0"",""12857""
""fullscreenexit"",""21"",""176583""
""blur"",""70"",""280628""
""focus"",""71"",""286056""
","""event"",""trial"",""time""
""blur"",""70"",""280628""
","""event"",""trial"",""time""
""focus"",""71"",""286056""
","""event"",""trial"",""time""
""fullscreenenter"",""0"",""12857""
","""event"",""trial"",""time""
""fullscreenexit"",""21"",""176583""
","null","<p></p>","null","","","","","","","","","","","","","","","","","","","","","","","",""
"","do_recog","148","442416","0.0-83.0-0.0","""event"",""trial"",""time""
""fullscreenenter"",""0"",""12857""
""fullscreenexit"",""21"",""176583""
""blur"",""70"",""280628""
""focus"",""71"",""286056""
","""event"",""trial"",""time""
""blur"",""70"",""280628""
","""event"",""trial"",""time""
""focus"",""71"",""286056""
","""event"",""trial"",""time""
""fullscreenenter"",""0"",""12857""
","""event"",""trial"",""time""
""fullscreenexit"",""21"",""176583""
","1772.4000000059605","","","","","","","","53","","","","294","probe-226","","","","","1","[object Object]","192","4","1","","","",""
"","html-keyboard-response","149","443422","0.0-83.0-1.0","""event"",""trial"",""time""
""fullscreenenter"",""0"",""12857""
""fullscreenexit"",""21"",""176583""
""blur"",""70"",""280628""
""focus"",""71"",""286056""
","""event"",""trial"",""time""
""blur"",""70"",""280628""
","""event"",""trial"",""time""
""focus"",""71"",""286056""
","""event"",""trial"",""time""
""fullscreenenter"",""0"",""12857""
","""event"",""trial"",""time""
""fullscreenexit"",""21"",""176583""
","null","<p></p>","null","","","","","","","","","","","","","","","","","","","","","","","",""
"","do_trial","150","446306","0.0-84.0-0.0","""event"",""trial"",""time""
""fullscreenenter"",""0"",""12857""
""fullscreenexit"",""21"",""176583""
""blur"",""70"",""280628""
""focus"",""71"",""286056""
","""event"",""trial"",""time""
""blur"",""70"",""280628""
","""event"",""trial"",""time""
""focus"",""71"",""286056""
","""event"",""trial"",""time""
""fullscreenenter"",""0"",""12857""
","""event"",""trial"",""time""
""fullscreenexit"",""21"",""176583""
","341","","","","","","","","49","0,1,0","6","blank","295","null","0.473330625552899","0.16998245609659296","0.4184763711078191","0","","","","","","","","",""
"","html-keyboard-response","151","447312","0.0-84.0-1.0","""event"",""trial"",""time""
""fullscreenenter"",""0"",""12857""
""fullscreenexit"",""21"",""176583""
""blur"",""70"",""280628""
""focus"",""71"",""286056""
","""event"",""trial"",""time""
""blur"",""70"",""280628""
","""event"",""trial"",""time""
""focus"",""71"",""286056""
","""event"",""trial"",""time""
""fullscreenenter"",""0"",""12857""
","""event"",""trial"",""time""
""fullscreenexit"",""21"",""176583""
","null","<p></p>","null","","","","","","","","","","","","","","","","","","","","","","","",""
"","do_recog","152","450017","0.0-85.0-0.0","""event"",""trial"",""time""
""fullscreenenter"",""0"",""12857""
""fullscreenexit"",""21"",""176583""
""blur"",""70"",""280628""
""focus"",""71"",""286056""
","""event"",""trial"",""time""
""blur"",""70"",""280628""
","""event"",""trial"",""time""
""focus"",""71"",""286056""
","""event"",""trial"",""time""
""fullscreenenter"",""0"",""12857""
","""event"",""trial"",""time""
""fullscreenexit"",""21"",""176583""
","1195.699999988079","","","","","","","","53","","","","296","probe-46","","","","","1","[object Object]","39","0","1","","","",""
"","html-keyboard-response","153","451019","0.0-85.0-1.0","""event"",""trial"",""time""
""fullscreenenter"",""0"",""12857""
""fullscreenexit"",""21"",""176583""
""blur"",""70"",""280628""
""focus"",""71"",""286056""
","""event"",""trial"",""time""
""blur"",""70"",""280628""
","""event"",""trial"",""time""
""focus"",""71"",""286056""
","""event"",""trial"",""time""
""fullscreenenter"",""0"",""12857""
","""event"",""trial"",""time""
""fullscreenexit"",""21"",""176583""
","null","<p></p>","null","","","","","","","","","","","","","","","","","","","","","","","",""
"","do_trial","154","454189","0.0-86.0-0.0","""event"",""trial"",""time""
""fullscreenenter"",""0"",""12857""
""fullscreenexit"",""21"",""176583""
""blur"",""70"",""280628""
""focus"",""71"",""286056""
","""event"",""trial"",""time""
""blur"",""70"",""280628""
","""event"",""trial"",""time""
""focus"",""71"",""286056""
","""event"",""trial"",""time""
""fullscreenenter"",""0"",""12857""
","""event"",""trial"",""time""
""fullscreenexit"",""21"",""176583""
","624.5999999940395","","","","","","","","49","1,0,1","6","blank","297","null","0.28440618347642455","0.23676172597744088","0.37120599176221797","1","","","","","","","","",""
"","html-keyboard-response","155","455192","0.0-86.0-1.0","""event"",""trial"",""time""
""fullscreenenter"",""0"",""12857""
""fullscreenexit"",""21"",""176583""
""blur"",""70"",""280628""
""focus"",""71"",""286056""
","""event"",""trial"",""time""
""blur"",""70"",""280628""
","""event"",""trial"",""time""
""focus"",""71"",""286056""
","""event"",""trial"",""time""
""fullscreenenter"",""0"",""12857""
","""event"",""trial"",""time""
""fullscreenexit"",""21"",""176583""
","null","<p></p>","null","","","","","","","","","","","","","","","","","","","","","","","",""
"","do_recog","156","458019","0.0-87.0-0.0","""event"",""trial"",""time""
""fullscreenenter"",""0"",""12857""
""fullscreenexit"",""21"",""176583""
""blur"",""70"",""280628""
""focus"",""71"",""286056""
","""event"",""trial"",""time""
""blur"",""70"",""280628""
","""event"",""trial"",""time""
""focus"",""71"",""286056""
","""event"",""trial"",""time""
""fullscreenenter"",""0"",""12857""
","""event"",""trial"",""time""
""fullscreenexit"",""21"",""176583""
","1317.5999999940395","","","","","","","","53","","","","298","probe-103","","","","","1","[object Object]","195","4","1","","","",""
"","html-keyboard-response","157","459026","0.0-87.0-1.0","""event"",""trial"",""time""
""fullscreenenter"",""0"",""12857""
""fullscreenexit"",""21"",""176583""
""blur"",""70"",""280628""
""focus"",""71"",""286056""
","""event"",""trial"",""time""
""blur"",""70"",""280628""
","""event"",""trial"",""time""
""focus"",""71"",""286056""
","""event"",""trial"",""time""
""fullscreenenter"",""0"",""12857""
","""event"",""trial"",""time""
""fullscreenexit"",""21"",""176583""
","null","<p></p>","null","","","","","","","","","","","","","","","","","","","","","","","",""
"","do_trial","158","462152","0.0-88.0-0.0","""event"",""trial"",""time""
""fullscreenenter"",""0"",""12857""
""fullscreenexit"",""21"",""176583""
""blur"",""70"",""280628""
""focus"",""71"",""286056""
","""event"",""trial"",""time""
""blur"",""70"",""280628""
","""event"",""trial"",""time""
""focus"",""71"",""286056""
","""event"",""trial"",""time""
""fullscreenenter"",""0"",""12857""
","""event"",""trial"",""time""
""fullscreenexit"",""21"",""176583""
","580.7999999821186","","","","","","","","49","1,1,0","6","blank","299","null","0.40160790235749344","0.1703627604354415","0.3612754787268473","1","","","","","","","","",""
"","html-keyboard-response","159","463158","0.0-88.0-1.0","""event"",""trial"",""time""
""fullscreenenter"",""0"",""12857""
""fullscreenexit"",""21"",""176583""
""blur"",""70"",""280628""
""focus"",""71"",""286056""
","""event"",""trial"",""time""
""blur"",""70"",""280628""
","""event"",""trial"",""time""
""focus"",""71"",""286056""
","""event"",""trial"",""time""
""fullscreenenter"",""0"",""12857""
","""event"",""trial"",""time""
""fullscreenexit"",""21"",""176583""
","null","<p></p>","null","","","","","","","","","","","","","","","","","","","","","","","",""
"","do_trial","160","466139","0.0-89.0-0.0","""event"",""trial"",""time""
""fullscreenenter"",""0"",""12857""
""fullscreenexit"",""21"",""176583""
""blur"",""70"",""280628""
""focus"",""71"",""286056""
","""event"",""trial"",""time""
""blur"",""70"",""280628""
","""event"",""trial"",""time""
""focus"",""71"",""286056""
","""event"",""trial"",""time""
""fullscreenenter"",""0"",""12857""
","""event"",""trial"",""time""
""fullscreenexit"",""21"",""176583""
","441.09999999403954","","","","","","","","49","0,0,1","6","blank","300","null","0.32826461901402476","0.0764780941237479","0.5102481328697581","0","","","","","","","","",""
"","html-keyboard-response","161","467145","0.0-89.0-1.0","""event"",""trial"",""time""
""fullscreenenter"",""0"",""12857""
""fullscreenexit"",""21"",""176583""
""blur"",""70"",""280628""
""focus"",""71"",""286056""
","""event"",""trial"",""time""
""blur"",""70"",""280628""
","""event"",""trial"",""time""
""focus"",""71"",""286056""
","""event"",""trial"",""time""
""fullscreenenter"",""0"",""12857""
","""event"",""trial"",""time""
""fullscreenexit"",""21"",""176583""
","null","<p></p>","null","","","","","","","","","","","","","","","","","","","","","","","",""
"","do_trial","162","469987","0.0-90.0-0.0","""event"",""trial"",""time""
""fullscreenenter"",""0"",""12857""
""fullscreenexit"",""21"",""176583""
""blur"",""70"",""280628""
""focus"",""71"",""286056""
","""event"",""trial"",""time""
""blur"",""70"",""280628""
","""event"",""trial"",""time""
""focus"",""71"",""286056""
","""event"",""trial"",""time""
""fullscreenenter"",""0"",""12857""
","""event"",""trial"",""time""
""fullscreenexit"",""21"",""176583""
","298.60000002384186","","","","","","","","49","0,1,1","6","blank","301","null","0.5256664295276577","0.09312682326851053","0.4587446709881857","0","","","","","","","","",""
"","html-keyboard-response","163","470994","0.0-90.0-1.0","""event"",""trial"",""time""
""fullscreenenter"",""0"",""12857""
""fullscreenexit"",""21"",""176583""
""blur"",""70"",""280628""
""focus"",""71"",""286056""
","""event"",""trial"",""time""
""blur"",""70"",""280628""
","""event"",""trial"",""time""
""focus"",""71"",""286056""
","""event"",""trial"",""time""
""fullscreenenter"",""0"",""12857""
","""event"",""trial"",""time""
""fullscreenexit"",""21"",""176583""
","null","<p></p>","null","","","","","","","","","","","","","","","","","","","","","","","",""
"","do_trial","164","473561","0.0-91.0-0.0","""event"",""trial"",""time""
""fullscreenenter"",""0"",""12857""
""fullscreenexit"",""21"",""176583""
""blur"",""70"",""280628""
""focus"",""71"",""286056""
","""event"",""trial"",""time""
""blur"",""70"",""280628""
","""event"",""trial"",""time""
""focus"",""71"",""286056""
","""event"",""trial"",""time""
""fullscreenenter"",""0"",""12857""
","""event"",""trial"",""time""
""fullscreenexit"",""21"",""176583""
","25.599999994039536","","","","","","","","49","0,0,0","6","blank","302","null","0.44653855481271565","0.13170186984166843","0.4362237072876354","0","","","","","","","","",""
"","html-keyboard-response","165","474567","0.0-91.0-1.0","""event"",""trial"",""time""
""fullscreenenter"",""0"",""12857""
""fullscreenexit"",""21"",""176583""
""blur"",""70"",""280628""
""focus"",""71"",""286056""
","""event"",""trial"",""time""
""blur"",""70"",""280628""
","""event"",""trial"",""time""
""focus"",""71"",""286056""
","""event"",""trial"",""time""
""fullscreenenter"",""0"",""12857""
","""event"",""trial"",""time""
""fullscreenexit"",""21"",""176583""
","null","<p></p>","null","","","","","","","","","","","","","","","","","","","","","","","",""
"","do_trial","166","477112","0.0-92.0-0.0","""event"",""trial"",""time""
""fullscreenenter"",""0"",""12857""
""fullscreenexit"",""21"",""176583""
""blur"",""70"",""280628""
""focus"",""71"",""286056""
","""event"",""trial"",""time""
""blur"",""70"",""280628""
","""event"",""trial"",""time""
""focus"",""71"",""286056""
","""event"",""trial"",""time""
""fullscreenenter"",""0"",""12857""
","""event"",""trial"",""time""
""fullscreenexit"",""21"",""176583""
","0.09999999403953552","","","","","","","","49","0,0,0","6","blank","303","null","0.3272352484109319","0.050785388424840185","0.42527535036856423","0","","","","","","","","",""
"","html-keyboard-response","167","478118","0.0-92.0-1.0","""event"",""trial"",""time""
""fullscreenenter"",""0"",""12857""
""fullscreenexit"",""21"",""176583""
""blur"",""70"",""280628""
""focus"",""71"",""286056""
","""event"",""trial"",""time""
""blur"",""70"",""280628""
","""event"",""trial"",""time""
""focus"",""71"",""286056""
","""event"",""trial"",""time""
""fullscreenenter"",""0"",""12857""
","""event"",""trial"",""time""
""fullscreenexit"",""21"",""176583""
","null","<p></p>","null","","","","","","","","","","","","","","","","","","","","","","","",""
"","do_recog","168","481725","0.0-93.0-0.0","""event"",""trial"",""time""
""fullscreenenter"",""0"",""12857""
""fullscreenexit"",""21"",""176583""
""blur"",""70"",""280628""
""focus"",""71"",""286056""
","""event"",""trial"",""time""
""blur"",""70"",""280628""
","""event"",""trial"",""time""
""focus"",""71"",""286056""
","""event"",""trial"",""time""
""fullscreenenter"",""0"",""12857""
","""event"",""trial"",""time""
""fullscreenexit"",""21"",""176583""
","2096.399999976158","","","","","","","","55","","","","304","probe-54","","","","","1","[object Object]","118","2","0","","","",""
"","html-keyboard-response","169","482731","0.0-93.0-1.0","""event"",""trial"",""time""
""fullscreenenter"",""0"",""12857""
""fullscreenexit"",""21"",""176583""
""blur"",""70"",""280628""
""focus"",""71"",""286056""
","""event"",""trial"",""time""
""blur"",""70"",""280628""
","""event"",""trial"",""time""
""focus"",""71"",""286056""
","""event"",""trial"",""time""
""fullscreenenter"",""0"",""12857""
","""event"",""trial"",""time""
""fullscreenexit"",""21"",""176583""
","null","<p></p>","null","","","","","","","","","","","","","","","","","","","","","","","",""
"","do_trial","170","485714","0.0-94.0-0.0","""event"",""trial"",""time""
""fullscreenenter"",""0"",""12857""
""fullscreenexit"",""21"",""176583""
""blur"",""70"",""280628""
""focus"",""71"",""286056""
","""event"",""trial"",""time""
""blur"",""70"",""280628""
","""event"",""trial"",""time""
""focus"",""71"",""286056""
","""event"",""trial"",""time""
""fullscreenenter"",""0"",""12857""
","""event"",""trial"",""time""
""fullscreenexit"",""21"",""176583""
","437","","","","","","","","51","0,0,1","6","blank","305","null","0.30512038650331674","0.05566124077896637","0.5614022794358515","1","","","","","","","","",""
"","html-keyboard-response","171","486721","0.0-94.0-1.0","""event"",""trial"",""time""
""fullscreenenter"",""0"",""12857""
""fullscreenexit"",""21"",""176583""
""blur"",""70"",""280628""
""focus"",""71"",""286056""
","""event"",""trial"",""time""
""blur"",""70"",""280628""
","""event"",""trial"",""time""
""focus"",""71"",""286056""
","""event"",""trial"",""time""
""fullscreenenter"",""0"",""12857""
","""event"",""trial"",""time""
""fullscreenexit"",""21"",""176583""
","null","<p></p>","null","","","","","","","","","","","","","","","","","","","","","","","",""
"","do_trial","172","489743","0.0-95.0-0.0","""event"",""trial"",""time""
""fullscreenenter"",""0"",""12857""
""fullscreenexit"",""21"",""176583""
""blur"",""70"",""280628""
""focus"",""71"",""286056""
","""event"",""trial"",""time""
""blur"",""70"",""280628""
","""event"",""trial"",""time""
""focus"",""71"",""286056""
","""event"",""trial"",""time""
""fullscreenenter"",""0"",""12857""
","""event"",""trial"",""time""
""fullscreenexit"",""21"",""176583""
","477.40000000596046","","","","","","","","51","0,0,0","6","blank","306","null","0.36804343125192235","0.10777345987543566","0.49887785511720195","0","","","","","","","","",""
"","html-keyboard-response","173","490745","0.0-95.0-1.0","""event"",""trial"",""time""
""fullscreenenter"",""0"",""12857""
""fullscreenexit"",""21"",""176583""
""blur"",""70"",""280628""
""focus"",""71"",""286056""
","""event"",""trial"",""time""
""blur"",""70"",""280628""
","""event"",""trial"",""time""
""focus"",""71"",""286056""
","""event"",""trial"",""time""
""fullscreenenter"",""0"",""12857""
","""event"",""trial"",""time""
""fullscreenexit"",""21"",""176583""
","null","<p></p>","null","","","","","","","","","","","","","","","","","","","","","","","",""
"","do_trial","174","493286","0.0-96.0-0.0","""event"",""trial"",""time""
""fullscreenenter"",""0"",""12857""
""fullscreenexit"",""21"",""176583""
""blur"",""70"",""280628""
""focus"",""71"",""286056""
","""event"",""trial"",""time""
""blur"",""70"",""280628""
","""event"",""trial"",""time""
""focus"",""71"",""286056""
","""event"",""trial"",""time""
""fullscreenenter"",""0"",""12857""
","""event"",""trial"",""time""
""fullscreenexit"",""21"",""176583""
","2.399999976158142","","","","","","","","50","1,1,1","6","blank","307","null","0.16991100314768617","0.1361810555428923","0.6002364882076855","1","","","","","","","","",""
"","html-keyboard-response","175","494288","0.0-96.0-1.0","""event"",""trial"",""time""
""fullscreenenter"",""0"",""12857""
""fullscreenexit"",""21"",""176583""
""blur"",""70"",""280628""
""focus"",""71"",""286056""
