success,trial_type,trial_index,time_elapsed,internal_node_id,rt,stimulus,subject_id,key_press,response,choice_outcomes,context_n,context_img_id,trial_n,probe_img_id,pR_red,pR_white,pR_black,outcome,is_valid,image_to_show,probed_trial,probed_context,correct,context_id
TRUE,fullscreen,0,3901,0.0-0.0,,,,,,,,,,,,,,,,,,,,
,pavlovia,1,3904,0.0-1.0,,,,,,,,,,,,,,,,,,,,
,html-keyboard-response,2,16224,0.0-2.0,12319.7,"<div class='center'><p>Like yesterday,as the head captain of the ship, you have one important things to do: </p><b><p> Pick the pirate who you think will be most successful at robbing the next ship.</p></b><p>This is important in determining how much bonus money you’ll win.</p><br><p>The game will start by showing you the pirates. First pick a pirate using the <b> 1, 2, 3 </b> buttons on your keyboard. </p><p> Press <b>'1'</b> to choose red beard, <b>'2'</b> to choose white beard, and <b>'3'</b> to choose black beard</p><p> You only have 3 seconds to pick a pirate, so please make a choice quickly! If you are too slow, you’ll have to wait a bit during the time out.</p><p> Don’t feel rushed, but please do try to make a choice every time.</p><p>How good a pirate is at robbing a ship will change depending on the place they are in and how good the defenses are of the ship.</p><p><b>[Press the space bar to begin the practice game]</b></p></div>",61006c4980155934192a124f,32,,,,,,,,,,,,,,,,
,html-keyboard-response,3,26219,0.0-3.0,9993.6,"<div class='center'><p>You’ve arrived at the final island of your journey! Unfortunately, it’s very foggy out, so you won’t be able to see it in the distance like the previous islands you've visited.</p><p>You’ll still be deciding which pirate you want to rob a ship like before. However, because of the fog, you also won’t be able to see the ship.</p><p>This means you do not have to remember the ships you rob on this island.</p><p><b>[Press the space bar to continue]</b></p></div>",,32,,,,,,,,,,,,,,,,
,html-keyboard-response,4,32712,0.0-4.0,6492.4,"<div class='center'><p> Sometimes you’ll be shown a ship, and you will be asked if you saw this ship on a past island.</p><p> Here is an example of what you will see.</p><p><b>[Press the space bar to continue]</b></p><p><img src='run_exp/static/images/tutorial/example_recog_trial.png' height='500'></p></div>",,32,,,,,,,,,,,,,,,,
,html-keyboard-response,5,38350,0.0-5.0,5637.5,"<div class='center'><p> You will press the 5, 6, 7, 8 buttons on your keyboard to respond.</p><p>If you are very sure saw the ship, press <b>5</b> on your keyboard.</p><p> If you think you  saw it before but are not sure, then press <b>6</b>.</p><p> If you think you have not seen it before but are not sure, then press <b>7</b>.</p><p> If you are sure you did not see the ship before, then press <b>8</b>.</p><p><b>[Press the space bar to continue]</b></p><p><img src='run_exp/static/images/tutorial/example_recog_trial.png' height='500'></p></div>",,32,,,,,,,,,,,,,,,,
,html-keyboard-response,6,46202,0.0-6.0,7850.8,"<div class='center'><p> If you remember correctly, then you’ll get a gold coin like this: </p><p><img src='run_exp/static/images/tutorial/reward_small.png' height='200'></p><p>If you do not remember correctly, then you'll see a red x like this: </p><p><img src='run_exp/static/images/tutorial/reward_no.png' height='200'></p><p>Importantly, when you are shown a ship, take the time to remind yourself which island you saw it on. This will help you in the next part of the study.</p><p><b>[Press the space bar to continue]</b></p></div>",,32,,,,,,,,,,,,,,,,
,html-keyboard-response,7,53472,0.0-7.0,7269.6,"<div class='center'><p>Let's go over the important points again. Your job is to: </p><p>1. Pick the pirate who is best at robbing ships and will bring you back gold coins. </p><p>2. Correctly remember whether or not you saw a ship before. If you did see the ship before, remind yourself on which island you saw the ship. </p><p><b>[Press the space bar to begin the next part of the study]</b></p></div>",,32,,,,,,,,,,,,,,,,
,do_welcome,8,54979,0.0-8.0,null,,,,null,,,,,,,,,,,,,,,
,do_trial,9,58580,0.0-9.0-0.0,1063.1,,,,49,"0,1,0",6,blank,230,null,0.705998581,0.325637687,0.263097064,0,,,,,,
,html-keyboard-response,10,59593,0.0-9.0-1.0,null,<p></p>,,null,,,,,,,,,,,,,,,,
,do_trial,11,62614,0.0-10.0-0.0,489,,,,50,"0,0,0",6,blank,231,null,0.66993541,0.335541528,0.203614755,0,,,,,,
,html-keyboard-response,12,63624,0.0-10.0-1.0,null,<p></p>,,null,,,,,,,,,,,,,,,,
,do_trial,13,66680,0.0-11.0-0.0,513.1,,,,51,"0,0,0",6,blank,232,null,0.581215056,0.220898359,0.082423644,0,,,,,,
,html-keyboard-response,14,67685,0.0-11.0-1.0,null,<p></p>,,null,,,,,,,,,,,,,,,,
,do_trial,15,70587,0.0-12.0-0.0,362.4,,,,50,"0,1,0",6,blank,233,null,0.567357241,0.268566119,0.110771349,1,,,,,,
,html-keyboard-response,16,71602,0.0-12.0-1.0,null,<p></p>,,null,,,,,,,,,,,,,,,,
,do_trial,17,74579,0.0-13.0-0.0,443.5,,,,50,"1,1,0",6,blank,234,null,0.645898137,0.265369332,0.07506201,1,,,,,,
,html-keyboard-response,18,75587,0.0-13.0-1.0,null,<p></p>,,null,,,,,,,,,,,,,,,,
,do_trial,19,78660,0.0-14.0-0.0,540.9,,,,50,"0,0,0",6,blank,235,null,0.616447147,0.288768314,0.092730651,0,,,,,,
,html-keyboard-response,20,79670,0.0-14.0-1.0,null,<p></p>,,null,,,,,,,,,,,,,,,,
,do_trial,21,82589,0.0-15.0-0.0,369.4,,,,50,"1,1,0",6,blank,236,null,0.540220841,0.336414582,0.145638121,1,,,,,,
,html-keyboard-response,22,83597,0.0-15.0-1.0,null,<p></p>,,null,,,,,,,,,,,,,,,,
,do_trial,23,86581,0.0-16.0-0.0,445.4,,,,50,"1,1,0",6,blank,237,null,0.504455968,0.281326785,0.138102448,1,,,,,,
,html-keyboard-response,24,87592,0.0-16.0-1.0,null,<p></p>,,null,,,,,,,,,,,,,,,,
,do_trial,25,90445,0.0-17.0-0.0,313,,,,50,"0,1,0",6,blank,238,null,0.575413698,0.321445446,0.093794561,1,,,,,,
,html-keyboard-response,26,91459,0.0-17.0-1.0,null,<p></p>,,null,,,,,,,,,,,,,,,,
,do_trial,27,94603,0.0-18.0-0.0,605.7,,,,50,"1,0,0",6,blank,239,null,0.577856702,0.400687578,0.089468773,0,,,,,,
,html-keyboard-response,28,95619,0.0-18.0-1.0,null,<p></p>,,null,,,,,,,,,,,,,,,,
,do_trial,29,98499,0.0-19.0-0.0,344,,,,50,"1,1,0",6,blank,240,null,0.551303918,0.280942593,0.086510608,1,,,,,,
,html-keyboard-response,30,99502,0.0-19.0-1.0,null,<p></p>,,null,,,,,,,,,,,,,,,,
,do_trial,31,102387,0.0-20.0-0.0,350.9,,,,50,"0,1,0",6,blank,241,null,0.571875619,0.21887043,0.106837338,1,,,,,,
,html-keyboard-response,32,103398,0.0-20.0-1.0,null,<p></p>,,null,,,,,,,,,,,,,,,,
,do_recog,33,109425,0.0-21.0-0.0,null,,,,null,,,,242,probe-21,,,,,1,[object Object],41,1,0,
,html-keyboard-response,34,110437,0.0-21.0-1.0,null,<p></p>,,null,,,,,,,,,,,,,,,,
,do_trial,35,114516,0.0-22.0-0.0,1543.6,,,,50,"1,0,0",6,blank,243,null,0.227042478,0.392017427,0.052419019,0,,,,,,
,html-keyboard-response,36,115526,0.0-22.0-1.0,null,<p></p>,,null,,,,,,,,,,,,,,,,
,do_recog,37,118933,0.0-23.0-0.0,1889,,,,53,,,,244,probe-78,,,,,1,[object Object],204,5,1,
,html-keyboard-response,38,119939,0.0-23.0-1.0,null,<p></p>,,null,,,,,,,,,,,,,,,,
,do_trial,39,124028,0.0-24.0-0.0,1555.7,,,,50,"1,0,0",6,blank,245,null,0.315955622,0.331805312,0.072164599,0,,,,,,
,html-keyboard-response,40,125030,0.0-24.0-1.0,null,<p></p>,,null,,,,,,,,,,,,,,,,
,do_trial,41,128121,0.0-25.0-0.0,547.2,,,,50,"0,0,0",6,blank,246,null,0.407629343,0.404646072,0.120925665,0,,,,,,
,html-keyboard-response,42,129131,0.0-25.0-1.0,null,<p></p>,,null,,,,,,,,,,,,,,,,
,do_trial,43,132160,0.0-26.0-0.0,488.4,,,,50,"0,1,0",6,blank,247,null,0.341271133,0.373195395,0.072229895,1,,,,,,
,html-keyboard-response,44,133168,0.0-26.0-1.0,null,<p></p>,,null,,,,,,,,,,,,,,,,
,do_trial,45,136286,0.0-27.0-0.0,590.4,,,,50,"0,0,0",6,blank,248,null,0.201957866,0.517969654,0.15138792,0,,,,,,
,html-keyboard-response,46,137291,0.0-27.0-1.0,null,<p></p>,,null,,,,,,,,,,,,,,,,
,do_trial,47,140159,0.0-28.0-0.0,335.8,,,,50,"1,0,0",6,blank,249,null,0.224154713,0.55041894,0.067446678,0,,,,,,
,html-keyboard-response,48,141167,0.0-28.0-1.0,null,<p></p>,,null,,,,,,,,,,,,,,,,
,do_recog,49,144199,0.0-29.0-0.0,1515.2,,,,55,,,,250,probe-24,,,,,1,[object Object],129,3,0,
,html-keyboard-response,50,145209,0.0-29.0-1.0,null,<p></p>,,null,,,,,,,,,,,,,,,,
,do_trial,51,148161,0.0-30.0-0.0,415.3,,,,50,"0,0,0",6,blank,251,null,0.306010326,0.653296667,0.071712231,0,,,,,,
,html-keyboard-response,52,149168,0.0-30.0-1.0,null,<p></p>,,null,,,,,,,,,,,,,,,,
,do_trial,53,152132,0.0-31.0-0.0,419.9,,,,50,"0,1,0",6,blank,252,null,0.354539301,0.623104962,0.102590821,1,,,,,,
,html-keyboard-response,54,153141,0.0-31.0-1.0,null,<p></p>,,null,,,,,,,,,,,,,,,,
,do_trial,55,156389,0.0-32.0-0.0,716.1,,,,50,"0,1,1",6,blank,253,null,0.348350177,0.710857008,0.18320612,1,,,,,,
,html-keyboard-response,56,157400,0.0-32.0-1.0,null,<p></p>,,null,,,,,,,,,,,,,,,,
,do_recog,57,159971,0.0-33.0-0.0,1063.9,,,,53,,,,254,probe-180,,,,,1,[object Object],44,1,1,
,html-keyboard-response,58,160978,0.0-33.0-1.0,null,<p></p>,,null,,,,,,,,,,,,,,,,
,do_trial,59,163910,0.0-34.0-0.0,389.6,,,,50,"0,1,0",6,blank,255,null,0.257627693,0.639534195,0.210014253,1,,,,,,
,html-keyboard-response,60,164921,0.0-34.0-1.0,null,<p></p>,,null,,,,,,,,,,,,,,,,
,do_recog,61,167354,0.0-35.0-0.0,920.2,,,,55,,,,256,probe-50,,,,,1,[object Object],45,1,0,
,html-keyboard-response,62,168358,0.0-35.0-1.0,null,<p></p>,,null,,,,,,,,,,,,,,,,
,do_trial,63,172219,0.0-36.0-0.0,1320.4,,,,50,"0,0,0",6,blank,257,null,0.235180778,0.654865512,0.201141549,0,,,,,,
,html-keyboard-response,64,173231,0.0-36.0-1.0,null,<p></p>,,null,,,,,,,,,,,,,,,,
,do_recog,65,175985,0.0-37.0-0.0,1240,,,,56,,,,258,probe-160,,,,,1,[object Object],163,4,0,
,html-keyboard-response,66,176996,0.0-37.0-1.0,null,<p></p>,,null,,,,,,,,,,,,,,,,
,do_trial,67,179840,0.0-38.0-0.0,304.4,,,,50,"1,1,0",6,blank,259,null,0.300007612,0.520407845,0.139082832,1,,,,,,
,html-keyboard-response,68,180854,0.0-38.0-1.0,null,<p></p>,,null,,,,,,,,,,,,,,,,
,do_recog,69,183086,0.0-39.0-0.0,721.7,,,,53,,,,260,probe-92,,,,,1,[object Object],81,2,1,
,html-keyboard-response,70,184095,0.0-39.0-1.0,null,<p></p>,,null,,,,,,,,,,,,,,,,
,do_trial,71,186995,0.0-40.0-0.0,363.4,,,,50,"0,0,0",6,blank,261,null,0.523756611,0.530521218,0.188802689,0,,,,,,
,html-keyboard-response,72,188000,0.0-40.0-1.0,null,<p></p>,,null,,,,,,,,,,,,,,,,
,do_trial,73,191574,0.0-41.0-0.0,1045.6,,,,50,"1,0,0",6,blank,262,null,0.413258088,0.426266718,0.126776467,0,,,,,,
,html-keyboard-response,74,192589,0.0-41.0-1.0,null,<p></p>,,null,,,,,,,,,,,,,,,,
,do_trial,75,195641,0.0-42.0-0.0,520.1,,,,50,"0,0,0",6,blank,263,null,0.250924148,0.462040684,0.144651705,0,,,,,,
,html-keyboard-response,76,196646,0.0-42.0-1.0,null,<p></p>,,null,,,,,,,,,,,,,,,,
,do_recog,77,199154,0.0-43.0-0.0,992.9,,,,53,,,,264,probe-162,,,,,1,[object Object],121,3,1,
,html-keyboard-response,78,200163,0.0-43.0-1.0,null,<p></p>,,null,,,,,,,,,,,,,,,,
,do_trial,79,203308,0.0-44.0-0.0,601.9,,,,50,"1,1,0",6,blank,265,null,0.44957229,0.529133305,0.165060597,1,,,,,,
,html-keyboard-response,80,204319,0.0-44.0-1.0,null,<p></p>,,null,,,,,,,,,,,,,,,,
,do_trial,81,207309,0.0-45.0-0.0,456.3,,,,50,"1,0,0",6,blank,266,null,0.231592827,0.678222449,0.128542757,0,,,,,,
,html-keyboard-response,82,208319,0.0-45.0-1.0,null,<p></p>,,null,,,,,,,,,,,,,,,,
,do_trial,83,211265,0.0-46.0-0.0,404,,,,50,"1,0,0",6,blank,267,null,0.200221306,0.627953246,0.107271761,0,,,,,,
,html-keyboard-response,84,212276,0.0-46.0-1.0,null,<p></p>,,null,,,,,,,,,,,,,,,,
,do_trial,85,215336,0.0-47.0-0.0,511.8,,,,50,"1,1,0",6,blank,268,null,0.367736362,0.652184785,0.19136748,1,,,,,,
,html-keyboard-response,86,216347,0.0-47.0-1.0,null,<p></p>,,null,,,,,,,,,,,,,,,,
,do_trial,87,219346,0.0-48.0-0.0,461.5,,,,50,"0,1,1",6,blank,269,null,0.369757884,0.794356766,0.185836868,1,,,,,,
,html-keyboard-response,88,220356,0.0-48.0-1.0,null,<p></p>,,null,,,,,,,,,,,,,,,,
,do_trial,89,223389,0.0-49.0-0.0,502.8,,,,50,"0,0,0",6,blank,270,null,0.483040793,0.772562361,0.143021354,0,,,,,,
,html-keyboard-response,90,224392,0.0-49.0-1.0,null,<p></p>,,null,,,,,,,,,,,,,,,,
,do_recog,91,226849,0.0-50.0-0.0,945.7,,,,53,,,,271,probe-137,,,,,1,[object Object],125,3,1,
,html-keyboard-response,92,227859,0.0-50.0-1.0,null,<p></p>,,null,,,,,,,,,,,,,,,,
,do_trial,93,230806,0.0-51.0-0.0,400.4,,,,50,"0,1,0",6,blank,272,null,0.28285359,0.835003067,0.084878044,1,,,,,,
,html-keyboard-response,94,231814,0.0-51.0-1.0,null,<p></p>,,null,,,,,,,,,,,,,,,,
,do_trial,95,234901,0.0-52.0-0.0,552.8,,,,50,"1,1,1",6,blank,273,null,0.236506431,0.747469408,0.156778044,1,,,,,,
,html-keyboard-response,96,235903,0.0-52.0-1.0,null,<p></p>,,null,,,,,,,,,,,,,,,,
,do_trial,97,238828,0.0-53.0-0.0,379.1,,,,50,"0,1,0",6,blank,274,null,0.321927433,0.723055741,0.054373537,1,,,,,,
,html-keyboard-response,98,239834,0.0-53.0-1.0,null,<p></p>,,null,,,,,,,,,,,,,,,,
,do_trial,99,242949,0.0-54.0-0.0,576.7,,,,50,"1,0,0",6,blank,275,null,0.387769741,0.669278484,0.119411719,0,,,,,,
,html-keyboard-response,100,243962,0.0-54.0-1.0,null,<p></p>,,null,,,,,,,,,,,,,,,,
,do_trial,101,246977,0.0-55.0-0.0,471.7,,,,50,"0,1,0",6,blank,276,null,0.385083681,0.550908007,0.175112343,1,,,,,,
,html-keyboard-response,102,247989,0.0-55.0-1.0,null,<p></p>,,null,,,,,,,,,,,,,,,,
,do_recog,103,250857,0.0-56.0-0.0,1365.2,,,,56,,,,277,probe-220,,,,,1,[object Object],89,2,0,
,html-keyboard-response,104,251858,0.0-56.0-1.0,null,<p></p>,,null,,,,,,,,,,,,,,,,
,do_trial,105,254751,0.0-57.0-0.0,337.8,,,,50,"0,1,0",6,blank,278,null,0.371063606,0.59976413,0.11674066,1,,,,,,
,html-keyboard-response,106,255752,0.0-57.0-1.0,null,<p></p>,,null,,,,,,,,,,,,,,,,
,do_recog,107,259392,0.0-58.0-0.0,2124.9,,,,53,,,,279,probe-192,,,,,1,[object Object],47,1,1,
,html-keyboard-response,108,260402,0.0-58.0-1.0,null,<p></p>,,null,,,,,,,,,,,,,,,,
,do_trial,109,263338,0.0-59.0-0.0,395.7,,,,50,"0,1,0",6,blank,280,null,0.393167838,0.629459288,0.092406695,1,,,,,,
,html-keyboard-response,110,264347,0.0-59.0-1.0,null,<p></p>,,null,,,,,,,,,,,,,,,,
,do_recog,111,267095,0.0-60.0-0.0,1240.7,,,,53,,,,281,probe-143,,,,,1,[object Object],83,2,1,
,html-keyboard-response,112,268109,0.0-60.0-1.0,null,<p></p>,,null,,,,,,,,,,,,,,,,
,do_trial,113,270941,0.0-61.0-0.0,288.6,,,,50,"1,1,1",6,blank,282,null,0.369541582,0.683757147,0.21779262,1,,,,,,
,html-keyboard-response,114,271957,0.0-61.0-1.0,null,<p></p>,,null,,,,,,,,,,,,,,,,
,do_trial,115,274934,0.0-62.0-0.0,427.4,,,,50,"1,0,0",6,blank,283,null,0.47153463,0.559641162,0.372538581,0,,,,,,
,html-keyboard-response,116,275937,0.0-62.0-1.0,null,<p></p>,,null,,,,,,,,,,,,,,,,
,do_trial,117,279052,0.0-63.0-0.0,580.5,,,,50,"1,1,0",6,blank,284,null,0.584903806,0.643832689,0.171435338,1,,,,,,
,html-keyboard-response,118,280058,0.0-63.0-1.0,null,<p></p>,,null,,,,,,,,,,,,,,,,
,do_trial,119,283010,0.0-64.0-0.0,413.8,,,,50,"0,1,1",6,blank,285,null,0.67256138,0.584469959,0.144173227,1,,,,,,
,html-keyboard-response,120,284022,0.0-64.0-1.0,null,<p></p>,,null,,,,,,,,,,,,,,,,
,do_trial,121,287064,0.0-65.0-0.0,497.3,,,,50,"1,0,0",6,blank,286,null,0.460338243,0.556512543,0.122764592,0,,,,,,
,html-keyboard-response,122,288073,0.0-65.0-1.0,null,<p></p>,,null,,,,,,,,,,,,,,,,
,do_trial,123,290901,0.0-66.0-0.0,280.4,,,,50,"1,1,0",6,blank,287,null,0.309534448,0.513101649,0.121711842,1,,,,,,
,html-keyboard-response,124,291912,0.0-66.0-1.0,null,<p></p>,,null,,,,,,,,,,,,,,,,
,do_recog,125,294316,0.0-67.0-0.0,888.9,,,,53,,,,288,probe-148,,,,,1,[object Object],87,2,1,
,html-keyboard-response,126,295317,0.0-67.0-1.0,null,<p></p>,,null,,,,,,,,,,,,,,,,
,do_trial,127,298415,0.0-68.0-0.0,551.3,,,,50,"0,1,0",6,blank,289,null,0.238828117,0.520303057,0.139684521,1,,,,,,
,html-keyboard-response,128,299428,0.0-68.0-1.0,null,<p></p>,,null,,,,,,,,,,,,,,,,
,do_trial,129,302326,0.0-69.0-0.0,362.1,,,,50,"0,1,0",6,blank,290,null,0.322943277,0.485161192,0.28008361,1,,,,,,
,html-keyboard-response,130,303337,0.0-69.0-1.0,null,<p></p>,,null,,,,,,,,,,,,,,,,
,do_trial,131,306242,0.0-70.0-0.0,367.7,,,,50,"0,1,0",6,blank,291,null,0.293920121,0.694374404,0.101716731,1,,,,,,
,html-keyboard-response,132,307254,0.0-70.0-1.0,null,<p></p>,,null,,,,,,,,,,,,,,,,
,do_trial,133,310122,0.0-71.0-0.0,327.9,,,,50,"0,1,0",6,blank,292,null,0.21002092,0.686402428,0.123173857,1,,,,,,
,html-keyboard-response,134,311134,0.0-71.0-1.0,null,<p></p>,,null,,,,,,,,,,,,,,,,
,do_trial,135,314065,0.0-72.0-0.0,391.2,,,,50,"0,1,1",6,blank,293,null,0.226585556,0.718096647,0.057103147,1,,,,,,
,html-keyboard-response,136,315080,0.0-72.0-1.0,null,<p></p>,,null,,,,,,,,,,,,,,,,
,do_trial,137,317958,0.0-73.0-0.0,341.6,,,,50,"0,1,0",6,blank,294,null,0.29457101,0.616612349,0.098779607,1,,,,,,
,html-keyboard-response,138,318970,0.0-73.0-1.0,null,<p></p>,,null,,,,,,,,,,,,,,,,
,do_recog,139,321373,0.0-74.0-0.0,894.4,,,,53,,,,295,probe-34,,,,,1,[object Object],85,2,1,
,html-keyboard-response,140,322376,0.0-74.0-1.0,null,<p></p>,,null,,,,,,,,,,,,,,,,
,do_trial,141,325649,0.0-75.0-0.0,733.9,,,,50,"1,1,0",6,blank,296,null,0.313082824,0.48696235,0.262774492,1,,,,,,
,html-keyboard-response,142,326652,0.0-75.0-1.0,null,<p></p>,,null,,,,,,,,,,,,,,,,
,do_recog,143,329354,0.0-76.0-0.0,1190.3,,,,53,,,,297,probe-189,,,,,1,[object Object],168,4,1,
,html-keyboard-response,144,330364,0.0-76.0-1.0,null,<p></p>,,null,,,,,,,,,,,,,,,,
,do_trial,145,333567,0.0-77.0-0.0,669.1,,,,50,"1,0,1",6,blank,298,null,0.429459574,0.341572754,0.638916313,0,,,,,,
,html-keyboard-response,146,334578,0.0-77.0-1.0,null,<p></p>,,null,,,,,,,,,,,,,,,,
,do_trial,147,337628,0.0-78.0-0.0,519,,,,50,"1,0,1",6,blank,299,null,0.359598749,0.338156182,0.669661345,0,,,,,,
,html-keyboard-response,148,338645,0.0-78.0-1.0,null,<p></p>,,null,,,,,,,,,,,,,,,,
,do_trial,149,344692,0.0-79.0-0.0,null,,,,null,"0,1,1",6,blank,300,null,0.253177665,0.214621035,0.585627884,,,,,,,
,html-keyboard-response,150,345697,0.0-79.0-1.0,null,<p></p>,,null,,,,,,,,,,,,,,,,
,do_trial,151,348887,0.0-80.0-0.0,649.1,,,,50,"0,1,0",6,blank,301,null,0.359510373,0.179070894,0.473717876,1,,,,,,
,html-keyboard-response,152,349898,0.0-80.0-1.0,null,<p></p>,,null,,,,,,,,,,,,,,,,
,do_trial,153,353177,0.0-81.0-0.0,750.2,,,,50,"0,1,0",6,blank,302,null,0.322157531,0.212038699,0.64457242,1,,,,,,
,html-keyboard-response,154,354184,0.0-81.0-1.0,null,<p></p>,,null,,,,,,,,,,,,,,,,
,do_trial,155,357154,0.0-82.0-0.0,435.3,,,,50,"0,0,0",6,blank,303,null,0.309707495,0.206033778,0.527721837,0,,,,,,
,html-keyboard-response,156,358170,0.0-82.0-1.0,null,<p></p>,,null,,,,,,,,,,,,,,,,
,do_recog,157,360751,0.0-83.0-0.0,1072.6,,,,53,,,,304,probe-198,,,,,1,[object Object],209,5,1,
,html-keyboard-response,158,361763,0.0-83.0-1.0,null,<p></p>,,null,,,,,,,,,,,,,,,,
,do_trial,159,364736,0.0-84.0-0.0,436.4,,,,50,"0,1,0",6,blank,305,null,0.343150288,0.216054664,0.542406756,1,,,,,,
,html-keyboard-response,160,365745,0.0-84.0-1.0,null,<p></p>,,null,,,,,,,,,,,,,,,,
,do_recog,161,368226,0.0-85.0-0.0,976.4,,,,53,,,,306,probe-90,,,,,1,[object Object],86,2,1,
,html-keyboard-response,162,369241,0.0-85.0-1.0,null,<p></p>,,null,,,,,,,,,,,,,,,,
,do_trial,163,372727,0.0-86.0-0.0,955.2,,,,50,"1,0,0",6,blank,307,null,0.288102878,0.147553682,0.547873447,0,,,,,,
,html-keyboard-response,164,373738,0.0-86.0-1.0,null,<p></p>,,null,,,,,,,,,,,,,,,,
,do_recog,165,376450,0.0-87.0-0.0,1207.3,,,,53,,,,308,probe-196,,,,,1,[object Object],88,2,1,
,html-keyboard-response,166,377452,0.0-87.0-1.0,null,<p></p>,,null,,,,,,,,,,,,,,,,
,do_trial,167,380407,0.0-88.0-0.0,415.5,,,,50,"0,0,1",6,blank,309,null,0.343147273,0.203665835,0.559873165,0,,,,,,
,html-keyboard-response,168,381419,0.0-88.0-1.0,null,<p></p>,,null,,,,,,,,,,,,,,,,
,do_recog,169,383967,0.0-89.0-0.0,1036.1,,,,53,,,,310,probe-03,,,,,1,[object Object],201,5,1,
,html-keyboard-response,170,384975,0.0-89.0-1.0,null,<p></p>,,null,,,,,,,,,,,,,,,,
,do_trial,171,388133,0.0-90.0-0.0,613.9,,,,50,"0,0,0",6,blank,311,null,0.305310502,0.067970797,0.532285546,0,,,,,,
,html-keyboard-response,172,389135,0.0-90.0-1.0,null,<p></p>,,null,,,,,,,,,,,,,,,,
,do_trial,173,392247,0.0-91.0-0.0,580.8,,,,50,"0,0,1",6,blank,312,null,0.377736099,0.166405763,0.493046786,0,,,,,,
,html-keyboard-response,174,393258,0.0-91.0-1.0,null,<p></p>,,null,,,,,,,,,,,,,,,,
,do_trial,175,396387,0.0-92.0-0.0,587.9,,,,50,"1,0,0",6,blank,313,null,0.402458909,0.200847812,0.628789326,0,,,,,,
,html-keyboard-response,176,397389,0.0-92.0-1.0,null,<p></p>,,null,,,,,,,,,,,,,,,,
,do_trial,177,400454,0.0-93.0-0.0,527.6,,,,50,"0,1,1",6,blank,314,null,0.463954663,0.141277427,0.66118662,1,,,,,,
,html-keyboard-response,178,401468,0.0-93.0-1.0,null,<p></p>,,null,,,,,,,,,,,,,,,,
,do_trial,179,404418,0.0-94.0-0.0,409.9,,,,50,"1,1,1",6,blank,315,null,0.27941662,0.128998665,0.563631322,1,,,,,,
,html-keyboard-response,180,405421,0.0-94.0-1.0,null,<p></p>,,null,,,,,,,,,,,,,,,,
,do_trial,181,408252,0.0-95.0-0.0,294.7,,,,50,"0,0,1",6,blank,316,null,0.123904356,0.138706994,0.516959248,0,,,,,,
,html-keyboard-response,182,409262,0.0-95.0-1.0,null,<p></p>,,null,,,,,,,,,,,,,,,,
,do_recog,183,411533,0.0-96.0-0.0,767.2,,,,53,,,,317,probe-69,,,,,1,[object Object],49,1,1,
,html-keyboard-response,184,412545,0.0-96.0-1.0,null,<p></p>,,null,,,,,,,,,,,,,,,,
,do_trial,185,415416,0.0-97.0-0.0,337,,,,50,"0,0,1",6,blank,318,null,0.27979333,0.179009386,0.549236315,0,,,,,,
,html-keyboard-response,186,416422,0.0-97.0-1.0,null,<p></p>,,null,,,,,,,,,,,,,,,,
,do_trial,187,419418,0.0-98.0-0.0,454.5,,,,50,"1,0,0",6,blank,319,null,0.338308088,0.060952197,0.541921123,0,,,,,,
,html-keyboard-response,188,420425,0.0-98.0-1.0,null,<p></p>,,null,,,,,,,,,,,,,,,,
,do_trial,189,423308,0.0-99.0-0.0,352.4,,,,50,"0,0,1",6,blank,320,null,0.323470067,0.153983828,0.599026579,0,,,,,,
,html-keyboard-response,190,424310,0.0-99.0-1.0,null,<p></p>,,null,,,,,,,,,,,,,,,,
,do_trial,191,427241,0.0-100.0-0.0,390,,,,50,"1,0,1",6,blank,321,null,0.363930966,0.062454314,0.574043868,0,,,,,,
,html-keyboard-response,192,428253,0.0-100.0-1.0,null,<p></p>,,null,,,,,,,,,,,,,,,,
,do_trial,193,431502,0.0-101.0-0.0,701,,,,50,"1,0,1",6,blank,322,null,0.302383586,0.19640057,0.642367409,0,,,,,,
,html-keyboard-response,194,432509,0.0-101.0-1.0,null,<p></p>,,null,,,,,,,,,,,,,,,,
,do_trial,195,435485,0.0-102.0-0.0,448.6,,,,50,"0,0,1",6,blank,323,null,0.224572036,0.164337739,0.805990142,0,,,,,,
,html-keyboard-response,196,436491,0.0-102.0-1.0,null,<p></p>,,null,,,,,,,,,,,,,,,,
,do_trial,197,439225,0.0-103.0-0.0,193.6,,,,50,"0,0,0",6,blank,324,null,0.171804212,0.107589654,0.75965002,0,,,,,,
,html-keyboard-response,198,440235,0.0-103.0-1.0,null,<p></p>,,null,,,,,,,,,,,,,,,,
,do_recog,199,442486,0.0-104.0-0.0,734,,,,56,,,,325,probe-01,,,,,1,[object Object],126,3,0,
,html-keyboard-response,200,443497,0.0-104.0-1.0,null,<p></p>,,null,,,,,,,,,,,,,,,,
,do_trial,201,446385,0.0-105.0-0.0,341.4,,,,50,"1,0,1",6,blank,326,null,0.251854473,0.074895419,0.668299943,0,,,,,,
,html-keyboard-response,202,447395,0.0-105.0-1.0,null,<p></p>,,null,,,,,,,,,,,,,,,,
,do_trial,203,450506,0.0-106.0-0.0,569.9,,,,50,"0,0,0",6,blank,327,null,0.24080086,0.161120304,0.72372552,0,,,,,,
,html-keyboard-response,204,451516,0.0-106.0-1.0,null,<p></p>,,null,,,,,,,,,,,,,,,,
,do_trial,205,454420,0.0-107.0-0.0,363.4,,,,50,"0,0,0",6,blank,328,null,0.217560604,0.090197514,0.647921967,0,,,,,,
,html-keyboard-response,206,455422,0.0-107.0-1.0,null,<p></p>,,null,,,,,,,,,,,,,,,,
,do_recog,207,457763,0.0-108.0-0.0,826.2,,,,53,,,,329,probe-38,,,,,1,[object Object],123,3,1,
,html-keyboard-response,208,458770,0.0-108.0-1.0,null,<p></p>,,null,,,,,,,,,,,,,,,,
,do_trial,209,461714,0.0-109.0-0.0,409.2,,,,50,"1,0,1",6,blank,330,null,0.302643377,0.137753597,0.573720743,0,,,,,,
,html-keyboard-response,210,462721,0.0-109.0-1.0,null,<p></p>,,null,,,,,,,,,,,,,,,,
,do_trial,211,465625,0.0-110.0-0.0,361.5,,,,50,"1,0,0",6,blank,331,null,0.23855205,0.162490849,0.406975964,0,,,,,,
,html-keyboard-response,212,466629,0.0-110.0-1.0,null,<p></p>,,null,,,,,,,,,,,,,,,,
,do_trial,213,469440,0.0-111.0-0.0,271.3,,,,50,"1,0,0",6,blank,332,null,0.329259495,0.181754474,0.346851644,0,,,,,,
,html-keyboard-response,214,470452,0.0-111.0-1.0,null,<p></p>,,null,,,,,,,,,,,,,,,,
,do_trial,215,473489,0.0-112.0-0.0,496.3,,,,50,"0,0,1",6,blank,333,null,0.252367812,0.095419017,0.585005471,0,,,,,,
,html-keyboard-response,216,474500,0.0-112.0-1.0,null,<p></p>,,null,,,,,,,,,,,,,,,,
,do_trial,217,477432,0.0-113.0-0.0,402.1,,,,50,"0,0,0",6,blank,334,null,0.166644646,0.056379933,0.677717317,0,,,,,,
,html-keyboard-response,218,478438,0.0-113.0-1.0,null,<p></p>,,null,,,,,,,,,,,,,,,,
,do_recog,219,480761,0.0-114.0-0.0,809.5,,,,53,,,,335,probe-176,,,,,1,[object Object],162,4,1,
,html-keyboard-response,220,481776,0.0-114.0-1.0,null,<p></p>,,null,,,,,,,,,,,,,,,,
,do_trial,221,484647,0.0-115.0-0.0,337.7,,,,50,"0,0,1",6,blank,336,null,0.276374781,0.101811124,0.636220492,0,,,,,,
,html-keyboard-response,222,485654,0.0-115.0-1.0,null,<p></p>,,null,,,,,,,,,,,,,,,,
,do_trial,223,488471,0.0-116.0-0.0,273.4,,,,50,"0,0,1",6,blank,337,null,0.294169689,0.284957581,0.639276259,0,,,,,,
,html-keyboard-response,224,489477,0.0-116.0-1.0,null,<p></p>,,null,,,,,,,,,,,,,,,,
,do_trial,225,492382,0.0-117.0-0.0,363.4,,,,50,"0,0,1",6,blank,338,null,0.322740252,0.246530215,0.735019997,0,,,,,,
,html-keyboard-response,226,493396,0.0-117.0-1.0,null,<p></p>,,null,,,,,,,,,,,,,,,,
,do_trial,227,496327,0.0-118.0-0.0,387.9,,,,50,"0,0,1",6,blank,339,null,0.176889604,0.10699354,0.69440364,0,,,,,,
,html-keyboard-response,228,497340,0.0-118.0-1.0,null,<p></p>,,null,,,,,,,,,,,,,,,,
,do_trial,229,500233,0.0-119.0-0.0,350.7,,,,50,"0,0,1",6,blank,340,null,0.375894224,0.090143233,0.819795699,0,,,,,,
,html-keyboard-response,230,501247,0.0-119.0-1.0,null,<p></p>,,null,,,,,,,,,,,,,,,,
,do_recog,231,503437,0.0-120.0-0.0,678.9,,,,53,,,,341,probe-158,,,,,1,[object Object],161,4,1,
,html-keyboard-response,232,504452,0.0-120.0-1.0,null,<p></p>,,null,,,,,,,,,,,,,,,,
,do_trial,233,507720,0.0-121.0-0.0,733.5,,,,50,"1,0,1",6,blank,342,null,0.338056573,0.155890233,0.69071134,0,,,,,,
,html-keyboard-response,234,508727,0.0-121.0-1.0,null,<p></p>,,null,,,,,,,,,,,,,,,,
,do_trial,235,511843,0.0-122.0-0.0,576.1,,,,50,"0,0,0",6,blank,343,null,0.415277956,0.252592838,0.553438965,0,,,,,,
,html-keyboard-response,236,512851,0.0-122.0-1.0,null,<p></p>,,null,,,,,,,,,,,,,,,,
,do_trial,237,515687,0.0-123.0-0.0,298.9,,,,50,"1,0,1",6,blank,344,null,0.433009321,0.312121573,0.533186006,0,,,,,,
,html-keyboard-response,238,516703,0.0-123.0-1.0,null,<p></p>,,null,,,,,,,,,,,,,,,,
,do_recog,239,518983,0.0-124.0-0.0,767.6,,,,53,,,,345,probe-187,,,,,1,[object Object],43,1,1,
,html-keyboard-response,240,519995,0.0-124.0-1.0,null,<p></p>,,null,,,,,,,,,,,,,,,,
,do_trial,241,522872,0.0-125.0-0.0,328,,,,50,"0,0,1",6,blank,346,null,0.211154036,0.175170024,0.670223544,0,,,,,,
,html-keyboard-response,242,523884,0.0-125.0-1.0,null,<p></p>,,null,,,,,,,,,,,,,,,,
,do_trial,243,527016,0.0-126.0-0.0,598,,,,50,"1,0,0",6,blank,347,null,0.25058415,0.285028446,0.416344211,0,,,,,,
,html-keyboard-response,244,528029,0.0-126.0-1.0,null,<p></p>,,null,,,,,,,,,,,,,,,,
,do_trial,245,530860,0.0-127.0-0.0,286.1,,,,50,"0,1,1",6,blank,348,null,0.287244761,0.498259805,0.327112458,1,,,,,,
,html-keyboard-response,246,531869,0.0-127.0-1.0,null,<p></p>,,null,,,,,,,,,,,,,,,,
,do_recog,247,533748,0.0-128.0-0.0,364.7,,,,53,,,,349,probe-20,,,,,1,[object Object],203,5,1,
,html-keyboard-response,248,534757,0.0-128.0-1.0,null,<p></p>,,null,,,,,,,,,,,,,,,,
,do_trial,249,537961,0.0-129.0-0.0,662.1,,,,50,"0,1,1",6,blank,350,null,0.402441153,0.501265885,0.298346154,1,,,,,,
,html-keyboard-response,250,538972,0.0-129.0-1.0,null,<p></p>,,null,,,,,,,,,,,,,,,,
,do_trial,251,542021,0.0-130.0-0.0,512.3,,,,50,"1,1,0",6,blank,351,null,0.355012308,0.575520145,0.170153869,1,,,,,,
,html-keyboard-response,252,543028,0.0-130.0-1.0,null,<p></p>,,null,,,,,,,,,,,,,,,,
,do_trial,253,545879,0.0-131.0-0.0,313.5,,,,50,"0,1,0",6,blank,352,null,0.368636456,0.623226194,0.162890199,1,,,,,,
,html-keyboard-response,254,546894,0.0-131.0-1.0,null,<p></p>,,null,,,,,,,,,,,,,,,,
,do_recog,255,549078,0.0-132.0-0.0,677.5,,,,53,,,,353,probe-172,,,,,1,[object Object],122,3,1,
,html-keyboard-response,256,550093,0.0-132.0-1.0,null,<p></p>,,null,,,,,,,,,,,,,,,,
,do_trial,257,553027,0.0-133.0-0.0,399,,,,50,"0,1,0",6,blank,354,null,0.348859147,0.632314857,0.111973002,1,,,,,,
,html-keyboard-response,258,554031,0.0-133.0-1.0,null,<p></p>,,null,,,,,,,,,,,,,,,,
,do_trial,259,557315,0.0-134.0-0.0,749.1,,,,50,"0,1,0",6,blank,355,null,0.334752165,0.494999293,0.123469591,1,,,,,,
,html-keyboard-response,260,558331,0.0-134.0-1.0,null,<p></p>,,null,,,,,,,,,,,,,,,,
,do_recog,261,560399,0.0-135.0-0.0,560.5,,,,53,,,,356,probe-15,,,,,1,[object Object],169,4,1,
,html-keyboard-response,262,561412,0.0-135.0-1.0,null,<p></p>,,null,,,,,,,,,,,,,,,,
,do_trial,263,564412,0.0-136.0-0.0,454,,,,50,"1,1,0",6,blank,357,null,0.333353509,0.439819711,0.090421256,1,,,,,,
,html-keyboard-response,264,565422,0.0-136.0-1.0,null,<p></p>,,null,,,,,,,,,,,,,,,,
,do_trial,265,568494,0.0-137.0-0.0,537.6,,,,50,"0,0,1",6,blank,358,null,0.243405599,0.464155429,0.226333078,0,,,,,,
,html-keyboard-response,266,569506,0.0-137.0-1.0,null,<p></p>,,null,,,,,,,,,,,,,,,,
,do_trial,267,572656,0.0-138.0-0.0,603.9,,,,50,"0,0,0",6,blank,359,null,0.407377972,0.653789694,0.226953266,0,,,,,,
,html-keyboard-response,268,573669,0.0-138.0-1.0,null,<p></p>,,null,,,,,,,,,,,,,,,,
,do_trial,269,576708,0.0-139.0-0.0,502.4,,,,50,"0,0,0",6,blank,360,null,0.364841602,0.749015176,0.329520652,0,,,,,,
,html-keyboard-response,270,577720,0.0-139.0-1.0,null,<p></p>,,null,,,,,,,,,,,,,,,,
,do_trial,271,580661,0.0-140.0-0.0,401,,,,50,"1,1,0",6,blank,361,null,0.536290954,0.651379245,0.286464847,1,,,,,,
,html-keyboard-response,272,581674,0.0-140.0-1.0,null,<p></p>,,null,,,,,,,,,,,,,,,,
,do_recog,273,583883,0.0-141.0-0.0,704,,,,53,,,,362,probe-61,,,,,1,[object Object],160,4,1,
,html-keyboard-response,274,584899,0.0-141.0-1.0,null,<p></p>,,null,,,,,,,,,,,,,,,,
,do_trial,275,587719,0.0-142.0-0.0,287,,,,50,"1,1,0",6,blank,363,null,0.360529817,0.725431057,0.19271276,1,,,,,,
,html-keyboard-response,276,588732,0.0-142.0-1.0,null,<p></p>,,null,,,,,,,,,,,,,,,,
,do_recog,277,590794,0.0-143.0-0.0,547.7,,,,53,,,,364,probe-116,,,,,1,[object Object],42,1,1,
,html-keyboard-response,278,591801,0.0-143.0-1.0,null,<p></p>,,null,,,,,,,,,,,,,,,,
,do_trial,279,594930,0.0-144.0-0.0,585.4,,,,50,"0,1,0",6,blank,365,null,0.204500362,0.678603104,0.285349925,1,,,,,,
,html-keyboard-response,280,595940,0.0-144.0-1.0,null,<p></p>,,null,,,,,,,,,,,,,,,,
,do_trial,281,598815,0.0-145.0-0.0,339.3,,,,50,"1,1,0",6,blank,366,null,0.343359313,0.629765898,0.173557235,1,,,,,,
,html-keyboard-response,282,599829,0.0-145.0-1.0,null,<p></p>,,null,,,,,,,,,,,,,,,,
,do_trial,283,602709,0.0-146.0-0.0,344.6,,,,50,"1,0,0",6,blank,367,null,0.384168647,0.689296513,0.204489154,0,,,,,,
,html-keyboard-response,284,603710,0.0-146.0-1.0,null,<p></p>,,null,,,,,,,,,,,,,,,,
,do_recog,285,605848,0.0-147.0-0.0,632.9,,,,53,,,,368,probe-163,,,,,1,[object Object],128,3,1,
,html-keyboard-response,286,606861,0.0-147.0-1.0,null,<p></p>,,null,,,,,,,,,,,,,,,,
,do_trial,287,609725,0.0-148.0-0.0,324.9,,,,50,"1,1,0",6,blank,369,null,0.442419351,0.577509128,0.223264864,1,,,,,,
,html-keyboard-response,288,610737,0.0-148.0-1.0,null,<p></p>,,null,,,,,,,,,,,,,,,,
,do_trial,289,613549,0.0-149.0-0.0,275.6,,,,50,"1,0,0",6,blank,370,null,0.50922429,0.455983458,0.131143106,0,,,,,,
,html-keyboard-response,290,614565,0.0-149.0-1.0,null,<p></p>,,null,,,,,,,,,,,,,,,,
,do_trial,291,617554,0.0-150.0-0.0,443.7,,,,50,"1,0,0",6,blank,371,null,0.429896797,0.600220425,0.076112203,0,,,,,,
,html-keyboard-response,292,618570,0.0-150.0-1.0,null,<p></p>,,null,,,,,,,,,,,,,,,,
,do_trial,293,621910,0.0-151.0-0.0,797.9,,,,50,"0,0,0",6,blank,372,null,0.420091534,0.571439449,0.111678098,0,,,,,,
,html-keyboard-response,294,622925,0.0-151.0-1.0,null,<p></p>,,null,,,,,,,,,,,,,,,,
,do_recog,295,625260,0.0-152.0-0.0,824.6,,,,53,,,,373,probe-199,,,,,1,[object Object],166,4,1,
,html-keyboard-response,296,626268,0.0-152.0-1.0,null,<p></p>,,null,,,,,,,,,,,,,,,,
,do_trial,297,629262,0.0-153.0-0.0,446.7,,,,50,"1,0,1",6,blank,374,null,0.440872101,0.468411437,0.051868804,0,,,,,,
,html-keyboard-response,298,630270,0.0-153.0-1.0,null,<p></p>,,null,,,,,,,,,,,,,,,,
,do_recog,299,632386,0.0-154.0-0.0,598.6,,,,53,,,,375,probe-165,,,,,1,[object Object],205,5,1,
,html-keyboard-response,300,633396,0.0-154.0-1.0,null,<p></p>,,null,,,,,,,,,,,,,,,,
,do_trial,301,636625,0.0-155.0-0.0,691.8,,,,50,"0,0,1",6,blank,376,null,0.482978916,0.50172369,0.19123994,0,,,,,,
,html-keyboard-response,302,637633,0.0-155.0-1.0,null,<p></p>,,null,,,,,,,,,,,,,,,,
,do_trial,303,640646,0.0-156.0-0.0,462.8,,,,50,"1,1,0",6,blank,377,null,0.420106074,0.44073507,0.075989202,1,,,,,,
,html-keyboard-response,304,641655,0.0-156.0-1.0,null,<p></p>,,null,,,,,,,,,,,,,,,,
,do_trial,305,644795,0.0-157.0-0.0,599,,,,50,"0,0,0",6,blank,378,null,0.261619669,0.550965283,0.143471649,0,,,,,,
,html-keyboard-response,306,645796,0.0-157.0-1.0,null,<p></p>,,null,,,,,,,,,,,,,,,,
,do_trial,307,648796,0.0-158.0-0.0,440.5,,,,50,"0,0,0",6,blank,379,null,0.167100371,0.565243507,0.224284818,0,,,,,,
,html-keyboard-response,308,649799,0.0-158.0-1.0,null,<p></p>,,null,,,,,,,,,,,,,,,,
,do_trial,309,652814,0.0-159.0-0.0,480,,,,50,"1,0,0",6,blank,380,null,0.2779573,0.651799267,0.271335977,0,,,,,,
,html-keyboard-response,310,653829,0.0-159.0-1.0,null,<p></p>,,null,,,,,,,,,,,,,,,,
,do_trial,311,656748,0.0-160.0-0.0,385.6,,,,50,"1,0,0",6,blank,381,null,0.361521966,0.625925783,0.269692657,0,,,,,,
,html-keyboard-response,312,657753,0.0-160.0-1.0,null,<p></p>,,null,,,,,,,,,,,,,,,,
,do_recog,313,659968,0.0-161.0-0.0,708.4,,,,53,,,,382,probe-18,,,,,1,[object Object],124,3,1,
,html-keyboard-response,314,660977,0.0-161.0-1.0,null,<p></p>,,null,,,,,,,,,,,,,,,,
,do_trial,315,664096,0.0-162.0-0.0,572.4,,,,50,"0,1,0",6,blank,383,null,0.343078632,0.660518108,0.259567,1,,,,,,
,html-keyboard-response,316,665101,0.0-162.0-1.0,null,<p></p>,,null,,,,,,,,,,,,,,,,
,do_trial,317,668185,0.0-163.0-0.0,545.4,,,,50,"0,1,1",6,blank,384,null,0.19869035,0.685374997,0.212014003,1,,,,,,
,html-keyboard-response,318,669192,0.0-163.0-1.0,null,<p></p>,,null,,,,,,,,,,,,,,,,
,do_trial,319,672156,0.0-164.0-0.0,418.7,,,,50,"0,1,0",6,blank,385,null,0.282965752,0.728355179,0.071249795,1,,,,,,
,html-keyboard-response,320,673168,0.0-164.0-1.0,null,<p></p>,,null,,,,,,,,,,,,,,,,
,do_recog,321,679192,0.0-165.0-0.0,null,,,,null,,,,386,probe-49,,,,,1,[object Object],207,5,0,
,html-keyboard-response,322,680201,0.0-165.0-1.0,null,<p></p>,,null,,,,,,,,,,,,,,,,
,do_trial,323,684511,0.0-166.0-0.0,1766.2,,,,50,"1,1,0",6,blank,387,null,0.222993795,0.707713507,0.13158458,1,,,,,,
,html-keyboard-response,324,685517,0.0-166.0-1.0,null,<p></p>,,null,,,,,,,,,,,,,,,,
,do_recog,325,687879,0.0-167.0-0.0,851.9,,,,53,,,,388,probe-104,,,,,1,[object Object],46,1,1,
,html-keyboard-response,326,688880,0.0-167.0-1.0,null,<p></p>,,null,,,,,,,,,,,,,,,,
,do_trial,327,691993,0.0-168.0-0.0,567.3,,,,51,"0,1,0",6,blank,389,null,0.130964858,0.746806005,0.114355877,0,,,,,,
,html-keyboard-response,328,693000,0.0-168.0-1.0,null,<p></p>,,null,,,,,,,,,,,,,,,,
,do_trial,329,695899,0.0-169.0-0.0,360.5,,,,50,"0,1,0",6,blank,390,null,0.270872847,0.768545414,0.059022167,1,,,,,,
,html-keyboard-response,330,696908,0.0-169.0-1.0,null,<p></p>,,null,,,,,,,,,,,,,,,,
,do_recog,331,699342,0.0-170.0-0.0,918.7,,,,53,,,,391,probe-221,,,,,1,[object Object],165,4,1,
,html-keyboard-response,332,700349,0.0-170.0-1.0,null,<p></p>,,null,,,,,,,,,,,,,,,,
,do_trial,333,703424,0.0-171.0-0.0,531.4,,,,50,"0,1,0",6,blank,392,null,0.287539212,0.699232257,0.06449218,1,,,,,,
,html-keyboard-response,334,704436,0.0-171.0-1.0,null,<p></p>,,null,,,,,,,,,,,,,,,,
,do_recog,335,706849,0.0-172.0-0.0,895.7,,,,53,,,,393,probe-188,,,,,1,[object Object],40,1,1,
,html-keyboard-response,336,707853,0.0-172.0-1.0,null,<p></p>,,null,,,,,,,,,,,,,,,,
,do_trial,337,710849,0.0-173.0-0.0,463.2,,,,50,"0,0,0",6,blank,394,null,0.12550046,0.60939487,0.10222404,0,,,,,,
,html-keyboard-response,338,711863,0.0-173.0-1.0,null,<p></p>,,null,,,,,,,,,,,,,,,,
,do_recog,339,714156,0.0-174.0-0.0,780.1,,,,53,,,,395,probe-200,,,,,1,[object Object],202,5,1,
,html-keyboard-response,340,715162,0.0-174.0-1.0,null,<p></p>,,null,,,,,,,,,,,,,,,,
,do_trial,341,718399,0.0-175.0-0.0,695,,,,50,"0,1,0",6,blank,396,null,0.173139322,0.629265644,0.149987364,1,,,,,,
,html-keyboard-response,342,719408,0.0-175.0-1.0,null,<p></p>,,null,,,,,,,,,,,,,,,,
,do_trial,343,723392,0.0-176.0-0.0,1437.3,,,,50,"1,1,0",6,blank,397,null,0.318964931,0.650718614,0.145161895,1,,,,,,
,html-keyboard-response,344,724393,0.0-176.0-1.0,null,<p></p>,,null,,,,,,,,,,,,,,,,
,do_trial,345,727486,0.0-177.0-0.0,555.1,,,,50,"1,0,0",6,blank,398,null,0.340040092,0.654723898,0.094913496,0,,,,,,
,html-keyboard-response,346,728499,0.0-177.0-1.0,null,<p></p>,,null,,,,,,,,,,,,,,,,
,do_trial,347,731606,0.0-178.0-0.0,557.1,,,,50,"0,0,0",6,blank,399,null,0.439369227,0.631481502,0.15171563,0,,,,,,
,html-keyboard-response,348,732618,0.0-178.0-1.0,null,<p></p>,,null,,,,,,,,,,,,,,,,
,do_trial,349,736013,0.0-179.0-0.0,853.1,,,,50,"0,0,0",6,blank,400,null,0.455202206,0.483176258,0.126881972,0,,,,,,
,html-keyboard-response,350,737014,0.0-179.0-1.0,null,<p></p>,,null,,,,,,,,,,,,,,,,
,do_recog,351,739291,0.0-180.0-0.0,771.7,,,,53,,,,401,probe-97,,,,,1,[object Object],208,5,1,
,html-keyboard-response,352,740307,0.0-180.0-1.0,null,<p></p>,,null,,,,,,,,,,,,,,,,
,do_trial,353,743347,0.0-181.0-0.0,495.4,,,,50,"0,0,0",6,blank,402,null,0.478590844,0.335706019,0.221935123,0,,,,,,
,html-keyboard-response,354,744358,0.0-181.0-1.0,null,<p></p>,,null,,,,,,,,,,,,,,,,
,do_recog,355,746757,0.0-182.0-0.0,883,,,,53,,,,403,probe-103,,,,,1,[object Object],48,1,1,
,html-keyboard-response,356,747769,0.0-182.0-1.0,null,<p></p>,,null,,,,,,,,,,,,,,,,
,do_trial,357,750810,0.0-183.0-0.0,498.2,,,,50,"1,1,0",6,blank,404,null,0.642492146,0.339185771,0.222827437,1,,,,,,
,html-keyboard-response,358,751823,0.0-183.0-1.0,null,<p></p>,,null,,,,,,,,,,,,,,,,
,do_recog,359,754253,0.0-184.0-0.0,919.4,,,,53,,,,405,probe-245,,,,,0,[object Object],null,null,0,
,html-keyboard-response,360,755268,0.0-184.0-1.0,null,<p></p>,,null,,,,,,,,,,,,,,,,
,do_trial,361,758270,0.0-185.0-0.0,458.2,,,,50,"1,1,0",6,blank,406,null,0.627371197,0.466987008,0.176342703,1,,,,,,
,html-keyboard-response,362,759282,0.0-185.0-1.0,null,<p></p>,,null,,,,,,,,,,,,,,,,
,do_trial,363,763102,0.0-186.0-0.0,1282,,,,50,"1,1,0",6,blank,407,null,0.620624492,0.500892894,0.142957979,1,,,,,,
,html-keyboard-response,364,764118,0.0-186.0-1.0,null,<p></p>,,null,,,,,,,,,,,,,,,,
,do_trial,365,767704,0.0-187.0-0.0,1047.6,,,,50,"0,0,0",6,blank,408,null,0.617111788,0.449758061,0.071764442,0,,,,,,
,html-keyboard-response,366,768717,0.0-187.0-1.0,null,<p></p>,,null,,,,,,,,,,,,,,,,
,do_trial,367,771815,0.0-188.0-0.0,559.8,,,,50,"0,0,0",6,blank,409,null,0.602598496,0.428167442,0.19967965,0,,,,,,
,html-keyboard-response,368,772816,0.0-188.0-1.0,null,<p></p>,,null,,,,,,,,,,,,,,,,
,do_trial,369,775865,0.0-189.0-0.0,516.3,,,,50,"1,1,0",6,blank,410,null,0.690991796,0.368308231,0.204800505,1,,,,,,
,html-keyboard-response,370,776875,0.0-189.0-1.0,null,<p></p>,,null,,,,,,,,,,,,,,,,
,do_recog,371,778916,0.0-190.0-0.0,537.1,,,,53,,,,411,probe-235,,,,,0,[object Object],null,null,0,
,html-keyboard-response,372,779917,0.0-190.0-1.0,null,<p></p>,,null,,,,,,,,,,,,,,,,
,do_trial,373,782953,0.0-191.0-0.0,498.2,,,,50,"1,0,0",6,blank,412,null,0.524299954,0.349051235,0.123137516,0,,,,,,
,html-keyboard-response,374,783954,0.0-191.0-1.0,null,<p></p>,,null,,,,,,,,,,,,,,,,
,do_recog,375,786018,0.0-192.0-0.0,551.7,,,,53,,,,413,probe-27,,,,,1,[object Object],84,2,1,
,html-keyboard-response,376,787023,0.0-192.0-1.0,null,<p></p>,,null,,,,,,,,,,,,,,,,
,do_trial,377,790166,0.0-193.0-0.0,599.9,,,,50,"0,1,0",6,blank,414,null,0.63064466,0.361948283,0.07883102,1,,,,,,
,html-keyboard-response,378,791172,0.0-193.0-1.0,null,<p></p>,,null,,,,,,,,,,,,,,,,
,do_trial,379,794380,0.0-194.0-0.0,673.5,,,,50,"0,0,0",6,blank,415,null,0.630381427,0.253029857,0.053780639,0,,,,,,
,html-keyboard-response,380,795381,0.0-194.0-1.0,null,<p></p>,,null,,,,,,,,,,,,,,,,
,do_trial,381,798524,0.0-195.0-0.0,607.5,,,,50,"1,1,0",6,blank,416,null,0.627772677,0.387082989,0.059127135,1,,,,,,
,html-keyboard-response,382,799532,0.0-195.0-1.0,null,<p></p>,,null,,,,,,,,,,,,,,,,
,do_trial,383,802652,0.0-196.0-0.0,576.9,,,,50,"0,1,0",6,blank,417,null,0.571161396,0.451147825,0.063989092,1,,,,,,
,html-keyboard-response,384,803667,0.0-196.0-1.0,null,<p></p>,,null,,,,,,,,,,,,,,,,
,do_recog,385,805517,0.0-197.0-0.0,332,,,,53,,,,418,probe-94,,,,,1,[object Object],167,4,1,
,html-keyboard-response,386,806527,0.0-197.0-1.0,null,<p></p>,,null,,,,,,,,,,,,,,,,
,do_trial,387,809517,0.0-198.0-0.0,454.1,,,,50,"1,1,0",6,blank,419,null,0.50305309,0.340623442,0.153080374,1,,,,,,
,html-keyboard-response,388,810530,0.0-198.0-1.0,null,<p></p>,,null,,,,,,,,,,,,,,,,
,do_trial,389,813566,0.0-199.0-0.0,492.6,,,,50,"0,1,0",6,blank,420,null,0.625161474,0.290187912,0.111351036,1,,,,,,
,html-keyboard-response,390,814577,0.0-199.0-1.0,null,<p></p>,,null,,,,,,,,,,,,,,,,
,do_recog,391,816470,0.0-200.0-0.0,377.4,,,,53,,,,421,probe-77,,,,,1,[object Object],82,2,1,
,html-keyboard-response,392,817483,0.0-200.0-1.0,null,<p></p>,,null,,,,,,,,,,,,,,,,
,do_trial,393,820460,0.0-201.0-0.0,443.1,,,,50,"1,1,0",6,blank,422,null,0.550554902,0.179197074,0.05494948,1,,,,,,
,html-keyboard-response,394,821474,0.0-201.0-1.0,null,<p></p>,,null,,,,,,,,,,,,,,,,
,do_trial,395,824913,0.0-202.0-0.0,906.2,,,,51,"1,0,0",6,blank,423,null,0.512378645,0.224724915,0.185695983,0,,,,,,
,html-keyboard-response,396,825921,0.0-202.0-1.0,null,<p></p>,,null,,,,,,,,,,,,,,,,
,do_trial,397,829284,0.0-203.0-0.0,822.3,,,,50,"0,1,0",6,blank,424,null,0.525318213,0.194726807,0.13515858,1,,,,,,
,html-keyboard-response,398,830295,0.0-203.0-1.0,null,<p></p>,,null,,,,,,,,,,,,,,,,
,do_trial,399,834465,0.0-204.0-0.0,1623.5,,,,51,"0,0,0",6,blank,425,null,0.525896708,0.236075151,0.146093804,0,,,,,,
,html-keyboard-response,400,835480,0.0-204.0-1.0,null,<p></p>,,null,,,,,,,,,,,,,,,,
,do_trial,401,838912,0.0-205.0-0.0,890.5,,,,50,"0,0,0",6,blank,426,null,0.409012764,0.340054603,0.075947311,0,,,,,,
,html-keyboard-response,402,839928,0.0-205.0-1.0,null,<p></p>,,null,,,,,,,,,,,,,,,,
,do_trial,403,843544,0.0-206.0-0.0,1079.2,,,,50,"1,0,0",6,blank,427,null,0.475535026,0.207341666,0.205445347,0,,,,,,
,html-keyboard-response,404,844549,0.0-206.0-1.0,null,<p></p>,,null,,,,,,,,,,,,,,,,
,do_recog,405,846868,0.0-207.0-0.0,806,,,,53,,,,428,probe-134,,,,,1,[object Object],127,3,1,
,html-keyboard-response,406,847871,0.0-207.0-1.0,null,<p></p>,,null,,,,,,,,,,,,,,,,
,do_trial,407,850779,0.0-208.0-0.0,374.1,,,,50,"1,0,0",6,blank,429,null,0.636403259,0.051720853,0.091780357,0,,,,,,
,html-keyboard-response,408,851793,0.0-208.0-1.0,null,<p></p>,,null,,,,,,,,,,,,,,,,
,do_trial,409,854801,0.0-209.0-0.0,473,,,,50,"1,0,0",6,blank,430,null,0.622620018,0.176418764,0.197547908,0,,,,,,
,html-keyboard-response,410,855816,0.0-209.0-1.0,null,<p></p>,,null,,,,,,,,,,,,,,,,
,do_recog,411,857962,0.0-210.0-0.0,636.5,,,,53,,,,431,probe-142,,,,,1,[object Object],200,5,1,
,html-keyboard-response,412,858973,0.0-210.0-1.0,null,<p></p>,,null,,,,,,,,,,,,,,,,
,do_trial,413,861918,0.0-211.0-0.0,403.2,,,,50,"0,0,0",6,blank,432,null,0.502868537,0.201898529,0.142121747,0,,,,,,
,html-keyboard-response,414,862934,0.0-211.0-1.0,null,<p></p>,,null,,,,,,,,,,,,,,,,
,do_trial,415,865930,0.0-212.0-0.0,463.3,,,,50,"1,0,1",6,blank,433,null,0.436989695,0.279726189,0.07469987,0,,,,,,
,html-keyboard-response,416,866943,0.0-212.0-1.0,null,<p></p>,,null,,,,,,,,,,,,,,,,
,do_trial,417,869883,0.0-213.0-0.0,407.2,,,,50,"0,0,0",6,blank,434,null,0.649653122,0.148055633,0.177168874,0,,,,,,
,html-keyboard-response,418,870887,0.0-213.0-1.0,null,<p></p>,,null,,,,,,,,,,,,,,,,
,do_trial,419,873813,0.0-214.0-0.0,387.3,,,,50,"1,0,0",6,blank,435,null,0.472326524,0.218094238,0.15403711,0,,,,,,
,html-keyboard-response,420,874828,0.0-214.0-1.0,null,<p></p>,,null,,,,,,,,,,,,,,,,
,do_trial,421,877788,0.0-215.0-0.0,424.7,,,,50,"0,0,1",6,blank,436,null,0.457852902,0.081842144,0.292238335,0,,,,,,
,html-keyboard-response,422,878796,0.0-215.0-1.0,null,<p></p>,,null,,,,,,,,,,,,,,,,
,do_recog,423,881000,0.0-216.0-0.0,699.7,,,,53,,,,437,probe-211,,,,,1,[object Object],120,3,1,
,html-keyboard-response,424,882005,0.0-216.0-1.0,null,<p></p>,,null,,,,,,,,,,,,,,,,
,do_trial,425,885051,0.0-217.0-0.0,505,,,,50,"1,0,0",6,blank,438,null,0.481183798,0.173459898,0.21803229,0,,,,,,
,html-keyboard-response,426,886056,0.0-217.0-1.0,null,<p></p>,,null,,,,,,,,,,,,,,,,
,do_recog,427,888329,0.0-218.0-0.0,768.6,,,,53,,,,439,probe-105,,,,,1,[object Object],206,5,1,
,html-keyboard-response,428,889340,0.0-218.0-1.0,null,<p></p>,,null,,,,,,,,,,,,,,,,
,do_trial,429,892454,0.0-219.0-0.0,578.1,,,,50,"1,0,0",6,blank,440,null,0.516024331,0.177134566,0.139866912,0,,,,,,
,html-keyboard-response,430,893465,0.0-219.0-1.0,null,<p></p>,,null,,,,,,,,,,,,,,,,
,do_trial,431,896749,0.0-220.0-0.0,739.5,,,,50,"0,0,0",6,blank,441,null,0.578235585,0.086515656,0.077741675,0,,,,,,
,html-keyboard-response,432,897752,0.0-220.0-1.0,null,<p></p>,,null,,,,,,,,,,,,,,,,
,do_recog,433,899947,0.0-221.0-0.0,675.4,,,,53,,,,442,probe-58,,,,,1,[object Object],164,4,1,
,html-keyboard-response,434,900959,0.0-221.0-1.0,null,<p></p>,,null,,,,,,,,,,,,,,,,
,do_trial,435,903883,0.0-222.0-0.0,380.5,,,,50,"1,0,1",6,blank,443,null,0.572222742,0.176360243,0.145405941,0,,,,,,
,html-keyboard-response,436,904892,0.0-222.0-1.0,null,<p></p>,,null,,,,,,,,,,,,,,,,
,do_recog,437,906909,0.0-223.0-0.0,499.2,,,,53,,,,444,probe-227,,,,,1,[object Object],80,2,1,
,html-keyboard-response,438,907917,0.0-223.0-1.0,null,<p></p>,,null,,,,,,,,,,,,,,,,
,do_trial,439,911078,0.0-224.0-0.0,618.7,,,,50,"1,0,0",6,blank,445,null,0.515042841,0.25630688,0.082935398,0,,,,,,
,html-keyboard-response,440,912085,0.0-224.0-1.0,null,<p></p>,,null,,,,,,,,,,,,,,,,
,do_trial,441,915113,0.0-225.0-0.0,486.3,,,,50,"0,1,0",6,blank,446,null,0.46639123,0.24529453,0.078266997,1,,,,,,
,html-keyboard-response,442,916122,0.0-225.0-1.0,null,<p></p>,,null,,,,,,,,,,,,,,,,
,do_trial,443,919130,0.0-226.0-0.0,473.2,,,,50,"1,0,0",6,blank,447,null,0.432591435,0.213861269,0.215564246,0,,,,,,
,html-keyboard-response,444,920135,0.0-226.0-1.0,null,<p></p>,,null,,,,,,,,,,,,,,,,
,do_trial,445,923125,0.0-227.0-0.0,442.6,,,,50,"0,0,1",6,blank,448,null,0.402573273,0.374233716,0.190380502,0,,,,,,
,html-keyboard-response,446,924140,0.0-227.0-1.0,null,<p></p>,,null,,,,,,,,,,,,,,,,
,do_recog,447,930155,0.0-228.0-0.0,null,,,,null,,,,449,probe-254,,,,,0,[object Object],null,null,0,
,html-keyboard-response,448,931170,0.0-228.0-1.0,null,<p></p>,,null,,,,,,,,,,,,,,,,
,do_trial,449,937220,0.0-229.0-0.0,null,,,,null,"0,0,0",6,blank,450,null,0.373278156,0.358966123,0.18241688,,,,,,,
,html-keyboard-response,450,938236,0.0-229.0-1.0,null,<p></p>,,null,,,,,,,,,,,,,,,,
,do_trial,451,941168,0.0-230.0-0.0,388.4,,,,50,"1,1,1",6,blank,451,null,0.493473721,0.339686578,0.279462815,1,,,,,,
,html-keyboard-response,452,942183,0.0-230.0-1.0,null,<p></p>,,null,,,,,,,,,,,,,,,,
,do_trial,453,945530,0.0-231.0-0.0,802.3,,,,50,"0,0,0",6,blank,452,null,0.345140571,0.284999013,0.182208376,0,,,,,,
,html-keyboard-response,454,946537,0.0-231.0-1.0,null,<p></p>,,null,,,,,,,,,,,,,,,,
,do_trial,455,949456,0.0-232.0-0.0,373.3,,,,50,"1,1,0",6,blank,453,null,0.254542486,0.257940889,0.119254358,1,,,,,,
,html-keyboard-response,456,950472,0.0-232.0-1.0,null,<p></p>,,null,,,,,,,,,,,,,,,,
,do_trial,457,953323,0.0-233.0-0.0,299.6,,,,50,"0,1,0",6,blank,454,null,0.311890663,0.296208276,0.07708529,1,,,,,,
,html-keyboard-response,458,954334,0.0-233.0-1.0,null,<p></p>,,null,,,,,,,,,,,,,,,,
,do_trial,459,957219,0.0-234.0-0.0,332.3,,,,50,"1,0,0",6,blank,455,null,0.183993492,0.370475841,0.11379529,0,,,,,,
,html-keyboard-response,460,958225,0.0-234.0-1.0,null,<p></p>,,null,,,,,,,,,,,,,,,,
,do_trial,461,961697,0.0-235.0-0.0,921,,,,50,"1,0,0",6,blank,456,null,0.339494646,0.563279166,0.145393607,0,,,,,,
,html-keyboard-response,462,962703,0.0-235.0-1.0,null,<p></p>,,null,,,,,,,,,,,,,,,,
,do_recog,463,964748,0.0-236.0-0.0,533.1,,,,53,,,,457,probe-249,,,,,0,[object Object],null,null,0,
,html-keyboard-response,464,965764,0.0-236.0-1.0,null,<p></p>,,null,,,,,,,,,,,,,,,,
,do_trial,465,968896,0.0-237.0-0.0,592.1,,,,50,"0,0,0",6,blank,458,null,0.326094721,0.58210588,0.183194102,0,,,,,,
,html-keyboard-response,466,969912,0.0-237.0-1.0,null,<p></p>,,null,,,,,,,,,,,,,,,,
,do_trial,467,973121,0.0-238.0-0.0,668.2,,,,50,"1,1,0",6,blank,459,null,0.456604576,0.555114216,0.144552979,1,,,,,,
,html-keyboard-response,468,974135,0.0-238.0-1.0,null,<p></p>,,null,,,,,,,,,,,,,,,,
,do_trial,469,977505,0.0-239.0-0.0,831.3,,,,50,"1,1,0",6,blank,460,null,0.493665353,0.55390324,0.178315668,1,,,,,,
,html-keyboard-response,470,978518,0.0-239.0-1.0,null,<p></p>,,null,,,,,,,,,,,,,,,,
,do_trial,471,981595,0.0-240.0-0.0,545.8,,,,50,"1,1,0",6,blank,461,null,0.461864369,0.500090676,0.299530132,1,,,,,,
,html-keyboard-response,472,982598,0.0-240.0-1.0,null,<p></p>,,null,,,,,,,,,,,,,,,,
,do_trial,473,985826,0.0-241.0-0.0,696.7,,,,50,"0,0,0",6,blank,462,null,0.230492373,0.516484182,0.288755166,0,,,,,,
,html-keyboard-response,474,986832,0.0-241.0-1.0,null,<p></p>,,null,,,,,,,,,,,,,,,,
,do_trial,475,989793,0.0-242.0-0.0,419.1,,,,50,"0,1,0",6,blank,463,null,0.071004662,0.619237727,0.334363556,1,,,,,,
,html-keyboard-response,476,990808,0.0-242.0-1.0,null,<p></p>,,null,,,,,,,,,,,,,,,,
,do_trial,477,993805,0.0-243.0-0.0,453.4,,,,50,"0,1,0",6,blank,464,null,0.185581676,0.716608946,0.408105401,1,,,,,,
,html-keyboard-response,478,994812,0.0-243.0-1.0,null,<p></p>,,null,,,,,,,,,,,,,,,,
,do_recog,479,997255,0.0-244.0-0.0,934.2,,,,56,,,,465,probe-243,,,,,0,[object Object],null,null,1,
,html-keyboard-response,480,998269,0.0-244.0-1.0,null,<p></p>,,null,,,,,,,,,,,,,,,,
,do_trial,481,1001432,0.0-245.0-0.0,613.7,,,,50,"0,1,1",6,blank,466,null,0.223815187,0.64674137,0.256550212,1,,,,,,
,html-keyboard-response,482,1002446,0.0-245.0-1.0,null,<p></p>,,null,,,,,,,,,,,,,,,,
,do_trial,483,1005626,0.0-246.0-0.0,634.5,,,,50,"1,1,0",6,blank,467,null,0.249184348,0.689138675,0.315470065,1,,,,,,
,html-keyboard-response,484,1006627,0.0-246.0-1.0,null,<p></p>,,null,,,,,,,,,,,,,,,,
,do_recog,485,1008718,0.0-247.0-0.0,584.8,,,,56,,,,468,probe-241,,,,,0,[object Object],null,null,1,
,html-keyboard-response,486,1009733,0.0-247.0-1.0,null,<p></p>,,null,,,,,,,,,,,,,,,,
,do_trial,487,1012847,0.0-248.0-0.0,583.8,,,,50,"0,1,0",6,blank,469,null,0.296319773,0.620100249,0.302543437,1,,,,,,
,html-keyboard-response,488,1013862,0.0-248.0-1.0,null,<p></p>,,null,,,,,,,,,,,,,,,,
,do_recog,489,1016005,0.0-249.0-0.0,633,,,,56,,,,470,probe-253,,,,,0,[object Object],null,null,1,
,html-keyboard-response,490,1017007,0.0-249.0-1.0,null,<p></p>,,null,,,,,,,,,,,,,,,,
,do_trial,491,1019914,0.0-250.0-0.0,374.4,,,,50,"1,1,0",6,blank,471,null,0.090244155,0.612973668,0.259527451,1,,,,,,
,html-keyboard-response,492,1020925,0.0-250.0-1.0,null,<p></p>,,null,,,,,,,,,,,,,,,,
,do_recog,493,1022965,0.0-251.0-0.0,520.9,,,,56,,,,472,probe-234,,,,,0,[object Object],null,null,1,
,html-keyboard-response,494,1023967,0.0-251.0-1.0,null,<p></p>,,null,,,,,,,,,,,,,,,,
,do_trial,495,1026939,0.0-252.0-0.0,432.4,,,,50,"0,0,0",6,blank,473,null,0.073214802,0.621946371,0.342544706,0,,,,,,
,html-keyboard-response,496,1027942,0.0-252.0-1.0,null,<p></p>,,null,,,,,,,,,,,,,,,,
,do_trial,497,1030925,0.0-253.0-0.0,447,,,,50,"0,1,1",6,blank,474,null,0.081571498,0.604939904,0.475939057,1,,,,,,
,html-keyboard-response,498,1031937,0.0-253.0-1.0,null,<p></p>,,null,,,,,,,,,,,,,,,,
,do_recog,499,1033907,0.0-254.0-0.0,465.4,,,,56,,,,475,probe-247,,,,,0,[object Object],null,null,1,
,html-keyboard-response,500,1034917,0.0-254.0-1.0,null,<p></p>,,null,,,,,,,,,,,,,,,,
,do_trial,501,1038211,0.0-255.0-0.0,744.7,,,,50,"0,0,0",6,blank,476,null,0.134631233,0.634043793,0.485686449,0,,,,,,
,html-keyboard-response,502,1039221,0.0-255.0-1.0,null,<p></p>,,null,,,,,,,,,,,,,,,,
,do_trial,503,1042266,0.0-256.0-0.0,504.9,,,,50,"1,1,1",6,blank,477,null,0.085558982,0.637615622,0.407305126,1,,,,,,
,html-keyboard-response,504,1043277,0.0-256.0-1.0,null,<p></p>,,null,,,,,,,,,,,,,,,,
,do_trial,505,1046230,0.0-257.0-0.0,418.1,,,,50,"0,1,1",6,blank,478,null,0.092584664,0.618605346,0.389276788,1,,,,,,
,html-keyboard-response,506,1047242,0.0-257.0-1.0,null,<p></p>,,null,,,,,,,,,,,,,,,,
,do_recog,507,1049326,0.0-258.0-0.0,570,,,,56,,,,479,probe-252,,,,,0,[object Object],null,null,1,
,html-keyboard-response,508,1050340,0.0-258.0-1.0,null,<p></p>,,null,,,,,,,,,,,,,,,,
,do_pick_best_pirate,509,1054408,0.0-259.0-0.0,3049.9,,,,50,,,,,,,,,,,,,,,
,do_pick_best_pirate,510,1057985,0.0-260.0-0.0,2567.9,,,,51,,,,,,,,,,,,,,,
,do_pick_best_pirate,511,1061230,0.0-261.0-0.0,2230.4,,,,51,,,,,,,,,,,,,,,
,do_pick_best_pirate,512,1064037,0.0-262.0-0.0,1797.3,,,,49,,,,,,,,,,,,,,,
,do_pick_best_pirate,513,1066121,0.0-263.0-0.0,1071.4,,,,51,,,,,,,,,,,,,,,
,do_pick_best_pirate,514,1067988,0.0-264.0-0.0,858.6,,,,50,,,,,,,,,,,,,,,
,html-keyboard-response,515,1071532,0.0-265.0-0.0,3542.8,<p>You are all done with the experiment!</p><p> You made $15 plus $2 in bonus payment!</p><p>Thank you for participating. You will recieve your payment within 3 days.<p><b>[Press the space bar to end the experiment]</b></p></div>,,32,,,,,,,,,,,,,,,,