"success","trial_type","trial_index","time_elapsed","internal_node_id","interactions","blur_events","focus_events","fullscreenenter_events","fullscreenexit_events","rt","stimulus","key_press","subject_id","participant_id","age","gender","prompt","response","choice_outcomes","context_n","context_img_id","trial_n","probe_img_id","pR_red","pR_white","pR_black","outcome","is_valid","image_to_show","probed_trial","probed_context","correct","probe","probed_trial_n","probed_context_n","context_im"
"true","fullscreen","0","10979","0.0-0.0","""event"",""trial"",""time""
""fullscreenenter"",""0"",""10011""
","
","
","""event"",""trial"",""time""
""fullscreenenter"",""0"",""10011""
","
","","","","","","","","","","","","","","","","","","","","","","","","","","",""
"","pavlovia","1","10983","0.0-1.0","""event"",""trial"",""time""
""fullscreenenter"",""0"",""10011""
","
","
","""event"",""trial"",""time""
""fullscreenenter"",""0"",""10011""
","
","","","","","","","","","","","","","","","","","","","","","","","","","","",""
"","welc_back","2","20823","0.0-2.0","""event"",""trial"",""time""
""fullscreenenter"",""0"",""10011""
","
","
","""event"",""trial"",""time""
""fullscreenenter"",""0"",""10011""
","
","null","run_exp/static/audio/clip_29_welcome_back.m4a","null","1045","139","12","Female","<div class='center'><p>Welcome to day 2!</p><p> Yesterday, you were the head captain of a pirate ship. You asked your fellow pirates to rob other ships of their gold across six different islands.</p></div>","","","","","","","","","","","","","","","","","","",""
"","html-keyboard-response","3","22275","0.0-3.0","""event"",""trial"",""time""
""fullscreenenter"",""0"",""10011""
","
","
","""event"",""trial"",""time""
""fullscreenenter"",""0"",""10011""
","
","1451.0999999046326","<div class='center'><p>Welcome to day 2!</p><p> Yesterday, you were the head captain of a pirate ship. You asked your fellow pirates to rob other ships of their gold across six different islands.</p><p><b>[Press the space bar to continue]</b></p></div>","32","","","","","","","","","","","","","","","","","","","","","","","",""
"","day_1_summary_goal","4","39468","0.0-4.0","""event"",""trial"",""time""
""fullscreenenter"",""0"",""10011""
","
","
","""event"",""trial"",""time""
""fullscreenenter"",""0"",""10011""
","
","null","run_exp/static/audio/clip_30_goal_of_game.m4a","null","","","","","<div class='center'><p>Today, like yesterday, you get to pick which pirate you want to rob the next ship.</p><p>If the pirate is successful in robbing a ship, you get gold coins that look like this: </p><p><img src='run_exp/static/images/tutorial/reward.png' height='150'></p><p> If they were not successful in robbing the ship, then you will get no gold coins and you'll see a big red x like this: </p><p><img src='run_exp/static/images/tutorial/reward_no.png' height='150'></p></div>","","","","","","","","","","","","","","","","","","",""
"","html-keyboard-response","5","40128","0.0-5.0","""event"",""trial"",""time""
""fullscreenenter"",""0"",""10011""
","
","
","""event"",""trial"",""time""
""fullscreenenter"",""0"",""10011""
","
","659","<div class='center'><p>Today, like yesterday, you get to pick which pirate you want to rob the next ship.</p><p>If the pirate is successful in robbing a ship, you get gold coins that look like this: </p><p><img src='run_exp/static/images/tutorial/reward.png' height='150'></p><p> If they were not successful in robbing the ship, then you will get no gold coins and you'll see a big red x like this: </p><p><img src='run_exp/static/images/tutorial/reward_no.png' height='150'></p><p><b>[Press the space bar to continue]</b></p></div>","32","","","","","","","","","","","","","","","","","","","","","","","",""
"","day_1_summary_pick","6","54806","0.0-6.0","""event"",""trial"",""time""
""fullscreenenter"",""0"",""10011""
","
","
","""event"",""trial"",""time""
""fullscreenenter"",""0"",""10011""
","
","null","run_exp/static/audio/clip_31_how_to_pick_a_pirate.m4a","null","","","","","<div class='center'><p>Also, just like yesterday, you will use the 1,2,3 keys on your keyboard to pick a pirate. Press '1' to choose red beard, '2' to choose white beard, and '3' to choose black beard . You only have 3 seconds to pick a pirate, so please make a choice quickly!</p></div>","","","","","","","","","","","","","","","","","","",""
"","html-keyboard-response","7","55479","0.0-7.0","""event"",""trial"",""time""
""fullscreenenter"",""0"",""10011""
","
","
","""event"",""trial"",""time""
""fullscreenenter"",""0"",""10011""
","
","671.6999998092651","<div class='center'><p>Also, just like yesterday, you will use the 1,2,3 keys on your keyboard to pick a pirate. Press '1' to choose red beard, '2' to choose white beard, and '3' to choose black beard . You only have 3 seconds to pick a pirate, so please make a choice quickly!</p><p><b>[Press the space bar to continue]</b></p></div>","32","","","","","","","","","","","","","","","","","","","","","","","",""
"","test_phase_begin","8","85846","0.0-8.0","""event"",""trial"",""time""
""fullscreenenter"",""0"",""10011""
","
","
","""event"",""trial"",""time""
""fullscreenenter"",""0"",""10011""
","
","null","run_exp/static/audio/clip_32_final_place.m4a","null","","","","","<div class='center'><p>You’ve arrived at the final island of your journey! Unfortunately, it’s very foggy out, so you won’t be able to see it in the distance like the other islands you've visited.</p><p>You’ll still be deciding which pirate you want to rob a ship like before. However, because of the fog, you also won’t be able to see the ship.</p><p>This means you do not have to remember the ships you rob on this island.</p><p>Unlike yesterday, you won't be visiting multiple islands today. You will stay on this island for the entire game. This game will last ~30 minutes.</p></div>","","","","","","","","","","","","","","","","","","",""
"","html-keyboard-response","9","87532","0.0-9.0","""event"",""trial"",""time""
""fullscreenenter"",""0"",""10011""
","
","
","""event"",""trial"",""time""
""fullscreenenter"",""0"",""10011""
","
","1684.1999998092651","<div class='center'><p>You’ve arrived at the final island of your journey! Unfortunately, it’s very foggy out, so you won’t be able to see it in the distance like the other islands you've visited.</p><p>You’ll still be deciding which pirate you want to rob a ship like before. However, because of the fog, you also won’t be able to see the ship.</p><p>This means you do not have to remember the ships you rob on this island.</p><p>Unlike yesterday, you won't be visiting multiple islands today. You will stay on this island for the entire game. This game will last ~30 minutes.</p><p><b>[Press the space bar to continue]</b></p></div>","32","","","","","","","","","","","","","","","","","","","","","","","",""
"","explain_probe_1","10","95254","0.0-10.0","""event"",""trial"",""time""
""fullscreenenter"",""0"",""10011""
","
","
","""event"",""trial"",""time""
""fullscreenenter"",""0"",""10011""
","
","null","run_exp/static/audio/clip_33_recognition_1.m4a","null","","","","","<div class='center'><p> Sometimes you’ll be shown a ship, and you will be asked if you saw this ship on a past island.</p><p> Here is an example of what you will see.</p><p><img src='run_exp/static/images/tutorial/example_recog_trial.png' height='500'></p></div>","","","","","","","","","","","","","","","","","","",""
"","html-keyboard-response","11","98257","0.0-11.0","""event"",""trial"",""time""
""fullscreenenter"",""0"",""10011""
","
","
","""event"",""trial"",""time""
""fullscreenenter"",""0"",""10011""
","
","3001.199999809265","<div class='center'><p> Sometimes you’ll be shown a ship, and you will be asked if you saw this ship on a past island.</p><p> Here is an example of what you will see.</p><p><img src='run_exp/static/images/tutorial/example_recog_trial.png' height='500'></p><p><b>[Press the space bar to continue]</b></p></div>","32","","","","","","","","","","","","","","","","","","","","","","","",""
"","explain_probe_2","12","119958","0.0-12.0","""event"",""trial"",""time""
""fullscreenenter"",""0"",""10011""
","
","
","""event"",""trial"",""time""
""fullscreenenter"",""0"",""10011""
","
","null","run_exp/static/audio/clip_34_recognition_2.m4a","null","","","","","<div class='center'><p> You will press the 5, 6, 7, 8 keys on your keyboard to respond.</p><p>If you are sure you saw the ship, press <b>5</b> on your keyboard.</p><p> If you think you saw it before but aren't sure, then press <b>6</b>.</p><p> If you think you have <b>not</b> seen it before but aren't sure, then press <b>7</b>.</p><p> If you are sure you did <b>not</b> see the ship before, then press <b>8</b>.</p><p><img src='run_exp/static/images/tutorial/example_recog_trial.png' height='500'></p></div>","","","","","","","","","","","","","","","","","","",""
"","html-keyboard-response","13","120835","0.0-13.0","""event"",""trial"",""time""
""fullscreenenter"",""0"",""10011""
","
","
","""event"",""trial"",""time""
""fullscreenenter"",""0"",""10011""
","
","876.0999999046326","<div class='center'><p> You will press the 5, 6, 7, 8 keys on your keyboard to respond.</p><p>If you are sure you saw the ship, press <b>5</b> on your keyboard.</p><p> If you think you saw it before but aren't sure, then press <b>6</b>.</p><p> If you think you have <b>not</b> seen it before but aren't sure, then press <b>7</b>.</p><p> If you are sure you did <b>not</b> see the ship before, then press <b>8</b>.</p><p><img src='run_exp/static/images/tutorial/example_recog_trial.png' height='500'></p><p><b>[Press the space bar to continue]</b></p></div>","32","","","","","","","","","","","","","","","","","","","","","","","",""
"","explain_outcome","14","138027","0.0-14.0","""event"",""trial"",""time""
""fullscreenenter"",""0"",""10011""
","
","
","""event"",""trial"",""time""
""fullscreenenter"",""0"",""10011""
","
","null","run_exp/static/audio/clip_35_recognition_3.m4a","null","","","","","<div class='center'><p> If you remember correctly, then you’ll get a gold coin like this: </p><p><img src='run_exp/static/images/tutorial/reward_small.png' height='200'></p><p>If you do not remember correctly, then you'll see a red x like this: </p><p><img src='run_exp/static/images/tutorial/reward_no.png' height='200'></p><p>Importantly, when you are shown a ship, take the time to remind yourself which island you saw it on. This will help you in the next part of the study.</p></div>","","","","","","","","","","","","","","","","","","",""
"","html-keyboard-response","15","139582","0.0-15.0","""event"",""trial"",""time""
""fullscreenenter"",""0"",""10011""
","
","
","""event"",""trial"",""time""
""fullscreenenter"",""0"",""10011""
","
","1553.3000001907349","<div class='center'><p> If you remember correctly, then you’ll get a gold coin like this: </p><p><img src='run_exp/static/images/tutorial/reward_small.png' height='200'></p><p>If you do not remember correctly, then you'll see a red x like this: </p><p><img src='run_exp/static/images/tutorial/reward_no.png' height='200'></p><p>Importantly, when you are shown a ship, take the time to remind yourself which island you saw it on. This will help you in the next part of the study.</p><p><b>[Press the space bar to continue]</b></p></div>","32","","","","","","","","","","","","","","","","","","","","","","","",""
"","begin_test_phase","16","155392","0.0-16.0","""event"",""trial"",""time""
""fullscreenenter"",""0"",""10011""
","
","
","""event"",""trial"",""time""
""fullscreenenter"",""0"",""10011""
","
","null","run_exp/static/audio/clip_36_begin_final.m4a","null","","","","","<div class='center'><p>Let's go over the important points again. Your job is to: </p><p>1. Pick the pirate who is best at robbing ships and will bring you back gold coins. </p><p>2. Correctly remember whether or not you saw a ship before. If you did see the ship before, remind yourself on which island you saw it. </p></div>","","","","","","","","","","","","","","","","","","",""
"","html-keyboard-response","17","156402","0.0-17.0","""event"",""trial"",""time""
""fullscreenenter"",""0"",""10011""
","
","
","""event"",""trial"",""time""
""fullscreenenter"",""0"",""10011""
","
","980.4000000953674","<div class='center'><p>Let's go over the important points again. Your job is to: </p><p>1. Pick the pirate who is best at robbing ships and will bring you back gold coins. </p><p>2. Correctly remember whether or not you saw a ship before. If you did see the ship before, remind yourself on which island you saw it. </p><p><b>[Press the space bar to continue]</b></p></div>","32","","","","","","","","","","","","","","","","","","","","","","","",""
"","do_welcome","18","160410","0.0-18.0","""event"",""trial"",""time""
""fullscreenenter"",""0"",""10011""
","
","
","""event"",""trial"",""time""
""fullscreenenter"",""0"",""10011""
","
","null","","","","","","","","null","","","","","","","","","","","","","","","","","",""
"","do_trial","19","164721","0.0-19.0-0.0","""event"",""trial"",""time""
""fullscreenenter"",""0"",""10011""
","
","
","""event"",""trial"",""time""
""fullscreenenter"",""0"",""10011""
","
","1781.2999997138977","","","","","","","","51","1,0,0","6","blank","230","null","0.1303865721548144","0.3298787690666684","0.44798469924618356","0","","","","","","","","",""
"","html-keyboard-response","20","165726","0.0-19.0-1.0","""event"",""trial"",""time""
""fullscreenenter"",""0"",""10011""
","
","
","""event"",""trial"",""time""
""fullscreenenter"",""0"",""10011""
","
","null","<p></p>","null","","","","","","","","","","","","","","","","","","","","","","","",""
"","do_trial","21","168677","0.0-20.0-0.0","""event"",""trial"",""time""
""fullscreenenter"",""0"",""10011""
","
","
","""event"",""trial"",""time""
""fullscreenenter"",""0"",""10011""
","
","425.5","","","","","","","","51","0,0,0","6","blank","231","null","0.05139916978273579","0.2867401921587316","0.5914639319163542","0","","","","","","","","",""
"","html-keyboard-response","22","169682","0.0-20.0-1.0","""event"",""trial"",""time""
""fullscreenenter"",""0"",""10011""
","
","
","""event"",""trial"",""time""
""fullscreenenter"",""0"",""10011""
","
","null","<p></p>","null","","","","","","","","","","","","","","","","","","","","","","","",""
"","do_trial","23","172568","0.0-21.0-0.0","""event"",""trial"",""time""
""fullscreenenter"",""0"",""10011""
","
","
","""event"",""trial"",""time""
""fullscreenenter"",""0"",""10011""
","
","359.09999990463257","","","","","","","","51","0,1,0","6","blank","232","null","0.1158024745312083","0.15591853071200162","0.46777107190038814","0","","","","","","","","",""
"","html-keyboard-response","24","173570","0.0-21.0-1.0","""event"",""trial"",""time""
""fullscreenenter"",""0"",""10011""
","
","
","""event"",""trial"",""time""
""fullscreenenter"",""0"",""10011""
","
","null","<p></p>","null","","","","","","","","","","","","","","","","","","","","","","","",""
"","do_trial","25","176449","0.0-22.0-0.0","""event"",""trial"",""time""
""fullscreenenter"",""0"",""10011""
","
","
","""event"",""trial"",""time""
""fullscreenenter"",""0"",""10011""
","
","351.59999990463257","","","","","","","","50","0,0,1","6","blank","233","null","0.09778250578267664","0.1782559781506599","0.5692477924524247","0","","","","","","","","",""
"","html-keyboard-response","26","177451","0.0-22.0-1.0","""event"",""trial"",""time""
""fullscreenenter"",""0"",""10011""
","
","
","""event"",""trial"",""time""
""fullscreenenter"",""0"",""10011""
","
","null","<p></p>","null","","","","","","","","","","","","","","","","","","","","","","","",""
"","do_trial","27","180277","0.0-23.0-0.0","""event"",""trial"",""time""
""fullscreenenter"",""0"",""10011""
","
","
","""event"",""trial"",""time""
""fullscreenenter"",""0"",""10011""
","
","303.69999980926514","","","","","","","","50","0,0,1","6","blank","234","null","0.1351049346055884","0.21954304381346335","0.546911572440257","0","","","","","","","","",""
"","html-keyboard-response","28","181280","0.0-23.0-1.0","""event"",""trial"",""time""
""fullscreenenter"",""0"",""10011""
","
","
","""event"",""trial"",""time""
""fullscreenenter"",""0"",""10011""
","
","null","<p></p>","null","","","","","","","","","","","","","","","","","","","","","","","",""
"","do_trial","29","184156","0.0-24.0-0.0","""event"",""trial"",""time""
""fullscreenenter"",""0"",""10011""
","
","
","""event"",""trial"",""time""
""fullscreenenter"",""0"",""10011""
","
","347.69999980926514","","","","","","","","50","0,0,1","6","blank","235","null","0.08804509559115867","0.07622694809157153","0.42911602499515045","0","","","","","","","","",""
"","html-keyboard-response","30","185158","0.0-24.0-1.0","""event"",""trial"",""time""
""fullscreenenter"",""0"",""10011""
","
","
","""event"",""trial"",""time""
""fullscreenenter"",""0"",""10011""
","
","null","<p></p>","null","","","","","","","","","","","","","","","","","","","","","","","",""
"","do_trial","31","188077","0.0-25.0-0.0","""event"",""trial"",""time""
""fullscreenenter"",""0"",""10011""
","
","
","""event"",""trial"",""time""
""fullscreenenter"",""0"",""10011""
","
","396.69999980926514","","","","","","","","49","0,0,0","6","blank","236","null","0.15225041734924247","0.36727057877273495","0.5719647973843611","0","","","","","","","","",""
"","html-keyboard-response","32","189083","0.0-25.0-1.0","""event"",""trial"",""time""
""fullscreenenter"",""0"",""10011""
","
","
","""event"",""trial"",""time""
""fullscreenenter"",""0"",""10011""
","
","null","<p></p>","null","","","","","","","","","","","","","","","","","","","","","","","",""
"","do_trial","33","191635","0.0-26.0-0.0","""event"",""trial"",""time""
""fullscreenenter"",""0"",""10011""
","
","
","""event"",""trial"",""time""
""fullscreenenter"",""0"",""10011""
","
","25.59999990463257","","","","","","","","49","0,0,1","6","blank","237","null","0.11765129149270756","0.39961827777253406","0.5668725907717714","0","","","","","","","","",""
"","html-keyboard-response","34","192641","0.0-26.0-1.0","""event"",""trial"",""time""
""fullscreenenter"",""0"",""10011""
","
","
","""event"",""trial"",""time""
""fullscreenenter"",""0"",""10011""
","
","null","<p></p>","null","","","","","","","","","","","","","","","","","","","","","","","",""
"","do_trial","35","195549","0.0-27.0-0.0","""event"",""trial"",""time""
""fullscreenenter"",""0"",""10011""
","
","
","""event"",""trial"",""time""
""fullscreenenter"",""0"",""10011""
","
","384.3999996185303","","","","","","","","49","0,0,1","6","blank","238","null","0.13305613580225817","0.2924066861493863","0.5722175392620737","0","","","","","","","","",""
"","html-keyboard-response","36","196554","0.0-27.0-1.0","""event"",""trial"",""time""
""fullscreenenter"",""0"",""10011""
","
","
","""event"",""trial"",""time""
""fullscreenenter"",""0"",""10011""
","
","null","<p></p>","null","","","","","","","","","","","","","","","","","","","","","","","",""
"","do_trial","37","200271","0.0-28.0-0.0","""event"",""trial"",""time""
""fullscreenenter"",""0"",""10011""
","
","
","""event"",""trial"",""time""
""fullscreenenter"",""0"",""10011""
","
","1191.3000001907349","","","","","","","","51","0,1,0","6","blank","239","null","0.12878224954331036","0.2959854885742133","0.6084540225312758","0","","","","","","","","",""
"","html-keyboard-response","38","201275","0.0-28.0-1.0","""event"",""trial"",""time""
""fullscreenenter"",""0"",""10011""
","
","
","""event"",""trial"",""time""
""fullscreenenter"",""0"",""10011""
","
","null","<p></p>","null","","","","","","","","","","","","","","","","","","","","","","","",""
"","do_trial","39","204216","0.0-29.0-0.0","""event"",""trial"",""time""
""fullscreenenter"",""0"",""10011""
","
","
","""event"",""trial"",""time""
""fullscreenenter"",""0"",""10011""
","
","414.59999990463257","","","","","","","","51","0,0,1","6","blank","240","null","0.09197734586322852","0.16714008644878267","0.5244843702004289","1","","","","","","","","",""
"","html-keyboard-response","40","205219","0.0-29.0-1.0","""event"",""trial"",""time""
""fullscreenenter"",""0"",""10011""
","
","
","""event"",""trial"",""time""
""fullscreenenter"",""0"",""10011""
","
","null","<p></p>","null","","","","","","","","","","","","","","","","","","","","","","","",""
"","do_recog","41","211232","0.0-30.0-0.0","""event"",""trial"",""time""
""fullscreenenter"",""0"",""10011""
","
","
","""event"",""trial"",""time""
""fullscreenenter"",""0"",""10011""
","
","null","","","","","","","","null","","","","241","probe-53","","","","","1","[object Object]","73","1","0","","","",""
"","html-keyboard-response","42","212238","0.0-30.0-1.0","""event"",""trial"",""time""
""fullscreenenter"",""0"",""10011""
","
","
","""event"",""trial"",""time""
""fullscreenenter"",""0"",""10011""
","
","null","<p></p>","null","","","","","","","","","","","","","","","","","","","","","","","",""
"","do_trial","43","216949","0.0-31.0-0.0","""event"",""trial"",""time""
""fullscreenenter"",""0"",""10011""
","
","
","""event"",""trial"",""time""
""fullscreenenter"",""0"",""10011""
","
","2190.0999999046326","","","","","","","","51","0,0,0","6","blank","242","null","0.0760925986401502","0.1939620496222127","0.42720927786755347","0","","","","","","","","",""
"","html-keyboard-response","44","217955","0.0-31.0-1.0","""event"",""trial"",""time""
""fullscreenenter"",""0"",""10011""
","
","
","""event"",""trial"",""time""
""fullscreenenter"",""0"",""10011""
","
","null","<p></p>","null","","","","","","","","","","","","","","","","","","","","","","","",""
"","do_recog","45","223965","0.0-32.0-0.0","""event"",""trial"",""time""
""fullscreenenter"",""0"",""10011""
","
","
","""event"",""trial"",""time""
""fullscreenenter"",""0"",""10011""
","
","null","","","","","","","","null","","","","243","probe-109","","","","","1","[object Object]","38","0","0","","","",""
"","html-keyboard-response","46","224967","0.0-32.0-1.0","""event"",""trial"",""time""
""fullscreenenter"",""0"",""10011""
","
","
","""event"",""trial"",""time""
""fullscreenenter"",""0"",""10011""
","
","null","<p></p>","null","","","","","","","","","","","","","","","","","","","","","","","",""
"","do_trial","47","228840","0.0-33.0-0.0","""event"",""trial"",""time""
""fullscreenenter"",""0"",""10011""
","
","
","""event"",""trial"",""time""
""fullscreenenter"",""0"",""10011""
","
","1348.4000000953674","","","","","","","","51","0,0,1","6","blank","244","null","0.1360469168452733","0.20846646952375308","0.44038266739834764","1","","","","","","","","",""
"","html-keyboard-response","48","229843","0.0-33.0-1.0","""event"",""trial"",""time""
""fullscreenenter"",""0"",""10011""
","
","
","""event"",""trial"",""time""
""fullscreenenter"",""0"",""10011""
","
","null","<p></p>","null","","","","","","","","","","","","","","","","","","","","","","","",""
"","do_trial","49","232957","0.0-34.0-0.0","""event"",""trial"",""time""
""fullscreenenter"",""0"",""10011""
","
","
","""event"",""trial"",""time""
""fullscreenenter"",""0"",""10011""
","
","587","","","","","","","","51","1,1,0","6","blank","245","null","0.1486959411565769","0.4263700666023464","0.3863298979205658","0","","","","","","","","",""
"","html-keyboard-response","50","233959","0.0-34.0-1.0","""event"",""trial"",""time""
""fullscreenenter"",""0"",""10011""
","
","
","""event"",""trial"",""time""
""fullscreenenter"",""0"",""10011""
","
","null","<p></p>","null","","","","","","","","","","","","","","","","","","","","","","","",""
"","do_trial","51","236874","0.0-35.0-0.0","""event"",""trial"",""time""
""fullscreenenter"",""0"",""10011""
","
","
","""event"",""trial"",""time""
""fullscreenenter"",""0"",""10011""
","
","388.2000002861023","","","","","","","","51","0,1,1","6","blank","246","null","0.1115809228680817","0.6235321879004958","0.32737959482524764","1","","","","","","","","",""
"","html-keyboard-response","52","237876","0.0-35.0-1.0","""event"",""trial"",""time""
""fullscreenenter"",""0"",""10011""
","
","
","""event"",""trial"",""time""
""fullscreenenter"",""0"",""10011""
","
","null","<p></p>","null","","","","","","","","","","","","","","","","","","","","","","","",""
"","do_trial","53","240775","0.0-36.0-0.0","""event"",""trial"",""time""
""fullscreenenter"",""0"",""10011""
","
","
","""event"",""trial"",""time""
""fullscreenenter"",""0"",""10011""
","
","374.90000009536743","","","","","","","","51","0,1,1","6","blank","247","null","0.21656635753584824","0.6759971014337662","0.22918998698371226","1","","","","","","","","",""
"","html-keyboard-response","54","241776","0.0-36.0-1.0","""event"",""trial"",""time""
""fullscreenenter"",""0"",""10011""
","
","
","""event"",""trial"",""time""
""fullscreenenter"",""0"",""10011""
","
","null","<p></p>","null","","","","","","","","","","","","","","","","","","","","","","","",""
"","do_trial","55","244698","0.0-37.0-0.0","""event"",""trial"",""time""
""fullscreenenter"",""0"",""10011""
","
","
","""event"",""trial"",""time""
""fullscreenenter"",""0"",""10011""
","
","390.8999996185303","","","","","","","","51","0,1,1","6","blank","248","null","0.17442806643570552","0.6471469117904376","0.19598368920290474","1","","","","","","","","",""
"","html-keyboard-response","56","245703","0.0-37.0-1.0","""event"",""trial"",""time""
""fullscreenenter"",""0"",""10011""
","
","
","""event"",""trial"",""time""
""fullscreenenter"",""0"",""10011""
","
","null","<p></p>","null","","","","","","","","","","","","","","","","","","","","","","","",""
"","do_recog","57","250072","0.0-38.0-0.0","""event"",""trial"",""time""
""fullscreenenter"",""0"",""10011""
","
","
","""event"",""trial"",""time""
""fullscreenenter"",""0"",""10011""
","
","2863","","","","","","","","53","","","","249","probe-18","","","","","1","[object Object]","152","3","1","","","",""
"","html-keyboard-response","58","251076","0.0-38.0-1.0","""event"",""trial"",""time""
""fullscreenenter"",""0"",""10011""
","
","
","""event"",""trial"",""time""
""fullscreenenter"",""0"",""10011""
","
","null","<p></p>","null","","","","","","","","","","","","","","","","","","","","","","","",""
"","do_trial","59","255642","0.0-39.0-0.0","""event"",""trial"",""time""
""fullscreenenter"",""0"",""10011""
","
","
","""event"",""trial"",""time""
""fullscreenenter"",""0"",""10011""
","
","2044.1999998092651","","","","","","","","51","0,0,0","6","blank","250","null","0.05330138285456993","0.5299756320604558","0.17585550306398592","0","","","","","","","","",""
"","html-keyboard-response","60","256645","0.0-39.0-1.0","""event"",""trial"",""time""
""fullscreenenter"",""0"",""10011""
","
","
","""event"",""trial"",""time""
""fullscreenenter"",""0"",""10011""
","
","null","<p></p>","null","","","","","","","","","","","","","","","","","","","","","","","",""
"","do_trial","61","259521","0.0-40.0-0.0","""event"",""trial"",""time""
""fullscreenenter"",""0"",""10011""
","
","
","""event"",""trial"",""time""
""fullscreenenter"",""0"",""10011""
","
","350.90000009536743","","","","","","","","50","0,1,0","6","blank","251","null","0.2030969286852849","0.5404692522980952","0.11582876298675654","1","","","","","","","","",""
"","html-keyboard-response","62","260522","0.0-40.0-1.0","""event"",""trial"",""time""
""fullscreenenter"",""0"",""10011""
","
","
","""event"",""trial"",""time""
""fullscreenenter"",""0"",""10011""
","
","null","<p></p>","null","","","","","","","","","","","","","","","","","","","","","","","",""
"","do_trial","63","263392","0.0-41.0-0.0","""event"",""trial"",""time""
""fullscreenenter"",""0"",""10011""
","
","
","""event"",""trial"",""time""
""fullscreenenter"",""0"",""10011""
","
","342","","","","","","","","50","0,0,0","6","blank","252","null","0.23778367054757454","0.5313277615169534","0.3084610021308526","0","","","","","","","","",""
"","html-keyboard-response","64","264407","0.0-41.0-1.0","""event"",""trial"",""time""
""fullscreenenter"",""0"",""10011""
","
","
","""event"",""trial"",""time""
""fullscreenenter"",""0"",""10011""
","
","null","<p></p>","null","","","","","","","","","","","","","","","","","","","","","","","",""
"","do_trial","65","267252","0.0-42.0-0.0","""event"",""trial"",""time""
""fullscreenenter"",""0"",""10011""
","
","
","""event"",""trial"",""time""
""fullscreenenter"",""0"",""10011""
","
","314.7000002861023","","","","","","","","50","0,1,0","6","blank","253","null","0.1994053522303175","0.6570799222034682","0.35298435970487435","1","","","","","","","","",""
"","html-keyboard-response","66","268256","0.0-42.0-1.0","""event"",""trial"",""time""
""fullscreenenter"",""0"",""10011""
","
","
","""event"",""trial"",""time""
""fullscreenenter"",""0"",""10011""
","
","null","<p></p>","null","","","","","","","","","","","","","","","","","","","","","","","",""
"","do_trial","67","271155","0.0-43.0-0.0","""event"",""trial"",""time""
""fullscreenenter"",""0"",""10011""
","
","
","""event"",""trial"",""time""
""fullscreenenter"",""0"",""10011""
","
","364.7999997138977","","","","","","","","50","0,1,1","6","blank","254","null","0.172353269129686","0.5989513879096635","0.35262936804175044","1","","","","","","","","",""
"","html-keyboard-response","68","272165","0.0-43.0-1.0","""event"",""trial"",""time""
""fullscreenenter"",""0"",""10011""
","
","
","""event"",""trial"",""time""
""fullscreenenter"",""0"",""10011""
","
","null","<p></p>","null","","","","","","","","","","","","","","","","","","","","","","","",""
"","do_trial","69","275107","0.0-44.0-0.0","""event"",""trial"",""time""
""fullscreenenter"",""0"",""10011""
","
","
","""event"",""trial"",""time""
""fullscreenenter"",""0"",""10011""
","
","411.40000009536743","","","","","","","","50","0,0,0","6","blank","255","null","0.056938216616533296","0.5821463374679113","0.3254512001489103","0","","","","","","","","",""
"","html-keyboard-response","70","276109","0.0-44.0-1.0","""event"",""trial"",""time""
""fullscreenenter"",""0"",""10011""
","
","
","""event"",""trial"",""time""
""fullscreenenter"",""0"",""10011""
","
","null","<p></p>","null","","","","","","","","","","","","","","","","","","","","","","","",""
"","do_trial","71","279034","0.0-45.0-0.0","""event"",""trial"",""time""
""fullscreenenter"",""0"",""10011""
","
","
","""event"",""trial"",""time""
""fullscreenenter"",""0"",""10011""
","
","401.69999980926514","","","","","","","","49","0,0,1","6","blank","256","null","0.07835330378990765","0.5865687942003084","0.4646825785188392","0","","","","","","","","",""
"","html-keyboard-response","72","280037","0.0-45.0-1.0","""event"",""trial"",""time""
""fullscreenenter"",""0"",""10011""
","
","
","""event"",""trial"",""time""
""fullscreenenter"",""0"",""10011""
","
","null","<p></p>","null","","","","","","","","","","","","","","","","","","","","","","","",""
"","do_recog","73","283878","0.0-46.0-0.0","""event"",""trial"",""time""
""fullscreenenter"",""0"",""10011""
","
","
","""event"",""trial"",""time""
""fullscreenenter"",""0"",""10011""
","
","2332.800000190735","","","","","","","","53","","","","257","probe-161","","","","","1","[object Object]","36","0","1","","","",""
"","html-keyboard-response","74","284884","0.0-46.0-1.0","""event"",""trial"",""time""
""fullscreenenter"",""0"",""10011""
","
","
","""event"",""trial"",""time""
""fullscreenenter"",""0"",""10011""
","
","null","<p></p>","null","","","","","","","","","","","","","","","","","","","","","","","",""
"","do_trial","75","288393","0.0-47.0-0.0","""event"",""trial"",""time""
""fullscreenenter"",""0"",""10011""
","
","
","""event"",""trial"",""time""
""fullscreenenter"",""0"",""10011""
","
","985.6999998092651","","","","","","","","49","0,1,1","6","blank","258","null","0.10018649063699138","0.536393283461503","0.3003142101327484","0","","","","","","","","",""
"","html-keyboard-response","76","289398","0.0-47.0-1.0","""event"",""trial"",""time""
""fullscreenenter"",""0"",""10011""
","
","
","""event"",""trial"",""time""
""fullscreenenter"",""0"",""10011""
","
","null","<p></p>","null","","","","","","","","","","","","","","","","","","","","","","","",""
"","do_trial","77","292331","0.0-48.0-0.0","""event"",""trial"",""time""
""fullscreenenter"",""0"",""10011""
","
","
","""event"",""trial"",""time""
""fullscreenenter"",""0"",""10011""
","
","410.59999990463257","","","","","","","","49","0,1,1","6","blank","259","null","0.08726345257572536","0.6252931779907488","0.3762608610411246","0","","","","","","","","",""
"","html-keyboard-response","78","293337","0.0-48.0-1.0","""event"",""trial"",""time""
""fullscreenenter"",""0"",""10011""
","
","
","""event"",""trial"",""time""
""fullscreenenter"",""0"",""10011""
","
","null","<p></p>","null","","","","","","","","","","","","","","","","","","","","","","","",""
"","do_trial","79","296360","0.0-49.0-0.0","""event"",""trial"",""time""
""fullscreenenter"",""0"",""10011""
","
","
","""event"",""trial"",""time""
""fullscreenenter"",""0"",""10011""
","
","498.2999997138977","","","","","","","","51","0,0,0","6","blank","260","null","0.06381066754751669","0.5826182786460182","0.2854441800714254","0","","","","","","","","",""
"","html-keyboard-response","80","297364","0.0-49.0-1.0","""event"",""trial"",""time""
""fullscreenenter"",""0"",""10011""
","
","
","""event"",""trial"",""time""
""fullscreenenter"",""0"",""10011""
","
","null","<p></p>","null","","","","","","","","","","","","","","","","","","","","","","","",""
"","do_trial","81","300344","0.0-50.0-0.0","""event"",""trial"",""time""
""fullscreenenter"",""0"",""10011""
","
","
","""event"",""trial"",""time""
""fullscreenenter"",""0"",""10011""
","
","454.69999980926514","","","","","","","","51","0,1,0","6","blank","261","null","0.22694671685243797","0.6318129450939658","0.25685058878913003","0","","","","","","","","",""
"","html-keyboard-response","82","301350","0.0-50.0-1.0","""event"",""trial"",""time""
""fullscreenenter"",""0"",""10011""
","
","
","""event"",""trial"",""time""
""fullscreenenter"",""0"",""10011""
","
","null","<p></p>","null","","","","","","","","","","","","","","","","","","","","","","","",""
"","do_trial","83","304384","0.0-51.0-0.0","""event"",""trial"",""time""
""fullscreenenter"",""0"",""10011""
","
","
","""event"",""trial"",""time""
""fullscreenenter"",""0"",""10011""
","
","512.0999999046326","","","","","","","","51","0,1,0","6","blank","262","null","0.07920274883958056","0.6046953508204256","0.3330768131646004","0","","","","","","","","",""
"","html-keyboard-response","84","305386","0.0-51.0-1.0","""event"",""trial"",""time""
""fullscreenenter"",""0"",""10011""
","
","
","""event"",""trial"",""time""
""fullscreenenter"",""0"",""10011""
","
","null","<p></p>","null","","","","","","","","","","","","","","","","","","","","","","","",""
"","do_trial","85","308343","0.0-52.0-0.0","""event"",""trial"",""time""
""fullscreenenter"",""0"",""10011""
","
","
","""event"",""trial"",""time""
""fullscreenenter"",""0"",""10011""
","
","436.59999990463257","","","","","","","","50","0,1,1","6","blank","263","null","0.11018703824236424","0.591410092774156","0.3552008260014738","1","","","","","","","","",""
"","html-keyboard-response","86","309345","0.0-52.0-1.0","""event"",""trial"",""time""
""fullscreenenter"",""0"",""10011""
","
","
","""event"",""trial"",""time""
""fullscreenenter"",""0"",""10011""
","
","null","<p></p>","null","","","","","","","","","","","","","","","","","","","","","","","",""
"","do_trial","87","312446","0.0-53.0-0.0","""event"",""trial"",""time""
""fullscreenenter"",""0"",""10011""
","
","
","""event"",""trial"",""time""
""fullscreenenter"",""0"",""10011""
","
","575","","","","","","","","50","0,0,0","6","blank","264","null","0.1574951354792501","0.6669599464502619","0.40404605426185664","0","","","","","","","","",""
"","html-keyboard-response","88","313452","0.0-53.0-1.0","""event"",""trial"",""time""
""fullscreenenter"",""0"",""10011""
","
","
","""event"",""trial"",""time""
""fullscreenenter"",""0"",""10011""
","
","null","<p></p>","null","","","","","","","","","","","","","","","","","","","","","","","",""
"","do_recog","89","319465","0.0-54.0-0.0","""event"",""trial"",""time""
""fullscreenenter"",""0"",""10011""
","
","
","""event"",""trial"",""time""
""fullscreenenter"",""0"",""10011""
","
","null","","","","","","","","null","","","","265","probe-128","","","","","1","[object Object]","118","2","0","","","",""
"","html-keyboard-response","90","320469","0.0-54.0-1.0","""event"",""trial"",""time""
""fullscreenenter"",""0"",""10011""
","
","
","""event"",""trial"",""time""
""fullscreenenter"",""0"",""10011""
","
","null","<p></p>","null","","","","","","","","","","","","","","","","","","","","","","","",""
"","do_trial","91","324051","0.0-55.0-0.0","""event"",""trial"",""time""
""fullscreenenter"",""0"",""10011""
","
","
","""event"",""trial"",""time""
""fullscreenenter"",""0"",""10011""
","
","1054.5","","","","","","","","50","0,1,0","6","blank","266","null","0.1702525490185903","0.6745241257978637","0.502148571993802","1","","","","","","","","",""
"","html-keyboard-response","92","325056","0.0-55.0-1.0","""event"",""trial"",""time""
""fullscreenenter"",""0"",""10011""
","
","
","""event"",""trial"",""time""
""fullscreenenter"",""0"",""10011""
","
","null","<p></p>","null","","","","","","","","","","","","","","","","","","","","","","","",""
"","do_trial","93","327967","0.0-56.0-0.0","""event"",""trial"",""time""
""fullscreenenter"",""0"",""10011""
","
","
","""event"",""trial"",""time""
""fullscreenenter"",""0"",""10011""
","
","387.40000009536743","","","","","","","","50","0,1,0","6","blank","267","null","0.23881213008896374","0.69786164316226","0.3008251323825696","1","","","","","","","","",""
"","html-keyboard-response","94","328972","0.0-56.0-1.0","""event"",""trial"",""time""
""fullscreenenter"",""0"",""10011""
","
","
","""event"",""trial"",""time""
""fullscreenenter"",""0"",""10011""
","
","null","<p></p>","null","","","","","","","","","","","","","","","","","","","","","","","",""
"","do_trial","95","332135","0.0-57.0-0.0","""event"",""trial"",""time""
""fullscreenenter"",""0"",""10011""
","
","
","""event"",""trial"",""time""
""fullscreenenter"",""0"",""10011""
","
","633.7999997138977","","","","","","","","50","0,0,0","6","blank","268","null","0.12734863559377033","0.7163552050833554","0.3425416446221374","0","","","","","","","","",""
"","html-keyboard-response","96","333141","0.0-57.0-1.0","""event"",""trial"",""time""
""fullscreenenter"",""0"",""10011""
","
","
","""event"",""trial"",""time""
""fullscreenenter"",""0"",""10011""
","
","null","<p></p>","null","","","","","","","","","","","","","","","","","","","","","","","",""
"","break","97","346420","0.0-58.0-0.0","""event"",""trial"",""time""
""fullscreenenter"",""0"",""10011""
","
","
","""event"",""trial"",""time""
""fullscreenenter"",""0"",""10011""
","
","13277.599999904633","<div class='center'><p>Time to take a quick break! You have 2 minutes to rest, but you can move on sooner if you'd like.</p><p> Press the <b>space bar</b> to continue.</p></div>","32","","","","","","","","","","","","","","","","","","","","","","","",""
"","do_trial","98","349953","0.0-58.0-1.0","""event"",""trial"",""time""
""fullscreenenter"",""0"",""10011""
","
","
","""event"",""trial"",""time""
""fullscreenenter"",""0"",""10011""
","
","1008.1999998092651","","","","","","","","50","0,1,1","6","blank","269","null","0.20745316986482693","0.8867063853595749","0.34338676950245245","1","","","","","","","","",""
"","html-keyboard-response","99","350959","0.0-58.0-2.0","""event"",""trial"",""time""
""fullscreenenter"",""0"",""10011""
","
","
","""event"",""trial"",""time""
""fullscreenenter"",""0"",""10011""
","
","null","<p></p>","null","","","","","","","","","","","","","","","","","","","","","","","",""
"","do_trial","100","353879","0.0-59.0-0.0","""event"",""trial"",""time""
""fullscreenenter"",""0"",""10011""
","
","
","""event"",""trial"",""time""
""fullscreenenter"",""0"",""10011""
","
","396.90000009536743","","","","","","","","50","1,0,0","6","blank","270","null","0.2009489166319246","0.7172164368235047","0.3971260190465705","0","","","","","","","","",""
"","html-keyboard-response","101","354885","0.0-59.0-1.0","""event"",""trial"",""time""
""fullscreenenter"",""0"",""10011""
","
","
","""event"",""trial"",""time""
""fullscreenenter"",""0"",""10011""
","
","null","<p></p>","null","","","","","","","","","","","","","","","","","","","","","","","",""
"","do_trial","102","357809","0.0-60.0-0.0","""event"",""trial"",""time""
""fullscreenenter"",""0"",""10011""
","
","
","""event"",""trial"",""time""
""fullscreenenter"",""0"",""10011""
","
","400.5","","","","","","","","50","0,0,1","6","blank","271","null","0.05042726378984222","0.6302732238435077","0.3539721258862803","0","","","","","","","","",""
"","html-keyboard-response","103","358815","0.0-60.0-1.0","""event"",""trial"",""time""
""fullscreenenter"",""0"",""10011""
","
","
","""event"",""trial"",""time""
""fullscreenenter"",""0"",""10011""
","
","null","<p></p>","null","","","","","","","","","","","","","","","","","","","","","","","",""
"","do_recog","104","362355","0.0-61.0-0.0","""event"",""trial"",""time""
""fullscreenenter"",""0"",""10011""
","
","
","""event"",""trial"",""time""
""fullscreenenter"",""0"",""10011""
","
","2032.0999999046326","","","","","","","","56","","","","272","probe-153","","","","","1","[object Object]","150","3","0","","","",""
"","html-keyboard-response","105","363361","0.0-61.0-1.0","""event"",""trial"",""time""
""fullscreenenter"",""0"",""10011""
","
","
","""event"",""trial"",""time""
""fullscreenenter"",""0"",""10011""
","
","null","<p></p>","null","","","","","","","","","","","","","","","","","","","","","","","",""
"","do_trial","106","367515","0.0-62.0-0.0","""event"",""trial"",""time""
""fullscreenenter"",""0"",""10011""
","
","
","""event"",""trial"",""time""
""fullscreenenter"",""0"",""10011""
","
","1626.5","","","","","","","","51","0,0,0","6","blank","273","null","0.20185381149033915","0.574368795388548","0.35506286532306747","0","","","","","","","","",""
"","html-keyboard-response","107","368522","0.0-62.0-1.0","""event"",""trial"",""time""
""fullscreenenter"",""0"",""10011""
","
","
","""event"",""trial"",""time""
""fullscreenenter"",""0"",""10011""
","
","null","<p></p>","null","","","","","","","","","","","","","","","","","","","","","","","",""
"","do_trial","108","371643","0.0-63.0-0.0","""event"",""trial"",""time""
""fullscreenenter"",""0"",""10011""
","
","
","""event"",""trial"",""time""
""fullscreenenter"",""0"",""10011""
","
","593.8000001907349","","","","","","","","50","0,0,0","6","blank","274","null","0.07684938225827508","0.5380931044039138","0.18822509566201676","0","","","","","","","","",""
"","html-keyboard-response","109","372649","0.0-63.0-1.0","""event"",""trial"",""time""
""fullscreenenter"",""0"",""10011""
","
","
","""event"",""trial"",""time""
""fullscreenenter"",""0"",""10011""
","
","null","<p></p>","null","","","","","","","","","","","","","","","","","","","","","","","",""
"","do_trial","110","375799","0.0-64.0-0.0","""event"",""trial"",""time""
""fullscreenenter"",""0"",""10011""
","
","
","""event"",""trial"",""time""
""fullscreenenter"",""0"",""10011""
","
","623.9000000953674","","","","","","","","50","0,0,1","6","blank","275","null","0.06797841038001823","0.5927099706023627","0.271078674509156","0","","","","","","","","",""
"","html-keyboard-response","111","376805","0.0-64.0-1.0","""event"",""trial"",""time""
""fullscreenenter"",""0"",""10011""
","
","
","""event"",""trial"",""time""
""fullscreenenter"",""0"",""10011""
","
","null","<p></p>","null","","","","","","","","","","","","","","","","","","","","","","","",""
"","do_trial","112","379673","0.0-65.0-0.0","""event"",""trial"",""time""
""fullscreenenter"",""0"",""10011""
","
","
","""event"",""trial"",""time""
""fullscreenenter"",""0"",""10011""
","
","338.7999997138977","","","","","","","","49","0,1,0","6","blank","276","null","0.10974184250689861","0.6272428235429743","0.27046721914173544","0","","","","","","","","",""
"","html-keyboard-response","113","380679","0.0-65.0-1.0","""event"",""trial"",""time""
""fullscreenenter"",""0"",""10011""
","
","
","""event"",""trial"",""time""
""fullscreenenter"",""0"",""10011""
","
","null","<p></p>","null","","","","","","","","","","","","","","","","","","","","","","","",""
"","do_recog","114","386692","0.0-66.0-0.0","""event"",""trial"",""time""
""fullscreenenter"",""0"",""10011""
","
","
","""event"",""trial"",""time""
""fullscreenenter"",""0"",""10011""
","
","null","","","","","","","","null","","","","277","probe-187","","","","","1","[object Object]","196","4","0","","","",""
"","html-keyboard-response","115","387698","0.0-66.0-1.0","""event"",""trial"",""time""
""fullscreenenter"",""0"",""10011""
","
","
","""event"",""trial"",""time""
""fullscreenenter"",""0"",""10011""
","
","null","<p></p>","null","","","","","","","","","","","","","","","","","","","","","","","",""
"","do_trial","116","391021","0.0-67.0-0.0","""event"",""trial"",""time""
""fullscreenenter"",""0"",""10011""
","
","
","""event"",""trial"",""time""
""fullscreenenter"",""0"",""10011""
","
","795.4000000953674","","","","","","","","49","0,1,1","6","blank","278","null","0.06885640328667235","0.697519854354388","0.21209667774797872","0","","","","","","","","",""
"","html-keyboard-response","117","392027","0.0-67.0-1.0","""event"",""trial"",""time""
""fullscreenenter"",""0"",""10011""
","
","
","""event"",""trial"",""time""
""fullscreenenter"",""0"",""10011""
","
","null","<p></p>","null","","","","","","","","","","","","","","","","","","","","","","","",""
"","do_recog","118","394862","0.0-68.0-0.0","""event"",""trial"",""time""
""fullscreenenter"",""0"",""10011""
","
","
","""event"",""trial"",""time""
""fullscreenenter"",""0"",""10011""
","
","1327.4000000953674","","","","","","","","56","","","","279","probe-181","","","","","1","[object Object]","114","2","0","","","",""
"","html-keyboard-response","119","395868","0.0-68.0-1.0","""event"",""trial"",""time""
""fullscreenenter"",""0"",""10011""
","
","
","""event"",""trial"",""time""
""fullscreenenter"",""0"",""10011""
","
","null","<p></p>","null","","","","","","","","","","","","","","","","","","","","","","","",""
"","do_trial","120","399259","0.0-69.0-0.0","""event"",""trial"",""time""
""fullscreenenter"",""0"",""10011""
","
","
","""event"",""trial"",""time""
""fullscreenenter"",""0"",""10011""
","
","864.6999998092651","","","","","","","","49","0,1,0","6","blank","280","null","0.05490480122384146","0.6972554167072326","0.1913052133974184","0","","","","","","","","",""
"","html-keyboard-response","121","400264","0.0-69.0-1.0","""event"",""trial"",""time""
""fullscreenenter"",""0"",""10011""
","
","
","""event"",""trial"",""time""
""fullscreenenter"",""0"",""10011""
","
","null","<p></p>","null","","","","","","","","","","","","","","","","","","","","","","","",""
"","do_recog","122","403226","0.0-70.0-0.0","""event"",""trial"",""time""
""fullscreenenter"",""0"",""10011""
","
","
","""event"",""trial"",""time""
""fullscreenenter"",""0"",""10011""
","
","1455.6999998092651","","","","","","","","56","","","","281","probe-238","","","","","0","[object Object]","null","null","1","","","",""
"","html-keyboard-response","123","404231","0.0-70.0-1.0","""event"",""trial"",""time""
""fullscreenenter"",""0"",""10011""
","
","
","""event"",""trial"",""time""
""fullscreenenter"",""0"",""10011""
","
","null","<p></p>","null","","","","","","","","","","","","","","","","","","","","","","","",""
"","do_trial","124","407367","0.0-71.0-0.0","""event"",""trial"",""time""
""fullscreenenter"",""0"",""10011""
","
","
","""event"",""trial"",""time""
""fullscreenenter"",""0"",""10011""
","
","613.6999998092651","","","","","","","","51","0,1,1","6","blank","282","null","0.05689295386865373","0.5113096698767868","0.21160018450646054","1","","","","","","","","",""
"","html-keyboard-response","125","408371","0.0-71.0-1.0","""event"",""trial"",""time""
""fullscreenenter"",""0"",""10011""
","
","
","""event"",""trial"",""time""
""fullscreenenter"",""0"",""10011""
","
","null","<p></p>","null","","","","","","","","","","","","","","","","","","","","","","","",""
"","do_recog","126","412626","0.0-72.0-0.0","""event"",""trial"",""time""
""fullscreenenter"",""0"",""10011""
","
","
","""event"",""trial"",""time""
""fullscreenenter"",""0"",""10011""
","
","2748.699999809265","","","","","","","","55","","","","283","probe-66","","","","","1","[object Object]","192","4","0","","","",""
"","html-keyboard-response","127","413633","0.0-72.0-1.0","""event"",""trial"",""time""
""fullscreenenter"",""0"",""10011""
","
","
","""event"",""trial"",""time""
""fullscreenenter"",""0"",""10011""
","
","null","<p></p>","null","","","","","","","","","","","","","","","","","","","","","","","",""
"","do_trial","128","417531","0.0-73.0-0.0","""event"",""trial"",""time""
""fullscreenenter"",""0"",""10011""
","
","
","""event"",""trial"",""time""
""fullscreenenter"",""0"",""10011""
","
","1363.8000001907349","","","","","","","","51","0,1,0","6","blank","284","null","0.14875424718302568","0.4595340694798925","0.20156669138258265","0","","","","","","","","",""
"","html-keyboard-response","129","418536","0.0-73.0-1.0","""event"",""trial"",""time""
""fullscreenenter"",""0"",""10011""
","
","
","""event"",""trial"",""time""
""fullscreenenter"",""0"",""10011""
","
","null","<p></p>","null","","","","","","","","","","","","","","","","","","","","","","","",""
"","do_recog","130","421315","0.0-74.0-0.0","""event"",""trial"",""time""
""fullscreenenter"",""0"",""10011""
","
","
","""event"",""trial"",""time""
""fullscreenenter"",""0"",""10011""
","
","1271.2000002861023","","","","","","","","56","","","","285","probe-244","","","","","0","[object Object]","null","null","1","","","",""
"","html-keyboard-response","131","422321","0.0-74.0-1.0","""event"",""trial"",""time""
""fullscreenenter"",""0"",""10011""
","
","
","""event"",""trial"",""time""
""fullscreenenter"",""0"",""10011""
","
","null","<p></p>","null","","","","","","","","","","","","","","","","","","","","","","","",""
"","do_trial","132","425595","0.0-75.0-0.0","""event"",""trial"",""time""
""fullscreenenter"",""0"",""10011""
","
","
","""event"",""trial"",""time""
""fullscreenenter"",""0"",""10011""
","
","747.2999997138977","","","","","","","","51","0,1,0","6","blank","286","null","0.06985140889344695","0.43455044197267195","0.21428703484882847","0","","","","","","","","",""
"","html-keyboard-response","133","426598","0.0-75.0-1.0","""event"",""trial"",""time""
""fullscreenenter"",""0"",""10011""
","
","
","""event"",""trial"",""time""
""fullscreenenter"",""0"",""10011""
","
","null","<p></p>","null","","","","","","","","","","","","","","","","","","","","","","","",""
"","do_trial","134","429823","0.0-76.0-0.0","""event"",""trial"",""time""
""fullscreenenter"",""0"",""10011""
","
","
","""event"",""trial"",""time""
""fullscreenenter"",""0"",""10011""
","
","697.6000003814697","","","","","","","","49","1,1,1","6","blank","287","null","0.1350881822402685","0.670036998929637","0.23617728072537109","1","","","","","","","","",""
"","html-keyboard-response","135","430826","0.0-76.0-1.0","""event"",""trial"",""time""
""fullscreenenter"",""0"",""10011""
","
","
","""event"",""trial"",""time""
""fullscreenenter"",""0"",""10011""
","
","null","<p></p>","null","","","","","","","","","","","","","","","","","","","","","","","",""
"","do_trial","136","433783","0.0-77.0-0.0","""event"",""trial"",""time""
""fullscreenenter"",""0"",""10011""
","
","
","""event"",""trial"",""time""
""fullscreenenter"",""0"",""10011""
","
","437","","","","","","","","49","0,1,0","6","blank","288","null","0.1320580552685152","0.7841827956019518","0.23007880948003942","0","","","","","","","","",""
"","html-keyboard-response","137","434784","0.0-77.0-1.0","""event"",""trial"",""time""
""fullscreenenter"",""0"",""10011""
","
","
","""event"",""trial"",""time""
""fullscreenenter"",""0"",""10011""
","
","null","<p></p>","null","","","","","","","","","","","","","","","","","","","","","","","",""
"","do_trial","138","437677","0.0-78.0-0.0","""event"",""trial"",""time""
""fullscreenenter"",""0"",""10011""
","
","
","""event"",""trial"",""time""
""fullscreenenter"",""0"",""10011""
","
","365.69999980926514","","","","","","","","49","0,1,0","6","blank","289","null","0.12367811673340288","0.6398754619598085","0.3528729452458593","0","","","","","","","","",""
"","html-keyboard-response","139","438680","0.0-78.0-1.0","""event"",""trial"",""time""
""fullscreenenter"",""0"",""10011""
","
","
","""event"",""trial"",""time""
""fullscreenenter"",""0"",""10011""
","
","null","<p></p>","null","","","","","","","","","","","","","","","","","","","","","","","",""
"","do_recog","140","441781","0.0-79.0-0.0","""event"",""trial"",""time""
""fullscreenenter"",""0"",""10011""
","
","
","""event"",""trial"",""time""
""fullscreenenter"",""0"",""10011""
","
","1593.5999999046326","","","","","","","","53","","","","290","probe-180","","","","","1","[object Object]","76","1","1","","","",""
"","html-keyboard-response","141","442782","0.0-79.0-1.0","""event"",""trial"",""time""
""fullscreenenter"",""0"",""10011""
","
","
","""event"",""trial"",""time""
""fullscreenenter"",""0"",""10011""
","
","null","<p></p>","null","","","","","","","","","","","","","","","","","","","","","","","",""
"","do_trial","142","445923","0.0-80.0-0.0","""event"",""trial"",""time""
""fullscreenenter"",""0"",""10011""
","
","
","""event"",""trial"",""time""
""fullscreenenter"",""0"",""10011""
","
","617.7999997138977","","","","","","","","50","0,0,0","6","blank","291","null","0.24812960736177964","0.6580808668667132","0.405548119272264","0","","","","","","","","",""
"","html-keyboard-response","143","446928","0.0-80.0-1.0","""event"",""trial"",""time""
""fullscreenenter"",""0"",""10011""
","
","
","""event"",""trial"",""time""
""fullscreenenter"",""0"",""10011""
","
","null","<p></p>","null","","","","","","","","","","","","","","","","","","","","","","","",""
"","do_trial","144","449823","0.0-81.0-0.0","""event"",""trial"",""time""
""fullscreenenter"",""0"",""10011""
","
","
","""event"",""trial"",""time""
""fullscreenenter"",""0"",""10011""
","
","370.09999990463257","","","","","","","","50","0,1,0","6","blank","292","null","0.39188478677918914","0.5987622025057188","0.4722862229346902","1","","","","","","","","",""
"","html-keyboard-response","145","450825","0.0-81.0-1.0","""event"",""trial"",""time""
""fullscreenenter"",""0"",""10011""
","
","
","""event"",""trial"",""time""
""fullscreenenter"",""0"",""10011""
","
","null","<p></p>","null","","","","","","","","","","","","","","","","","","","","","","","",""
"","do_trial","146","453697","0.0-82.0-0.0","""event"",""trial"",""time""
""fullscreenenter"",""0"",""10011""
","
","
","""event"",""trial"",""time""
""fullscreenenter"",""0"",""10011""
","
","346.5","","","","","","","","50","1,0,1","6","blank","293","null","0.27073296808000935","0.6703293447194375","0.4844636946341468","0","","","","","","","","",""
"","html-keyboard-response","147","454703","0.0-82.0-1.0","""event"",""trial"",""time""
""fullscreenenter"",""0"",""10011""
","
","
","""event"",""trial"",""time""
""fullscreenenter"",""0"",""10011""
","
","null","<p></p>","null","","","","","","","","","","","","","","","","","","","","","","","",""
"","do_trial","148","457790","0.0-83.0-0.0","""event"",""trial"",""time""
""fullscreenenter"",""0"",""10011""
","
","
","""event"",""trial"",""time""
""fullscreenenter"",""0"",""10011""
","
","560.0999999046326","","","","","","","","51","0,0,0","6","blank","294","null","0.3619084746311369","0.48524545942228403","0.46158567667040684","0","","","","","","","","",""
"","html-keyboard-response","149","458797","0.0-83.0-1.0","""event"",""trial"",""time""
""fullscreenenter"",""0"",""10011""
","
","
","""event"",""trial"",""time""
""fullscreenenter"",""0"",""10011""
","
","null","<p></p>","null","","","","","","","","","","","","","","","","","","","","","","","",""
"","do_trial","150","461860","0.0-84.0-0.0","""event"",""trial"",""time""
""fullscreenenter"",""0"",""10011""
","
","
","""event"",""trial"",""time""
""fullscreenenter"",""0"",""10011""
","
","535.9000000953674","","","","","","","","51","0,1,0","6","blank","295","null","0.35965792396729973","0.34456043969229555","0.3211146279266442","0","","","","","","","","",""
"","html-keyboard-response","151","462866","0.0-84.0-1.0","""event"",""trial"",""time""
""fullscreenenter"",""0"",""10011""
","
","
","""event"",""trial"",""time""
""fullscreenenter"",""0"",""10011""
","
","null","<p></p>","null","","","","","","","","","","","","","","","","","","","","","","","",""
"","do_trial","152","465874","0.0-85.0-0.0","""event"",""trial"",""time""
""fullscreenenter"",""0"",""10011""
","
","
","""event"",""trial"",""time""
""fullscreenenter"",""0"",""10011""
","
","479.59999990463257","","","","","","","","51","1,0,0","6","blank","296","null","0.39892666720505","0.2776534944577094","0.25016641869311224","0","","","","","","","","",""
"","html-keyboard-response","153","466881","0.0-85.0-1.0","""event"",""trial"",""time""
""fullscreenenter"",""0"",""10011""
","
","
","""event"",""trial"",""time""
""fullscreenenter"",""0"",""10011""
","
","null","<p></p>","null","","","","","","","","","","","","","","","","","","","","","","","",""
"","do_recog","154","470020","0.0-86.0-0.0","""event"",""trial"",""time""
""fullscreenenter"",""0"",""10011""
","
","
","""event"",""trial"",""time""
""fullscreenenter"",""0"",""10011""
","
","1632.0999999046326","","","","","","","","53","","","","297","probe-04","","","","","1","[object Object]","75","1","1","","","",""
"","html-keyboard-response","155","471026","0.0-86.0-1.0","""event"",""trial"",""time""
""fullscreenenter"",""0"",""10011""
","
","
","""event"",""trial"",""time""
""fullscreenenter"",""0"",""10011""
","
","null","<p></p>","null","","","","","","","","","","","","","","","","","","","","","","","",""
"","do_trial","156","474451","0.0-87.0-0.0","""event"",""trial"",""time""
""fullscreenenter"",""0"",""10011""
","
","
","""event"",""trial"",""time""
""fullscreenenter"",""0"",""10011""
","
","897.8000001907349","","","","","","","","50","1,0,0","6","blank","298","null","0.5743277590519055","0.353116231804839","0.12699748952144677","0","","","","","","","","",""
"","html-keyboard-response","157","475452","0.0-87.0-1.0","""event"",""trial"",""time""
""fullscreenenter"",""0"",""10011""
","
","
","""event"",""trial"",""time""
""fullscreenenter"",""0"",""10011""
","
","null","<p></p>","null","","","","","","","","","","","","","","","","","","","","","","","",""
"","do_trial","158","478352","0.0-88.0-0.0","""event"",""trial"",""time""
""fullscreenenter"",""0"",""10011""
","
","
","""event"",""trial"",""time""
""fullscreenenter"",""0"",""10011""
","
","373","","","","","","","","50","1,0,0","6","blank","299","null","0.5425483063956597","0.3308028742091323","0.12013636972050014","0","","","","","","","","",""
"","html-keyboard-response","159","479358","0.0-88.0-1.0","""event"",""trial"",""time""
""fullscreenenter"",""0"",""10011""
","
","
","""event"",""trial"",""time""
""fullscreenenter"",""0"",""10011""
","
","null","<p></p>","null","","","","","","","","","","","","","","","","","","","","","","","",""
"","do_trial","160","482363","0.0-89.0-0.0","""event"",""trial"",""time""
""fullscreenenter"",""0"",""10011""
","
","
","""event"",""trial"",""time""
""fullscreenenter"",""0"",""10011""
","
","478.19999980926514","","","","","","","","50","1,1,1","6","blank","300","null","0.5877458566646908","0.3448804143363383","0.06857090710464839","1","","","","","","","","",""
"","html-keyboard-response","161","483369","0.0-89.0-1.0","""event"",""trial"",""time""
""fullscreenenter"",""0"",""10011""
","
","
","""event"",""trial"",""time""
""fullscreenenter"",""0"",""10011""
","
","null","<p></p>","null","","","","","","","","","","","","","","","","","","","","","","","",""
"","do_trial","162","486222","0.0-90.0-0.0","""event"",""trial"",""time""
""fullscreenenter"",""0"",""10011""
","
","
","""event"",""trial"",""time""
""fullscreenenter"",""0"",""10011""
","
","327.5","","","","","","","","50","1,0,0","6","blank","301","null","0.6838402952281222","0.4218107254430322","0.07337398337738346","0","","","","","","","","",""
"","html-keyboard-response","163","487228","0.0-90.0-1.0","""event"",""trial"",""time""
""fullscreenenter"",""0"",""10011""
","
","
","""event"",""trial"",""time""
""fullscreenenter"",""0"",""10011""
","
","null","<p></p>","null","","","","","","","","","","","","","","","","","","","","","","","",""
"","do_trial","164","490115","0.0-91.0-0.0","""event"",""trial"",""time""
""fullscreenenter"",""0"",""10011""
","
","
","""event"",""trial"",""time""
""fullscreenenter"",""0"",""10011""
","
","361.40000009536743","","","","","","","","50","1,0,0","6","blank","302","null","0.5411805605961871","0.1815209033857514","0.05623973020379735","0","","","","","","","","",""
"","html-keyboard-response","165","491118","0.0-91.0-1.0","""event"",""trial"",""time""
""fullscreenenter"",""0"",""10011""
","
","
","""event"",""trial"",""time""
""fullscreenenter"",""0"",""10011""
","
","null","<p></p>","null","","","","","","","","","","","","","","","","","","","","","","","",""
"","do_trial","166","494049","0.0-92.0-0.0","""event"",""trial"",""time""
""fullscreenenter"",""0"",""10011""
","
","
","""event"",""trial"",""time""
""fullscreenenter"",""0"",""10011""
","
","403.80000019073486","","","","","","","","50","0,0,1","6","blank","303","null","0.5517879146581607","0.27456197961814854","0.076855123167839","0","","","","","","","","",""
"","html-keyboard-response","167","495055","0.0-92.0-1.0","""event"",""trial"",""time""
""fullscreenenter"",""0"",""10011""
","
","
","""event"",""trial"",""time""
""fullscreenenter"",""0"",""10011""
","
","null","<p></p>","null","","","","","","","","","","","","","","","","","","","","","","","",""
"","do_trial","168","497902","0.0-93.0-0.0","""event"",""trial"",""time""
""fullscreenenter"",""0"",""10011""
","
","
","""event"",""trial"",""time""
""fullscreenenter"",""0"",""10011""
","
","323","","","","","","","","50","1,1,0","6","blank","304","null","0.5934362552520153","0.24187635788965253","0.08047084607890222","1","","","","","","","","",""
"","html-keyboard-response","169","498907","0.0-93.0-1.0","""event"",""trial"",""time""
""fullscreenenter"",""0"",""10011""
","
","
","""event"",""trial"",""time""
""fullscreenenter"",""0"",""10011""
","
","null","<p></p>","null","","","","","","","","","","","","","","","","","","","","","","","",""
"","do_recog","170","501873","0.0-94.0-0.0","""event"",""trial"",""time""
""fullscreenenter"",""0"",""10011""
","
","
","""event"",""trial"",""time""
""fullscreenenter"",""0"",""10011""
","
","1459.8000001907349","","","","","","","","53","","","","305","probe-219","","","","","1","[object Object]","157","3","1","","","",""
"","html-keyboard-response","171","502880","0.0-94.0-1.0","""event"",""trial"",""time""
""fullscreenenter"",""0"",""10011""
","
","
","""event"",""trial"",""time""
""fullscreenenter"",""0"",""10011""
","
","null","<p></p>","null","","","","","","","","","","","","","","","","","","","","","","","",""
"","do_trial","172","505949","0.0-95.0-0.0","""event"",""trial"",""time""
""fullscreenenter"",""0"",""10011""
","
","
","""event"",""trial"",""time""
""fullscreenenter"",""0"",""10011""
","
","542.2999997138977","","","","","","","","50","1,0,0","6","blank","306","null","0.6497438996618112","0.12654275733051423","0.06922436240095563","0","","","","","","","","",""
"","html-keyboard-response","173","506951","0.0-95.0-1.0","""event"",""trial"",""time""
""fullscreenenter"",""0"",""10011""
","
","
","""event"",""trial"",""time""
""fullscreenenter"",""0"",""10011""
","
","null","<p></p>","null","","","","","","","","","","","","","","","","","","","","","","","",""
"","do_trial","174","510326","0.0-96.0-0.0","""event"",""trial"",""time""
""fullscreenenter"",""0"",""10011""
","
","
","""event"",""trial"",""time""
""fullscreenenter"",""0"",""10011""
","
","849.5999999046326","","","","","","","","49","1,0,0","6","blank","307","null","0.515918585433593","0.38583086044964876","0.0859615201805173","1","","","","","","","","",""
"","html-keyboard-response","175","511330","0.0-96.0-1.0","""event"",""trial"",""time""
""fullscreenenter"",""0"",""10011""
","
","
","""event"",""trial"",""time""
""fullscreenenter"",""0"",""10011""
","
","null","<p></p>","null","","","","","","","","","","","","","","","","","","","","","","","",""
"","do_trial","176","514357","0.0-97.0-0.0","""event"",""trial"",""time""
""fullscreenenter"",""0"",""10011""
","
","
","""event"",""trial"",""time""
""fullscreenenter"",""0"",""10011""
","
","499.09999990463257","","","","","","","","49","0,1,0","6","blank","308","null","0.47117074837894846","0.4398151636808649","0.10945890085479515","0","","","","","","","","",""
"","html-keyboard-response","177","515363","0.0-97.0-1.0","""event"",""trial"",""time""
""fullscreenenter"",""0"",""10011""
","
","
","""event"",""trial"",""time""
""fullscreenenter"",""0"",""10011""
","
","null","<p></p>","null","","","","","","","","","","","","","","","","","","","","","","","",""
"","break","178","517111","0.0-98.0-0.0","""event"",""trial"",""time""
""fullscreenenter"",""0"",""10011""
","
","
","""event"",""trial"",""time""
""fullscreenenter"",""0"",""10011""
","
","1746.5999999046326","<div class='center'><p>Time to take a quick break! You have 2 minutes to rest, but you can move on sooner if you'd like.</p><p> Press the <b>space bar</b> to continue.</p></div>","32","","","","","","","","","","","","","","","","","","","","","","","",""
"","do_recog","179","519871","0.0-98.0-1.0","""event"",""trial"",""time""
""fullscreenenter"",""0"",""10011""
","
","
","""event"",""trial"",""time""
""fullscreenenter"",""0"",""10011""
","
","1252.9000000953674","","","","","","","","56","","","","309","probe-254","","","","","0","[object Object]","null","null","1","","","",""
"","html-keyboard-response","180","520876","0.0-98.0-2.0","""event"",""trial"",""time""
""fullscreenenter"",""0"",""10011""
","
","
","""event"",""trial"",""time""
""fullscreenenter"",""0"",""10011""
","
","null","<p></p>","null","","","","","","","","","","","","","","","","","","","","","","","",""
"","do_trial","181","524398","0.0-99.0-0.0","""event"",""trial"",""time""
""fullscreenenter"",""0"",""10011""
","
","
","""event"",""trial"",""time""
""fullscreenenter"",""0"",""10011""
","
","994.8999996185303","","","","","","","","49","1,1,0","6","blank","310","null","0.3490015159193493","0.376080842552987","0.19393320341714396","1","","","","","","","","",""
"","html-keyboard-response","182","525403","0.0-99.0-1.0","""event"",""trial"",""time""
""fullscreenenter"",""0"",""10011""
","
","
","""event"",""trial"",""time""
""fullscreenenter"",""0"",""10011""
","
","null","<p></p>","null","","","","","","","","","","","","","","","","","","","","","","","",""
"","do_trial","183","528352","0.0-100.0-0.0","""event"",""trial"",""time""
""fullscreenenter"",""0"",""10011""
","
","
","""event"",""trial"",""time""
""fullscreenenter"",""0"",""10011""
","
","424.80000019073486","","","","","","","","49","0,0,0","6","blank","311","null","0.42203000473161345","0.4344320948708236","0.13837402125768616","0","","","","","","","","",""
"","html-keyboard-response","184","529358","0.0-100.0-1.0","""event"",""trial"",""time""
""fullscreenenter"",""0"",""10011""
","
","
","""event"",""trial"",""time""
""fullscreenenter"",""0"",""10011""
","
","null","<p></p>","null","","","","","","","","","","","","","","","","","","","","","","","",""
"","do_trial","185","532311","0.0-101.0-0.0","""event"",""trial"",""time""
""fullscreenenter"",""0"",""10011""
","
","
","""event"",""trial"",""time""
""fullscreenenter"",""0"",""10011""
","
","427.09999990463257","","","","","","","","49","1,0,0","6","blank","312","null","0.5158686244936004","0.2675340747870071","0.15657053546363967","1","","","","","","","","",""
"","html-keyboard-response","186","533314","0.0-101.0-1.0","""event"",""trial"",""time""
""fullscreenenter"",""0"",""10011""
","
","
","""event"",""trial"",""time""
""fullscreenenter"",""0"",""10011""
","
","null","<p></p>","null","","","","","","","","","","","","","","","","","","","","","","","",""
"","do_trial","187","536240","0.0-102.0-0.0","""event"",""trial"",""time""
""fullscreenenter"",""0"",""10011""
","
","
","""event"",""trial"",""time""
""fullscreenenter"",""0"",""10011""
","
","400.1000003814697","","","","","","","","49","0,1,0","6","blank","313","null","0.673247095771579","0.4253467732341561","0.111490704859519","0","","","","","","","","",""
"","html-keyboard-response","188","537246","0.0-102.0-1.0","""event"",""trial"",""time""
""fullscreenenter"",""0"",""10011""
","
","
","""event"",""trial"",""time""
""fullscreenenter"",""0"",""10011""
","
","null","<p></p>","null","","","","","","","","","","","","","","","","","","","","","","","",""
"","do_trial","189","540124","0.0-103.0-0.0","""event"",""trial"",""time""
""fullscreenenter"",""0"",""10011""
","
","
","""event"",""trial"",""time""
""fullscreenenter"",""0"",""10011""
","
","351.3999996185303","","","","","","","","49","1,1,0","6","blank","314","null","0.678964029437137","0.35868050947169555","0.08405842475438956","1","","","","","","","","",""
"","html-keyboard-response","190","541126","0.0-103.0-1.0","""event"",""trial"",""time""
""fullscreenenter"",""0"",""10011""
","
","
","""event"",""trial"",""time""
""fullscreenenter"",""0"",""10011""
","
","null","<p></p>","null","","","","","","","","","","","","","","","","","","","","","","","",""
"","do_trial","191","544036","0.0-104.0-0.0","""event"",""trial"",""time""
""fullscreenenter"",""0"",""10011""
","
","
","""event"",""trial"",""time""
""fullscreenenter"",""0"",""10011""
","
","384","","","","","","","","49","1,1,0","6","blank","315","null","0.7020473586498094","0.37154712428240966","0.06596431350242507","1","","","","","","","","",""
"","html-keyboard-response","192","545043","0.0-104.0-1.0","""event"",""trial"",""time""
""fullscreenenter"",""0"",""10011""
","
","
","""event"",""trial"",""time""
""fullscreenenter"",""0"",""10011""
","
","null","<p></p>","null","","","","","","","","","","","","","","","","","","","","","","","",""
"","do_recog","193","549458","0.0-105.0-0.0","""event"",""trial"",""time""
""fullscreenenter"",""0"",""10011""
","
","
","""event"",""trial"",""time""
""fullscreenenter"",""0"",""10011""
","
","2907.800000190735","","","","","","","","54","","","","316","probe-140","","","","","1","[object Object]","117","2","1","","","",""
"","html-keyboard-response","194","550461","0.0-105.0-1.0","""event"",""trial"",""time""
""fullscreenenter"",""0"",""10011""
","
","
","""event"",""trial"",""time""
""fullscreenenter"",""0"",""10011""
","
","null","<p></p>","null","","","","","","","","","","","","","","","","","","","","","","","",""
"","do_trial","195","553865","0.0-106.0-0.0","""event"",""trial"",""time""
""fullscreenenter"",""0"",""10011""
","
","
","""event"",""trial"",""time""
""fullscreenenter"",""0"",""10011""
","
","875.9000000953674","","","","","","","","49","1,1,1","6","blank","317","null","0.7708390400106574","0.3136047009048566","0.08659193930711079","1","","","","","","","","",""
"","html-keyboard-response","196","554871","0.0-106.0-1.0","""event"",""trial"",""time""
""fullscreenenter"",""0"",""10011""
","
","
","""event"",""trial"",""time""
""fullscreenenter"",""0"",""10011""
","
","null","<p></p>","null","","","","","","","","","","","","","","","","","","","","","","","",""
"","do_recog","197","558477","0.0-107.0-0.0","""event"",""trial"",""time""
""fullscreenenter"",""0"",""10011""
","
","
","""event"",""trial"",""time""
""fullscreenenter"",""0"",""10011""
","
","2098.300000190735","","","","","","","","54","","","","318","probe-35","","","","","1","[object Object]","156","3","1","","","",""
"","html-keyboard-response","198","559480","0.0-107.0-1.0","""event"",""trial"",""time""
""fullscreenenter"",""0"",""10011""
","
","
","""event"",""trial"",""time""
""fullscreenenter"",""0"",""10011""
","
","null","<p></p>","null","","","","","","","","","","","","","","","","","","","","","","","",""
"","do_trial","199","563006","0.0-108.0-0.0","""event"",""trial"",""time""
""fullscreenenter"",""0"",""10011""
","
","
","""event"",""trial"",""time""
""fullscreenenter"",""0"",""10011""
","
","1000.0999999046326","","","","","","","","49","1,1,0","6","blank","319","null","0.6985530362921604","0.3852263903177761","0.13384691930930323","1","","","","","","","","",""
"","html-keyboard-response","200","564009","0.0-108.0-1.0","""event"",""trial"",""time""
""fullscreenenter"",""0"",""10011""
","
","
","""event"",""trial"",""time""
""fullscreenenter"",""0"",""10011""
","
","null","<p></p>","null","","","","","","","","","","","","","","","","","","","","","","","",""
"","do_recog","201","567033","0.0-109.0-0.0","""event"",""trial"",""time""
""fullscreenenter"",""0"",""10011""
","
","
","""event"",""trial"",""time""
""fullscreenenter"",""0"",""10011""
","
","1518.6000003814697","","","","","","","","53","","","","320","probe-22","","","","","1","[object Object]","198","4","1","","","",""
"","html-keyboard-response","202","568036","0.0-109.0-1.0","""event"",""trial"",""time""
""fullscreenenter"",""0"",""10011""
","
","
","""event"",""trial"",""time""
""fullscreenenter"",""0"",""10011""
","
","null","<p></p>","null","","","","","","","","","","","","","","","","","","","","","","","",""
"","do_trial","203","571303","0.0-110.0-0.0","""event"",""trial"",""time""
""fullscreenenter"",""0"",""10011""
","
","
","""event"",""trial"",""time""
""fullscreenenter"",""0"",""10011""
","
","745.4000000953674","","","","","","","","49","1,0,0","6","blank","321","null","0.7508673236671476","0.30987819283020346","0.19400422925884464","1","","","","","","","","",""
"","html-keyboard-response","204","572308","0.0-110.0-1.0","""event"",""trial"",""time""
""fullscreenenter"",""0"",""10011""
","
","
","""event"",""trial"",""time""
""fullscreenenter"",""0"",""10011""
","
","null","<p></p>","null","","","","","","","","","","","","","","","","","","","","","","","",""
"","do_recog","205","575676","0.0-111.0-0.0","""event"",""trial"",""time""
""fullscreenenter"",""0"",""10011""
","
","
","""event"",""trial"",""time""
""fullscreenenter"",""0"",""10011""
","
","1848.7999997138977","","","","","","","","53","","","","322","probe-204","","","","","1","[object Object]","110","2","1","","","",""
"","html-keyboard-response","206","576678","0.0-111.0-1.0","""event"",""trial"",""time""
""fullscreenenter"",""0"",""10011""
","
","
","""event"",""trial"",""time""
""fullscreenenter"",""0"",""10011""
","
","null","<p></p>","null","","","","","","","","","","","","","","","","","","","","","","","",""
"","do_trial","207","579876","0.0-112.0-0.0","""event"",""trial"",""time""
""fullscreenenter"",""0"",""10011""
","
","
","""event"",""trial"",""time""
""fullscreenenter"",""0"",""10011""
","
","670.5","","","","","","","","49","1,1,0","6","blank","323","null","0.5192122734386648","0.12586225943137572","0.10661394110241926","1","","","","","","","","",""
"","html-keyboard-response","208","580883","0.0-112.0-1.0","""event"",""trial"",""time""
""fullscreenenter"",""0"",""10011""
","
","
","""event"",""trial"",""time""
""fullscreenenter"",""0"",""10011""
","
","null","<p></p>","null","","","","","","","","","","","","","","","","","","","","","","","",""
"","do_recog","209","583624","0.0-113.0-0.0","""event"",""trial"",""time""
""fullscreenenter"",""0"",""10011""
","
","
","""event"",""trial"",""time""
""fullscreenenter"",""0"",""10011""
","
","1232","","","","","","","","53","","","","324","probe-90","","","","","1","[object Object]","191","4","1","","","",""
"","html-keyboard-response","210","584630","0.0-113.0-1.0","""event"",""trial"",""time""
""fullscreenenter"",""0"",""10011""
","
","
","""event"",""trial"",""time""
""fullscreenenter"",""0"",""10011""
","
","null","<p></p>","null","","","","","","","","","","","","","","","","","","","","","","","",""
"","do_trial","211","587917","0.0-114.0-0.0","""event"",""trial"",""time""
""fullscreenenter"",""0"",""10011""
","
","
","""event"",""trial"",""time""
""fullscreenenter"",""0"",""10011""
","
","763.6999998092651","","","","","","","","49","1,0,0","6","blank","325","null","0.6016141344143341","0.25798609980144116","0.05562909808324957","1","","","","","","","","",""
"","html-keyboard-response","212","588922","0.0-114.0-1.0","""event"",""trial"",""time""
""fullscreenenter"",""0"",""10011""
","
","
","""event"",""trial"",""time""
""fullscreenenter"",""0"",""10011""
","
","null","<p></p>","null","","","","","","","","","","","","","","","","","","","","","","","",""
"","do_trial","213","592070","0.0-115.0-0.0","""event"",""trial"",""time""
""fullscreenenter"",""0"",""10011""
","
","
","""event"",""trial"",""time""
""fullscreenenter"",""0"",""10011""
","
","620.4000000953674","","","","","","","","49","0,0,0","6","blank","326","null","0.4151772635670902","0.22752655742493944","0.1741022396997198","0","","","","","","","","",""
"","html-keyboard-response","214","593075","0.0-115.0-1.0","""event"",""trial"",""time""
""fullscreenenter"",""0"",""10011""
","
","
","""event"",""trial"",""time""
""fullscreenenter"",""0"",""10011""
","
","null","<p></p>","null","","","","","","","","","","","","","","","","","","","","","","","",""
"","do_trial","215","596000","0.0-116.0-0.0","""event"",""trial"",""time""
""fullscreenenter"",""0"",""10011""
","
","
","""event"",""trial"",""time""
""fullscreenenter"",""0"",""10011""
","
","398.59999990463257","","","","","","","","49","1,0,0","6","blank","327","null","0.5187454357736279","0.21904239060962255","0.1734067276527089","1","","","","","","","","",""
"","html-keyboard-response","216","597006","0.0-116.0-1.0","""event"",""trial"",""time""
""fullscreenenter"",""0"",""10011""
","
","
","""event"",""trial"",""time""
""fullscreenenter"",""0"",""10011""
","
","null","<p></p>","null","","","","","","","","","","","","","","","","","","","","","","","",""
"","do_trial","217","599944","0.0-117.0-0.0","""event"",""trial"",""time""
""fullscreenenter"",""0"",""10011""
","
","
","""event"",""trial"",""time""
""fullscreenenter"",""0"",""10011""
","
","415.09999990463257","","","","","","","","49","1,0,0","6","blank","328","null","0.5645595698336967","0.29439665280170624","0.19215458595005913","1","","","","","","","","",""
"","html-keyboard-response","218","600950","0.0-117.0-1.0","""event"",""trial"",""time""
""fullscreenenter"",""0"",""10011""
","
","
","""event"",""trial"",""time""
""fullscreenenter"",""0"",""10011""
","
","null","<p></p>","null","","","","","","","","","","","","","","","","","","","","","","","",""
"","do_trial","219","603832","0.0-118.0-0.0","""event"",""trial"",""time""
""fullscreenenter"",""0"",""10011""
","
","
","""event"",""trial"",""time""
""fullscreenenter"",""0"",""10011""
","
","356","","","","","","","","49","1,1,1","6","blank","329","null","0.6351533370833115","0.3978652353078508","0.17005869973637056","1","","","","","","","","",""
"","html-keyboard-response","220","604838","0.0-118.0-1.0","""event"",""trial"",""time""
""fullscreenenter"",""0"",""10011""
","
","
","""event"",""trial"",""time""
""fullscreenenter"",""0"",""10011""
","
","null","<p></p>","null","","","","","","","","","","","","","","","","","","","","","","","",""
"","do_trial","221","607772","0.0-119.0-0.0","""event"",""trial"",""time""
""fullscreenenter"",""0"",""10011""
","
","
","""event"",""trial"",""time""
""fullscreenenter"",""0"",""10011""
","
","406.5","","","","","","","","49","1,0,0","6","blank","330","null","0.7061095400642161","0.39576215950650645","0.1051816674738074","1","","","","","","","","",""
"","html-keyboard-response","222","608778","0.0-119.0-1.0","""event"",""trial"",""time""
""fullscreenenter"",""0"",""10011""
","
","
","""event"",""trial"",""time""
""fullscreenenter"",""0"",""10011""
","
","null","<p></p>","null","","","","","","","","","","","","","","","","","","","","","","","",""
"","do_trial","223","611676","0.0-120.0-0.0","""event"",""trial"",""time""
""fullscreenenter"",""0"",""10011""
","
","
","""event"",""trial"",""time""
""fullscreenenter"",""0"",""10011""
","
","375.09999990463257","","","","","","","","49","1,1,0","6","blank","331","null","0.5175856097776496","0.3481603273154294","0.12239061205359145","1","","","","","","","","",""
"","html-keyboard-response","224","612682","0.0-120.0-1.0","""event"",""trial"",""time""
""fullscreenenter"",""0"",""10011""
","
","
","""event"",""trial"",""time""
""fullscreenenter"",""0"",""10011""
","
","null","<p></p>","null","","","","","","","","","","","","","","","","","","","","","","","",""
"","do_recog","225","615526","0.0-121.0-0.0","""event"",""trial"",""time""
""fullscreenenter"",""0"",""10011""
","
","
","""event"",""trial"",""time""
""fullscreenenter"",""0"",""10011""
","
","1336.5999999046326","","","","","","","","53","","","","332","probe-89","","","","","1","[object Object]","79","1","1","","","",""
"","html-keyboard-response","226","616532","0.0-121.0-1.0","""event"",""trial"",""time""
""fullscreenenter"",""0"",""10011""
","
","
","""event"",""trial"",""time""
""fullscreenenter"",""0"",""10011""
","
","null","<p></p>","null","","","","","","","","","","","","","","","","","","","","","","","",""
"","do_trial","227","619675","0.0-122.0-0.0","""event"",""trial"",""time""
""fullscreenenter"",""0"",""10011""
","
","
","""event"",""trial"",""time""
""fullscreenenter"",""0"",""10011""
","
","616.3999996185303","","","","","","","","49","0,0,0","6","blank","333","null","0.3634471937689874","0.31522970939673917","0.1471578310882294","0","","","","","","","","",""
"","html-keyboard-response","228","620680","0.0-122.0-1.0","""event"",""trial"",""time""
""fullscreenenter"",""0"",""10011""
","
","
","""event"",""trial"",""time""
""fullscreenenter"",""0"",""10011""
","
","null","<p></p>","null","","","","","","","","","","","","","","","","","","","","","","","",""
"","do_trial","229","623572","0.0-123.0-0.0","""event"",""trial"",""time""
""fullscreenenter"",""0"",""10011""
","
","
","""event"",""trial"",""time""
""fullscreenenter"",""0"",""10011""
","
","365.7999997138977","","","","","","","","49","0,0,0","6","blank","334","null","0.6106563423718213","0.33222016909564334","0.13058568689114577","0","","","","","","","","",""
"","html-keyboard-response","230","624575","0.0-123.0-1.0","""event"",""trial"",""time""
""fullscreenenter"",""0"",""10011""
","
","
","""event"",""trial"",""time""
""fullscreenenter"",""0"",""10011""
","
","null","<p></p>","null","","","","","","","","","","","","","","","","","","","","","","","",""
"","do_trial","231","627434","0.0-124.0-0.0","""event"",""trial"",""time""
""fullscreenenter"",""0"",""10011""
","
","
","""event"",""trial"",""time""
""fullscreenenter"",""0"",""10011""
","
","332.69999980926514","","","","","","","","49","1,1,0","6","blank","335","null","0.6230694913045508","0.3434217999927854","0.06846622959941201","1","","","","","","","","",""
"","html-keyboard-response","232","628440","0.0-124.0-1.0","""event"",""trial"",""time""
""fullscreenenter"",""0"",""10011""
","
","
","""event"",""trial"",""time""
""fullscreenenter"",""0"",""10011""
","
","null","<p></p>","null","","","","","","","","","","","","","","","","","","","","","","","",""
"","do_recog","233","631214","0.0-125.0-0.0","""event"",""trial"",""time""
""fullscreenenter"",""0"",""10011""
","
","
","""event"",""trial"",""time""
""fullscreenenter"",""0"",""10011""
","
","1265.6999998092651","","","","","","","","56","","","","336","probe-54","","","","","1","[object Object]","33","0","0","","","",""
"","html-keyboard-response","234","632221","0.0-125.0-1.0","""event"",""trial"",""time""
""fullscreenenter"",""0"",""10011""
","
","
","""event"",""trial"",""time""
""fullscreenenter"",""0"",""10011""
","
","null","<p></p>","null","","","","","","","","","","","","","","","","","","","","","","","",""
"","do_trial","235","635314","0.0-126.0-0.0","""event"",""trial"",""time""
""fullscreenenter"",""0"",""10011""
","
","
","""event"",""trial"",""time""
""fullscreenenter"",""0"",""10011""
","
","565.9000000953674","","","","","","","","49","0,0,0","6","blank","337","null","0.4807373749270875","0.3586719145935501","0.10048953758695581","0","","","","","","","","",""
"","html-keyboard-response","236","636319","0.0-126.0-1.0","""event"",""trial"",""time""
""fullscreenenter"",""0"",""10011""
","
","
","""event"",""trial"",""time""
""fullscreenenter"",""0"",""10011""
","
","null","<p></p>","null","","","","","","","","","","","","","","","","","","","","","","","",""
"","do_trial","237","639383","0.0-127.0-0.0","""event"",""trial"",""time""
""fullscreenenter"",""0"",""10011""
","
","
","""event"",""trial"",""time""
""fullscreenenter"",""0"",""10011""
","
","541","","","","","","","","49","0,0,0","6","blank","338","null","0.37994541180160446","0.2931750334685569","0.11991595255520654","0","","","","","","","","",""
"","html-keyboard-response","238","640385","0.0-127.0-1.0","""event"",""trial"",""time""
""fullscreenenter"",""0"",""10011""
","
","
","""event"",""trial"",""time""
""fullscreenenter"",""0"",""10011""
","
","null","<p></p>","null","","","","","","","","","","","","","","","","","","","","","","","",""
"","do_trial","239","643288","0.0-128.0-0.0","""event"",""trial"",""time""
""fullscreenenter"",""0"",""10011""
","
","
","""event"",""trial"",""time""
""fullscreenenter"",""0"",""10011""
","
","378.69999980926514","","","","","","","","49","1,0,0","6","blank","339","null","0.5799768046232857","0.2816997604053548","0.051465216296089855","1","","","","","","","","",""
"","html-keyboard-response","240","644290","0.0-128.0-1.0","""event"",""trial"",""time""
""fullscreenenter"",""0"",""10011""
","
","
","""event"",""trial"",""time""
""fullscreenenter"",""0"",""10011""
","
","null","<p></p>","null","","","","","","","","","","","","","","","","","","","","","","","",""
"","do_trial","241","647206","0.0-129.0-0.0","""event"",""trial"",""time""
""fullscreenenter"",""0"",""10011""
","
","
","""event"",""trial"",""time""
""fullscreenenter"",""0"",""10011""
","
","389","","","","","","","","49","1,0,0","6","blank","340","null","0.5115113584237369","0.2889876358113846","0.14507658953764824","1","","","","","","","","",""
"","html-keyboard-response","242","648212","0.0-129.0-1.0","""event"",""trial"",""time""
""fullscreenenter"",""0"",""10011""
","
","
","""event"",""trial"",""time""
""fullscreenenter"",""0"",""10011""
","
","null","<p></p>","null","","","","","","","","","","","","","","","","","","","","","","","",""
"","do_recog","243","651663","0.0-130.0-0.0","""event"",""trial"",""time""
""fullscreenenter"",""0"",""10011""
","
","
","""event"",""trial"",""time""
""fullscreenenter"",""0"",""10011""
","
","1942.2000002861023","","","","","","","","55","","","","341","probe-104","","","","","1","[object Object]","153","3","0","","","",""
"","html-keyboard-response","244","652669","0.0-130.0-1.0","""event"",""trial"",""time""
""fullscreenenter"",""0"",""10011""
","
","
","""event"",""trial"",""time""
""fullscreenenter"",""0"",""10011""
","
","null","<p></p>","null","","","","","","","","","","","","","","","","","","","","","","","",""
"","do_trial","245","655793","0.0-131.0-0.0","""event"",""trial"",""time""
""fullscreenenter"",""0"",""10011""
","
","
","""event"",""trial"",""time""
""fullscreenenter"",""0"",""10011""
","
","597.1999998092651","","","","","","","","49","1,0,0","6","blank","342","null","0.6183251440604147","0.18580707237766567","0.17336086373090745","1","","","","","","","","",""
"","html-keyboard-response","246","656799","0.0-131.0-1.0","""event"",""trial"",""time""
""fullscreenenter"",""0"",""10011""
","
","
","""event"",""trial"",""time""
""fullscreenenter"",""0"",""10011""
","
","null","<p></p>","null","","","","","","","","","","","","","","","","","","","","","","","",""
"","do_recog","247","659782","0.0-132.0-0.0","""event"",""trial"",""time""
""fullscreenenter"",""0"",""10011""
","
","
","""event"",""trial"",""time""
""fullscreenenter"",""0"",""10011""
","
","1475.0999999046326","","","","","","","","56","","","","343","probe-245","","","","","0","[object Object]","null","null","1","","","",""
"","html-keyboard-response","248","660786","0.0-132.0-1.0","""event"",""trial"",""time""
""fullscreenenter"",""0"",""10011""
","
","
","""event"",""trial"",""time""
""fullscreenenter"",""0"",""10011""
","
","null","<p></p>","null","","","","","","","","","","","","","","","","","","","","","","","",""
"","do_trial","249","663941","0.0-133.0-0.0","""event"",""trial"",""time""
""fullscreenenter"",""0"",""10011""
","
","
","""event"",""trial"",""time""
""fullscreenenter"",""0"",""10011""
","
","624.5999999046326","","","","","","","","49","0,0,0","6","blank","344","null","0.5339681065374795","0.16486169944296442","0.13076513540241463","0","","","","","","","","",""
"","html-keyboard-response","250","664945","0.0-133.0-1.0","""event"",""trial"",""time""
""fullscreenenter"",""0"",""10011""
","
","
","""event"",""trial"",""time""
""fullscreenenter"",""0"",""10011""
","
","null","<p></p>","null","","","","","","","","","","","","","","","","","","","","","","","",""
"","do_recog","251","667713","0.0-134.0-0.0","""event"",""trial"",""time""
""fullscreenenter"",""0"",""10011""
","
","
","""event"",""trial"",""time""
""fullscreenenter"",""0"",""10011""
","
","1263.5999999046326","","","","","","","","56","","","","345","probe-190","","","","","1","[object Object]","32","0","0","","","",""
"","html-keyboard-response","252","668715","0.0-134.0-1.0","""event"",""trial"",""time""
""fullscreenenter"",""0"",""10011""
","
","
","""event"",""trial"",""time""
""fullscreenenter"",""0"",""10011""
","
","null","<p></p>","null","","","","","","","","","","","","","","","","","","","","","","","",""
"","do_trial","253","671909","0.0-135.0-0.0","""event"",""trial"",""time""
""fullscreenenter"",""0"",""10011""
","
","
","""event"",""trial"",""time""
""fullscreenenter"",""0"",""10011""
","
","665.5","","","","","","","","51","1,0,0","6","blank","346","null","0.5306590869865835","0.19865883088503922","0.06915128942699035","0","","","","","","","","",""
"","html-keyboard-response","254","672910","0.0-135.0-1.0","""event"",""trial"",""time""
""fullscreenenter"",""0"",""10011""
","
","
","""event"",""trial"",""time""
""fullscreenenter"",""0"",""10011""
","
","null","<p></p>","null","","","","","","","","","","","","","","","","","","","","","","","",""
"","do_recog","255","675828","0.0-136.0-0.0","""event"",""trial"",""time""
""fullscreenenter"",""0"",""10011""
","
","
","""event"",""trial"",""time""
""fullscreenenter"",""0"",""10011""
","
","1410.3999996185303","","","","","","","","56","","","","347","probe-12","","","","","1","[object Object]","116","2","0","","","",""
"","html-keyboard-response","256","676834","0.0-136.0-1.0","""event"",""trial"",""time""
""fullscreenenter"",""0"",""10011""
","
","
","""event"",""trial"",""time""
""fullscreenenter"",""0"",""10011""
","
","null","<p></p>","null","","","","","","","","","","","","","","","","","","","","","","","",""
"","do_trial","257","680025","0.0-137.0-0.0","""event"",""trial"",""time""
""fullscreenenter"",""0"",""10011""
","
","
","""event"",""trial"",""time""
""fullscreenenter"",""0"",""10011""
","
","668.5","","","","","","","","51","0,0,0","6","blank","348","null","0.2981469758140975","0.24326305163551323","0.16847596863171738","0","","","","","","","","",""
"","html-keyboard-response","258","681031","0.0-137.0-1.0","""event"",""trial"",""time""
""fullscreenenter"",""0"",""10011""
","
","
","""event"",""trial"",""time""
""fullscreenenter"",""0"",""10011""
","
","null","<p></p>","null","","","","","","","","","","","","","","","","","","","","","","","",""
"","break","259","688730","0.0-138.0-0.0","""event"",""trial"",""time""
""fullscreenenter"",""0"",""10011""
","
","
","""event"",""trial"",""time""
""fullscreenenter"",""0"",""10011""
","
","7697.799999713898","<div class='center'><p>Time to take a quick break! You have 2 minutes to rest, but you can move on sooner if you'd like.</p><p> Press the <b>space bar</b> to continue.</p></div>","32","","","","","","","","","","","","","","","","","","","","","","","",""
"","do_trial","260","692526","0.0-138.0-1.0","""event"",""trial"",""time""
""fullscreenenter"",""0"",""10011""
","
","
","""event"",""trial"",""time""
""fullscreenenter"",""0"",""10011""
","
","1271.0999999046326","","","","","","","","51","1,0,0","6","blank","349","null","0.20151072918848084","0.3602806849920566","0.45750425852221505","0","","","","","","","","",""
"","html-keyboard-response","261","693529","0.0-138.0-2.0","""event"",""trial"",""time""
""fullscreenenter"",""0"",""10011""
","
","
","""event"",""trial"",""time""
""fullscreenenter"",""0"",""10011""
","
","null","<p></p>","null","","","","","","","","","","","","","","","","","","","","","","","",""
"","do_trial","262","696607","0.0-139.0-0.0","""event"",""trial"",""time""
""fullscreenenter"",""0"",""10011""
","
","
","""event"",""trial"",""time""
""fullscreenenter"",""0"",""10011""
","
","555.9000000953674","","","","","","","","50","0,1,0","6","blank","350","null","0.09084965853854528","0.5437312591905471","0.5196782418580848","1","","","","","","","","",""
"","html-keyboard-response","263","697613","0.0-139.0-1.0","""event"",""trial"",""time""
""fullscreenenter"",""0"",""10011""
","
","
","""event"",""trial"",""time""
""fullscreenenter"",""0"",""10011""
","
","null","<p></p>","null","","","","","","","","","","","","","","","","","","","","","","","",""
"","do_trial","264","700487","0.0-140.0-0.0","""event"",""trial"",""time""
""fullscreenenter"",""0"",""10011""
","
","
","""event"",""trial"",""time""
""fullscreenenter"",""0"",""10011""
","
","351.19999980926514","","","","","","","","50","0,0,1","6","blank","351","null","0.16917164446699196","0.5801501609655496","0.44703889142444847","0","","","","","","","","",""
"","html-keyboard-response","265","701491","0.0-140.0-1.0","""event"",""trial"",""time""
""fullscreenenter"",""0"",""10011""
","
","
","""event"",""trial"",""time""
""fullscreenenter"",""0"",""10011""
","
","null","<p></p>","null","","","","","","","","","","","","","","","","","","","","","","","",""
"","do_trial","266","704387","0.0-141.0-0.0","""event"",""trial"",""time""
""fullscreenenter"",""0"",""10011""
","
","
","""event"",""trial"",""time""
""fullscreenenter"",""0"",""10011""
","
","369","","","","","","","","50","0,1,0","6","blank","352","null","0.11561099061504475","0.4404686208404849","0.5133017111392664","1","","","","","","","","",""
"","html-keyboard-response","267","705391","0.0-141.0-1.0","""event"",""trial"",""time""
""fullscreenenter"",""0"",""10011""
","
","
","""event"",""trial"",""time""
""fullscreenenter"",""0"",""10011""
","
","null","<p></p>","null","","","","","","","","","","","","","","","","","","","","","","","",""
"","do_recog","268","708097","0.0-142.0-0.0","""event"",""trial"",""time""
""fullscreenenter"",""0"",""10011""
","
","
","""event"",""trial"",""time""
""fullscreenenter"",""0"",""10011""
","
","1197.5999999046326","","","","","","","","53","","","","353","probe-120","","","","","1","[object Object]","158","3","1","","","",""
"","html-keyboard-response","269","709103","0.0-142.0-1.0","""event"",""trial"",""time""
""fullscreenenter"",""0"",""10011""
","
","
","""event"",""trial"",""time""
""fullscreenenter"",""0"",""10011""
","
","null","<p></p>","null","","","","","","","","","","","","","","","","","","","","","","","",""
"","do_trial","270","712145","0.0-143.0-0.0","""event"",""trial"",""time""
""fullscreenenter"",""0"",""10011""
","
","
","""event"",""trial"",""time""
""fullscreenenter"",""0"",""10011""
","
","518.9000000953674","","","","","","","","50","0,0,0","6","blank","354","null","0.07883653279413039","0.5309495474151116","0.44852182532986445","0","","","","","","","","",""
"","html-keyboard-response","271","713148","0.0-143.0-1.0","""event"",""trial"",""time""
""fullscreenenter"",""0"",""10011""
","
","
","""event"",""trial"",""time""
""fullscreenenter"",""0"",""10011""
","
","null","<p></p>","null","","","","","","","","","","","","","","","","","","","","","","","",""
"","do_trial","272","716042","0.0-144.0-0.0","""event"",""trial"",""time""
""fullscreenenter"",""0"",""10011""
","
","
","""event"",""trial"",""time""
""fullscreenenter"",""0"",""10011""
","
","369.69999980926514","","","","","","","","50","0,0,0","6","blank","355","null","0.11530962436605617","0.5324488801551064","0.5553420832751434","0","","","","","","","","",""
"","html-keyboard-response","273","717048","0.0-144.0-1.0","""event"",""trial"",""time""
""fullscreenenter"",""0"",""10011""
","
","
","""event"",""trial"",""time""
""fullscreenenter"",""0"",""10011""
","
","null","<p></p>","null","","","","","","","","","","","","","","","","","","","","","","","",""
"","do_trial","274","719922","0.0-145.0-0.0","""event"",""trial"",""time""
""fullscreenenter"",""0"",""10011""
","
","
","""event"",""trial"",""time""
""fullscreenenter"",""0"",""10011""
","
","346.3999996185303","","","","","","","","50","0,0,0","6","blank","356","null","0.18078258162088326","0.416720288457578","0.6699987718600435","0","","","","","","","","",""
"","html-keyboard-response","275","720924","0.0-145.0-1.0","""event"",""trial"",""time""
""fullscreenenter"",""0"",""10011""
","
","
","""event"",""trial"",""time""
""fullscreenenter"",""0"",""10011""
","
