"success","trial_type","trial_index","time_elapsed","internal_node_id","interactions","blur_events","focus_events","fullscreenenter_events","fullscreenexit_events","rt","stimulus","key_press","subject_id","participant_id","age","gender","prompt","response","choice_outcomes","context_n","context_img_id","trial_n","probe_img_id","pR_red","pR_white","pR_black","outcome","is_valid","image_to_show","probed_trial","probed_context","correct","probe","probed_trial_n","probed_context_n","context_im"
"true","fullscreen","0","4496","0.0-0.0","""event"",""trial"",""time""
""fullscreenenter"",""0"",""3531""
","
","
","""event"",""trial"",""time""
""fullscreenenter"",""0"",""3531""
","
","","","","","","","","","","","","","","","","","","","","","","","","","","",""
"","pavlovia","1","4502","0.0-1.0","""event"",""trial"",""time""
""fullscreenenter"",""0"",""3531""
","
","
","""event"",""trial"",""time""
""fullscreenenter"",""0"",""3531""
","
","","","","","","","","","","","","","","","","","","","","","","","","","","",""
"","welc_back","2","14345","0.0-2.0","""event"",""trial"",""time""
""fullscreenenter"",""0"",""3531""
","
","
","""event"",""trial"",""time""
""fullscreenenter"",""0"",""3531""
","
","null","run_exp/static/audio/clip_29_welcome_back.m4a","null","453","918","22","Male","<div class='center'><p>Welcome to day 2!</p><p> Yesterday, you were the head captain of a pirate ship. You asked your fellow pirates to rob other ships of their gold across six different islands.</p></div>","","","","","","","","","","","","","","","","","","",""
"","html-keyboard-response","3","16018","0.0-3.0","""event"",""trial"",""time""
""fullscreenenter"",""0"",""3531""
","
","
","""event"",""trial"",""time""
""fullscreenenter"",""0"",""3531""
","
","1672.0999999940395","<div class='center'><p>Welcome to day 2!</p><p> Yesterday, you were the head captain of a pirate ship. You asked your fellow pirates to rob other ships of their gold across six different islands.</p><p><b>[Press the space bar to continue]</b></p></div>","32","","","","","","","","","","","","","","","","","","","","","","","",""
"","day_1_summary_goal","4","33221","0.0-4.0","""event"",""trial"",""time""
""fullscreenenter"",""0"",""3531""
","
","
","""event"",""trial"",""time""
""fullscreenenter"",""0"",""3531""
","
","null","run_exp/static/audio/clip_30_goal_of_game.m4a","null","","","","","<div class='center'><p>Today, like yesterday, you get to pick which pirate you want to rob the next ship.</p><p>If the pirate is successful in robbing a ship, you get gold coins that look like this: </p><p><img src='run_exp/static/images/tutorial/reward.png' height='150'></p><p> If they were not successful in robbing the ship, then you will get no gold coins and you'll see a big red x like this: </p><p><img src='run_exp/static/images/tutorial/reward_no.png' height='150'></p></div>","","","","","","","","","","","","","","","","","","",""
"","html-keyboard-response","5","38202","0.0-5.0","""event"",""trial"",""time""
""fullscreenenter"",""0"",""3531""
","
","
","""event"",""trial"",""time""
""fullscreenenter"",""0"",""3531""
","
","4978.89999999851","<div class='center'><p>Today, like yesterday, you get to pick which pirate you want to rob the next ship.</p><p>If the pirate is successful in robbing a ship, you get gold coins that look like this: </p><p><img src='run_exp/static/images/tutorial/reward.png' height='150'></p><p> If they were not successful in robbing the ship, then you will get no gold coins and you'll see a big red x like this: </p><p><img src='run_exp/static/images/tutorial/reward_no.png' height='150'></p><p><b>[Press the space bar to continue]</b></p></div>","32","","","","","","","","","","","","","","","","","","","","","","","",""
"","day_1_summary_pick","6","52889","0.0-6.0","""event"",""trial"",""time""
""fullscreenenter"",""0"",""3531""
","
","
","""event"",""trial"",""time""
""fullscreenenter"",""0"",""3531""
","
","null","run_exp/static/audio/clip_31_how_to_pick_a_pirate.m4a","null","","","","","<div class='center'><p>Also, just like yesterday, you will use the 1,2,3 keys on your keyboard to pick a pirate. Press '1' to choose red beard, '2' to choose white beard, and '3' to choose black beard . You only have 3 seconds to pick a pirate, so please make a choice quickly!</p></div>","","","","","","","","","","","","","","","","","","",""
"","html-keyboard-response","7","60293","0.0-7.0","""event"",""trial"",""time""
""fullscreenenter"",""0"",""3531""
","
","
","""event"",""trial"",""time""
""fullscreenenter"",""0"",""3531""
","
","7403.20000000298","<div class='center'><p>Also, just like yesterday, you will use the 1,2,3 keys on your keyboard to pick a pirate. Press '1' to choose red beard, '2' to choose white beard, and '3' to choose black beard . You only have 3 seconds to pick a pirate, so please make a choice quickly!</p><p><b>[Press the space bar to continue]</b></p></div>","32","","","","","","","","","","","","","","","","","","","","","","","",""
"","test_phase_begin","8","90691","0.0-8.0","""event"",""trial"",""time""
""fullscreenenter"",""0"",""3531""
","
","
","""event"",""trial"",""time""
""fullscreenenter"",""0"",""3531""
","
","null","run_exp/static/audio/clip_32_final_place.m4a","null","","","","","<div class='center'><p>You’ve arrived at the final island of your journey! Unfortunately, it’s very foggy out, so you won’t be able to see it in the distance like the other islands you've visited.</p><p>You’ll still be deciding which pirate you want to rob a ship like before. However, because of the fog, you also won’t be able to see the ship.</p><p>This means you do not have to remember the ships you rob on this island.</p><p>Unlike yesterday, you won't be visiting multiple islands today. You will stay on this island for the entire game. This game will last ~30 minutes.</p></div>","","","","","","","","","","","","","","","","","","",""
"","html-keyboard-response","9","92562","0.0-9.0","""event"",""trial"",""time""
""fullscreenenter"",""0"",""3531""
","
","
","""event"",""trial"",""time""
""fullscreenenter"",""0"",""3531""
","
","1870.2000000029802","<div class='center'><p>You’ve arrived at the final island of your journey! Unfortunately, it’s very foggy out, so you won’t be able to see it in the distance like the other islands you've visited.</p><p>You’ll still be deciding which pirate you want to rob a ship like before. However, because of the fog, you also won’t be able to see the ship.</p><p>This means you do not have to remember the ships you rob on this island.</p><p>Unlike yesterday, you won't be visiting multiple islands today. You will stay on this island for the entire game. This game will last ~30 minutes.</p><p><b>[Press the space bar to continue]</b></p></div>","32","","","","","","","","","","","","","","","","","","","","","","","",""
"","explain_probe_1","10","100280","0.0-10.0","""event"",""trial"",""time""
""fullscreenenter"",""0"",""3531""
","
","
","""event"",""trial"",""time""
""fullscreenenter"",""0"",""3531""
","
","null","run_exp/static/audio/clip_33_recognition_1.m4a","null","","","","","<div class='center'><p> Sometimes you’ll be shown a ship, and you will be asked if you saw this ship on a past island.</p><p> Here is an example of what you will see.</p><p><img src='run_exp/static/images/tutorial/example_recog_trial.png' height='500'></p></div>","","","","","","","","","","","","","","","","","","",""
"","html-keyboard-response","11","103772","0.0-11.0","""event"",""trial"",""time""
""fullscreenenter"",""0"",""3531""
","
","
","""event"",""trial"",""time""
""fullscreenenter"",""0"",""3531""
","
","3490.5","<div class='center'><p> Sometimes you’ll be shown a ship, and you will be asked if you saw this ship on a past island.</p><p> Here is an example of what you will see.</p><p><img src='run_exp/static/images/tutorial/example_recog_trial.png' height='500'></p><p><b>[Press the space bar to continue]</b></p></div>","32","","","","","","","","","","","","","","","","","","","","","","","",""
"","explain_probe_2","12","125497","0.0-12.0","""event"",""trial"",""time""
""fullscreenenter"",""0"",""3531""
","
","
","""event"",""trial"",""time""
""fullscreenenter"",""0"",""3531""
","
","null","run_exp/static/audio/clip_34_recognition_2.m4a","null","","","","","<div class='center'><p> You will press the 5, 6, 7, 8 keys on your keyboard to respond.</p><p>If you are sure you saw the ship, press <b>5</b> on your keyboard.</p><p> If you think you saw it before but aren't sure, then press <b>6</b>.</p><p> If you think you have <b>not</b> seen it before but aren't sure, then press <b>7</b>.</p><p> If you are sure you did <b>not</b> see the ship before, then press <b>8</b>.</p><p><img src='run_exp/static/images/tutorial/example_recog_trial.png' height='500'></p></div>","","","","","","","","","","","","","","","","","","",""
"","html-keyboard-response","13","126244","0.0-13.0","""event"",""trial"",""time""
""fullscreenenter"",""0"",""3531""
","
","
","""event"",""trial"",""time""
""fullscreenenter"",""0"",""3531""
","
","745.9000000059605","<div class='center'><p> You will press the 5, 6, 7, 8 keys on your keyboard to respond.</p><p>If you are sure you saw the ship, press <b>5</b> on your keyboard.</p><p> If you think you saw it before but aren't sure, then press <b>6</b>.</p><p> If you think you have <b>not</b> seen it before but aren't sure, then press <b>7</b>.</p><p> If you are sure you did <b>not</b> see the ship before, then press <b>8</b>.</p><p><img src='run_exp/static/images/tutorial/example_recog_trial.png' height='500'></p><p><b>[Press the space bar to continue]</b></p></div>","32","","","","","","","","","","","","","","","","","","","","","","","",""
"","explain_outcome","14","143446","0.0-14.0","""event"",""trial"",""time""
""fullscreenenter"",""0"",""3531""
","
","
","""event"",""trial"",""time""
""fullscreenenter"",""0"",""3531""
","
","null","run_exp/static/audio/clip_35_recognition_3.m4a","null","","","","","<div class='center'><p> If you remember correctly, then you’ll get a gold coin like this: </p><p><img src='run_exp/static/images/tutorial/reward_small.png' height='200'></p><p>If you do not remember correctly, then you'll see a red x like this: </p><p><img src='run_exp/static/images/tutorial/reward_no.png' height='200'></p><p>Importantly, when you are shown a ship, take the time to remind yourself which island you saw it on. This will help you in the next part of the study.</p></div>","","","","","","","","","","","","","","","","","","",""
"","html-keyboard-response","15","144489","0.0-15.0","""event"",""trial"",""time""
""fullscreenenter"",""0"",""3531""
","
","
","""event"",""trial"",""time""
""fullscreenenter"",""0"",""3531""
","
","1041.5","<div class='center'><p> If you remember correctly, then you’ll get a gold coin like this: </p><p><img src='run_exp/static/images/tutorial/reward_small.png' height='200'></p><p>If you do not remember correctly, then you'll see a red x like this: </p><p><img src='run_exp/static/images/tutorial/reward_no.png' height='200'></p><p>Importantly, when you are shown a ship, take the time to remind yourself which island you saw it on. This will help you in the next part of the study.</p><p><b>[Press the space bar to continue]</b></p></div>","32","","","","","","","","","","","","","","","","","","","","","","","",""
"","begin_test_phase","16","160303","0.0-16.0","""event"",""trial"",""time""
""fullscreenenter"",""0"",""3531""
","
","
","""event"",""trial"",""time""
""fullscreenenter"",""0"",""3531""
","
","null","run_exp/static/audio/clip_36_begin_final.m4a","null","","","","","<div class='center'><p>Let's go over the important points again. Your job is to: </p><p>1. Pick the pirate who is best at robbing ships and will bring you back gold coins. </p><p>2. Correctly remember whether or not you saw a ship before. If you did see the ship before, remind yourself on which island you saw it. </p></div>","","","","","","","","","","","","","","","","","","",""
"","html-keyboard-response","17","162021","0.0-17.0","""event"",""trial"",""time""
""fullscreenenter"",""0"",""3531""
","
","
","""event"",""trial"",""time""
""fullscreenenter"",""0"",""3531""
","
","1679.5","<div class='center'><p>Let's go over the important points again. Your job is to: </p><p>1. Pick the pirate who is best at robbing ships and will bring you back gold coins. </p><p>2. Correctly remember whether or not you saw a ship before. If you did see the ship before, remind yourself on which island you saw it. </p><p><b>[Press the space bar to continue]</b></p></div>","32","","","","","","","","","","","","","","","","","","","","","","","",""
"","do_welcome","18","166029","0.0-18.0","""event"",""trial"",""time""
""fullscreenenter"",""0"",""3531""
","
","
","""event"",""trial"",""time""
""fullscreenenter"",""0"",""3531""
","
","null","","","","","","","","null","","","","","","","","","","","","","","","","","",""
"","do_trial","19","170605","0.0-19.0-0.0","""event"",""trial"",""time""
""fullscreenenter"",""0"",""3531""
","
","
","""event"",""trial"",""time""
""fullscreenenter"",""0"",""3531""
","
","2027.6000000014901","","","","","","","","51","1,1,0","6","blank","230","null","0.3818974199545442","0.5607846397561995","0.05358679395238978","0","","","","","","","","",""
"","html-keyboard-response","20","171612","0.0-19.0-1.0","""event"",""trial"",""time""
""fullscreenenter"",""0"",""3531""
","
","
","""event"",""trial"",""time""
""fullscreenenter"",""0"",""3531""
","
","null","<p></p>","null","","","","","","","","","","","","","","","","","","","","","","","",""
"","do_trial","21","175224","0.0-20.0-0.0","""event"",""trial"",""time""
""fullscreenenter"",""0"",""3531""
","
","
","""event"",""trial"",""time""
""fullscreenenter"",""0"",""3531""
","
","1060.9000000059605","","","","","","","","49","0,1,0","6","blank","231","null","0.4517042083881404","0.6068401790274723","0.12312676781750644","0","","","","","","","","",""
"","html-keyboard-response","22","176230","0.0-20.0-1.0","""event"",""trial"",""time""
""fullscreenenter"",""0"",""3531""
","
","
","""event"",""trial"",""time""
""fullscreenenter"",""0"",""3531""
","
","null","<p></p>","null","","","","","","","","","","","","","","","","","","","","","","","",""
"","do_trial","23","179127","0.0-21.0-0.0","""event"",""trial"",""time""
""fullscreenenter"",""0"",""3531""
","
","
","""event"",""trial"",""time""
""fullscreenenter"",""0"",""3531""
","
","345.5","","","","","","","","50","1,1,0","6","blank","232","null","0.4389488537514928","0.4997255569112733","0.09909172260440206","1","","","","","","","","",""
"","html-keyboard-response","24","180133","0.0-21.0-1.0","""event"",""trial"",""time""
""fullscreenenter"",""0"",""3531""
","
","
","""event"",""trial"",""time""
""fullscreenenter"",""0"",""3531""
","
","null","<p></p>","null","","","","","","","","","","","","","","","","","","","","","","","",""
"","do_trial","25","183496","0.0-22.0-0.0","""event"",""trial"",""time""
""fullscreenenter"",""0"",""3531""
","
","
","""event"",""trial"",""time""
""fullscreenenter"",""0"",""3531""
","
","812.3000000044703","","","","","","","","50","1,1,0","6","blank","233","null","0.2919981088477483","0.5809136862402341","0.18165395590256406","1","","","","","","","","",""
"","html-keyboard-response","26","184503","0.0-22.0-1.0","""event"",""trial"",""time""
""fullscreenenter"",""0"",""3531""
","
","
","""event"",""trial"",""time""
""fullscreenenter"",""0"",""3531""
","
","null","<p></p>","null","","","","","","","","","","","","","","","","","","","","","","","",""
"","do_trial","27","187315","0.0-23.0-0.0","""event"",""trial"",""time""
""fullscreenenter"",""0"",""3531""
","
","
","""event"",""trial"",""time""
""fullscreenenter"",""0"",""3531""
","
","264.09999999403954","","","","","","","","50","0,1,0","6","blank","234","null","0.28461282995763537","0.707145915096921","0.07851677029098351","1","","","","","","","","",""
"","html-keyboard-response","28","188321","0.0-23.0-1.0","""event"",""trial"",""time""
""fullscreenenter"",""0"",""3531""
","
","
","""event"",""trial"",""time""
""fullscreenenter"",""0"",""3531""
","
","null","<p></p>","null","","","","","","","","","","","","","","","","","","","","","","","",""
"","do_trial","29","191033","0.0-24.0-0.0","""event"",""trial"",""time""
""fullscreenenter"",""0"",""3531""
","
","
","""event"",""trial"",""time""
""fullscreenenter"",""0"",""3531""
","
","164","","","","","","","","50","1,0,0","6","blank","235","null","0.3849762180653849","0.6328467381353616","0.13493642997689845","0","","","","","","","","",""
"","html-keyboard-response","30","192038","0.0-24.0-1.0","""event"",""trial"",""time""
""fullscreenenter"",""0"",""3531""
","
","
","""event"",""trial"",""time""
""fullscreenenter"",""0"",""3531""
","
","null","<p></p>","null","","","","","","","","","","","","","","","","","","","","","","","",""
"","do_trial","31","194704","0.0-25.0-0.0","""event"",""trial"",""time""
""fullscreenenter"",""0"",""3531""
","
","
","""event"",""trial"",""time""
""fullscreenenter"",""0"",""3531""
","
","117.5","","","","","","","","50","0,1,0","6","blank","236","null","0.42217578412823686","0.5401998363344199","0.15539760907763636","1","","","","","","","","",""
"","html-keyboard-response","32","195711","0.0-25.0-1.0","""event"",""trial"",""time""
""fullscreenenter"",""0"",""3531""
","
","
","""event"",""trial"",""time""
""fullscreenenter"",""0"",""3531""
","
","null","<p></p>","null","","","","","","","","","","","","","","","","","","","","","","","",""
"","do_trial","33","198705","0.0-26.0-0.0","""event"",""trial"",""time""
""fullscreenenter"",""0"",""3531""
","
","
","""event"",""trial"",""time""
""fullscreenenter"",""0"",""3531""
","
","443.80000000447035","","","","","","","","50","0,1,0","6","blank","237","null","0.36676337938975606","0.42008812259587003","0.12235141629276777","1","","","","","","","","",""
"","html-keyboard-response","34","199711","0.0-26.0-1.0","""event"",""trial"",""time""
""fullscreenenter"",""0"",""3531""
","
","
","""event"",""trial"",""time""
""fullscreenenter"",""0"",""3531""
","
","null","<p></p>","null","","","","","","","","","","","","","","","","","","","","","","","",""
"","do_trial","35","202501","0.0-27.0-0.0","""event"",""trial"",""time""
""fullscreenenter"",""0"",""3531""
","
","
","""event"",""trial"",""time""
""fullscreenenter"",""0"",""3531""
","
","239.70000000298023","","","","","","","","50","0,1,0","6","blank","238","null","0.22313395271109038","0.4931926346745151","0.12377730898016841","1","","","","","","","","",""
"","html-keyboard-response","36","203508","0.0-27.0-1.0","""event"",""trial"",""time""
""fullscreenenter"",""0"",""3531""
","
","
","""event"",""trial"",""time""
""fullscreenenter"",""0"",""3531""
","
","null","<p></p>","null","","","","","","","","","","","","","","","","","","","","","","","",""
"","do_trial","37","206321","0.0-28.0-0.0","""event"",""trial"",""time""
""fullscreenenter"",""0"",""3531""
","
","
","""event"",""trial"",""time""
""fullscreenenter"",""0"",""3531""
","
","262.5","","","","","","","","50","0,0,0","6","blank","239","null","0.37853787207952394","0.48182502203133665","0.14203597418733033","0","","","","","","","","",""
"","html-keyboard-response","38","207327","0.0-28.0-1.0","""event"",""trial"",""time""
""fullscreenenter"",""0"",""3531""
","
","
","""event"",""trial"",""time""
""fullscreenenter"",""0"",""3531""
","
","null","<p></p>","null","","","","","","","","","","","","","","","","","","","","","","","",""
"","do_trial","39","209881","0.0-29.0-0.0","""event"",""trial"",""time""
""fullscreenenter"",""0"",""3531""
","
","
","""event"",""trial"",""time""
""fullscreenenter"",""0"",""3531""
","
","3.1999999955296516","","","","","","","","50","1,0,0","6","blank","240","null","0.43800579311662935","0.4839608309803963","0.09610528159179804","0","","","","","","","","",""
"","html-keyboard-response","40","210887","0.0-29.0-1.0","""event"",""trial"",""time""
""fullscreenenter"",""0"",""3531""
","
","
","""event"",""trial"",""time""
""fullscreenenter"",""0"",""3531""
","
","null","<p></p>","null","","","","","","","","","","","","","","","","","","","","","","","",""
"","do_trial","41","213666","0.0-30.0-0.0","""event"",""trial"",""time""
""fullscreenenter"",""0"",""3531""
","
","
","""event"",""trial"",""time""
""fullscreenenter"",""0"",""3531""
","
","229","","","","","","","","51","0,1,0","6","blank","241","null","0.36708210515523965","0.4127777366462515","0.10041388161670631","0","","","","","","","","",""
"","html-keyboard-response","42","214673","0.0-30.0-1.0","""event"",""trial"",""time""
""fullscreenenter"",""0"",""3531""
","
","
","""event"",""trial"",""time""
""fullscreenenter"",""0"",""3531""
","
","null","<p></p>","null","","","","","","","","","","","","","","","","","","","","","","","",""
"","do_trial","43","217345","0.0-31.0-0.0","""event"",""trial"",""time""
""fullscreenenter"",""0"",""3531""
","
","
","""event"",""trial"",""time""
""fullscreenenter"",""0"",""3531""
","
","119.5","","","","","","","","51","0,1,0","6","blank","242","null","0.5727537973123241","0.36265322331317296","0.1511355436154652","0","","","","","","","","",""
"","html-keyboard-response","44","218352","0.0-31.0-1.0","""event"",""trial"",""time""
""fullscreenenter"",""0"",""3531""
","
","
","""event"",""trial"",""time""
""fullscreenenter"",""0"",""3531""
","
","null","<p></p>","null","","","","","","","","","","","","","","","","","","","","","","","",""
"","do_trial","45","221123","0.0-32.0-0.0","""event"",""trial"",""time""
""fullscreenenter"",""0"",""3531""
","
","
","""event"",""trial"",""time""
""fullscreenenter"",""0"",""3531""
","
","221.60000000149012","","","","","","","","51","0,0,1","6","blank","243","null","0.5127258945980386","0.20745938611337103","0.21991057389570362","1","","","","","","","","",""
"","html-keyboard-response","46","222128","0.0-32.0-1.0","""event"",""trial"",""time""
""fullscreenenter"",""0"",""3531""
","
","
","""event"",""trial"",""time""
""fullscreenenter"",""0"",""3531""
","
","null","<p></p>","null","","","","","","","","","","","","","","","","","","","","","","","",""
"","do_recog","47","228142","0.0-33.0-0.0","""event"",""trial"",""time""
""fullscreenenter"",""0"",""3531""
","
","
","""event"",""trial"",""time""
""fullscreenenter"",""0"",""3531""
","
","null","","","","","","","","null","","","","244","probe-232","","","","","0","[object Object]","null","null","0","","","",""
"","html-keyboard-response","48","229144","0.0-33.0-1.0","""event"",""trial"",""time""
""fullscreenenter"",""0"",""3531""
","
","
","""event"",""trial"",""time""
""fullscreenenter"",""0"",""3531""
","
","null","<p></p>","null","","","","","","","","","","","","","","","","","","","","","","","",""
"","do_trial","49","232828","0.0-34.0-0.0","""event"",""trial"",""time""
""fullscreenenter"",""0"",""3531""
","
","
","""event"",""trial"",""time""
""fullscreenenter"",""0"",""3531""
","
","1135.3999999985099","","","","","","","","50","0,0,1","6","blank","245","null","0.5142850606824286","0.05591585946807255","0.3239076166838366","0","","","","","","","","",""
"","html-keyboard-response","50","233835","0.0-34.0-1.0","""event"",""trial"",""time""
""fullscreenenter"",""0"",""3531""
","
","
","""event"",""trial"",""time""
""fullscreenenter"",""0"",""3531""
","
","null","<p></p>","null","","","","","","","","","","","","","","","","","","","","","","","",""
"","do_recog","51","237317","0.0-35.0-0.0","""event"",""trial"",""time""
""fullscreenenter"",""0"",""3531""
","
","
","""event"",""trial"",""time""
""fullscreenenter"",""0"",""3531""
","
","1970","","","","","","","","56","","","","246","probe-131","","","","","1","[object Object]","36","0","0","","","",""
"","html-keyboard-response","52","238323","0.0-35.0-1.0","""event"",""trial"",""time""
""fullscreenenter"",""0"",""3531""
","
","
","""event"",""trial"",""time""
""fullscreenenter"",""0"",""3531""
","
","null","<p></p>","null","","","","","","","","","","","","","","","","","","","","","","","",""
"","do_trial","53","241949","0.0-36.0-0.0","""event"",""trial"",""time""
""fullscreenenter"",""0"",""3531""
","
","
","""event"",""trial"",""time""
""fullscreenenter"",""0"",""3531""
","
","1076.6000000014901","","","","","","","","50","0,0,0","6","blank","247","null","0.42890918342848283","0.06977221792950297","0.2655331891691278","0","","","","","","","","",""
"","html-keyboard-response","54","242955","0.0-36.0-1.0","""event"",""trial"",""time""
""fullscreenenter"",""0"",""3531""
","
","
","""event"",""trial"",""time""
""fullscreenenter"",""0"",""3531""
","
","null","<p></p>","null","","","","","","","","","","","","","","","","","","","","","","","",""
"","do_recog","55","246978","0.0-37.0-0.0","""event"",""trial"",""time""
""fullscreenenter"",""0"",""3531""
","
","
","""event"",""trial"",""time""
""fullscreenenter"",""0"",""3531""
","
","2511.39999999851","","","","","","","","53","","","","248","probe-81","","","","","1","[object Object]","76","1","1","","","",""
"","html-keyboard-response","56","247985","0.0-37.0-1.0","""event"",""trial"",""time""
""fullscreenenter"",""0"",""3531""
","
","
","""event"",""trial"",""time""
""fullscreenenter"",""0"",""3531""
","
","null","<p></p>","null","","","","","","","","","","","","","","","","","","","","","","","",""
"","do_trial","57","251813","0.0-38.0-0.0","""event"",""trial"",""time""
""fullscreenenter"",""0"",""3531""
","
","
","""event"",""trial"",""time""
""fullscreenenter"",""0"",""3531""
","
","1279","","","","","","","","50","1,0,0","6","blank","249","null","0.5077279298562918","0.1470562666982471","0.25779987084637124","0","","","","","","","","",""
"","html-keyboard-response","58","252819","0.0-38.0-1.0","""event"",""trial"",""time""
""fullscreenenter"",""0"",""3531""
","
","
","""event"",""trial"",""time""
""fullscreenenter"",""0"",""3531""
","
","null","<p></p>","null","","","","","","","","","","","","","","","","","","","","","","","",""
"","do_trial","59","256247","0.0-39.0-0.0","""event"",""trial"",""time""
""fullscreenenter"",""0"",""3531""
","
","
","""event"",""trial"",""time""
""fullscreenenter"",""0"",""3531""
","
","881.2000000029802","","","","","","","","49","0,0,0","6","blank","250","null","0.5603426261170305","0.15115533524612862","0.21736321447388499","0","","","","","","","","",""
"","html-keyboard-response","60","257249","0.0-39.0-1.0","""event"",""trial"",""time""
""fullscreenenter"",""0"",""3531""
","
","
","""event"",""trial"",""time""
""fullscreenenter"",""0"",""3531""
","
","null","<p></p>","null","","","","","","","","","","","","","","","","","","","","","","","",""
"","do_trial","61","260280","0.0-40.0-0.0","""event"",""trial"",""time""
""fullscreenenter"",""0"",""3531""
","
","
","""event"",""trial"",""time""
""fullscreenenter"",""0"",""3531""
","
","480.79999999701977","","","","","","","","50","0,0,0","6","blank","251","null","0.45169959852988045","0.17443759091070532","0.22605963931476183","0","","","","","","","","",""
"","html-keyboard-response","62","261286","0.0-40.0-1.0","""event"",""trial"",""time""
""fullscreenenter"",""0"",""3531""
","
","
","""event"",""trial"",""time""
""fullscreenenter"",""0"",""3531""
","
","null","<p></p>","null","","","","","","","","","","","","","","","","","","","","","","","",""
"","do_trial","63","264644","0.0-41.0-0.0","""event"",""trial"",""time""
""fullscreenenter"",""0"",""3531""
","
","
","""event"",""trial"",""time""
""fullscreenenter"",""0"",""3531""
","
","812.5","","","","","","","","50","0,0,0","6","blank","252","null","0.4010746869137657","0.2231391980811604","0.10922668426221722","0","","","","","","","","",""
"","html-keyboard-response","64","265646","0.0-41.0-1.0","""event"",""trial"",""time""
""fullscreenenter"",""0"",""3531""
","
","
","""event"",""trial"",""time""
""fullscreenenter"",""0"",""3531""
","
","null","<p></p>","null","","","","","","","","","","","","","","","","","","","","","","","",""
"","do_recog","65","269976","0.0-42.0-0.0","""event"",""trial"",""time""
""fullscreenenter"",""0"",""3531""
","
","
","""event"",""trial"",""time""
""fullscreenenter"",""0"",""3531""
","
","2818","","","","","","","","55","","","","253","probe-228","","","","","1","[object Object]","72","1","0","","","",""
"","html-keyboard-response","66","270978","0.0-42.0-1.0","""event"",""trial"",""time""
""fullscreenenter"",""0"",""3531""
","
","
","""event"",""trial"",""time""
""fullscreenenter"",""0"",""3531""
","
","null","<p></p>","null","","","","","","","","","","","","","","","","","","","","","","","",""
"","do_trial","67","275015","0.0-43.0-0.0","""event"",""trial"",""time""
""fullscreenenter"",""0"",""3531""
","
","
","""event"",""trial"",""time""
""fullscreenenter"",""0"",""3531""
","
","1491","","","","","","","","49","1,0,0","6","blank","254","null","0.4741372553999932","0.09950359024163113","0.1321314590721789","1","","","","","","","","",""
"","html-keyboard-response","68","276018","0.0-43.0-1.0","""event"",""trial"",""time""
""fullscreenenter"",""0"",""3531""
","
","
","""event"",""trial"",""time""
""fullscreenenter"",""0"",""3531""
","
","null","<p></p>","null","","","","","","","","","","","","","","","","","","","","","","","",""
"","do_recog","69","279477","0.0-44.0-0.0","""event"",""trial"",""time""
""fullscreenenter"",""0"",""3531""
","
","
","""event"",""trial"",""time""
""fullscreenenter"",""0"",""3531""
","
","1949.5999999940395","","","","","","","","53","","","","255","probe-114","","","","","1","[object Object]","78","1","1","","","",""
"","html-keyboard-response","70","280483","0.0-44.0-1.0","""event"",""trial"",""time""
""fullscreenenter"",""0"",""3531""
","
","
","""event"",""trial"",""time""
""fullscreenenter"",""0"",""3531""
","
","null","<p></p>","null","","","","","","","","","","","","","","","","","","","","","","","",""
"","do_trial","71","284098","0.0-45.0-0.0","""event"",""trial"",""time""
""fullscreenenter"",""0"",""3531""
","
","
","""event"",""trial"",""time""
""fullscreenenter"",""0"",""3531""
","
","1064.2999999970198","","","","","","","","50","0,0,1","6","blank","256","null","0.5435015565286312","0.24926278137736535","0.25017003098643503","0","","","","","","","","",""
"","html-keyboard-response","72","285104","0.0-45.0-1.0","""event"",""trial"",""time""
""fullscreenenter"",""0"",""3531""
","
","
","""event"",""trial"",""time""
""fullscreenenter"",""0"",""3531""
","
","null","<p></p>","null","","","","","","","","","","","","","","","","","","","","","","","",""
"","do_trial","73","288005","0.0-46.0-0.0","""event"",""trial"",""time""
""fullscreenenter"",""0"",""3531""
","
","
","""event"",""trial"",""time""
""fullscreenenter"",""0"",""3531""
","
","355.1000000014901","","","","","","","","51","1,1,0","6","blank","257","null","0.5869024921083014","0.06283868971473032","0.2649027237288894","0","","","","","","","","",""
"","html-keyboard-response","74","289007","0.0-46.0-1.0","""event"",""trial"",""time""
""fullscreenenter"",""0"",""3531""
","
","
","""event"",""trial"",""time""
""fullscreenenter"",""0"",""3531""
","
","null","<p></p>","null","","","","","","","","","","","","","","","","","","","","","","","",""
"","do_trial","75","292150","0.0-47.0-0.0","""event"",""trial"",""time""
""fullscreenenter"",""0"",""3531""
","
","
","""event"",""trial"",""time""
""fullscreenenter"",""0"",""3531""
","
","599.7999999970198","","","","","","","","50","1,0,0","6","blank","258","null","0.5474468476295884","0.1145860584067295","0.2635962387418414","0","","","","","","","","",""
"","html-keyboard-response","76","293155","0.0-47.0-1.0","""event"",""trial"",""time""
""fullscreenenter"",""0"",""3531""
","
","
","""event"",""trial"",""time""
""fullscreenenter"",""0"",""3531""
","
","null","<p></p>","null","","","","","","","","","","","","","","","","","","","","","","","",""
"","do_trial","77","296101","0.0-48.0-0.0","""event"",""trial"",""time""
""fullscreenenter"",""0"",""3531""
","
","
","""event"",""trial"",""time""
""fullscreenenter"",""0"",""3531""
","
","394.29999999701977","","","","","","","","49","0,0,1","6","blank","259","null","0.41898764555226103","0.09918538454555029","0.3422887886243862","0","","","","","","","","",""
"","html-keyboard-response","78","297108","0.0-48.0-1.0","""event"",""trial"",""time""
""fullscreenenter"",""0"",""3531""
","
","
","""event"",""trial"",""time""
""fullscreenenter"",""0"",""3531""
","
","null","<p></p>","null","","","","","","","","","","","","","","","","","","","","","","","",""
"","do_trial","79","299966","0.0-49.0-0.0","""event"",""trial"",""time""
""fullscreenenter"",""0"",""3531""
","
","
","""event"",""trial"",""time""
""fullscreenenter"",""0"",""3531""
","
","311.5","","","","","","","","50","0,1,1","6","blank","260","null","0.561985853189491","0.19692418727141686","0.24631818005646827","1","","","","","","","","",""
"","html-keyboard-response","80","300972","0.0-49.0-1.0","""event"",""trial"",""time""
""fullscreenenter"",""0"",""3531""
","
","
","""event"",""trial"",""time""
""fullscreenenter"",""0"",""3531""
","
","null","<p></p>","null","","","","","","","","","","","","","","","","","","","","","","","",""
"","do_recog","81","304383","0.0-50.0-0.0","""event"",""trial"",""time""
""fullscreenenter"",""0"",""3531""
","
","
","""event"",""trial"",""time""
""fullscreenenter"",""0"",""3531""
","
","1903.5","","","","","","","","56","","","","261","probe-245","","","","","0","[object Object]","null","null","1","","","",""
"","html-keyboard-response","82","305389","0.0-50.0-1.0","""event"",""trial"",""time""
""fullscreenenter"",""0"",""3531""
","
","
","""event"",""trial"",""time""
""fullscreenenter"",""0"",""3531""
","
","null","<p></p>","null","","","","","","","","","","","","","","","","","","","","","","","",""
"","do_trial","83","308613","0.0-51.0-0.0","""event"",""trial"",""time""
""fullscreenenter"",""0"",""3531""
","
","
","""event"",""trial"",""time""
""fullscreenenter"",""0"",""3531""
","
","674.5","","","","","","","","50","1,0,0","6","blank","262","null","0.5568186355647725","0.12075819344550441","0.05495137650958565","0","","","","","","","","",""
"","html-keyboard-response","84","309615","0.0-51.0-1.0","""event"",""trial"",""time""
""fullscreenenter"",""0"",""3531""
","
","
","""event"",""trial"",""time""
""fullscreenenter"",""0"",""3531""
","
","null","<p></p>","null","","","","","","","","","","","","","","","","","","","","","","","",""
"","do_trial","85","312652","0.0-52.0-0.0","""event"",""trial"",""time""
""fullscreenenter"",""0"",""3531""
","
","
","""event"",""trial"",""time""
""fullscreenenter"",""0"",""3531""
","
","486.8999999985099","","","","","","","","50","1,0,0","6","blank","263","null","0.7031716465858818","0.15947456582185648","0.20817805533609984","0","","","","","","","","",""
"","html-keyboard-response","86","313659","0.0-52.0-1.0","""event"",""trial"",""time""
""fullscreenenter"",""0"",""3531""
","
","
","""event"",""trial"",""time""
""fullscreenenter"",""0"",""3531""
","
","null","<p></p>","null","","","","","","","","","","","","","","","","","","","","","","","",""
"","do_trial","87","317497","0.0-53.0-0.0","""event"",""trial"",""time""
""fullscreenenter"",""0"",""3531""
","
","
","""event"",""trial"",""time""
""fullscreenenter"",""0"",""3531""
","
","1289.7999999970198","","","","","","","","51","1,0,1","6","blank","264","null","0.7114455318024393","0.14867810902664835","0.21503043788706067","1","","","","","","","","",""
"","html-keyboard-response","88","318504","0.0-53.0-1.0","""event"",""trial"",""time""
""fullscreenenter"",""0"",""3531""
","
","
","""event"",""trial"",""time""
""fullscreenenter"",""0"",""3531""
","
","null","<p></p>","null","","","","","","","","","","","","","","","","","","","","","","","",""
"","do_trial","89","321879","0.0-54.0-0.0","""event"",""trial"",""time""
""fullscreenenter"",""0"",""3531""
","
","
","""event"",""trial"",""time""
""fullscreenenter"",""0"",""3531""
","
","825.6000000014901","","","","","","","","51","1,1,0","6","blank","265","null","0.6754251972890077","0.17407529870974378","0.17901122732830765","0","","","","","","","","",""
"","html-keyboard-response","90","322881","0.0-54.0-1.0","""event"",""trial"",""time""
""fullscreenenter"",""0"",""3531""
","
","
","""event"",""trial"",""time""
""fullscreenenter"",""0"",""3531""
","
","null","<p></p>","null","","","","","","","","","","","","","","","","","","","","","","","",""
"","do_recog","91","326214","0.0-55.0-0.0","""event"",""trial"",""time""
""fullscreenenter"",""0"",""3531""
","
","
","""event"",""trial"",""time""
""fullscreenenter"",""0"",""3531""
","
","1826.1000000014901","","","","","","","","53","","","","266","probe-179","","","","","1","[object Object]","191","4","1","","","",""
"","html-keyboard-response","92","327221","0.0-55.0-1.0","""event"",""trial"",""time""
""fullscreenenter"",""0"",""3531""
","
","
","""event"",""trial"",""time""
""fullscreenenter"",""0"",""3531""
","
","null","<p></p>","null","","","","","","","","","","","","","","","","","","","","","","","",""
"","do_trial","93","330258","0.0-56.0-0.0","""event"",""trial"",""time""
""fullscreenenter"",""0"",""3531""
","
","
","""event"",""trial"",""time""
""fullscreenenter"",""0"",""3531""
","
","490","","","","","","","","49","1,0,1","6","blank","267","null","0.8081132746028072","0.20262117385139214","0.27196334248962317","1","","","","","","","","",""
"","html-keyboard-response","94","331264","0.0-56.0-1.0","""event"",""trial"",""time""
""fullscreenenter"",""0"",""3531""
","
","
","""event"",""trial"",""time""
""fullscreenenter"",""0"",""3531""
","
","null","<p></p>","null","","","","","","","","","","","","","","","","","","","","","","","",""
"","do_recog","95","334040","0.0-57.0-0.0","""event"",""trial"",""time""
""fullscreenenter"",""0"",""3531""
","
","
","""event"",""trial"",""time""
""fullscreenenter"",""0"",""3531""
","
","1264.8999999985099","","","","","","","","53","","","","268","probe-65","","","","","1","[object Object]","118","2","1","","","",""
"","html-keyboard-response","96","335047","0.0-57.0-1.0","""event"",""trial"",""time""
""fullscreenenter"",""0"",""3531""
","
","
","""event"",""trial"",""time""
""fullscreenenter"",""0"",""3531""
","
","null","<p></p>","null","","","","","","","","","","","","","","","","","","","","","","","",""
"","break","97","336942","0.0-58.0-0.0","""event"",""trial"",""time""
""fullscreenenter"",""0"",""3531""
","
","
","""event"",""trial"",""time""
""fullscreenenter"",""0"",""3531""
","
","1893.5","<div class='center'><p>Time to take a quick break! You have 2 minutes to rest, but you can move on sooner if you'd like.</p><p> Press the <b>space bar</b> to continue.</p></div>","32","","","","","","","","","","","","","","","","","","","","","","","",""
"","do_trial","98","340175","0.0-58.0-1.0","""event"",""trial"",""time""
""fullscreenenter"",""0"",""3531""
","
","
","""event"",""trial"",""time""
""fullscreenenter"",""0"",""3531""
","
","689.7999999970198","","","","","","","","50","1,0,0","6","blank","269","null","0.7941481853223317","0.2665693163867236","0.11936962898035816","0","","","","","","","","",""
"","html-keyboard-response","99","341181","0.0-58.0-2.0","""event"",""trial"",""time""
""fullscreenenter"",""0"",""3531""
","
","
","""event"",""trial"",""time""
""fullscreenenter"",""0"",""3531""
","
","null","<p></p>","null","","","","","","","","","","","","","","","","","","","","","","","",""
"","do_recog","100","344599","0.0-59.0-0.0","""event"",""trial"",""time""
""fullscreenenter"",""0"",""3531""
","
","
","""event"",""trial"",""time""
""fullscreenenter"",""0"",""3531""
","
","1905.7999999970198","","","","","","","","56","","","","270","probe-57","","","","","1","[object Object]","190","4","0","","","",""
"","html-keyboard-response","101","345601","0.0-59.0-1.0","""event"",""trial"",""time""
""fullscreenenter"",""0"",""3531""
","
","
","""event"",""trial"",""time""
""fullscreenenter"",""0"",""3531""
","
","null","<p></p>","null","","","","","","","","","","","","","","","","","","","","","","","",""
"","do_trial","102","348737","0.0-60.0-0.0","""event"",""trial"",""time""
""fullscreenenter"",""0"",""3531""
","
","
","""event"",""trial"",""time""
""fullscreenenter"",""0"",""3531""
","
","587.6000000014901","","","","","","","","50","0,0,0","6","blank","271","null","0.7463671052247205","0.2102645396547853","0.24193046378129776","0","","","","","","","","",""
"","html-keyboard-response","103","349744","0.0-60.0-1.0","""event"",""trial"",""time""
""fullscreenenter"",""0"",""3531""
","
","
","""event"",""trial"",""time""
""fullscreenenter"",""0"",""3531""
","
","null","<p></p>","null","","","","","","","","","","","","","","","","","","","","","","","",""
"","do_trial","104","353012","0.0-61.0-0.0","""event"",""trial"",""time""
""fullscreenenter"",""0"",""3531""
","
","
","""event"",""trial"",""time""
""fullscreenenter"",""0"",""3531""
","
","718.6000000014901","","","","","","","","51","0,0,0","6","blank","272","null","0.6483511206335242","0.20095864484227016","0.2760689501158568","0","","","","","","","","",""
"","html-keyboard-response","105","354015","0.0-61.0-1.0","""event"",""trial"",""time""
""fullscreenenter"",""0"",""3531""
","
","
","""event"",""trial"",""time""
""fullscreenenter"",""0"",""3531""
","
","null","<p></p>","null","","","","","","","","","","","","","","","","","","","","","","","",""
"","do_trial","106","356841","0.0-62.0-0.0","""event"",""trial"",""time""
""fullscreenenter"",""0"",""3531""
","
","
","""event"",""trial"",""time""
""fullscreenenter"",""0"",""3531""
","
","278.5","","","","","","","","50","1,0,1","6","blank","273","null","0.7379263140225735","0.12831234632768765","0.2297666784224337","0","","","","","","","","",""
"","html-keyboard-response","107","357847","0.0-62.0-1.0","""event"",""trial"",""time""
""fullscreenenter"",""0"",""3531""
","
","
","""event"",""trial"",""time""
""fullscreenenter"",""0"",""3531""
","
","null","<p></p>","null","","","","","","","","","","","","","","","","","","","","","","","",""
"","do_trial","108","360666","0.0-63.0-0.0","""event"",""trial"",""time""
""fullscreenenter"",""0"",""3531""
","
","
","""event"",""trial"",""time""
""fullscreenenter"",""0"",""3531""
","
","272.3999999985099","","","","","","","","49","0,0,0","6","blank","274","null","0.8367777626731568","0.06006928154757483","0.36865203466046537","0","","","","","","","","",""
"","html-keyboard-response","109","361673","0.0-63.0-1.0","""event"",""trial"",""time""
""fullscreenenter"",""0"",""3531""
","
","
","""event"",""trial"",""time""
""fullscreenenter"",""0"",""3531""
","
","null","<p></p>","null","","","","","","","","","","","","","","","","","","","","","","","",""
"","do_recog","110","364755","0.0-64.0-0.0","""event"",""trial"",""time""
""fullscreenenter"",""0"",""3531""
","
","
","""event"",""trial"",""time""
""fullscreenenter"",""0"",""3531""
","
","1569.1000000014901","","","","","","","","56","","","","275","probe-152","","","","","1","[object Object]","194","4","0","","","",""
"","html-keyboard-response","111","365757","0.0-64.0-1.0","""event"",""trial"",""time""
""fullscreenenter"",""0"",""3531""
","
","
","""event"",""trial"",""time""
""fullscreenenter"",""0"",""3531""
","
","null","<p></p>","null","","","","","","","","","","","","","","","","","","","","","","","",""
"","do_trial","112","368643","0.0-65.0-0.0","""event"",""trial"",""time""
""fullscreenenter"",""0"",""3531""
","
","
","""event"",""trial"",""time""
""fullscreenenter"",""0"",""3531""
","
","337.09999999403954","","","","","","","","49","1,0,0","6","blank","276","null","0.7192095975418229","0.1938229873608498","0.22944799740468205","1","","","","","","","","",""
"","html-keyboard-response","113","369650","0.0-65.0-1.0","""event"",""trial"",""time""
""fullscreenenter"",""0"",""3531""
","
","
","""event"",""trial"",""time""
""fullscreenenter"",""0"",""3531""
","
","null","<p></p>","null","","","","","","","","","","","","","","","","","","","","","","","",""
"","do_recog","114","372918","0.0-66.0-0.0","""event"",""trial"",""time""
""fullscreenenter"",""0"",""3531""
","
","
","""event"",""trial"",""time""
""fullscreenenter"",""0"",""3531""
","
","1758","","","","","","","","56","","","","277","probe-58","","","","","1","[object Object]","195","4","0","","","",""
"","html-keyboard-response","115","373922","0.0-66.0-1.0","""event"",""trial"",""time""
""fullscreenenter"",""0"",""3531""
","
","
","""event"",""trial"",""time""
""fullscreenenter"",""0"",""3531""
","
","null","<p></p>","null","","","","","","","","","","","","","","","","","","","","","","","",""
"","do_trial","116","377069","0.0-67.0-0.0","""event"",""trial"",""time""
""fullscreenenter"",""0"",""3531""
","
","
","""event"",""trial"",""time""
""fullscreenenter"",""0"",""3531""
","
","597.6000000014901","","","","","","","","50","0,0,0","6","blank","278","null","0.8104436004862252","0.06070115581660669","0.24544770828884574","0","","","","","","","","",""
"","html-keyboard-response","117","378071","0.0-67.0-1.0","""event"",""trial"",""time""
""fullscreenenter"",""0"",""3531""
","
","
","""event"",""trial"",""time""
""fullscreenenter"",""0"",""3531""
","
","null","<p></p>","null","","","","","","","","","","","","","","","","","","","","","","","",""
"","do_recog","118","381310","0.0-68.0-0.0","""event"",""trial"",""time""
""fullscreenenter"",""0"",""3531""
","
","
","""event"",""trial"",""time""
""fullscreenenter"",""0"",""3531""
","
","1727.1999999955297","","","","","","","","56","","","","279","probe-31","","","","","1","[object Object]","158","3","0","","","",""
"","html-keyboard-response","119","382316","0.0-68.0-1.0","""event"",""trial"",""time""
""fullscreenenter"",""0"",""3531""
","
","
","""event"",""trial"",""time""
""fullscreenenter"",""0"",""3531""
","
","null","<p></p>","null","","","","","","","","","","","","","","","","","","","","","","","",""
"","do_trial","120","385533","0.0-69.0-0.0","""event"",""trial"",""time""
""fullscreenenter"",""0"",""3531""
","
","
","""event"",""trial"",""time""
""fullscreenenter"",""0"",""3531""
","
","666.7999999970198","","","","","","","","50","0,0,1","6","blank","280","null","0.6550998216219135","0.1799698029085628","0.31459922287610725","0","","","","","","","","",""
"","html-keyboard-response","121","386540","0.0-69.0-1.0","""event"",""trial"",""time""
""fullscreenenter"",""0"",""3531""
","
","
","""event"",""trial"",""time""
""fullscreenenter"",""0"",""3531""
","
","null","<p></p>","null","","","","","","","","","","","","","","","","","","","","","","","",""
"","do_trial","122","389565","0.0-70.0-0.0","""event"",""trial"",""time""
""fullscreenenter"",""0"",""3531""
","
","
","""event"",""trial"",""time""
""fullscreenenter"",""0"",""3531""
","
","479.3999999985099","","","","","","","","51","1,0,0","6","blank","281","null","0.6990676627673618","0.09930598134990232","0.17599230948830702","0","","","","","","","","",""
"","html-keyboard-response","123","390571","0.0-70.0-1.0","""event"",""trial"",""time""
""fullscreenenter"",""0"",""3531""
","
","
","""event"",""trial"",""time""
""fullscreenenter"",""0"",""3531""
","
","null","<p></p>","null","","","","","","","","","","","","","","","","","","","","","","","",""
"","do_trial","124","393531","0.0-71.0-0.0","""event"",""trial"",""time""
""fullscreenenter"",""0"",""3531""
","
","
","""event"",""trial"",""time""
""fullscreenenter"",""0"",""3531""
","
","409.8999999985099","","","","","","","","49","1,0,0","6","blank","282","null","0.6114472429237925","0.07781429238224413","0.1909145743991871","1","","","","","","","","",""
"","html-keyboard-response","125","394538","0.0-71.0-1.0","""event"",""trial"",""time""
""fullscreenenter"",""0"",""3531""
","
","
","""event"",""trial"",""time""
""fullscreenenter"",""0"",""3531""
","
","null","<p></p>","null","","","","","","","","","","","","","","","","","","","","","","","",""
"","do_trial","126","397612","0.0-72.0-0.0","""event"",""trial"",""time""
""fullscreenenter"",""0"",""3531""
","
","
","""event"",""trial"",""time""
""fullscreenenter"",""0"",""3531""
","
","525.1000000014901","","","","","","","","49","1,0,0","6","blank","283","null","0.6412753751968098","0.05583134885109528","0.06039215490883809","1","","","","","","","","",""
"","html-keyboard-response","127","398614","0.0-72.0-1.0","""event"",""trial"",""time""
""fullscreenenter"",""0"",""3531""
","
","
","""event"",""trial"",""time""
""fullscreenenter"",""0"",""3531""
","
","null","<p></p>","null","","","","","","","","","","","","","","","","","","","","","","","",""
"","do_trial","128","401725","0.0-73.0-0.0","""event"",""trial"",""time""
""fullscreenenter"",""0"",""3531""
","
","
","""event"",""trial"",""time""
""fullscreenenter"",""0"",""3531""
","
","561.0999999940395","","","","","","","","49","0,0,0","6","blank","284","null","0.6416464982786222","0.1325133634650429","0.31008058826356255","0","","","","","","","","",""
"","html-keyboard-response","129","402726","0.0-73.0-1.0","""event"",""trial"",""time""
""fullscreenenter"",""0"",""3531""
","
","
","""event"",""trial"",""time""
""fullscreenenter"",""0"",""3531""
","
","null","<p></p>","null","","","","","","","","","","","","","","","","","","","","","","","",""
"","do_recog","130","405977","0.0-74.0-0.0","""event"",""trial"",""time""
""fullscreenenter"",""0"",""3531""
","
","
","""event"",""trial"",""time""
""fullscreenenter"",""0"",""3531""
","
","1738.5","","","","","","","","56","","","","285","probe-248","","","","","0","[object Object]","null","null","1","","","",""
"","html-keyboard-response","131","406981","0.0-74.0-1.0","""event"",""trial"",""time""
""fullscreenenter"",""0"",""3531""
","
","
","""event"",""trial"",""time""
""fullscreenenter"",""0"",""3531""
","
","null","<p></p>","null","","","","","","","","","","","","","","","","","","","","","","","",""
"","do_trial","132","410098","0.0-75.0-0.0","""event"",""trial"",""time""
""fullscreenenter"",""0"",""3531""
","
","
","""event"",""trial"",""time""
""fullscreenenter"",""0"",""3531""
","
","568.2000000029802","","","","","","","","50","1,0,0","6","blank","286","null","0.4842876423679043","0.16447817779625823","0.1620286716691286","0","","","","","","","","",""
"","html-keyboard-response","133","411103","0.0-75.0-1.0","""event"",""trial"",""time""
""fullscreenenter"",""0"",""3531""
","
","
","""event"",""trial"",""time""
""fullscreenenter"",""0"",""3531""
","
","null","<p></p>","null","","","","","","","","","","","","","","","","","","","","","","","",""
"","do_trial","134","414132","0.0-76.0-0.0","""event"",""trial"",""time""
""fullscreenenter"",""0"",""3531""
","
","
","""event"",""trial"",""time""
""fullscreenenter"",""0"",""3531""
","
","478.20000000298023","","","","","","","","49","1,0,0","6","blank","287","null","0.6287173976394761","0.13781742569816707","0.1781873533655035","1","","","","","","","","",""
"","html-keyboard-response","135","415139","0.0-76.0-1.0","""event"",""trial"",""time""
""fullscreenenter"",""0"",""3531""
","
","
","""event"",""trial"",""time""
""fullscreenenter"",""0"",""3531""
","
","null","<p></p>","null","","","","","","","","","","","","","","","","","","","","","","","",""
"","do_trial","136","418122","0.0-77.0-0.0","""event"",""trial"",""time""
""fullscreenenter"",""0"",""3531""
","
","
","""event"",""trial"",""time""
""fullscreenenter"",""0"",""3531""
","
","433.1000000014901","","","","","","","","51","0,0,0","6","blank","288","null","0.7211090734765786","0.13772844618717117","0.06659857637739439","0","","","","","","","","",""
"","html-keyboard-response","137","419129","0.0-77.0-1.0","""event"",""trial"",""time""
""fullscreenenter"",""0"",""3531""
","
","
","""event"",""trial"",""time""
""fullscreenenter"",""0"",""3531""
","
","null","<p></p>","null","","","","","","","","","","","","","","","","","","","","","","","",""
"","do_recog","138","422830","0.0-78.0-0.0","""event"",""trial"",""time""
""fullscreenenter"",""0"",""3531""
","
","
","""event"",""trial"",""time""
""fullscreenenter"",""0"",""3531""
","
","2189.1999999955297","","","","","","","","53","","","","289","probe-135","","","","","1","[object Object]","199","4","1","","","",""
"","html-keyboard-response","139","423832","0.0-78.0-1.0","""event"",""trial"",""time""
""fullscreenenter"",""0"",""3531""
","
","
","""event"",""trial"",""time""
""fullscreenenter"",""0"",""3531""
","
","null","<p></p>","null","","","","","","","","","","","","","","","","","","","","","","","",""
"","do_trial","140","426843","0.0-79.0-0.0","""event"",""trial"",""time""
""fullscreenenter"",""0"",""3531""
","
","
","""event"",""trial"",""time""
""fullscreenenter"",""0"",""3531""
","
","466.09999999403954","","","","","","","","50","1,0,0","6","blank","290","null","0.5667207663074637","0.07554226505704731","0.2589621607551166","0","","","","","","","","",""
"","html-keyboard-response","141","427849","0.0-79.0-1.0","""event"",""trial"",""time""
""fullscreenenter"",""0"",""3531""
","
","
","""event"",""trial"",""time""
""fullscreenenter"",""0"",""3531""
","
","null","<p></p>","null","","","","","","","","","","","","","","","","","","","","","","","",""
"","do_trial","142","431202","0.0-80.0-0.0","""event"",""trial"",""time""
""fullscreenenter"",""0"",""3531""
","
","
","""event"",""trial"",""time""
""fullscreenenter"",""0"",""3531""
","
","802.8999999985099","","","","","","","","51","1,0,0","6","blank","291","null","0.5048571508579888","0.05044442408470122","0.219410488879195","0","","","","","","","","",""
"","html-keyboard-response","143","432209","0.0-80.0-1.0","""event"",""trial"",""time""
""fullscreenenter"",""0"",""3531""
","
","
","""event"",""trial"",""time""
""fullscreenenter"",""0"",""3531""
","
","null","<p></p>","null","","","","","","","","","","","","","","","","","","","","","","","",""
"","do_trial","144","435134","0.0-81.0-0.0","""event"",""trial"",""time""
""fullscreenenter"",""0"",""3531""
","
","
","""event"",""trial"",""time""
""fullscreenenter"",""0"",""3531""
","
","380.20000000298023","","","","","","","","50","1,0,0","6","blank","292","null","0.5545681720791654","0.05092825974624723","0.3064956284576274","0","","","","","","","","",""
"","html-keyboard-response","145","436140","0.0-81.0-1.0","""event"",""trial"",""time""
""fullscreenenter"",""0"",""3531""
","
","
","""event"",""trial"",""time""
""fullscreenenter"",""0"",""3531""
","
","null","<p></p>","null","","","","","","","","","","","","","","","","","","","","","","","",""
"","do_trial","146","439293","0.0-82.0-0.0","""event"",""trial"",""time""
""fullscreenenter"",""0"",""3531""
","
","
","""event"",""trial"",""time""
""fullscreenenter"",""0"",""3531""
","
","605.7000000029802","","","","","","","","49","1,0,1","6","blank","293","null","0.47795592282290567","0.13464814960319443","0.34061368781399304","1","","","","","","","","",""
"","html-keyboard-response","147","440299","0.0-82.0-1.0","""event"",""trial"",""time""
""fullscreenenter"",""0"",""3531""
","
","
","""event"",""trial"",""time""
""fullscreenenter"",""0"",""3531""
","
","null","<p></p>","null","","","","","","","","","","","","","","","","","","","","","","","",""
"","do_recog","148","443606","0.0-83.0-0.0","""event"",""trial"",""time""
""fullscreenenter"",""0"",""3531""
","
","
","""event"",""trial"",""time""
""fullscreenenter"",""0"",""3531""
","
","1799","","","","","","","","56","","","","294","probe-12","","","","","1","[object Object]","35","0","0","","","",""
"","html-keyboard-response","149","444608","0.0-83.0-1.0","""event"",""trial"",""time""
""fullscreenenter"",""0"",""3531""
","
","
","""event"",""trial"",""time""
""fullscreenenter"",""0"",""3531""
","
","null","<p></p>","null","","","","","","","","","","","","","","","","","","","","","","","",""
"","do_trial","150","447509","0.0-84.0-0.0","""event"",""trial"",""time""
""fullscreenenter"",""0"",""3531""
","
","
","""event"",""trial"",""time""
""fullscreenenter"",""0"",""3531""
","
","358.3999999985099","","","","","","","","49","0,0,0","6","blank","295","null","0.3439001226005724","0.10195175858355499","0.2820667438515533","0","","","","","","","","",""
"","html-keyboard-response","151","448511","0.0-84.0-1.0","""event"",""trial"",""time""
""fullscreenenter"",""0"",""3531""
","
","
","""event"",""trial"",""time""
""fullscreenenter"",""0"",""3531""
","
","null","<p></p>","null","","","","","","","","","","","","","","","","","","","","","","","",""
"","do_recog","152","451914","0.0-85.0-0.0","""event"",""trial"",""time""
""fullscreenenter"",""0"",""3531""
","
","
","""event"",""trial"",""time""
""fullscreenenter"",""0"",""3531""
","
","1893.7999999970198","","","","","","","","53","","","","296","probe-162","","","","","1","[object Object]","112","2","1","","","",""
"","html-keyboard-response","153","452917","0.0-85.0-1.0","""event"",""trial"",""time""
""fullscreenenter"",""0"",""3531""
","
","
","""event"",""trial"",""time""
""fullscreenenter"",""0"",""3531""
","
","null","<p></p>","null","","","","","","","","","","","","","","","","","","","","","","","",""
"","do_trial","154","455955","0.0-86.0-0.0","""event"",""trial"",""time""
""fullscreenenter"",""0"",""3531""
","
","
","""event"",""trial"",""time""
""fullscreenenter"",""0"",""3531""
","
","488.5","","","","","","","","49","0,0,1","6","blank","297","null","0.41858138870371575","0.0875079794453507","0.21921842793305618","0","","","","","","","","",""
"","html-keyboard-response","155","456957","0.0-86.0-1.0","""event"",""trial"",""time""
""fullscreenenter"",""0"",""3531""
","
","
","""event"",""trial"",""time""
""fullscreenenter"",""0"",""3531""
","
","null","<p></p>","null","","","","","","","","","","","","","","","","","","","","","","","",""
"","do_trial","156","459818","0.0-87.0-0.0","""event"",""trial"",""time""
""fullscreenenter"",""0"",""3531""
","
","
","""event"",""trial"",""time""
""fullscreenenter"",""0"",""3531""
","
","309.80000000447035","","","","","","","","51","0,0,0","6","blank","298","null","0.49261254035930324","0.2177455403772057","0.09405271944616571","0","","","","","","","","",""
"","html-keyboard-response","157","460824","0.0-87.0-1.0","""event"",""trial"",""time""
""fullscreenenter"",""0"",""3531""
","
","
","""event"",""trial"",""time""
""fullscreenenter"",""0"",""3531""
","
","null","<p></p>","null","","","","","","","","","","","","","","","","","","","","","","","",""
"","do_trial","158","463610","0.0-88.0-0.0","""event"",""trial"",""time""
""fullscreenenter"",""0"",""3531""
","
","
","""event"",""trial"",""time""
""fullscreenenter"",""0"",""3531""
","
","235.90000000596046","","","","","","","","50","1,1,0","6","blank","299","null","0.3475261884780629","0.3855141772804123","0.07685626431975003","1","","","","","","","","",""
"","html-keyboard-response","159","464614","0.0-88.0-1.0","""event"",""trial"",""time""
""fullscreenenter"",""0"",""3531""
","
","
","""event"",""trial"",""time""
""fullscreenenter"",""0"",""3531""
","
","null","<p></p>","null","","","","","","","","","","","","","","","","","","","","","","","",""
"","do_recog","160","467674","0.0-89.0-0.0","""event"",""trial"",""time""
""fullscreenenter"",""0"",""3531""
","
","
","""event"",""trial"",""time""
""fullscreenenter"",""0"",""3531""
","
","1548.6999999955297","","","","","","","","53","","","","300","probe-11","","","","","1","[object Object]","38","0","1","","","",""
"","html-keyboard-response","161","468677","0.0-89.0-1.0","""event"",""trial"",""time""
""fullscreenenter"",""0"",""3531""
","
","
","""event"",""trial"",""time""
""fullscreenenter"",""0"",""3531""
","
","null","<p></p>","null","","","","","","","","","","","","","","","","","","","","","","","",""
"","do_trial","162","471548","0.0-90.0-0.0","""event"",""trial"",""time""
""fullscreenenter"",""0"",""3531""
","
","
","""event"",""trial"",""time""
""fullscreenenter"",""0"",""3531""
","
","326.70000000298023","","","","","","","","50","1,1,0","6","blank","301","null","0.47697413458803634","0.4266238701846302","0.06159083577282849","1","","","","","","","","",""
"","html-keyboard-response","163","472555","0.0-90.0-1.0","""event"",""trial"",""time""
""fullscreenenter"",""0"",""3531""
","
","
","""event"",""trial"",""time""
""fullscreenenter"",""0"",""3531""
","
","null","<p></p>","null","","","","","","","","","","","","","","","","","","","","","","","",""
"","do_trial","164","475858","0.0-91.0-0.0","""event"",""trial"",""time""
""fullscreenenter"",""0"",""3531""
","
","
","""event"",""trial"",""time""
""fullscreenenter"",""0"",""3531""
","
","755.2000000029802","","","","","","","","50","0,1,0","6","blank","302","null","0.4320932961945174","0.5509720354805474","0.09941226459534111","1","","","","","","","","",""
"","html-keyboard-response","165","476864","0.0-91.0-1.0","""event"",""trial"",""time""
""fullscreenenter"",""0"",""3531""
","
","
","""event"",""trial"",""time""
""fullscreenenter"",""0"",""3531""
","
","null","<p></p>","null","","","","","","","","","","","","","","","","","","","","","","","",""
"","do_trial","166","480052","0.0-92.0-0.0","""event"",""trial"",""time""
""fullscreenenter"",""0"",""3531""
","
","
","""event"",""trial"",""time""
""fullscreenenter"",""0"",""3531""
","
","637.5999999940395","","","","","","","","50","0,1,0","6","blank","303","null","0.35065241868828934","0.5812644806407744","0.17247017020816338","1","","","","","","","","",""
"","html-keyboard-response","167","481059","0.0-92.0-1.0","""event"",""trial"",""time""
""fullscreenenter"",""0"",""3531""
","
","
","""event"",""trial"",""time""
""fullscreenenter"",""0"",""3531""
","
","null","<p></p>","null","","","","","","","","","","","","","","","","","","","","","","","",""
"","do_trial","168","483911","0.0-93.0-0.0","""event"",""trial"",""time""
""fullscreenenter"",""0"",""3531""
","
","
","""event"",""trial"",""time""
""fullscreenenter"",""0"",""3531""
","
","302.5","","","","","","","","49","1,1,0","6","blank","304","null","0.21920328202787268","0.534776849810621","0.1344981999520304","1","","","","","","","","",""
"","html-keyboard-response","169","484918","0.0-93.0-1.0","""event"",""trial"",""time""
""fullscreenenter"",""0"",""3531""
","
","
","""event"",""trial"",""time""
""fullscreenenter"",""0"",""3531""
","
","null","<p></p>","null","","","","","","","","","","","","","","","","","","","","","","","",""
"","do_trial","170","487966","0.0-94.0-0.0","""event"",""trial"",""time""
""fullscreenenter"",""0"",""3531""
","
","
","""event"",""trial"",""time""
""fullscreenenter"",""0"",""3531""
","
","502.70000000298023","","","","","","","","50","0,1,0","6","blank","305","null","0.2657454774995103","0.483215147623353","0.16483637308098126","1","","","","","","","","",""
"","html-keyboard-response","171","488973","0.0-94.0-1.0","""event"",""trial"",""time""
""fullscreenenter"",""0"",""3531""
","
","
","""event"",""trial"",""time""
""fullscreenenter"",""0"",""3531""
","
","null","<p></p>","null","","","","","","","","","","","","","","","","","","","","","","","",""
"","do_recog","172","492251","0.0-95.0-0.0","""event"",""trial"",""time""
""fullscreenenter"",""0"",""3531""
","
","
","""event"",""trial"",""time""
""fullscreenenter"",""0"",""3531""
","
","1769.8999999985099","","","","","","","","53","","","","306","probe-42","","","","","1","[object Object]","119","2","1","","","",""
"","html-keyboard-response","173","493258","0.0-95.0-1.0","""event"",""trial"",""time""
""fullscreenenter"",""0"",""3531""
","
","
","""event"",""trial"",""time""
""fullscreenenter"",""0"",""3531""
","
","null","<p></p>","null","","","","","","","","","","","","","","","","","","","","","","","",""
"","do_trial","174","496170","0.0-96.0-0.0","""event"",""trial"",""time""
""fullscreenenter"",""0"",""3531""
","
","
","""event"",""trial"",""time""
""fullscreenenter"",""0"",""3531""
","
","365.1000000014901","","","","","","","","49","0,1,0","6","blank","307","null","0.33053332946538805","0.6046878393871511","0.20978203739956847","0","","","","","","","","",""
"","html-keyboard-response","175","497176","0.0-96.0-1.0","""event"",""trial"",""time""
""fullscreenenter"",""0"",""3531""
","
","
","""event"",""trial"",""time""
""fullscreenenter"",""0"",""3531""
","
","null","<p></p>","null","","","","","","","","","","","","","","","","","","","","","","","",""
"","do_recog","176","500310","0.0-97.0-0.0","""event"",""trial"",""time""
""fullscreenenter"",""0"",""3531""
","
","
","""event"",""trial"",""time""
""fullscreenenter"",""0"",""3531""
","
","1621.1999999955297","","","","","","","","53","","","","308","probe-155","","","","","1","[object Object]","151","3","1","","","",""
"","html-keyboard-response","177","501316","0.0-97.0-1.0","""event"",""trial"",""time""
""fullscreenenter"",""0"",""3531""
","
","
","""event"",""trial"",""time""
""fullscreenenter"",""0"",""3531""
","
","null","<p></p>","null","","","","","","","","","","","","","","","","","","","","","","","",""
"","break","178","502571","0.0-98.0-0.0","""event"",""trial"",""time""
""fullscreenenter"",""0"",""3531""
","
","
","""event"",""trial"",""time""
""fullscreenenter"",""0"",""3531""
","
","1253.8999999985099","<div class='center'><p>Time to take a quick break! You have 2 minutes to rest, but you can move on sooner if you'd like.</p><p> Press the <b>space bar</b> to continue.</p></div>","32","","","","","","","","","","","","","","","","","","","","","","","",""
"","do_trial","179","506339","0.0-98.0-1.0","""event"",""trial"",""time""
""fullscreenenter"",""0"",""3531""
","
","
","""event"",""trial"",""time""
""fullscreenenter"",""0"",""3531""
","
","1222","","","","","","","","50","0,0,0","6","blank","309","null","0.23834329602865423","0.7176591362964733","0.10598663879346973","0","","","","","","","","",""
"","html-keyboard-response","180","507345","0.0-98.0-2.0","""event"",""trial"",""time""
""fullscreenenter"",""0"",""3531""
","
","
","""event"",""trial"",""time""
""fullscreenenter"",""0"",""3531""
","
","null","<p></p>","null","","","","","","","","","","","","","","","","","","","","","","","",""
"","do_trial","181","510025","0.0-99.0-0.0","""event"",""trial"",""time""
""fullscreenenter"",""0"",""3531""
","
","
","""event"",""trial"",""time""
""fullscreenenter"",""0"",""3531""
","
","135.39999999850988","","","","","","","","49","0,1,0","6","blank","310","null","0.31290469815726757","0.571689597596896","0.06450992362957715","0","","","","","","","","",""
"","html-keyboard-response","182","511031","0.0-99.0-1.0","""event"",""trial"",""time""
""fullscreenenter"",""0"",""3531""
","
","
","""event"",""trial"",""time""
""fullscreenenter"",""0"",""3531""
","
","null","<p></p>","null","","","","","","","","","","","","","","","","","","","","","","","",""
"","do_trial","183","514168","0.0-100.0-0.0","""event"",""trial"",""time""
""fullscreenenter"",""0"",""3531""
","
","
","""event"",""trial"",""time""
""fullscreenenter"",""0"",""3531""
","
","589.3999999985099","","","","","","","","50","0,1,0","6","blank","311","null","0.26583150684291773","0.5988611608417265","0.07692885541043547","1","","","","","","","","",""
"","html-keyboard-response","184","515175","0.0-100.0-1.0","""event"",""trial"",""time""
""fullscreenenter"",""0"",""3531""
","
","
","""event"",""trial"",""time""
""fullscreenenter"",""0"",""3531""
","
","null","<p></p>","null","","","","","","","","","","","","","","","","","","","","","","","",""
"","do_trial","185","518531","0.0-101.0-0.0","""event"",""trial"",""time""
""fullscreenenter"",""0"",""3531""
","
","
","""event"",""trial"",""time""
""fullscreenenter"",""0"",""3531""
","
","809.6999999955297","","","","","","","","50","0,1,0","6","blank","312","null","0.34500981016582805","0.5535826875475011","0.13394172501906762","1","","","","","","","","",""
"","html-keyboard-response","186","519538","0.0-101.0-1.0","""event"",""trial"",""time""
""fullscreenenter"",""0"",""3531""
","
","
","""event"",""trial"",""time""
""fullscreenenter"",""0"",""3531""
","
","null","<p></p>","null","","","","","","","","","","","","","","","","","","","","","","","",""
"","do_trial","187","522544","0.0-102.0-0.0","""event"",""trial"",""time""
""fullscreenenter"",""0"",""3531""
","
","
","""event"",""trial"",""time""
""fullscreenenter"",""0"",""3531""
","
","456.20000000298023","","","","","","","","50","1,1,1","6","blank","313","null","0.4405535885735978","0.47902799586168754","0.2662161319019075","1","","","","","","","","",""
"","html-keyboard-response","188","523550","0.0-102.0-1.0","""event"",""trial"",""time""
""fullscreenenter"",""0"",""3531""
","
","
","""event"",""trial"",""time""
""fullscreenenter"",""0"",""3531""
","
","null","<p></p>","null","","","","","","","","","","","","","","","","","","","","","","","",""
"","do_trial","189","526447","0.0-103.0-0.0","""event"",""trial"",""time""
""fullscreenenter"",""0"",""3531""
","
","
","""event"",""trial"",""time""
""fullscreenenter"",""0"",""3531""
","
","346.80000000447035","","","","","","","","49","0,1,0","6","blank","314","null","0.34503503438857325","0.49682361855078333","0.09936410692737291","0","","","","","","","","",""
"","html-keyboard-response","190","527450","0.0-103.0-1.0","""event"",""trial"",""time""
""fullscreenenter"",""0"",""3531""
","
","
","""event"",""trial"",""time""
""fullscreenenter"",""0"",""3531""
","
","null","<p></p>","null","","","","","","","","","","","","","","","","","","","","","","","",""
"","do_recog","191","531045","0.0-104.0-0.0","""event"",""trial"",""time""
""fullscreenenter"",""0"",""3531""
","
","
","""event"",""trial"",""time""
""fullscreenenter"",""0"",""3531""
","
","2088.8000000044703","","","","","","","","53","","","","315","probe-87","","","","","1","[object Object]","152","3","1","","","",""
"","html-keyboard-response","192","532052","0.0-104.0-1.0","""event"",""trial"",""time""
""fullscreenenter"",""0"",""3531""
","
","
","""event"",""trial"",""time""
""fullscreenenter"",""0"",""3531""
","
","null","<p></p>","null","","","","","","","","","","","","","","","","","","","","","","","",""
"","do_trial","193","535004","0.0-105.0-0.0","""event"",""trial"",""time""
""fullscreenenter"",""0"",""3531""
","
","
","""event"",""trial"",""time""
""fullscreenenter"",""0"",""3531""
","
","404.70000000298023","","","","","","","","50","0,0,0","6","blank","316","null","0.25234571944913436","0.5258364139206309","0.12270757727560253","0","","","","","","","","",""
"","html-keyboard-response","194","536006","0.0-105.0-1.0","""event"",""trial"",""time""
""fullscreenenter"",""0"",""3531""
","
","
","""event"",""trial"",""time""
""fullscreenenter"",""0"",""3531""
","
","null","<p></p>","null","","","","","","","","","","","","","","","","","","","","","","","",""
"","do_trial","195","538828","0.0-106.0-0.0","""event"",""trial"",""time""
""fullscreenenter"",""0"",""3531""
","
","
","""event"",""trial"",""time""
""fullscreenenter"",""0"",""3531""
","
","274.79999999701977","","","","","","","","49","0,1,0","6","blank","317","null","0.1954302375128632","0.42953884702052814","0.07214681976852028","0","","","","","","","","",""
"","html-keyboard-response","196","539835","0.0-106.0-1.0","""event"",""trial"",""time""
""fullscreenenter"",""0"",""3531""
","
","
","""event"",""trial"",""time""
""fullscreenenter"",""0"",""3531""
","
","null","<p></p>","null","","","","","","","","","","","","","","","","","","","","","","","",""
"","do_trial","197","542548","0.0-107.0-0.0","""event"",""trial"",""time""
""fullscreenenter"",""0"",""3531""
","
","
","""event"",""trial"",""time""
""fullscreenenter"",""0"",""3531""
","
","162.30000000447035","","","","","","","","50","0,0,0","6","blank","318","null","0.16719899412844727","0.3914771664751757","0.12898733518478842","0","","","","","","","","",""
"","html-keyboard-response","198","543550","0.0-107.0-1.0","""event"",""trial"",""time""
""fullscreenenter"",""0"",""3531""
","
","
","""event"",""trial"",""time""
""fullscreenenter"",""0"",""3531""
","
","null","<p></p>","null","","","","","","","","","","","","","","","","","","","","","","","",""
"","do_trial","199","546442","0.0-108.0-0.0","""event"",""trial"",""time""
""fullscreenenter"",""0"",""3531""
","
","
","""event"",""trial"",""time""
""fullscreenenter"",""0"",""3531""
","
","341.8999999985099","","","","","","","","49","1,0,0","6","blank","319","null","0.3555014286722347","0.41573436679790066","0.07972243149260357","1","","","","","","","","",""
"","html-keyboard-response","200","547446","0.0-108.0-1.0","""event"",""trial"",""time""
""fullscreenenter"",""0"",""3531""
","
","
","""event"",""trial"",""time""
""fullscreenenter"",""0"",""3531""
","
","null","<p></p>","null","","","","","","","","","","","","","","","","","","","","","","","",""
"","do_recog","201","550653","0.0-109.0-0.0","""event"",""trial"",""time""
""fullscreenenter"",""0"",""3531""
","
","
","""event"",""trial"",""time""
""fullscreenenter"",""0"",""3531""
","
","1694.1000000014901","","","","","","","","53","","","","320","probe-03","","","","","1","[object Object]","113","2","1","","","",""
"","html-keyboard-response","202","551656","0.0-109.0-1.0","""event"",""trial"",""time""
""fullscreenenter"",""0"",""3531""
","
","
","""event"",""trial"",""time""
""fullscreenenter"",""0"",""3531""
","
","null","<p></p>","null","","","","","","","","","","","","","","","","","","","","","","","",""
"","do_trial","203","554577","0.0-110.0-0.0","""event"",""trial"",""time""
""fullscreenenter"",""0"",""3531""
","
","
","""event"",""trial"",""time""
""fullscreenenter"",""0"",""3531""
","
","373","","","","","","","","49","0,1,0","6","blank","321","null","0.3556175955028427","0.6646761646123654","0.08436261012504741","0","","","","","","","","",""
"","html-keyboard-response","204","555582","0.0-110.0-1.0","""event"",""trial"",""time""
""fullscreenenter"",""0"",""3531""
","
","
","""event"",""trial"",""time""
""fullscreenenter"",""0"",""3531""
","
","null","<p></p>","null","","","","","","","","","","","","","","","","","","","","","","","",""
"","do_trial","205","558368","0.0-111.0-0.0","""event"",""trial"",""time""
""fullscreenenter"",""0"",""3531""
","
","
","""event"",""trial"",""time""
""fullscreenenter"",""0"",""3531""
","
","242.89999999850988","","","","","","","","50","0,1,0","6","blank","322","null","0.3950362285930267","0.6035567043665854","0.1254877349023397","1","","","","","","","","",""
"","html-keyboard-response","206","559372","0.0-111.0-1.0","""event"",""trial"",""time""
""fullscreenenter"",""0"",""3531""
","
","
","""event"",""trial"",""time""
""fullscreenenter"",""0"",""3531""
","
","null","<p></p>","null","","","","","","","","","","","","","","","","","","","","","","","",""
"","do_trial","207","562499","0.0-112.0-0.0","""event"",""trial"",""time""
""fullscreenenter"",""0"",""3531""
","
","
","""event"",""trial"",""time""
""fullscreenenter"",""0"",""3531""
","
","577.7999999970198","","","","","","","","50","0,0,0","6","blank","323","null","0.28976068193796095","0.5559155610000847","0.1484565223437094","0","","","","","","","","",""
"","html-keyboard-response","208","563506","0.0-112.0-1.0","""event"",""trial"",""time""
""fullscreenenter"",""0"",""3531""
","
","
","""event"",""trial"",""time""
""fullscreenenter"",""0"",""3531""
","
","null","<p></p>","null","","","","","","","","","","","","","","","","","","","","","","","",""
"","do_trial","209","566790","0.0-113.0-0.0","""event"",""trial"",""time""
""fullscreenenter"",""0"",""3531""
","
","
","""event"",""trial"",""time""
""fullscreenenter"",""0"",""3531""
","
","733.7000000029802","","","","","","","","50","0,0,0","6","blank","324","null","0.3217753652402234","0.5475475606080334","0.15804705482440407","0","","","","","","","","",""
"","html-keyboard-response","210","567796","0.0-113.0-1.0","""event"",""trial"",""time""
""fullscreenenter"",""0"",""3531""
","
","
","""event"",""trial"",""time""
""fullscreenenter"",""0"",""3531""
","
","null","<p></p>","null","","","","","","","","","","","","","","","","","","","","","","","",""
"","do_trial","211","570824","0.0-114.0-0.0","""event"",""trial"",""time""
""fullscreenenter"",""0"",""3531""
","
","
","""event"",""trial"",""time""
""fullscreenenter"",""0"",""3531""
","
","481.1000000014901","","","","","","","","49","0,0,0","6","blank","325","null","0.30559314924908326","0.46810873447511453","0.23113985182060312","0","","","","","","","","",""
"","html-keyboard-response","212","571826","0.0-114.0-1.0","""event"",""trial"",""time""
""fullscreenenter"",""0"",""3531""
","
","
","""event"",""trial"",""time""
""fullscreenenter"",""0"",""3531""
","
","null","<p></p>","null","","","","","","","","","","","","","","","","","","","","","","","",""
"","do_recog","213","575092","0.0-115.0-0.0","""event"",""trial"",""time""
""fullscreenenter"",""0"",""3531""
","
","
","""event"",""trial"",""time""
""fullscreenenter"",""0"",""3531""
","
","1756.2000000029802","","","","","","","","56","","","","326","probe-84","","","","","1","[object Object]","156","3","0","","","",""
"","html-keyboard-response","214","576099","0.0-115.0-1.0","""event"",""trial"",""time""
""fullscreenenter"",""0"",""3531""
","
","
","""event"",""trial"",""time""
""fullscreenenter"",""0"",""3531""
","
","null","<p></p>","null","","","","","","","","","","","","","","","","","","","","","","","",""
"","do_trial","215","578977","0.0-116.0-0.0","""event"",""trial"",""time""
""fullscreenenter"",""0"",""3531""
","
","
","""event"",""trial"",""time""
""fullscreenenter"",""0"",""3531""
","
","328.8999999985099","","","","","","","","50","1,0,0","6","blank","327","null","0.4304038340728977","0.4350414699735603","0.3681200588449397","0","","","","","","","","",""
"","html-keyboard-response","216","579983","0.0-116.0-1.0","""event"",""trial"",""time""
""fullscreenenter"",""0"",""3531""
","
","
","""event"",""trial"",""time""
""fullscreenenter"",""0"",""3531""
","
","null","<p></p>","null","","","","","","","","","","","","","","","","","","","","","","","",""
"","do_recog","217","583311","0.0-117.0-0.0","""event"",""trial"",""time""
""fullscreenenter"",""0"",""3531""
","
","
","""event"",""trial"",""time""
""fullscreenenter"",""0"",""3531""
","
","1815.6000000014901","","","","","","","","53","","","","328","probe-111","","","","","1","[object Object]","32","0","1","","","",""
"","html-keyboard-response","218","584318","0.0-117.0-1.0","""event"",""trial"",""time""
""fullscreenenter"",""0"",""3531""
","
","
","""event"",""trial"",""time""
""fullscreenenter"",""0"",""3531""
","
","null","<p></p>","null","","","","","","","","","","","","","","","","","","","","","","","",""
"","do_trial","219","587294","0.0-118.0-0.0","""event"",""trial"",""time""
""fullscreenenter"",""0"",""3531""
","
","
","""event"",""trial"",""time""
""fullscreenenter"",""0"",""3531""
","
","426.59999999403954","","","","","","","","51","0,1,0","6","blank","329","null","0.28901388726705063","0.642139919239985","0.2652658917825501","0","","","","","","","","",""
"","html-keyboard-response","220","588296","0.0-118.0-1.0","""event"",""trial"",""time""
""fullscreenenter"",""0"",""3531""
","
","
","""event"",""trial"",""time""
""fullscreenenter"",""0"",""3531""
","
","null","<p></p>","null","","","","","","","","","","","","","","","","","","","","","","","",""
"","do_trial","221","591318","0.0-119.0-0.0","""event"",""trial"",""time""
""fullscreenenter"",""0"",""3531""
","
","
","""event"",""trial"",""time""
""fullscreenenter"",""0"",""3531""
","
","473.8999999985099","","","","","","","","50","1,0,0","6","blank","330","null","0.4335791931053053","0.673890598825546","0.18309377694477552","0","","","","","","","","",""
"","html-keyboard-response","222","592322","0.0-119.0-1.0","""event"",""trial"",""time""
""fullscreenenter"",""0"",""3531""
","
","
","""event"",""trial"",""time""
""fullscreenenter"",""0"",""3531""
","
","null","<p></p>","null","","","","","","","","","","","","","","","","","","","","","","","",""
"","do_recog","223","595705","0.0-120.0-0.0","""event"",""trial"",""time""
""fullscreenenter"",""0"",""3531""
","
","
","""event"",""trial"",""time""
""fullscreenenter"",""0"",""3531""
","
","1871.3999999985099","","","","","","","","53","","","","331","probe-181","","","","","1","[object Object]","157","3","1","","","",""
"","html-keyboard-response","224","596711","0.0-120.0-1.0","""event"",""trial"",""time""
""fullscreenenter"",""0"",""3531""
","
","
","""event"",""trial"",""time""
""fullscreenenter"",""0"",""3531""
","
","null","<p></p>","null","","","","","","","","","","","","","","","","","","","","","","","",""
"","do_trial","225","600005","0.0-121.0-0.0","""event"",""trial"",""time""
""fullscreenenter"",""0"",""3531""
","
","
","""event"",""trial"",""time""
""fullscreenenter"",""0"",""3531""
","
","748.2999999970198","","","","","","","","50","0,1,1","6","blank","332","null","0.33676967192462615","0.5944086868966263","0.16940905884579988","1","","","","","","","","",""
"","html-keyboard-response","226","601008","0.0-121.0-1.0","""event"",""trial"",""time""
""fullscreenenter"",""0"",""3531""
","
","
","""event"",""trial"",""time""
""fullscreenenter"",""0"",""3531""
","
","null","<p></p>","null","","","","","","","","","","","","","","","","","","","","","","","",""
"","do_trial","227","604075","0.0-122.0-0.0","""event"",""trial"",""time""
""fullscreenenter"",""0"",""3531""
","
","
","""event"",""trial"",""time""
""fullscreenenter"",""0"",""3531""
","
","522.3999999985099","","","","","","","","50","1,1,0","6","blank","333","null","0.5140532775166713","0.5218722102877055","0.2115895818034727","1","","","","","","","","",""
"","html-keyboard-response","228","605081","0.0-122.0-1.0","""event"",""trial"",""time""
""fullscreenenter"",""0"",""3531""
","
","
","""event"",""trial"",""time""
""fullscreenenter"",""0"",""3531""
","
","null","<p></p>","null","","","","","","","","","","","","","","","","","","","","","","","",""
"","do_recog","229","608699","0.0-123.0-0.0","""event"",""trial"",""time""
""fullscreenenter"",""0"",""3531""
","
","
","""event"",""trial"",""time""
""fullscreenenter"",""0"",""3531""
","
","2105.6999999955297","","","","","","","","54","","","","334","probe-21","","","","","1","[object Object]","39","0","1","","","",""
"","html-keyboard-response","230","609706","0.0-123.0-1.0","""event"",""trial"",""time""
""fullscreenenter"",""0"",""3531""
","
","
","""event"",""trial"",""time""
""fullscreenenter"",""0"",""3531""
","
","null","<p></p>","null","","","","","","","","","","","","","","","","","","","","","","","",""
"","do_trial","231","612794","0.0-124.0-0.0","""event"",""trial"",""time""
""fullscreenenter"",""0"",""3531""
","
","
","""event"",""trial"",""time""
""fullscreenenter"",""0"",""3531""
","
","542.6000000014901","","","","","","","","50","1,1,0","6","blank","335","null","0.46874975460590074","0.7001234247490428","0.22180245572611518","1","","","","","","","","",""
"","html-keyboard-response","232","613801","0.0-124.0-1.0","""event"",""trial"",""time""
""fullscreenenter"",""0"",""3531""
","
","
","""event"",""trial"",""time""
""fullscreenenter"",""0"",""3531""
","
","null","<p></p>","null","","","","","","","","","","","","","","","","","","","","","","","",""
"","do_trial","233","617169","0.0-125.0-0.0","""event"",""trial"",""time""
""fullscreenenter"",""0"",""3531""
","
","
","""event"",""trial"",""time""
""fullscreenenter"",""0"",""3531""
","
","815.8999999985099","","","","","","","","49","0,1,1","6","blank","336","null","0.48397908522178634","0.5609280311203556","0.1809452067392319","0","","","","","","","","",""
"","html-keyboard-response","234","618173","0.0-125.0-1.0","""event"",""trial"",""time""
""fullscreenenter"",""0"",""3531""
","
","
","""event"",""trial"",""time""
""fullscreenenter"",""0"",""3531""
","
","null","<p></p>","null","","","","","","","","","","","","","","","","","","","","","","","",""
"","do_trial","235","621119","0.0-126.0-0.0","""event"",""trial"",""time""
""fullscreenenter"",""0"",""3531""
","
","
","""event"",""trial"",""time""
""fullscreenenter"",""0"",""3531""
","
","399.6000000014901","","","","","","","","50","0,0,0","6","blank","337","null","0.49558894913900164","0.5871801160598872","0.10855957234460402","0","","","","","","","","",""
"","html-keyboard-response","236","622122","0.0-126.0-1.0","""event"",""trial"",""time""
""fullscreenenter"",""0"",""3531""
","
","
","""event"",""trial"",""time""
""fullscreenenter"",""0"",""3531""
","
","null","<p></p>","null","","","","","","","","","","","","","","","","","","","","","","","",""
"","do_trial","237","625184","0.0-127.0-0.0","""event"",""trial"",""time""
""fullscreenenter"",""0"",""3531""
","
","
","""event"",""trial"",""time""
""fullscreenenter"",""0"",""3531""
","
","514.6000000014901","","","","","","","","50","0,1,0","6","blank","338","null","0.46772696818931425","0.6325385487117393","0.13951532792282495","1","","","","","","","","",""
"","html-keyboard-response","238","626191","0.0-127.0-1.0","""event"",""trial"",""time""
""fullscreenenter"",""0"",""3531""
","
","
","""event"",""trial"",""time""
""fullscreenenter"",""0"",""3531""
","
","null","<p></p>","null","","","","","","","","","","","","","","","","","","","","","","","",""
"","do_trial","239","629519","0.0-128.0-0.0","""event"",""trial"",""time""
""fullscreenenter"",""0"",""3531""
","
","
","""event"",""trial"",""time""
""fullscreenenter"",""0"",""3531""
","
","777.9000000059605","","","","","","","","49","0,1,1","6","blank","339","null","0.42729464067689094","0.6049024199310977","0.10347087143084537","0","","","","","","","","",""
"","html-keyboard-response","240","630525","0.0-128.0-1.0","""event"",""trial"",""time""
""fullscreenenter"",""0"",""3531""
","
","
","""event"",""trial"",""time""
""fullscreenenter"",""0"",""3531""
","
","null","<p></p>","null","","","","","","","","","","","","","","","","","","","","","","","",""
"","do_trial","241","633574","0.0-129.0-0.0","""event"",""trial"",""time""
""fullscreenenter"",""0"",""3531""
","
","
","""event"",""trial"",""time""
""fullscreenenter"",""0"",""3531""
","
","499.3999999985099","","","","","","","","50","0,0,0","6","blank","340","null","0.32717102437300566","0.734215900748026","0.22256058940629012","0","","","","","","","","",""
"","html-keyboard-response","242","634581","0.0-129.0-1.0","""event"",""trial"",""time""
""fullscreenenter"",""0"",""3531""
","
","
","""event"",""trial"",""time""
""fullscreenenter"",""0"",""3531""
","
","null","<p></p>","null","","","","","","","","","","","","","","","","","","","","","","","",""
"","do_trial","243","637509","0.0-130.0-0.0","""event"",""trial"",""time""
""fullscreenenter"",""0"",""3531""
","
","
","""event"",""trial"",""time""
""fullscreenenter"",""0"",""3531""
","
","381.90000000596046","","","","","","","","50","0,0,0","6","blank","341","null","0.3327157904278627","0.6874289117515369","0.16158431636178308","0","","","","","","","","",""
"","html-keyboard-response","244","638511","0.0-130.0-1.0","""event"",""trial"",""time""
""fullscreenenter"",""0"",""3531""
","
","
","""event"",""trial"",""time""
""fullscreenenter"",""0"",""3531""
","
","null","<p></p>","null","","","","","","","","","","","","","","","","","","","","","","","",""
"","do_recog","245","642454","0.0-131.0-0.0","""event"",""trial"",""time""
""fullscreenenter"",""0"",""3531""
","
","
","""event"",""trial"",""time""
""fullscreenenter"",""0"",""3531""
","
","2431.10000000149","","","","","","","","53","","","","342","probe-23","","","","","1","[object Object]","154","3","1","","","",""
"","html-keyboard-response","246","643461","0.0-131.0-1.0","""event"",""trial"",""time""
""fullscreenenter"",""0"",""3531""
","
","
","""event"",""trial"",""time""
""fullscreenenter"",""0"",""3531""
","
","null","<p></p>","null","","","","","","","","","","","","","","","","","","","","","","","",""
"","do_trial","247","646502","0.0-132.0-0.0","""event"",""trial"",""time""
""fullscreenenter"",""0"",""3531""
","
","
","""event"",""trial"",""time""
""fullscreenenter"",""0"",""3531""
","
","492","","","","","","","","49","0,1,0","6","blank","343","null","0.4948877864446621","0.7239645601687481","0.16931364069585228","0","","","","","","","","",""
"","html-keyboard-response","248","647509","0.0-132.0-1.0","""event"",""trial"",""time""
""fullscreenenter"",""0"",""3531""
","
","
","""event"",""trial"",""time""
""fullscreenenter"",""0"",""3531""
","
","null","<p></p>","null","","","","","","","","","","","","","","","","","","","","","","","",""
"","do_trial","249","650428","0.0-133.0-0.0","""event"",""trial"",""time""
""fullscreenenter"",""0"",""3531""
","
","
","""event"",""trial"",""time""
""fullscreenenter"",""0"",""3531""
","
","369.29999999701977","","","","","","","","50","1,0,1","6","blank","344","null","0.3359586404092185","0.6212393787753803","0.18165069893561778","0","","","","","","","","",""
"","html-keyboard-response","250","651435","0.0-133.0-1.0","""event"",""trial"",""time""
""fullscreenenter"",""0"",""3531""
","
","
","""event"",""trial"",""time""
""fullscreenenter"",""0"",""3531""
","
","null","<p></p>","null","","","","","","","","","","","","","","","","","","","","","","","",""
"","do_trial","251","654402","0.0-134.0-0.0","""event"",""trial"",""time""
""fullscreenenter"",""0"",""3531""
","
","
","""event"",""trial"",""time""
""fullscreenenter"",""0"",""3531""
","
","417.19999999552965","","","","","","","","50","1,0,0","6","blank","345","null","0.40134159187455254","0.5670025392871162","0.18051714683216827","0","","","","","","","","",""
"","html-keyboard-response","252","655408","0.0-134.0-1.0","""event"",""trial"",""time""
""fullscreenenter"",""0"",""3531""
","
","
","""event"",""trial"",""time""
""fullscreenenter"",""0"",""3531""
","
","null","<p></p>","null","","","","","","","","","","","","","","","","","","","","","","","",""
"","do_trial","253","658366","0.0-135.0-0.0","""event"",""trial"",""time""
""fullscreenenter"",""0"",""3531""
","
","
","""event"",""trial"",""time""
""fullscreenenter"",""0"",""3531""
","
","409.90000000596046","","","","","","","","51","1,1,0","6","blank","346","null","0.4306488962481514","0.5602897811519522","0.29380375211084137","0","","","","","","","","",""
"","html-keyboard-response","254","659373","0.0-135.0-1.0","""event"",""trial"",""time""
""fullscreenenter"",""0"",""3531""
","
","
","""event"",""trial"",""time""
""fullscreenenter"",""0"",""3531""
","
","null","<p></p>","null","","","","","","","","","","","","","","","","","","","","","","","",""
"","do_trial","255","662137","0.0-136.0-0.0","""event"",""trial"",""time""
""fullscreenenter"",""0"",""3531""
","
","
","""event"",""trial"",""time""
""fullscreenenter"",""0"",""3531""
","
","215.80000000447035","","","","","","","","49","1,0,1","6","blank","347","null","0.4648845571014399","0.4537697229776938","0.2812178347780757","1","","","","","","","","",""
"","html-keyboard-response","256","663143","0.0-136.0-1.0","""event"",""trial"",""time""
""fullscreenenter"",""0"",""3531""
","
","
","""event"",""trial"",""time""
""fullscreenenter"",""0"",""3531""
","
","null","<p></p>","null","","","","","","","","","","","","","","","","","","","","","","","",""
"","do_recog","257","666609","0.0-137.0-0.0","""event"",""trial"",""time""
""fullscreenenter"",""0"",""3531""
","
","
","""event"",""trial"",""time""
""fullscreenenter"",""0"",""3531""
","
","1953.1999999955297","","","","","","","","54","","","","348","probe-213","","","","","1","[object Object]","116","2","1","","","",""
"","html-keyboard-response","258","667615","0.0-137.0-1.0","""event"",""trial"",""time""
""fullscreenenter"",""0"",""3531""
","
","
","""event"",""trial"",""time""
""fullscreenenter"",""0"",""3531""
","
","null","<p></p>","null","","","","","","","","","","","","","","","","","","","","","","","",""
"","break","259","688516","0.0-138.0-0.0","""event"",""trial"",""time""
""fullscreenenter"",""0"",""3531""
","
","
","""event"",""trial"",""time""
""fullscreenenter"",""0"",""3531""
","
","20898.80000000447","<div class='center'><p>Time to take a quick break! You have 2 minutes to rest, but you can move on sooner if you'd like.</p><p> Press the <b>space bar</b> to continue.</p></div>","32","","","","","","","","","","","","","","","","","","","","","","","",""
"","do_trial","260","691855","0.0-138.0-1.0","""event"",""trial"",""time""
""fullscreenenter"",""0"",""3531""
","
","
","""event"",""trial"",""time""
""fullscreenenter"",""0"",""3531""
","
","795.0999999940395","","","","","","","","50","1,0,0","6","blank","349","null","0.39831710834831535","0.2026993015731553","0.2590291589765536","0","","","","","","","","",""
"","html-keyboard-response","261","692861","0.0-138.0-2.0","""event"",""trial"",""time""
""fullscreenenter"",""0"",""3531""
","
","
","""event"",""trial"",""time""
""fullscreenenter"",""0"",""3531""
","
","null","<p></p>","null","","","","","","","","","","","","","","","","","","","","","","","",""
"","do_trial","262","695909","0.0-139.0-0.0","""event"",""trial"",""time""
""fullscreenenter"",""0"",""3531""
","
","
","""event"",""trial"",""time""
""fullscreenenter"",""0"",""3531""
","
","497.70000000298023","","","","","","","","49","1,0,0","6","blank","350","null","0.36230353651601943","0.1416811788305073","0.4069928678091925","1","","","","","","","","",""
"","html-keyboard-response","263","696916","0.0-139.0-1.0","""event"",""trial"",""time""
""fullscreenenter"",""0"",""3531""
","
","
","""event"",""trial"",""time""
""fullscreenenter"",""0"",""3531""
","
","null","<p></p>","null","","","","","","","","","","","","","","","","","","","","","","","",""
"","do_trial","264","699919","0.0-140.0-0.0","""event"",""trial"",""time""
""fullscreenenter"",""0"",""3531""
","
","
","""event"",""trial"",""time""
""fullscreenenter"",""0"",""3531""
","
","457.79999999701977","","","","","","","","50","0,0,1","6","blank","351","null","0.2860015066521627","0.11557798694937503","0.5839015109146618","0","","","","","","","","",""
"","html-keyboard-response","265","700926","0.0-140.0-1.0","""event"",""trial"",""time""
""fullscreenenter"",""0"",""3531""
","
","
","""event"",""trial"",""time""
""fullscreenenter"",""0"",""3531""
","
","null","<p></p>","null","","","","","","","","","","","","","","","","","","","","","","","",""
"","do_trial","266","703536","0.0-141.0-0.0","""event"",""trial"",""time""
""fullscreenenter"",""0"",""3531""
","
","
","""event"",""trial"",""time""
""fullscreenenter"",""0"",""3531""
","
","59.69999999552965","","","","","","","","49","0,0,1","6","blank","352","null","0.3931958998212254","0.1359153715413691","0.6703693244153638","0","","","","","","","","",""
"","html-keyboard-response","267","704542","0.0-141.0-1.0","""event"",""trial"",""time""
""fullscreenenter"",""0"",""3531""
","
","
","""event"",""trial"",""time""
""fullscreenenter"",""0"",""3531""
","
","null","<p></p>","null","","","","","","","","","","","","","","","","","","","","","","","",""
"","do_trial","268","707503","0.0-142.0-0.0","""event"",""trial"",""time""
""fullscreenenter"",""0"",""3531""
","
","
","""event"",""trial"",""time""
""fullscreenenter"",""0"",""3531""
","
","410.3999999985099","","","","","","","","50","0,0,0","6","blank","353","null","0.43432362757006404","0.07067906843375746","0.5367754750657919","0","","","","","","","","",""
"","html-keyboard-response","269","708510","0.0-142.0-1.0","""event"",""trial"",""time""
""fullscreenenter"",""0"",""3531""
","
","
","""event"",""trial"",""time""
""fullscreenenter"",""0"",""3531""
","
","null","<p></p>","null","","","","","","","","","","","","","","","","","","","","","","","",""
"","do_trial","270","711403","0.0-143.0-0.0","""event"",""trial"",""time""
""fullscreenenter"",""0"",""3531""
","
","
","""event"",""trial"",""time""
""fullscreenenter"",""0"",""3531""
","
","343.30000000447035","","","","","","","","50","0,0,0","6","blank","354","null","0.2852053083452304","0.22034943931953563","0.4654481816942756","0","","","","","","","","",""
"","html-keyboard-response","271","712410","0.0-143.0-1.0","""event"",""trial"",""time""
""fullscreenenter"",""0"",""3531""
","
","
","""event"",""trial"",""time""
""fullscreenenter"",""0"",""3531""
","
","null","<p></p>","null","","","","","","","","","","","","","","","","","","","","","","","",""
"","do_recog","272","716290","0.0-144.0-0.0","""event"",""trial"",""time""
""fullscreenenter"",""0"",""3531""
","
","
","""event"",""trial"",""time""
""fullscreenenter"",""0"",""3531""
","
","2368.7000000029802","","","","","","","","53","","","","355","probe-122","","","","","1","[object Object]","33","0","1","","","",""
"","html-keyboard-response","273","717297","0.0-144.0-1.0","""event"",""trial"",""time""
""fullscreenenter"",""0"",""3531""
","
","
","""event"",""trial"",""time""
""fullscreenenter"",""0"",""3531""
","
","null","<p></p>","null","","","","","","","","","","","","","","","","","","","","","","","",""
"","do_trial","274","720340","0.0-145.0-0.0","""event"",""trial"",""time""
""fullscreenenter"",""0"",""3531""
","
","
","""event"",""trial"",""time""
""fullscreenenter"",""0"",""3531""
","
","493.6000000014901","","","","","","","","49","1,1,1","6","blank","356","null","0.2070384323800504","0.23885422588859706","0.446353632336377","1","","","","","","","","",""
"","html-keyboard-response","275","721343","0.0-145.0-1.0","""event"",""trial"",""time""
""fullscreenenter"",""0"",""3531""
","
","
","""event"",""trial"",""time""
""fullscreenenter"",""0"",""3531""
","
","null","<p></p>","null","","","","","","","","","","","","","","","","","","","","","","","",""
"","do_recog","276","724621","0.0-146.0-0.0","""event"",""trial"",""time""
""fullscreenenter"",""0"",""3531""
","
","
","""event"",""trial"",""time""
""fullscreenenter"",""0"",""3531""
","
","1770.3999999985099","","","","","","","","54","","","","357","probe-101","","","","","1","[object Object]","74","1","1","","","",""
"","html-keyboard-response","277","725625","0.0-146.0-1.0","""event"",""trial"",""time""
""fullscreenenter"",""0"",""3531""
","
","
","""event"",""trial"",""time""
