"success","trial_type","trial_index","time_elapsed","internal_node_id","interactions","blur_events","focus_events","fullscreenenter_events","fullscreenexit_events","rt","stimulus","key_press","subject_id","participant_id","age","gender","prompt","response","choice_outcomes","context_n","context_img_id","trial_n","probe_img_id","pR_red","pR_white","pR_black","outcome","is_valid","image_to_show","probed_trial","probed_context","correct","probe","probed_trial_n","probed_context_n","context_im"
"true","fullscreen","0","7645","0.0-0.0","""event"",""trial"",""time""
""fullscreenenter"",""0"",""6649""
","
","
","""event"",""trial"",""time""
""fullscreenenter"",""0"",""6649""
","
","","","","","","","","","","","","","","","","","","","","","","","","","","",""
"","pavlovia","1","7650","0.0-1.0","""event"",""trial"",""time""
""fullscreenenter"",""0"",""6649""
","
","
","""event"",""trial"",""time""
""fullscreenenter"",""0"",""6649""
","
","","","","","","","","","","","","","","","","","","","","","","","","","","",""
"","welc_back","2","17605","0.0-2.0","""event"",""trial"",""time""
""fullscreenenter"",""0"",""6649""
","
","
","""event"",""trial"",""time""
""fullscreenenter"",""0"",""6649""
","
","null","run_exp/static/audio/clip_29_welcome_back.m4a","null","566","658","16","Male","<div class='center'><p>Welcome to day 2!</p><p> Yesterday, you were the head captain of a pirate ship. You asked your fellow pirates to rob other ships of their gold across six different islands.</p></div>","","","","","","","","","","","","","","","","","","",""
"","html-keyboard-response","3","19379","0.0-3.0","""event"",""trial"",""time""
""fullscreenenter"",""0"",""6649""
""blur"",""4"",""37065""
""focus"",""4"",""37076""
","""event"",""trial"",""time""
""blur"",""4"",""37065""
","""event"",""trial"",""time""
""focus"",""4"",""37076""
","""event"",""trial"",""time""
""fullscreenenter"",""0"",""6649""
","
","1770.1000000005588","<div class='center'><p>Welcome to day 2!</p><p> Yesterday, you were the head captain of a pirate ship. You asked your fellow pirates to rob other ships of their gold across six different islands.</p><p><b>[Press the space bar to continue]</b></p></div>","32","","","","","","","","","","","","","","","","","","","","","","","",""
"","day_1_summary_goal","4","37078","0.0-4.0","""event"",""trial"",""time""
""fullscreenenter"",""0"",""6649""
""blur"",""4"",""37065""
""focus"",""4"",""37076""
""fullscreenexit"",""5"",""37084""
","""event"",""trial"",""time""
""blur"",""4"",""37065""
","""event"",""trial"",""time""
""focus"",""4"",""37076""
","""event"",""trial"",""time""
""fullscreenenter"",""0"",""6649""
","""event"",""trial"",""time""
""fullscreenexit"",""5"",""37084""
","null","run_exp/static/audio/clip_30_goal_of_game.m4a","null","","","","","<div class='center'><p>Today, like yesterday, you get to pick which pirate you want to rob the next ship.</p><p>If the pirate is successful in robbing a ship, you get gold coins that look like this: </p><p><img src='run_exp/static/images/tutorial/reward.png' height='150'></p><p> If they were not successful in robbing the ship, then you will get no gold coins and you'll see a big red x like this: </p><p><img src='run_exp/static/images/tutorial/reward_no.png' height='150'></p></div>","","","","","","","","","","","","","","","","","","",""
"","html-keyboard-response","5","38400","0.0-5.0","""event"",""trial"",""time""
""fullscreenenter"",""0"",""6649""
""blur"",""4"",""37065""
""focus"",""4"",""37076""
""fullscreenexit"",""5"",""37084""
","""event"",""trial"",""time""
""blur"",""4"",""37065""
","""event"",""trial"",""time""
""focus"",""4"",""37076""
","""event"",""trial"",""time""
""fullscreenenter"",""0"",""6649""
","""event"",""trial"",""time""
""fullscreenexit"",""5"",""37084""
","1320.7999999998137","<div class='center'><p>Today, like yesterday, you get to pick which pirate you want to rob the next ship.</p><p>If the pirate is successful in robbing a ship, you get gold coins that look like this: </p><p><img src='run_exp/static/images/tutorial/reward.png' height='150'></p><p> If they were not successful in robbing the ship, then you will get no gold coins and you'll see a big red x like this: </p><p><img src='run_exp/static/images/tutorial/reward_no.png' height='150'></p><p><b>[Press the space bar to continue]</b></p></div>","32","","","","","","","","","","","","","","","","","","","","","","","",""
"","day_1_summary_pick","6","53146","0.0-6.0","""event"",""trial"",""time""
""fullscreenenter"",""0"",""6649""
""blur"",""4"",""37065""
""focus"",""4"",""37076""
""fullscreenexit"",""5"",""37084""
","""event"",""trial"",""time""
""blur"",""4"",""37065""
","""event"",""trial"",""time""
""focus"",""4"",""37076""
","""event"",""trial"",""time""
""fullscreenenter"",""0"",""6649""
","""event"",""trial"",""time""
""fullscreenexit"",""5"",""37084""
","null","run_exp/static/audio/clip_31_how_to_pick_a_pirate.m4a","null","","","","","<div class='center'><p>Also, just like yesterday, you will use the 1,2,3 keys on your keyboard to pick a pirate. Press '1' to choose red beard, '2' to choose white beard, and '3' to choose black beard . You only have 3 seconds to pick a pirate, so please make a choice quickly!</p></div>","","","","","","","","","","","","","","","","","","",""
"","html-keyboard-response","7","55119","0.0-7.0","""event"",""trial"",""time""
""fullscreenenter"",""0"",""6649""
""blur"",""4"",""37065""
""focus"",""4"",""37076""
""fullscreenexit"",""5"",""37084""
","""event"",""trial"",""time""
""blur"",""4"",""37065""
","""event"",""trial"",""time""
""focus"",""4"",""37076""
","""event"",""trial"",""time""
""fullscreenenter"",""0"",""6649""
","""event"",""trial"",""time""
""fullscreenexit"",""5"",""37084""
","1971.4000000003725","<div class='center'><p>Also, just like yesterday, you will use the 1,2,3 keys on your keyboard to pick a pirate. Press '1' to choose red beard, '2' to choose white beard, and '3' to choose black beard . You only have 3 seconds to pick a pirate, so please make a choice quickly!</p><p><b>[Press the space bar to continue]</b></p></div>","32","","","","","","","","","","","","","","","","","","","","","","","",""
"","test_phase_begin","8","85566","0.0-8.0","""event"",""trial"",""time""
""fullscreenenter"",""0"",""6649""
""blur"",""4"",""37065""
""focus"",""4"",""37076""
""fullscreenexit"",""5"",""37084""
","""event"",""trial"",""time""
""blur"",""4"",""37065""
","""event"",""trial"",""time""
""focus"",""4"",""37076""
","""event"",""trial"",""time""
""fullscreenenter"",""0"",""6649""
","""event"",""trial"",""time""
""fullscreenexit"",""5"",""37084""
","null","run_exp/static/audio/clip_32_final_place.m4a","null","","","","","<div class='center'><p>You’ve arrived at the final island of your journey! Unfortunately, it’s very foggy out, so you won’t be able to see it in the distance like the other islands you've visited.</p><p>You’ll still be deciding which pirate you want to rob a ship like before. However, because of the fog, you also won’t be able to see the ship.</p><p>This means you do not have to remember the ships you rob on this island.</p><p>Unlike yesterday, you won't be visiting multiple islands today. You will stay on this island for the entire game. This game will last ~30 minutes.</p></div>","","","","","","","","","","","","","","","","","","",""
"","html-keyboard-response","9","88430","0.0-9.0","""event"",""trial"",""time""
""fullscreenenter"",""0"",""6649""
""blur"",""4"",""37065""
""focus"",""4"",""37076""
""fullscreenexit"",""5"",""37084""
","""event"",""trial"",""time""
""blur"",""4"",""37065""
","""event"",""trial"",""time""
""focus"",""4"",""37076""
","""event"",""trial"",""time""
""fullscreenenter"",""0"",""6649""
","""event"",""trial"",""time""
""fullscreenexit"",""5"",""37084""
","2861.9000000003725","<div class='center'><p>You’ve arrived at the final island of your journey! Unfortunately, it’s very foggy out, so you won’t be able to see it in the distance like the other islands you've visited.</p><p>You’ll still be deciding which pirate you want to rob a ship like before. However, because of the fog, you also won’t be able to see the ship.</p><p>This means you do not have to remember the ships you rob on this island.</p><p>Unlike yesterday, you won't be visiting multiple islands today. You will stay on this island for the entire game. This game will last ~30 minutes.</p><p><b>[Press the space bar to continue]</b></p></div>","32","","","","","","","","","","","","","","","","","","","","","","","",""
"","explain_probe_1","10","96205","0.0-10.0","""event"",""trial"",""time""
""fullscreenenter"",""0"",""6649""
""blur"",""4"",""37065""
""focus"",""4"",""37076""
""fullscreenexit"",""5"",""37084""
","""event"",""trial"",""time""
""blur"",""4"",""37065""
","""event"",""trial"",""time""
""focus"",""4"",""37076""
","""event"",""trial"",""time""
""fullscreenenter"",""0"",""6649""
","""event"",""trial"",""time""
""fullscreenexit"",""5"",""37084""
","null","run_exp/static/audio/clip_33_recognition_1.m4a","null","","","","","<div class='center'><p> Sometimes you’ll be shown a ship, and you will be asked if you saw this ship on a past island.</p><p> Here is an example of what you will see.</p><p><img src='run_exp/static/images/tutorial/example_recog_trial.png' height='500'></p></div>","","","","","","","","","","","","","","","","","","",""
"","html-keyboard-response","11","97976","0.0-11.0","""event"",""trial"",""time""
""fullscreenenter"",""0"",""6649""
""blur"",""4"",""37065""
""focus"",""4"",""37076""
""fullscreenexit"",""5"",""37084""
","""event"",""trial"",""time""
""blur"",""4"",""37065""
","""event"",""trial"",""time""
""focus"",""4"",""37076""
","""event"",""trial"",""time""
""fullscreenenter"",""0"",""6649""
","""event"",""trial"",""time""
""fullscreenexit"",""5"",""37084""
","1769","<div class='center'><p> Sometimes you’ll be shown a ship, and you will be asked if you saw this ship on a past island.</p><p> Here is an example of what you will see.</p><p><img src='run_exp/static/images/tutorial/example_recog_trial.png' height='500'></p><p><b>[Press the space bar to continue]</b></p></div>","32","","","","","","","","","","","","","","","","","","","","","","","",""
"","explain_probe_2","12","119744","0.0-12.0","""event"",""trial"",""time""
""fullscreenenter"",""0"",""6649""
""blur"",""4"",""37065""
""focus"",""4"",""37076""
""fullscreenexit"",""5"",""37084""
","""event"",""trial"",""time""
""blur"",""4"",""37065""
","""event"",""trial"",""time""
""focus"",""4"",""37076""
","""event"",""trial"",""time""
""fullscreenenter"",""0"",""6649""
","""event"",""trial"",""time""
""fullscreenexit"",""5"",""37084""
","null","run_exp/static/audio/clip_34_recognition_2.m4a","null","","","","","<div class='center'><p> You will press the 5, 6, 7, 8 keys on your keyboard to respond.</p><p>If you are sure you saw the ship, press <b>5</b> on your keyboard.</p><p> If you think you saw it before but aren't sure, then press <b>6</b>.</p><p> If you think you have <b>not</b> seen it before but aren't sure, then press <b>7</b>.</p><p> If you are sure you did <b>not</b> see the ship before, then press <b>8</b>.</p><p><img src='run_exp/static/images/tutorial/example_recog_trial.png' height='500'></p></div>","","","","","","","","","","","","","","","","","","",""
"","html-keyboard-response","13","120649","0.0-13.0","""event"",""trial"",""time""
""fullscreenenter"",""0"",""6649""
""blur"",""4"",""37065""
""focus"",""4"",""37076""
""fullscreenexit"",""5"",""37084""
","""event"",""trial"",""time""
""blur"",""4"",""37065""
","""event"",""trial"",""time""
""focus"",""4"",""37076""
","""event"",""trial"",""time""
""fullscreenenter"",""0"",""6649""
","""event"",""trial"",""time""
""fullscreenexit"",""5"",""37084""
","903.5999999996275","<div class='center'><p> You will press the 5, 6, 7, 8 keys on your keyboard to respond.</p><p>If you are sure you saw the ship, press <b>5</b> on your keyboard.</p><p> If you think you saw it before but aren't sure, then press <b>6</b>.</p><p> If you think you have <b>not</b> seen it before but aren't sure, then press <b>7</b>.</p><p> If you are sure you did <b>not</b> see the ship before, then press <b>8</b>.</p><p><img src='run_exp/static/images/tutorial/example_recog_trial.png' height='500'></p><p><b>[Press the space bar to continue]</b></p></div>","32","","","","","","","","","","","","","","","","","","","","","","","",""
"","explain_outcome","14","137905","0.0-14.0","""event"",""trial"",""time""
""fullscreenenter"",""0"",""6649""
""blur"",""4"",""37065""
""focus"",""4"",""37076""
""fullscreenexit"",""5"",""37084""
","""event"",""trial"",""time""
""blur"",""4"",""37065""
","""event"",""trial"",""time""
""focus"",""4"",""37076""
","""event"",""trial"",""time""
""fullscreenenter"",""0"",""6649""
","""event"",""trial"",""time""
""fullscreenexit"",""5"",""37084""
","null","run_exp/static/audio/clip_35_recognition_3.m4a","null","","","","","<div class='center'><p> If you remember correctly, then you’ll get a gold coin like this: </p><p><img src='run_exp/static/images/tutorial/reward_small.png' height='200'></p><p>If you do not remember correctly, then you'll see a red x like this: </p><p><img src='run_exp/static/images/tutorial/reward_no.png' height='200'></p><p>Importantly, when you are shown a ship, take the time to remind yourself which island you saw it on. This will help you in the next part of the study.</p></div>","","","","","","","","","","","","","","","","","","",""
"","html-keyboard-response","15","143368","0.0-15.0","""event"",""trial"",""time""
""fullscreenenter"",""0"",""6649""
""blur"",""4"",""37065""
""focus"",""4"",""37076""
""fullscreenexit"",""5"",""37084""
","""event"",""trial"",""time""
""blur"",""4"",""37065""
","""event"",""trial"",""time""
""focus"",""4"",""37076""
","""event"",""trial"",""time""
""fullscreenenter"",""0"",""6649""
","""event"",""trial"",""time""
""fullscreenexit"",""5"",""37084""
","5461.700000000186","<div class='center'><p> If you remember correctly, then you’ll get a gold coin like this: </p><p><img src='run_exp/static/images/tutorial/reward_small.png' height='200'></p><p>If you do not remember correctly, then you'll see a red x like this: </p><p><img src='run_exp/static/images/tutorial/reward_no.png' height='200'></p><p>Importantly, when you are shown a ship, take the time to remind yourself which island you saw it on. This will help you in the next part of the study.</p><p><b>[Press the space bar to continue]</b></p></div>","32","","","","","","","","","","","","","","","","","","","","","","","",""
"","begin_test_phase","16","159245","0.0-16.0","""event"",""trial"",""time""
""fullscreenenter"",""0"",""6649""
""blur"",""4"",""37065""
""focus"",""4"",""37076""
""fullscreenexit"",""5"",""37084""
","""event"",""trial"",""time""
""blur"",""4"",""37065""
","""event"",""trial"",""time""
""focus"",""4"",""37076""
","""event"",""trial"",""time""
""fullscreenenter"",""0"",""6649""
","""event"",""trial"",""time""
""fullscreenexit"",""5"",""37084""
","null","run_exp/static/audio/clip_36_begin_final.m4a","null","","","","","<div class='center'><p>Let's go over the important points again. Your job is to: </p><p>1. Pick the pirate who is best at robbing ships and will bring you back gold coins. </p><p>2. Correctly remember whether or not you saw a ship before. If you did see the ship before, remind yourself on which island you saw it. </p></div>","","","","","","","","","","","","","","","","","","",""
"","html-keyboard-response","17","171127","0.0-17.0","""event"",""trial"",""time""
""fullscreenenter"",""0"",""6649""
""blur"",""4"",""37065""
""focus"",""4"",""37076""
""fullscreenexit"",""5"",""37084""
","""event"",""trial"",""time""
""blur"",""4"",""37065""
","""event"",""trial"",""time""
""focus"",""4"",""37076""
","""event"",""trial"",""time""
""fullscreenenter"",""0"",""6649""
","""event"",""trial"",""time""
""fullscreenexit"",""5"",""37084""
","11857.100000000559","<div class='center'><p>Let's go over the important points again. Your job is to: </p><p>1. Pick the pirate who is best at robbing ships and will bring you back gold coins. </p><p>2. Correctly remember whether or not you saw a ship before. If you did see the ship before, remind yourself on which island you saw it. </p><p><b>[Press the space bar to continue]</b></p></div>","32","","","","","","","","","","","","","","","","","","","","","","","",""
"","do_welcome","18","175133","0.0-18.0","""event"",""trial"",""time""
""fullscreenenter"",""0"",""6649""
""blur"",""4"",""37065""
""focus"",""4"",""37076""
""fullscreenexit"",""5"",""37084""
","""event"",""trial"",""time""
""blur"",""4"",""37065""
","""event"",""trial"",""time""
""focus"",""4"",""37076""
","""event"",""trial"",""time""
""fullscreenenter"",""0"",""6649""
","""event"",""trial"",""time""
""fullscreenexit"",""5"",""37084""
","null","","","","","","","","null","","","","","","","","","","","","","","","","","",""
"","do_trial","19","181182","0.0-19.0-0.0","""event"",""trial"",""time""
""fullscreenenter"",""0"",""6649""
""blur"",""4"",""37065""
""focus"",""4"",""37076""
""fullscreenexit"",""5"",""37084""
","""event"",""trial"",""time""
""blur"",""4"",""37065""
","""event"",""trial"",""time""
""focus"",""4"",""37076""
","""event"",""trial"",""time""
""fullscreenenter"",""0"",""6649""
","""event"",""trial"",""time""
""fullscreenexit"",""5"",""37084""
","null","","","","","","","","null","0,0,0","6","blank","230","null","0.5608041400423924","0.24507170269783768","0.2792478522031137","","","","","","","","","",""
"","html-keyboard-response","20","182190","0.0-19.0-1.0","""event"",""trial"",""time""
""fullscreenenter"",""0"",""6649""
""blur"",""4"",""37065""
""focus"",""4"",""37076""
""fullscreenexit"",""5"",""37084""
","""event"",""trial"",""time""
""blur"",""4"",""37065""
","""event"",""trial"",""time""
""focus"",""4"",""37076""
","""event"",""trial"",""time""
""fullscreenenter"",""0"",""6649""
","""event"",""trial"",""time""
""fullscreenexit"",""5"",""37084""
","null","<p></p>","null","","","","","","","","","","","","","","","","","","","","","","","",""
"","do_trial","21","185365","0.0-20.0-0.0","""event"",""trial"",""time""
""fullscreenenter"",""0"",""6649""
""blur"",""4"",""37065""
""focus"",""4"",""37076""
""fullscreenexit"",""5"",""37084""
","""event"",""trial"",""time""
""blur"",""4"",""37065""
","""event"",""trial"",""time""
""focus"",""4"",""37076""
","""event"",""trial"",""time""
""fullscreenenter"",""0"",""6649""
","""event"",""trial"",""time""
""fullscreenexit"",""5"",""37084""
","642.2999999998137","","","","","","","","50","0,0,0","6","blank","231","null","0.6595563757219385","0.18134227497474467","0.1850119595294818","0","","","","","","","","",""
"","html-keyboard-response","22","186373","0.0-20.0-1.0","""event"",""trial"",""time""
""fullscreenenter"",""0"",""6649""
""blur"",""4"",""37065""
""focus"",""4"",""37076""
""fullscreenexit"",""5"",""37084""
","""event"",""trial"",""time""
""blur"",""4"",""37065""
","""event"",""trial"",""time""
""focus"",""4"",""37076""
","""event"",""trial"",""time""
""fullscreenenter"",""0"",""6649""
","""event"",""trial"",""time""
""fullscreenexit"",""5"",""37084""
","null","<p></p>","null","","","","","","","","","","","","","","","","","","","","","","","",""
"","do_trial","23","189495","0.0-21.0-0.0","""event"",""trial"",""time""
""fullscreenenter"",""0"",""6649""
""blur"",""4"",""37065""
""focus"",""4"",""37076""
""fullscreenexit"",""5"",""37084""
","""event"",""trial"",""time""
""blur"",""4"",""37065""
","""event"",""trial"",""time""
""focus"",""4"",""37076""
","""event"",""trial"",""time""
""fullscreenenter"",""0"",""6649""
","""event"",""trial"",""time""
""fullscreenexit"",""5"",""37084""
","581.5","","","","","","","","49","0,0,0","6","blank","232","null","0.5046069219172045","0.1745148754421439","0.17279566016927725","0","","","","","","","","",""
"","html-keyboard-response","24","190502","0.0-21.0-1.0","""event"",""trial"",""time""
""fullscreenenter"",""0"",""6649""
""blur"",""4"",""37065""
""focus"",""4"",""37076""
""fullscreenexit"",""5"",""37084""
","""event"",""trial"",""time""
""blur"",""4"",""37065""
","""event"",""trial"",""time""
""focus"",""4"",""37076""
","""event"",""trial"",""time""
""fullscreenenter"",""0"",""6649""
","""event"",""trial"",""time""
""fullscreenexit"",""5"",""37084""
","null","<p></p>","null","","","","","","","","","","","","","","","","","","","","","","","",""
"","do_trial","25","193623","0.0-22.0-0.0","""event"",""trial"",""time""
""fullscreenenter"",""0"",""6649""
""blur"",""4"",""37065""
""focus"",""4"",""37076""
""fullscreenexit"",""5"",""37084""
","""event"",""trial"",""time""
""blur"",""4"",""37065""
","""event"",""trial"",""time""
""focus"",""4"",""37076""
","""event"",""trial"",""time""
""fullscreenenter"",""0"",""6649""
","""event"",""trial"",""time""
""fullscreenexit"",""5"",""37084""
","591.1999999992549","","","","","","","","49","0,0,0","6","blank","233","null","0.41736067243412406","0.19049251603734352","0.05403111469730584","0","","","","","","","","",""
"","html-keyboard-response","26","194629","0.0-22.0-1.0","""event"",""trial"",""time""
""fullscreenenter"",""0"",""6649""
""blur"",""4"",""37065""
""focus"",""4"",""37076""
""fullscreenexit"",""5"",""37084""
","""event"",""trial"",""time""
""blur"",""4"",""37065""
","""event"",""trial"",""time""
""focus"",""4"",""37076""
","""event"",""trial"",""time""
""fullscreenenter"",""0"",""6649""
","""event"",""trial"",""time""
""fullscreenexit"",""5"",""37084""
","null","<p></p>","null","","","","","","","","","","","","","","","","","","","","","","","",""
"","do_trial","27","197407","0.0-23.0-0.0","""event"",""trial"",""time""
""fullscreenenter"",""0"",""6649""
""blur"",""4"",""37065""
""focus"",""4"",""37076""
""fullscreenexit"",""5"",""37084""
","""event"",""trial"",""time""
""blur"",""4"",""37065""
","""event"",""trial"",""time""
""focus"",""4"",""37076""
","""event"",""trial"",""time""
""fullscreenenter"",""0"",""6649""
","""event"",""trial"",""time""
""fullscreenexit"",""5"",""37084""
","249.70000000018626","","","","","","","","49","0,1,0","6","blank","234","null","0.44362579334160324","0.41656142161636167","0.06800614271518722","0","","","","","","","","",""
"","html-keyboard-response","28","198414","0.0-23.0-1.0","""event"",""trial"",""time""
""fullscreenenter"",""0"",""6649""
""blur"",""4"",""37065""
""focus"",""4"",""37076""
""fullscreenexit"",""5"",""37084""
","""event"",""trial"",""time""
""blur"",""4"",""37065""
","""event"",""trial"",""time""
""focus"",""4"",""37076""
","""event"",""trial"",""time""
""fullscreenenter"",""0"",""6649""
","""event"",""trial"",""time""
""fullscreenexit"",""5"",""37084""
","null","<p></p>","null","","","","","","","","","","","","","","","","","","","","","","","",""
"","do_trial","29","201162","0.0-24.0-0.0","""event"",""trial"",""time""
""fullscreenenter"",""0"",""6649""
""blur"",""4"",""37065""
""focus"",""4"",""37076""
""fullscreenexit"",""5"",""37084""
","""event"",""trial"",""time""
""blur"",""4"",""37065""
","""event"",""trial"",""time""
""focus"",""4"",""37076""
","""event"",""trial"",""time""
""fullscreenenter"",""0"",""6649""
","""event"",""trial"",""time""
""fullscreenexit"",""5"",""37084""
","218","","","","","","","","50","1,0,0","6","blank","235","null","0.4764847658055949","0.4735539721891604","0.0676117332321307","0","","","","","","","","",""
"","html-keyboard-response","30","202170","0.0-24.0-1.0","""event"",""trial"",""time""
""fullscreenenter"",""0"",""6649""
""blur"",""4"",""37065""
""focus"",""4"",""37076""
""fullscreenexit"",""5"",""37084""
","""event"",""trial"",""time""
""blur"",""4"",""37065""
","""event"",""trial"",""time""
""focus"",""4"",""37076""
","""event"",""trial"",""time""
""fullscreenenter"",""0"",""6649""
","""event"",""trial"",""time""
""fullscreenexit"",""5"",""37084""
","null","<p></p>","null","","","","","","","","","","","","","","","","","","","","","","","",""
"","do_trial","31","204965","0.0-25.0-0.0","""event"",""trial"",""time""
""fullscreenenter"",""0"",""6649""
""blur"",""4"",""37065""
""focus"",""4"",""37076""
""fullscreenexit"",""5"",""37084""
","""event"",""trial"",""time""
""blur"",""4"",""37065""
","""event"",""trial"",""time""
""focus"",""4"",""37076""
","""event"",""trial"",""time""
""fullscreenenter"",""0"",""6649""
","""event"",""trial"",""time""
""fullscreenexit"",""5"",""37084""
","255.20000000018626","","","","","","","","50","1,0,1","6","blank","236","null","0.6012498945533353","0.3772310961021346","0.1686296577288597","0","","","","","","","","",""
"","html-keyboard-response","32","205976","0.0-25.0-1.0","""event"",""trial"",""time""
""fullscreenenter"",""0"",""6649""
""blur"",""4"",""37065""
""focus"",""4"",""37076""
""fullscreenexit"",""5"",""37084""
","""event"",""trial"",""time""
""blur"",""4"",""37065""
","""event"",""trial"",""time""
""focus"",""4"",""37076""
","""event"",""trial"",""time""
""fullscreenenter"",""0"",""6649""
","""event"",""trial"",""time""
""fullscreenexit"",""5"",""37084""
","null","<p></p>","null","","","","","","","","","","","","","","","","","","","","","","","",""
"","do_trial","33","208725","0.0-26.0-0.0","""event"",""trial"",""time""
""fullscreenenter"",""0"",""6649""
""blur"",""4"",""37065""
""focus"",""4"",""37076""
""fullscreenexit"",""5"",""37084""
","""event"",""trial"",""time""
""blur"",""4"",""37065""
","""event"",""trial"",""time""
""focus"",""4"",""37076""
","""event"",""trial"",""time""
""fullscreenenter"",""0"",""6649""
","""event"",""trial"",""time""
""fullscreenexit"",""5"",""37084""
","208.40000000037253","","","","","","","","51","1,1,0","6","blank","237","null","0.6234221377365623","0.29932658075452545","0.20348752219185096","0","","","","","","","","",""
"","html-keyboard-response","34","209734","0.0-26.0-1.0","""event"",""trial"",""time""
""fullscreenenter"",""0"",""6649""
""blur"",""4"",""37065""
""focus"",""4"",""37076""
""fullscreenexit"",""5"",""37084""
","""event"",""trial"",""time""
""blur"",""4"",""37065""
","""event"",""trial"",""time""
""focus"",""4"",""37076""
","""event"",""trial"",""time""
""fullscreenenter"",""0"",""6649""
","""event"",""trial"",""time""
""fullscreenexit"",""5"",""37084""
","null","<p></p>","null","","","","","","","","","","","","","","","","","","","","","","","",""
"","do_trial","35","212332","0.0-27.0-0.0","""event"",""trial"",""time""
""fullscreenenter"",""0"",""6649""
""blur"",""4"",""37065""
""focus"",""4"",""37076""
""fullscreenexit"",""5"",""37084""
","""event"",""trial"",""time""
""blur"",""4"",""37065""
","""event"",""trial"",""time""
""focus"",""4"",""37076""
","""event"",""trial"",""time""
""fullscreenenter"",""0"",""6649""
","""event"",""trial"",""time""
""fullscreenexit"",""5"",""37084""
","68.20000000018626","","","","","","","","51","0,0,0","6","blank","238","null","0.49709211396179853","0.2763466293339599","0.15634177461046458","0","","","","","","","","",""
"","html-keyboard-response","36","213346","0.0-27.0-1.0","""event"",""trial"",""time""
""fullscreenenter"",""0"",""6649""
""blur"",""4"",""37065""
""focus"",""4"",""37076""
""fullscreenexit"",""5"",""37084""
","""event"",""trial"",""time""
""blur"",""4"",""37065""
","""event"",""trial"",""time""
""focus"",""4"",""37076""
","""event"",""trial"",""time""
""fullscreenenter"",""0"",""6649""
","""event"",""trial"",""time""
""fullscreenexit"",""5"",""37084""
","null","<p></p>","null","","","","","","","","","","","","","","","","","","","","","","","",""
"","do_trial","37","216107","0.0-28.0-0.0","""event"",""trial"",""time""
""fullscreenenter"",""0"",""6649""
""blur"",""4"",""37065""
""focus"",""4"",""37076""
""fullscreenexit"",""5"",""37084""
","""event"",""trial"",""time""
""blur"",""4"",""37065""
","""event"",""trial"",""time""
""focus"",""4"",""37076""
","""event"",""trial"",""time""
""fullscreenenter"",""0"",""6649""
","""event"",""trial"",""time""
""fullscreenexit"",""5"",""37084""
","227.8999999994412","","","","","","","","51","0,1,0","6","blank","239","null","0.7563536477824436","0.17428428397045864","0.19316403639310625","0","","","","","","","","",""
"","html-keyboard-response","38","217119","0.0-28.0-1.0","""event"",""trial"",""time""
""fullscreenenter"",""0"",""6649""
""blur"",""4"",""37065""
""focus"",""4"",""37076""
""fullscreenexit"",""5"",""37084""
","""event"",""trial"",""time""
""blur"",""4"",""37065""
","""event"",""trial"",""time""
""focus"",""4"",""37076""
","""event"",""trial"",""time""
""fullscreenenter"",""0"",""6649""
","""event"",""trial"",""time""
""fullscreenexit"",""5"",""37084""
","null","<p></p>","null","","","","","","","","","","","","","","","","","","","","","","","",""
"","do_trial","39","219893","0.0-29.0-0.0","""event"",""trial"",""time""
""fullscreenenter"",""0"",""6649""
""blur"",""4"",""37065""
""focus"",""4"",""37076""
""fullscreenexit"",""5"",""37084""
","""event"",""trial"",""time""
""blur"",""4"",""37065""
","""event"",""trial"",""time""
""focus"",""4"",""37076""
","""event"",""trial"",""time""
""fullscreenenter"",""0"",""6649""
","""event"",""trial"",""time""
""fullscreenexit"",""5"",""37084""
","241.79999999981374","","","","","","","","50","1,0,0","6","blank","240","null","0.6553970744681356","0.3034926507818001","0.19542976798570166","0","","","","","","","","",""
"","html-keyboard-response","40","220904","0.0-29.0-1.0","""event"",""trial"",""time""
""fullscreenenter"",""0"",""6649""
""blur"",""4"",""37065""
""focus"",""4"",""37076""
""fullscreenexit"",""5"",""37084""
","""event"",""trial"",""time""
""blur"",""4"",""37065""
","""event"",""trial"",""time""
""focus"",""4"",""37076""
","""event"",""trial"",""time""
""fullscreenenter"",""0"",""6649""
","""event"",""trial"",""time""
""fullscreenexit"",""5"",""37084""
","null","<p></p>","null","","","","","","","","","","","","","","","","","","","","","","","",""
"","do_recog","41","226921","0.0-30.0-0.0","""event"",""trial"",""time""
""fullscreenenter"",""0"",""6649""
""blur"",""4"",""37065""
""focus"",""4"",""37076""
""fullscreenexit"",""5"",""37084""
","""event"",""trial"",""time""
""blur"",""4"",""37065""
","""event"",""trial"",""time""
""focus"",""4"",""37076""
","""event"",""trial"",""time""
""fullscreenenter"",""0"",""6649""
","""event"",""trial"",""time""
""fullscreenexit"",""5"",""37084""
","null","","","","","","","","null","","","","241","probe-44","","","","","1","[object Object]","72","1","0","","","",""
"","html-keyboard-response","42","227931","0.0-30.0-1.0","""event"",""trial"",""time""
""fullscreenenter"",""0"",""6649""
""blur"",""4"",""37065""
""focus"",""4"",""37076""
""fullscreenexit"",""5"",""37084""
","""event"",""trial"",""time""
""blur"",""4"",""37065""
","""event"",""trial"",""time""
""focus"",""4"",""37076""
","""event"",""trial"",""time""
""fullscreenenter"",""0"",""6649""
","""event"",""trial"",""time""
""fullscreenexit"",""5"",""37084""
","null","<p></p>","null","","","","","","","","","","","","","","","","","","","","","","","",""
"","do_trial","43","231509","0.0-31.0-0.0","""event"",""trial"",""time""
""fullscreenenter"",""0"",""6649""
""blur"",""4"",""37065""
""focus"",""4"",""37076""
""fullscreenexit"",""5"",""37084""
","""event"",""trial"",""time""
""blur"",""4"",""37065""
","""event"",""trial"",""time""
""focus"",""4"",""37076""
","""event"",""trial"",""time""
""fullscreenenter"",""0"",""6649""
","""event"",""trial"",""time""
""fullscreenexit"",""5"",""37084""
","1036.1000000005588","","","","","","","","50","0,1,0","6","blank","242","null","0.5301117801768287","0.17986871233945906","0.2399993774595329","1","","","","","","","","",""
"","html-keyboard-response","44","232516","0.0-31.0-1.0","""event"",""trial"",""time""
""fullscreenenter"",""0"",""6649""
""blur"",""4"",""37065""
""focus"",""4"",""37076""
""fullscreenexit"",""5"",""37084""
","""event"",""trial"",""time""
""blur"",""4"",""37065""
","""event"",""trial"",""time""
""focus"",""4"",""37076""
","""event"",""trial"",""time""
""fullscreenenter"",""0"",""6649""
","""event"",""trial"",""time""
""fullscreenexit"",""5"",""37084""
","null","<p></p>","null","","","","","","","","","","","","","","","","","","","","","","","",""
"","do_recog","45","235691","0.0-32.0-0.0","""event"",""trial"",""time""
""fullscreenenter"",""0"",""6649""
""blur"",""4"",""37065""
""focus"",""4"",""37076""
""fullscreenexit"",""5"",""37084""
","""event"",""trial"",""time""
""blur"",""4"",""37065""
","""event"",""trial"",""time""
""focus"",""4"",""37076""
","""event"",""trial"",""time""
""fullscreenenter"",""0"",""6649""
","""event"",""trial"",""time""
""fullscreenexit"",""5"",""37084""
","1655.0999999996275","","","","","","","","56","","","","243","probe-220","","","","","1","[object Object]","114","2","0","","","",""
"","html-keyboard-response","46","236697","0.0-32.0-1.0","""event"",""trial"",""time""
""fullscreenenter"",""0"",""6649""
""blur"",""4"",""37065""
""focus"",""4"",""37076""
""fullscreenexit"",""5"",""37084""
","""event"",""trial"",""time""
""blur"",""4"",""37065""
","""event"",""trial"",""time""
""focus"",""4"",""37076""
","""event"",""trial"",""time""
""fullscreenenter"",""0"",""6649""
","""event"",""trial"",""time""
""fullscreenexit"",""5"",""37084""
","null","<p></p>","null","","","","","","","","","","","","","","","","","","","","","","","",""
"","do_trial","47","240285","0.0-33.0-0.0","""event"",""trial"",""time""
""fullscreenenter"",""0"",""6649""
""blur"",""4"",""37065""
""focus"",""4"",""37076""
""fullscreenexit"",""5"",""37084""
","""event"",""trial"",""time""
""blur"",""4"",""37065""
","""event"",""trial"",""time""
""focus"",""4"",""37076""
","""event"",""trial"",""time""
""fullscreenenter"",""0"",""6649""
","""event"",""trial"",""time""
""fullscreenexit"",""5"",""37084""
","1050.800000000745","","","","","","","","50","1,0,1","6","blank","244","null","0.4711108505658379","0.16639694538310307","0.3429194633991219","0","","","","","","","","",""
"","html-keyboard-response","48","241294","0.0-33.0-1.0","""event"",""trial"",""time""
""fullscreenenter"",""0"",""6649""
""blur"",""4"",""37065""
""focus"",""4"",""37076""
""fullscreenexit"",""5"",""37084""
","""event"",""trial"",""time""
""blur"",""4"",""37065""
","""event"",""trial"",""time""
""focus"",""4"",""37076""
","""event"",""trial"",""time""
""fullscreenenter"",""0"",""6649""
","""event"",""trial"",""time""
""fullscreenexit"",""5"",""37084""
","null","<p></p>","null","","","","","","","","","","","","","","","","","","","","","","","",""
"","do_trial","49","244239","0.0-34.0-0.0","""event"",""trial"",""time""
""fullscreenenter"",""0"",""6649""
""blur"",""4"",""37065""
""focus"",""4"",""37076""
""fullscreenexit"",""5"",""37084""
","""event"",""trial"",""time""
""blur"",""4"",""37065""
","""event"",""trial"",""time""
""focus"",""4"",""37076""
","""event"",""trial"",""time""
""fullscreenenter"",""0"",""6649""
","""event"",""trial"",""time""
""fullscreenexit"",""5"",""37084""
","414.5","","","","","","","","50","1,0,0","6","blank","245","null","0.364792434077191","0.15778255926973558","0.48299620050641606","0","","","","","","","","",""
"","html-keyboard-response","50","245246","0.0-34.0-1.0","""event"",""trial"",""time""
""fullscreenenter"",""0"",""6649""
""blur"",""4"",""37065""
""focus"",""4"",""37076""
""fullscreenexit"",""5"",""37084""
","""event"",""trial"",""time""
""blur"",""4"",""37065""
","""event"",""trial"",""time""
""focus"",""4"",""37076""
","""event"",""trial"",""time""
""fullscreenenter"",""0"",""6649""
","""event"",""trial"",""time""
""fullscreenexit"",""5"",""37084""
","null","<p></p>","null","","","","","","","","","","","","","","","","","","","","","","","",""
"","do_trial","51","248237","0.0-35.0-0.0","""event"",""trial"",""time""
""fullscreenenter"",""0"",""6649""
""blur"",""4"",""37065""
""focus"",""4"",""37076""
""fullscreenexit"",""5"",""37084""
","""event"",""trial"",""time""
""blur"",""4"",""37065""
","""event"",""trial"",""time""
""focus"",""4"",""37076""
","""event"",""trial"",""time""
""fullscreenenter"",""0"",""6649""
","""event"",""trial"",""time""
""fullscreenexit"",""5"",""37084""
","459.79999999981374","","","","","","","","50","0,0,1","6","blank","246","null","0.3274121628459721","0.2128549262252818","0.4662453654320436","0","","","","","","","","",""
"","html-keyboard-response","52","249248","0.0-35.0-1.0","""event"",""trial"",""time""
""fullscreenenter"",""0"",""6649""
""blur"",""4"",""37065""
""focus"",""4"",""37076""
""fullscreenexit"",""5"",""37084""
","""event"",""trial"",""time""
""blur"",""4"",""37065""
","""event"",""trial"",""time""
""focus"",""4"",""37076""
","""event"",""trial"",""time""
""fullscreenenter"",""0"",""6649""
","""event"",""trial"",""time""
""fullscreenexit"",""5"",""37084""
","null","<p></p>","null","","","","","","","","","","","","","","","","","","","","","","","",""
"","do_trial","53","252292","0.0-36.0-0.0","""event"",""trial"",""time""
""fullscreenenter"",""0"",""6649""
""blur"",""4"",""37065""
""focus"",""4"",""37076""
""fullscreenexit"",""5"",""37084""
","""event"",""trial"",""time""
""blur"",""4"",""37065""
","""event"",""trial"",""time""
""focus"",""4"",""37076""
","""event"",""trial"",""time""
""fullscreenenter"",""0"",""6649""
","""event"",""trial"",""time""
""fullscreenexit"",""5"",""37084""
","507.59999999962747","","","","","","","","49","0,0,0","6","blank","247","null","0.41271234778662447","0.09926174499357877","0.4979113125561275","0","","","","","","","","",""
"","html-keyboard-response","54","253305","0.0-36.0-1.0","""event"",""trial"",""time""
""fullscreenenter"",""0"",""6649""
""blur"",""4"",""37065""
""focus"",""4"",""37076""
""fullscreenexit"",""5"",""37084""
","""event"",""trial"",""time""
""blur"",""4"",""37065""
","""event"",""trial"",""time""
""focus"",""4"",""37076""
","""event"",""trial"",""time""
""fullscreenenter"",""0"",""6649""
","""event"",""trial"",""time""
""fullscreenexit"",""5"",""37084""
","null","<p></p>","null","","","","","","","","","","","","","","","","","","","","","","","",""
"","do_trial","55","256172","0.0-37.0-0.0","""event"",""trial"",""time""
""fullscreenenter"",""0"",""6649""
""blur"",""4"",""37065""
""focus"",""4"",""37076""
""fullscreenexit"",""5"",""37084""
","""event"",""trial"",""time""
""blur"",""4"",""37065""
","""event"",""trial"",""time""
""focus"",""4"",""37076""
","""event"",""trial"",""time""
""fullscreenenter"",""0"",""6649""
","""event"",""trial"",""time""
""fullscreenexit"",""5"",""37084""
","330.69999999925494","","","","","","","","49","0,0,0","6","blank","248","null","0.30347073650268674","0.0913869676365068","0.666302423027997","0","","","","","","","","",""
"","html-keyboard-response","56","257180","0.0-37.0-1.0","""event"",""trial"",""time""
""fullscreenenter"",""0"",""6649""
""blur"",""4"",""37065""
""focus"",""4"",""37076""
""fullscreenexit"",""5"",""37084""
","""event"",""trial"",""time""
""blur"",""4"",""37065""
","""event"",""trial"",""time""
""focus"",""4"",""37076""
","""event"",""trial"",""time""
""fullscreenenter"",""0"",""6649""
","""event"",""trial"",""time""
""fullscreenexit"",""5"",""37084""
","null","<p></p>","null","","","","","","","","","","","","","","","","","","","","","","","",""
"","do_trial","57","259990","0.0-38.0-0.0","""event"",""trial"",""time""
""fullscreenenter"",""0"",""6649""
""blur"",""4"",""37065""
""focus"",""4"",""37076""
""fullscreenexit"",""5"",""37084""
","""event"",""trial"",""time""
""blur"",""4"",""37065""
","""event"",""trial"",""time""
""focus"",""4"",""37076""
","""event"",""trial"",""time""
""fullscreenenter"",""0"",""6649""
","""event"",""trial"",""time""
""fullscreenexit"",""5"",""37084""
","277.79999999981374","","","","","","","","49","0,0,1","6","blank","249","null","0.23126527193870186","0.09066850349358081","0.43130830126051467","0","","","","","","","","",""
"","html-keyboard-response","58","261002","0.0-38.0-1.0","""event"",""trial"",""time""
""fullscreenenter"",""0"",""6649""
""blur"",""4"",""37065""
""focus"",""4"",""37076""
""fullscreenexit"",""5"",""37084""
","""event"",""trial"",""time""
""blur"",""4"",""37065""
","""event"",""trial"",""time""
""focus"",""4"",""37076""
","""event"",""trial"",""time""
""fullscreenenter"",""0"",""6649""
","""event"",""trial"",""time""
""fullscreenexit"",""5"",""37084""
","null","<p></p>","null","","","","","","","","","","","","","","","","","","","","","","","",""
"","do_trial","59","263856","0.0-39.0-0.0","""event"",""trial"",""time""
""fullscreenenter"",""0"",""6649""
""blur"",""4"",""37065""
""focus"",""4"",""37076""
""fullscreenexit"",""5"",""37084""
","""event"",""trial"",""time""
""blur"",""4"",""37065""
","""event"",""trial"",""time""
""focus"",""4"",""37076""
","""event"",""trial"",""time""
""fullscreenenter"",""0"",""6649""
","""event"",""trial"",""time""
""fullscreenexit"",""5"",""37084""
","312.09999999962747","","","","","","","","50","0,1,1","6","blank","250","null","0.3395939488796746","0.22285186803143503","0.4261400760054101","1","","","","","","","","",""
"","html-keyboard-response","60","264867","0.0-39.0-1.0","""event"",""trial"",""time""
""fullscreenenter"",""0"",""6649""
""blur"",""4"",""37065""
""focus"",""4"",""37076""
""fullscreenexit"",""5"",""37084""
","""event"",""trial"",""time""
""blur"",""4"",""37065""
","""event"",""trial"",""time""
""focus"",""4"",""37076""
","""event"",""trial"",""time""
""fullscreenenter"",""0"",""6649""
","""event"",""trial"",""time""
""fullscreenexit"",""5"",""37084""
","null","<p></p>","null","","","","","","","","","","","","","","","","","","","","","","","",""
"","do_recog","61","269090","0.0-40.0-0.0","""event"",""trial"",""time""
""fullscreenenter"",""0"",""6649""
""blur"",""4"",""37065""
""focus"",""4"",""37076""
""fullscreenexit"",""5"",""37084""
","""event"",""trial"",""time""
""blur"",""4"",""37065""
","""event"",""trial"",""time""
""focus"",""4"",""37076""
","""event"",""trial"",""time""
""fullscreenenter"",""0"",""6649""
","""event"",""trial"",""time""
""fullscreenexit"",""5"",""37084""
","2706.399999999441","","","","","","","","55","","","","251","probe-194","","","","","1","[object Object]","192","4","0","","","",""
"","html-keyboard-response","62","270097","0.0-40.0-1.0","""event"",""trial"",""time""
""fullscreenenter"",""0"",""6649""
""blur"",""4"",""37065""
""focus"",""4"",""37076""
""fullscreenexit"",""5"",""37084""
","""event"",""trial"",""time""
""blur"",""4"",""37065""
","""event"",""trial"",""time""
""focus"",""4"",""37076""
","""event"",""trial"",""time""
""fullscreenenter"",""0"",""6649""
","""event"",""trial"",""time""
""fullscreenexit"",""5"",""37084""
","null","<p></p>","null","","","","","","","","","","","","","","","","","","","","","","","",""
"","do_trial","63","273084","0.0-41.0-0.0","""event"",""trial"",""time""
""fullscreenenter"",""0"",""6649""
""blur"",""4"",""37065""
""focus"",""4"",""37076""
""fullscreenexit"",""5"",""37084""
","""event"",""trial"",""time""
""blur"",""4"",""37065""
","""event"",""trial"",""time""
""focus"",""4"",""37076""
","""event"",""trial"",""time""
""fullscreenenter"",""0"",""6649""
","""event"",""trial"",""time""
""fullscreenexit"",""5"",""37084""
","451.5","","","","","","","","50","0,0,1","6","blank","252","null","0.4013800726040374","0.16359818501801546","0.5925927191156278","0","","","","","","","","",""
"","html-keyboard-response","64","274094","0.0-41.0-1.0","""event"",""trial"",""time""
""fullscreenenter"",""0"",""6649""
""blur"",""4"",""37065""
""focus"",""4"",""37076""
""fullscreenexit"",""5"",""37084""
","""event"",""trial"",""time""
""blur"",""4"",""37065""
","""event"",""trial"",""time""
""focus"",""4"",""37076""
","""event"",""trial"",""time""
""fullscreenenter"",""0"",""6649""
","""event"",""trial"",""time""
""fullscreenexit"",""5"",""37084""
","null","<p></p>","null","","","","","","","","","","","","","","","","","","","","","","","",""
"","do_trial","65","276963","0.0-42.0-0.0","""event"",""trial"",""time""
""fullscreenenter"",""0"",""6649""
""blur"",""4"",""37065""
""focus"",""4"",""37076""
""fullscreenexit"",""5"",""37084""
","""event"",""trial"",""time""
""blur"",""4"",""37065""
","""event"",""trial"",""time""
""focus"",""4"",""37076""
","""event"",""trial"",""time""
""fullscreenenter"",""0"",""6649""
","""event"",""trial"",""time""
""fullscreenexit"",""5"",""37084""
","328.79999999981374","","","","","","","","50","1,0,1","6","blank","253","null","0.4305319679482649","0.4472404279946074","0.6709408529039996","0","","","","","","","","",""
"","html-keyboard-response","66","277969","0.0-42.0-1.0","""event"",""trial"",""time""
""fullscreenenter"",""0"",""6649""
""blur"",""4"",""37065""
""focus"",""4"",""37076""
""fullscreenexit"",""5"",""37084""
","""event"",""trial"",""time""
""blur"",""4"",""37065""
","""event"",""trial"",""time""
""focus"",""4"",""37076""
","""event"",""trial"",""time""
""fullscreenenter"",""0"",""6649""
","""event"",""trial"",""time""
""fullscreenexit"",""5"",""37084""
","null","<p></p>","null","","","","","","","","","","","","","","","","","","","","","","","",""
"","do_trial","67","280870","0.0-43.0-0.0","""event"",""trial"",""time""
""fullscreenenter"",""0"",""6649""
""blur"",""4"",""37065""
""focus"",""4"",""37076""
""fullscreenexit"",""5"",""37084""
","""event"",""trial"",""time""
""blur"",""4"",""37065""
","""event"",""trial"",""time""
""focus"",""4"",""37076""
","""event"",""trial"",""time""
""fullscreenenter"",""0"",""6649""
","""event"",""trial"",""time""
""fullscreenexit"",""5"",""37084""
","364.09999999962747","","","","","","","","50","0,0,1","6","blank","254","null","0.4213981043469079","0.3917358960568899","0.5962760537051747","0","","","","","","","","",""
"","html-keyboard-response","68","281872","0.0-43.0-1.0","""event"",""trial"",""time""
""fullscreenenter"",""0"",""6649""
""blur"",""4"",""37065""
""focus"",""4"",""37076""
""fullscreenexit"",""5"",""37084""
","""event"",""trial"",""time""
""blur"",""4"",""37065""
","""event"",""trial"",""time""
""focus"",""4"",""37076""
","""event"",""trial"",""time""
""fullscreenenter"",""0"",""6649""
","""event"",""trial"",""time""
""fullscreenexit"",""5"",""37084""
","null","<p></p>","null","","","","","","","","","","","","","","","","","","","","","","","",""
"","do_trial","69","284689","0.0-44.0-0.0","""event"",""trial"",""time""
""fullscreenenter"",""0"",""6649""
""blur"",""4"",""37065""
""focus"",""4"",""37076""
""fullscreenexit"",""5"",""37084""
","""event"",""trial"",""time""
""blur"",""4"",""37065""
","""event"",""trial"",""time""
""focus"",""4"",""37076""
","""event"",""trial"",""time""
""fullscreenenter"",""0"",""6649""
","""event"",""trial"",""time""
""fullscreenexit"",""5"",""37084""
","283.20000000018626","","","","","","","","49","1,0,1","6","blank","255","null","0.3627544559187096","0.29360066576020816","0.562617773573404","1","","","","","","","","",""
"","html-keyboard-response","70","285694","0.0-44.0-1.0","""event"",""trial"",""time""
""fullscreenenter"",""0"",""6649""
""blur"",""4"",""37065""
""focus"",""4"",""37076""
""fullscreenexit"",""5"",""37084""
","""event"",""trial"",""time""
""blur"",""4"",""37065""
","""event"",""trial"",""time""
""focus"",""4"",""37076""
","""event"",""trial"",""time""
""fullscreenenter"",""0"",""6649""
","""event"",""trial"",""time""
""fullscreenexit"",""5"",""37084""
","null","<p></p>","null","","","","","","","","","","","","","","","","","","","","","","","",""
"","do_trial","71","288553","0.0-45.0-0.0","""event"",""trial"",""time""
""fullscreenenter"",""0"",""6649""
""blur"",""4"",""37065""
""focus"",""4"",""37076""
""fullscreenexit"",""5"",""37084""
","""event"",""trial"",""time""
""blur"",""4"",""37065""
","""event"",""trial"",""time""
""focus"",""4"",""37076""
","""event"",""trial"",""time""
""fullscreenenter"",""0"",""6649""
","""event"",""trial"",""time""
""fullscreenexit"",""5"",""37084""
","317.20000000018626","","","","","","","","49","0,1,0","6","blank","256","null","0.23208887243012746","0.21613641149560384","0.4935660309279846","0","","","","","","","","",""
"","html-keyboard-response","72","289567","0.0-45.0-1.0","""event"",""trial"",""time""
""fullscreenenter"",""0"",""6649""
""blur"",""4"",""37065""
""focus"",""4"",""37076""
""fullscreenexit"",""5"",""37084""
","""event"",""trial"",""time""
""blur"",""4"",""37065""
","""event"",""trial"",""time""
""focus"",""4"",""37076""
","""event"",""trial"",""time""
""fullscreenenter"",""0"",""6649""
","""event"",""trial"",""time""
""fullscreenexit"",""5"",""37084""
","null","<p></p>","null","","","","","","","","","","","","","","","","","","","","","","","",""
"","do_trial","73","292485","0.0-46.0-0.0","""event"",""trial"",""time""
""fullscreenenter"",""0"",""6649""
""blur"",""4"",""37065""
""focus"",""4"",""37076""
""fullscreenexit"",""5"",""37084""
","""event"",""trial"",""time""
""blur"",""4"",""37065""
","""event"",""trial"",""time""
""focus"",""4"",""37076""
","""event"",""trial"",""time""
""fullscreenenter"",""0"",""6649""
","""event"",""trial"",""time""
""fullscreenexit"",""5"",""37084""
","377.90000000037253","","","","","","","","49","0,1,1","6","blank","257","null","0.13420223208092194","0.05345524938413748","0.5375187307734488","0","","","","","","","","",""
"","html-keyboard-response","74","293493","0.0-46.0-1.0","""event"",""trial"",""time""
""fullscreenenter"",""0"",""6649""
""blur"",""4"",""37065""
""focus"",""4"",""37076""
""fullscreenexit"",""5"",""37084""
","""event"",""trial"",""time""
""blur"",""4"",""37065""
","""event"",""trial"",""time""
""focus"",""4"",""37076""
","""event"",""trial"",""time""
""fullscreenenter"",""0"",""6649""
","""event"",""trial"",""time""
""fullscreenexit"",""5"",""37084""
","null","<p></p>","null","","","","","","","","","","","","","","","","","","","","","","","",""
"","do_recog","75","299508","0.0-47.0-0.0","""event"",""trial"",""time""
""fullscreenenter"",""0"",""6649""
""blur"",""4"",""37065""
""focus"",""4"",""37076""
""fullscreenexit"",""5"",""37084""
","""event"",""trial"",""time""
""blur"",""4"",""37065""
","""event"",""trial"",""time""
""focus"",""4"",""37076""
","""event"",""trial"",""time""
""fullscreenenter"",""0"",""6649""
","""event"",""trial"",""time""
""fullscreenexit"",""5"",""37084""
","null","","","","","","","","null","","","","258","probe-45","","","","","1","[object Object]","71","1","0","","","",""
"","html-keyboard-response","76","300518","0.0-47.0-1.0","""event"",""trial"",""time""
""fullscreenenter"",""0"",""6649""
""blur"",""4"",""37065""
""focus"",""4"",""37076""
""fullscreenexit"",""5"",""37084""
","""event"",""trial"",""time""
""blur"",""4"",""37065""
","""event"",""trial"",""time""
""focus"",""4"",""37076""
","""event"",""trial"",""time""
""fullscreenenter"",""0"",""6649""
","""event"",""trial"",""time""
""fullscreenexit"",""5"",""37084""
","null","<p></p>","null","","","","","","","","","","","","","","","","","","","","","","","",""
"","do_trial","77","303353","0.0-48.0-0.0","""event"",""trial"",""time""
""fullscreenenter"",""0"",""6649""
""blur"",""4"",""37065""
""focus"",""4"",""37076""
""fullscreenexit"",""5"",""37084""
","""event"",""trial"",""time""
""blur"",""4"",""37065""
","""event"",""trial"",""time""
""focus"",""4"",""37076""
","""event"",""trial"",""time""
""fullscreenenter"",""0"",""6649""
","""event"",""trial"",""time""
""fullscreenexit"",""5"",""37084""
","302.29999999981374","","","","","","","","49","0,0,0","6","blank","259","null","0.2605402800067841","0.17365690238162831","0.5618321479808739","0","","","","","","","","",""
"","html-keyboard-response","78","304362","0.0-48.0-1.0","""event"",""trial"",""time""
""fullscreenenter"",""0"",""6649""
""blur"",""4"",""37065""
""focus"",""4"",""37076""
""fullscreenexit"",""5"",""37084""
","""event"",""trial"",""time""
""blur"",""4"",""37065""
","""event"",""trial"",""time""
""focus"",""4"",""37076""
","""event"",""trial"",""time""
""fullscreenenter"",""0"",""6649""
","""event"",""trial"",""time""
""fullscreenexit"",""5"",""37084""
","null","<p></p>","null","","","","","","","","","","","","","","","","","","","","","","","",""
"","do_trial","79","307049","0.0-49.0-0.0","""event"",""trial"",""time""
""fullscreenenter"",""0"",""6649""
""blur"",""4"",""37065""
""focus"",""4"",""37076""
""fullscreenexit"",""5"",""37084""
","""event"",""trial"",""time""
""blur"",""4"",""37065""
","""event"",""trial"",""time""
""focus"",""4"",""37076""
","""event"",""trial"",""time""
""fullscreenenter"",""0"",""6649""
","""event"",""trial"",""time""
""fullscreenexit"",""5"",""37084""
","148.6000000005588","","","","","","","","49","0,0,1","6","blank","260","null","0.3945490514526596","0.16341136230327308","0.6327578958861936","0","","","","","","","","",""
"","html-keyboard-response","80","308056","0.0-49.0-1.0","""event"",""trial"",""time""
""fullscreenenter"",""0"",""6649""
""blur"",""4"",""37065""
""focus"",""4"",""37076""
""fullscreenexit"",""5"",""37084""
","""event"",""trial"",""time""
""blur"",""4"",""37065""
","""event"",""trial"",""time""
""focus"",""4"",""37076""
","""event"",""trial"",""time""
""fullscreenenter"",""0"",""6649""
","""event"",""trial"",""time""
""fullscreenexit"",""5"",""37084""
","null","<p></p>","null","","","","","","","","","","","","","","","","","","","","","","","",""
"","do_trial","81","310895","0.0-50.0-0.0","""event"",""trial"",""time""
""fullscreenenter"",""0"",""6649""
""blur"",""4"",""37065""
""focus"",""4"",""37076""
""fullscreenexit"",""5"",""37084""
","""event"",""trial"",""time""
""blur"",""4"",""37065""
","""event"",""trial"",""time""
""focus"",""4"",""37076""
","""event"",""trial"",""time""
""fullscreenenter"",""0"",""6649""
","""event"",""trial"",""time""
""fullscreenexit"",""5"",""37084""
","305.70000000018626","","","","","","","","49","1,0,1","6","blank","261","null","0.32205223339828926","0.22130443656551413","0.5294340527877986","1","","","","","","","","",""
"","html-keyboard-response","82","311905","0.0-50.0-1.0","""event"",""trial"",""time""
""fullscreenenter"",""0"",""6649""
""blur"",""4"",""37065""
""focus"",""4"",""37076""
""fullscreenexit"",""5"",""37084""
","""event"",""trial"",""time""
""blur"",""4"",""37065""
","""event"",""trial"",""time""
""focus"",""4"",""37076""
","""event"",""trial"",""time""
""fullscreenenter"",""0"",""6649""
","""event"",""trial"",""time""
""fullscreenexit"",""5"",""37084""
","null","<p></p>","null","","","","","","","","","","","","","","","","","","","","","","","",""
"","do_trial","83","314889","0.0-51.0-0.0","""event"",""trial"",""time""
""fullscreenenter"",""0"",""6649""
""blur"",""4"",""37065""
""focus"",""4"",""37076""
""fullscreenexit"",""5"",""37084""
","""event"",""trial"",""time""
""blur"",""4"",""37065""
","""event"",""trial"",""time""
""focus"",""4"",""37076""
","""event"",""trial"",""time""
""fullscreenenter"",""0"",""6649""
","""event"",""trial"",""time""
""fullscreenexit"",""5"",""37084""
","447.20000000018626","","","","","","","","49","0,1,0","6","blank","262","null","0.23723410995394256","0.1786733674186481","0.4509496474142322","0","","","","","","","","",""
"","html-keyboard-response","84","315897","0.0-51.0-1.0","""event"",""trial"",""time""
""fullscreenenter"",""0"",""6649""
""blur"",""4"",""37065""
""focus"",""4"",""37076""
""fullscreenexit"",""5"",""37084""
","""event"",""trial"",""time""
""blur"",""4"",""37065""
","""event"",""trial"",""time""
""focus"",""4"",""37076""
","""event"",""trial"",""time""
""fullscreenenter"",""0"",""6649""
","""event"",""trial"",""time""
""fullscreenexit"",""5"",""37084""
","null","<p></p>","null","","","","","","","","","","","","","","","","","","","","","","","",""
"","do_trial","85","319050","0.0-52.0-0.0","""event"",""trial"",""time""
""fullscreenenter"",""0"",""6649""
""blur"",""4"",""37065""
""focus"",""4"",""37076""
""fullscreenexit"",""5"",""37084""
","""event"",""trial"",""time""
""blur"",""4"",""37065""
","""event"",""trial"",""time""
""focus"",""4"",""37076""
","""event"",""trial"",""time""
""fullscreenenter"",""0"",""6649""
","""event"",""trial"",""time""
""fullscreenexit"",""5"",""37084""
","620.5","","","","","","","","49","1,0,0","6","blank","263","null","0.26201686896358933","0.17401850631717877","0.5910191480056103","1","","","","","","","","",""
"","html-keyboard-response","86","320059","0.0-52.0-1.0","""event"",""trial"",""time""
""fullscreenenter"",""0"",""6649""
""blur"",""4"",""37065""
""focus"",""4"",""37076""
""fullscreenexit"",""5"",""37084""
","""event"",""trial"",""time""
""blur"",""4"",""37065""
","""event"",""trial"",""time""
""focus"",""4"",""37076""
","""event"",""trial"",""time""
""fullscreenenter"",""0"",""6649""
","""event"",""trial"",""time""
""fullscreenexit"",""5"",""37084""
","null","<p></p>","null","","","","","","","","","","","","","","","","","","","","","","","",""
"","do_recog","87","324561","0.0-53.0-0.0","""event"",""trial"",""time""
""fullscreenenter"",""0"",""6649""
""blur"",""4"",""37065""
""focus"",""4"",""37076""
""fullscreenexit"",""5"",""37084""
","""event"",""trial"",""time""
""blur"",""4"",""37065""
","""event"",""trial"",""time""
""focus"",""4"",""37076""
","""event"",""trial"",""time""
""fullscreenenter"",""0"",""6649""
","""event"",""trial"",""time""
""fullscreenexit"",""5"",""37084""
","2993.800000000745","","","","","","","","54","","","","264","probe-41","","","","","1","[object Object]","152","3","1","","","",""
"","html-keyboard-response","88","325566","0.0-53.0-1.0","""event"",""trial"",""time""
""fullscreenenter"",""0"",""6649""
""blur"",""4"",""37065""
""focus"",""4"",""37076""
""fullscreenexit"",""5"",""37084""
","""event"",""trial"",""time""
""blur"",""4"",""37065""
","""event"",""trial"",""time""
""focus"",""4"",""37076""
","""event"",""trial"",""time""
""fullscreenenter"",""0"",""6649""
","""event"",""trial"",""time""
""fullscreenexit"",""5"",""37084""
","null","<p></p>","null","","","","","","","","","","","","","","","","","","","","","","","",""
"","do_trial","89","328968","0.0-54.0-0.0","""event"",""trial"",""time""
""fullscreenenter"",""0"",""6649""
""blur"",""4"",""37065""
""focus"",""4"",""37076""
""fullscreenexit"",""5"",""37084""
","""event"",""trial"",""time""
""blur"",""4"",""37065""
","""event"",""trial"",""time""
""focus"",""4"",""37076""
","""event"",""trial"",""time""
""fullscreenenter"",""0"",""6649""
","""event"",""trial"",""time""
""fullscreenexit"",""5"",""37084""
","865.8999999994412","","","","","","","","49","0,0,0","6","blank","265","null","0.24781995763782064","0.12475927898523034","0.5314262766326491","0","","","","","","","","",""
"","html-keyboard-response","90","329977","0.0-54.0-1.0","""event"",""trial"",""time""
""fullscreenenter"",""0"",""6649""
""blur"",""4"",""37065""
""focus"",""4"",""37076""
""fullscreenexit"",""5"",""37084""
","""event"",""trial"",""time""
""blur"",""4"",""37065""
","""event"",""trial"",""time""
""focus"",""4"",""37076""
","""event"",""trial"",""time""
""fullscreenenter"",""0"",""6649""
","""event"",""trial"",""time""
""fullscreenexit"",""5"",""37084""
","null","<p></p>","null","","","","","","","","","","","","","","","","","","","","","","","",""
"","do_trial","91","332852","0.0-55.0-0.0","""event"",""trial"",""time""
""fullscreenenter"",""0"",""6649""
""blur"",""4"",""37065""
""focus"",""4"",""37076""
""fullscreenexit"",""5"",""37084""
","""event"",""trial"",""time""
""blur"",""4"",""37065""
","""event"",""trial"",""time""
""focus"",""4"",""37076""
","""event"",""trial"",""time""
""fullscreenenter"",""0"",""6649""
","""event"",""trial"",""time""
""fullscreenexit"",""5"",""37084""
","332.20000000018626","","","","","","","","49","0,0,1","6","blank","266","null","0.3592344755987068","0.12150622666707545","0.631905369501047","0","","","","","","","","",""
"","html-keyboard-response","92","333861","0.0-55.0-1.0","""event"",""trial"",""time""
""fullscreenenter"",""0"",""6649""
""blur"",""4"",""37065""
""focus"",""4"",""37076""
""fullscreenexit"",""5"",""37084""
","""event"",""trial"",""time""
""blur"",""4"",""37065""
","""event"",""trial"",""time""
""focus"",""4"",""37076""
","""event"",""trial"",""time""
""fullscreenenter"",""0"",""6649""
","""event"",""trial"",""time""
""fullscreenexit"",""5"",""37084""
","null","<p></p>","null","","","","","","","","","","","","","","","","","","","","","","","",""
"","do_trial","93","336680","0.0-56.0-0.0","""event"",""trial"",""time""
""fullscreenenter"",""0"",""6649""
""blur"",""4"",""37065""
""focus"",""4"",""37076""
""fullscreenexit"",""5"",""37084""
","""event"",""trial"",""time""
""blur"",""4"",""37065""
","""event"",""trial"",""time""
""focus"",""4"",""37076""
","""event"",""trial"",""time""
""fullscreenenter"",""0"",""6649""
","""event"",""trial"",""time""
""fullscreenexit"",""5"",""37084""
","276.90000000037253","","","","","","","","49","1,1,1","6","blank","267","null","0.35760117765944444","0.21451369717182936","0.46730110837901534","1","","","","","","","","",""
"","html-keyboard-response","94","337689","0.0-56.0-1.0","""event"",""trial"",""time""
""fullscreenenter"",""0"",""6649""
""blur"",""4"",""37065""
""focus"",""4"",""37076""
""fullscreenexit"",""5"",""37084""
","""event"",""trial"",""time""
""blur"",""4"",""37065""
","""event"",""trial"",""time""
""focus"",""4"",""37076""
","""event"",""trial"",""time""
""fullscreenenter"",""0"",""6649""
","""event"",""trial"",""time""
""fullscreenexit"",""5"",""37084""
","null","<p></p>","null","","","","","","","","","","","","","","","","","","","","","","","",""
"","do_trial","95","340479","0.0-57.0-0.0","""event"",""trial"",""time""
""fullscreenenter"",""0"",""6649""
""blur"",""4"",""37065""
""focus"",""4"",""37076""
""fullscreenexit"",""5"",""37084""
","""event"",""trial"",""time""
""blur"",""4"",""37065""
","""event"",""trial"",""time""
""focus"",""4"",""37076""
","""event"",""trial"",""time""
""fullscreenenter"",""0"",""6649""
","""event"",""trial"",""time""
""fullscreenexit"",""5"",""37084""
","261.20000000018626","","","","","","","","50","0,0,1","6","blank","268","null","0.26886953031984634","0.27136979680027473","0.4100998241748329","0","","","","","","","","",""
"","html-keyboard-response","96","341486","0.0-57.0-1.0","""event"",""trial"",""time""
""fullscreenenter"",""0"",""6649""
""blur"",""4"",""37065""
""focus"",""4"",""37076""
""fullscreenexit"",""5"",""37084""
","""event"",""trial"",""time""
""blur"",""4"",""37065""
","""event"",""trial"",""time""
""focus"",""4"",""37076""
","""event"",""trial"",""time""
""fullscreenenter"",""0"",""6649""
","""event"",""trial"",""time""
""fullscreenexit"",""5"",""37084""
","null","<p></p>","null","","","","","","","","","","","","","","","","","","","","","","","",""
"","break","97","440223","0.0-58.0-0.0","""event"",""trial"",""time""
""fullscreenenter"",""0"",""6649""
""blur"",""4"",""37065""
""focus"",""4"",""37076""
""fullscreenexit"",""5"",""37084""
","""event"",""trial"",""time""
""blur"",""4"",""37065""
","""event"",""trial"",""time""
""focus"",""4"",""37076""
","""event"",""trial"",""time""
""fullscreenenter"",""0"",""6649""
","""event"",""trial"",""time""
""fullscreenexit"",""5"",""37084""
","98736.40000000037","<div class='center'><p>Time to take a quick break! You have 2 minutes to rest, but you can move on sooner if you'd like.</p><p> Press the <b>space bar</b> to continue.</p></div>","32","","","","","","","","","","","","","","","","","","","","","","","",""
"","do_trial","98","443947","0.0-58.0-1.0","""event"",""trial"",""time""
""fullscreenenter"",""0"",""6649""
""blur"",""4"",""37065""
""focus"",""4"",""37076""
""fullscreenexit"",""5"",""37084""
","""event"",""trial"",""time""
""blur"",""4"",""37065""
","""event"",""trial"",""time""
""focus"",""4"",""37076""
","""event"",""trial"",""time""
""fullscreenenter"",""0"",""6649""
","""event"",""trial"",""time""
""fullscreenexit"",""5"",""37084""
","1191","","","","","","","","49","0,0,0","6","blank","269","null","0.31744227864485036","0.11497282236071579","0.5086334484694754","0","","","","","","","","",""
"","html-keyboard-response","99","444957","0.0-58.0-2.0","""event"",""trial"",""time""
""fullscreenenter"",""0"",""6649""
""blur"",""4"",""37065""
""focus"",""4"",""37076""
""fullscreenexit"",""5"",""37084""
","""event"",""trial"",""time""
""blur"",""4"",""37065""
","""event"",""trial"",""time""
""focus"",""4"",""37076""
","""event"",""trial"",""time""
""fullscreenenter"",""0"",""6649""
","""event"",""trial"",""time""
""fullscreenexit"",""5"",""37084""
","null","<p></p>","null","","","","","","","","","","","","","","","","","","","","","","","",""
"","do_recog","100","450980","0.0-59.0-0.0","""event"",""trial"",""time""
""fullscreenenter"",""0"",""6649""
""blur"",""4"",""37065""
""focus"",""4"",""37076""
""fullscreenexit"",""5"",""37084""
","""event"",""trial"",""time""
""blur"",""4"",""37065""
","""event"",""trial"",""time""
""focus"",""4"",""37076""
","""event"",""trial"",""time""
""fullscreenenter"",""0"",""6649""
","""event"",""trial"",""time""
""fullscreenexit"",""5"",""37084""
","null","","","","","","","","null","","","","270","probe-140","","","","","1","[object Object]","34","0","0","","","",""
"","html-keyboard-response","101","451990","0.0-59.0-1.0","""event"",""trial"",""time""
""fullscreenenter"",""0"",""6649""
""blur"",""4"",""37065""
""focus"",""4"",""37076""
""fullscreenexit"",""5"",""37084""
","""event"",""trial"",""time""
""blur"",""4"",""37065""
","""event"",""trial"",""time""
""focus"",""4"",""37076""
","""event"",""trial"",""time""
""fullscreenenter"",""0"",""6649""
","""event"",""trial"",""time""
""fullscreenexit"",""5"",""37084""
","null","<p></p>","null","","","","","","","","","","","","","","","","","","","","","","","",""
"","do_trial","102","454982","0.0-60.0-0.0","""event"",""trial"",""time""
""fullscreenenter"",""0"",""6649""
""blur"",""4"",""37065""
""focus"",""4"",""37076""
""fullscreenexit"",""5"",""37084""
","""event"",""trial"",""time""
""blur"",""4"",""37065""
","""event"",""trial"",""time""
""focus"",""4"",""37076""
","""event"",""trial"",""time""
""fullscreenenter"",""0"",""6649""
","""event"",""trial"",""time""
""fullscreenexit"",""5"",""37084""
","451.5","","","","","","","","49","1,0,1","6","blank","271","null","0.19780208131214727","0.1412840873133909","0.6273413798370371","1","","","","","","","","",""
"","html-keyboard-response","103","455993","0.0-60.0-1.0","""event"",""trial"",""time""
""fullscreenenter"",""0"",""6649""
""blur"",""4"",""37065""
""focus"",""4"",""37076""
""fullscreenexit"",""5"",""37084""
","""event"",""trial"",""time""
""blur"",""4"",""37065""
","""event"",""trial"",""time""
""focus"",""4"",""37076""
","""event"",""trial"",""time""
""fullscreenenter"",""0"",""6649""
","""event"",""trial"",""time""
""fullscreenexit"",""5"",""37084""
","null","<p></p>","null","","","","","","","","","","","","","","","","","","","","","","","",""
"","do_trial","104","459082","0.0-61.0-0.0","""event"",""trial"",""time""
""fullscreenenter"",""0"",""6649""
""blur"",""4"",""37065""
""focus"",""4"",""37076""
""fullscreenexit"",""5"",""37084""
","""event"",""trial"",""time""
""blur"",""4"",""37065""
","""event"",""trial"",""time""
""focus"",""4"",""37076""
","""event"",""trial"",""time""
""fullscreenenter"",""0"",""6649""
","""event"",""trial"",""time""
""fullscreenexit"",""5"",""37084""
","548.2999999998137","","","","","","","","49","0,0,0","6","blank","272","null","0.2710686121051285","0.27424684652434267","0.6307630918183496","0","","","","","","","","",""
"","html-keyboard-response","105","460089","0.0-61.0-1.0","""event"",""trial"",""time""
""fullscreenenter"",""0"",""6649""
""blur"",""4"",""37065""
""focus"",""4"",""37076""
""fullscreenexit"",""5"",""37084""
","""event"",""trial"",""time""
""blur"",""4"",""37065""
","""event"",""trial"",""time""
""focus"",""4"",""37076""
","""event"",""trial"",""time""
""fullscreenenter"",""0"",""6649""
","""event"",""trial"",""time""
""fullscreenexit"",""5"",""37084""
","null","<p></p>","null","","","","","","","","","","","","","","","","","","","","","","","",""
"","do_recog","106","463289","0.0-62.0-0.0","""event"",""trial"",""time""
""fullscreenenter"",""0"",""6649""
""blur"",""4"",""37065""
""focus"",""4"",""37076""
""fullscreenexit"",""5"",""37084""
","""event"",""trial"",""time""
""blur"",""4"",""37065""
","""event"",""trial"",""time""
""focus"",""4"",""37076""
","""event"",""trial"",""time""
""fullscreenenter"",""0"",""6649""
","""event"",""trial"",""time""
""fullscreenexit"",""5"",""37084""
","1680.2999999998137","","","","","","","","53","","","","273","probe-67","","","","","1","[object Object]","79","1","1","","","",""
"","html-keyboard-response","107","464301","0.0-62.0-1.0","""event"",""trial"",""time""
""fullscreenenter"",""0"",""6649""
""blur"",""4"",""37065""
""focus"",""4"",""37076""
""fullscreenexit"",""5"",""37084""
","""event"",""trial"",""time""
""blur"",""4"",""37065""
","""event"",""trial"",""time""
""focus"",""4"",""37076""
","""event"",""trial"",""time""
""fullscreenenter"",""0"",""6649""
","""event"",""trial"",""time""
""fullscreenexit"",""5"",""37084""
","null","<p></p>","null","","","","","","","","","","","","","","","","","","","","","","","",""
"","do_trial","108","467834","0.0-63.0-0.0","""event"",""trial"",""time""
""fullscreenenter"",""0"",""6649""
""blur"",""4"",""37065""
""focus"",""4"",""37076""
""fullscreenexit"",""5"",""37084""
","""event"",""trial"",""time""
""blur"",""4"",""37065""
","""event"",""trial"",""time""
""focus"",""4"",""37076""
","""event"",""trial"",""time""
""fullscreenenter"",""0"",""6649""
","""event"",""trial"",""time""
""fullscreenexit"",""5"",""37084""
","992.7999999998137","","","","","","","","50","0,0,1","6","blank","274","null","0.2588577305512085","0.3004679419954365","0.57790652679252","0","","","","","","","","",""
"","html-keyboard-response","109","468846","0.0-63.0-1.0","""event"",""trial"",""time""
""fullscreenenter"",""0"",""6649""
""blur"",""4"",""37065""
""focus"",""4"",""37076""
""fullscreenexit"",""5"",""37084""
","""event"",""trial"",""time""
""blur"",""4"",""37065""
","""event"",""trial"",""time""
""focus"",""4"",""37076""
","""event"",""trial"",""time""
""fullscreenenter"",""0"",""6649""
","""event"",""trial"",""time""
""fullscreenexit"",""5"",""37084""
","null","<p></p>","null","","","","","","","","","","","","","","","","","","","","","","","",""
"","do_recog","110","472463","0.0-64.0-0.0","""event"",""trial"",""time""
""fullscreenenter"",""0"",""6649""
""blur"",""4"",""37065""
""focus"",""4"",""37076""
""fullscreenexit"",""5"",""37084""
","""event"",""trial"",""time""
""blur"",""4"",""37065""
","""event"",""trial"",""time""
""focus"",""4"",""37076""
","""event"",""trial"",""time""
""fullscreenenter"",""0"",""6649""
","""event"",""trial"",""time""
""fullscreenexit"",""5"",""37084""
","2096.399999999441","","","","","","","","56","","","","275","probe-237","","","","","0","[object Object]","null","null","1","","","",""
"","html-keyboard-response","111","473472","0.0-64.0-1.0","""event"",""trial"",""time""
""fullscreenenter"",""0"",""6649""
""blur"",""4"",""37065""
""focus"",""4"",""37076""
""fullscreenexit"",""5"",""37084""
","""event"",""trial"",""time""
""blur"",""4"",""37065""
","""event"",""trial"",""time""
""focus"",""4"",""37076""
","""event"",""trial"",""time""
""fullscreenenter"",""0"",""6649""
","""event"",""trial"",""time""
""fullscreenexit"",""5"",""37084""
","null","<p></p>","null","","","","","","","","","","","","","","","","","","","","","","","",""
"","do_trial","112","476484","0.0-65.0-0.0","""event"",""trial"",""time""
""fullscreenenter"",""0"",""6649""
""blur"",""4"",""37065""
""focus"",""4"",""37076""
""fullscreenexit"",""5"",""37084""
","""event"",""trial"",""time""
""blur"",""4"",""37065""
","""event"",""trial"",""time""
""focus"",""4"",""37076""
","""event"",""trial"",""time""
""fullscreenenter"",""0"",""6649""
","""event"",""trial"",""time""
""fullscreenexit"",""5"",""37084""
","479.19999999925494","","","","","","","","50","1,0,1","6","blank","276","null","0.23821648964968276","0.24872922910039275","0.5500362977723772","0","","","","","","","","",""
"","html-keyboard-response","113","477492","0.0-65.0-1.0","""event"",""trial"",""time""
""fullscreenenter"",""0"",""6649""
""blur"",""4"",""37065""
""focus"",""4"",""37076""
""fullscreenexit"",""5"",""37084""
","""event"",""trial"",""time""
""blur"",""4"",""37065""
","""event"",""trial"",""time""
""focus"",""4"",""37076""
","""event"",""trial"",""time""
""fullscreenenter"",""0"",""6649""
","""event"",""trial"",""time""
""fullscreenexit"",""5"",""37084""
","null","<p></p>","null","","","","","","","","","","","","","","","","","","","","","","","",""
"","do_trial","114","480372","0.0-66.0-0.0","""event"",""trial"",""time""
""fullscreenenter"",""0"",""6649""
""blur"",""4"",""37065""
""focus"",""4"",""37076""
""fullscreenexit"",""5"",""37084""
","""event"",""trial"",""time""
""blur"",""4"",""37065""
","""event"",""trial"",""time""
""focus"",""4"",""37076""
","""event"",""trial"",""time""
""fullscreenenter"",""0"",""6649""
","""event"",""trial"",""time""
""fullscreenexit"",""5"",""37084""
","347.79999999981374","","","","","","","","50","0,0,0","6","blank","277","null","0.2976930487454103","0.20934687008753072","0.5462334790002753","0","","","","","","","","",""
"","html-keyboard-response","115","481381","0.0-66.0-1.0","""event"",""trial"",""time""
""fullscreenenter"",""0"",""6649""
""blur"",""4"",""37065""
""focus"",""4"",""37076""
""fullscreenexit"",""5"",""37084""
","""event"",""trial"",""time""
""blur"",""4"",""37065""
","""event"",""trial"",""time""
""focus"",""4"",""37076""
","""event"",""trial"",""time""
""fullscreenenter"",""0"",""6649""
","""event"",""trial"",""time""
""fullscreenexit"",""5"",""37084""
","null","<p></p>","null","","","","","","","","","","","","","","","","","","","","","","","",""
"","do_trial","116","484213","0.0-67.0-0.0","""event"",""trial"",""time""
""fullscreenenter"",""0"",""6649""
""blur"",""4"",""37065""
""focus"",""4"",""37076""
""fullscreenexit"",""5"",""37084""
","""event"",""trial"",""time""
""blur"",""4"",""37065""
","""event"",""trial"",""time""
""focus"",""4"",""37076""
","""event"",""trial"",""time""
""fullscreenenter"",""0"",""6649""
","""event"",""trial"",""time""
""fullscreenexit"",""5"",""37084""
","295.20000000018626","","","","","","","","50","0,0,0","6","blank","278","null","0.28042335642866434","0.11990470550438131","0.4504562494852003","0","","","","","","","","",""
"","html-keyboard-response","117","485230","0.0-67.0-1.0","""event"",""trial"",""time""
""fullscreenenter"",""0"",""6649""
""blur"",""4"",""37065""
""focus"",""4"",""37076""
""fullscreenexit"",""5"",""37084""
","""event"",""trial"",""time""
""blur"",""4"",""37065""
","""event"",""trial"",""time""
""focus"",""4"",""37076""
","""event"",""trial"",""time""
""fullscreenenter"",""0"",""6649""
","""event"",""trial"",""time""
""fullscreenexit"",""5"",""37084""
","null","<p></p>","null","","","","","","","","","","","","","","","","","","","","","","","",""
"","do_recog","118","488515","0.0-68.0-0.0","""event"",""trial"",""time""
""fullscreenenter"",""0"",""6649""
""blur"",""4"",""37065""
""focus"",""4"",""37076""
""fullscreenexit"",""5"",""37084""
","""event"",""trial"",""time""
""blur"",""4"",""37065""
","""event"",""trial"",""time""
""focus"",""4"",""37076""
","""event"",""trial"",""time""
""fullscreenenter"",""0"",""6649""
","""event"",""trial"",""time""
""fullscreenexit"",""5"",""37084""
","1771","","","","","","","","54","","","","279","probe-14","","","","","1","[object Object]","75","1","1","","","",""
"","html-keyboard-response","119","489523","0.0-68.0-1.0","""event"",""trial"",""time""
""fullscreenenter"",""0"",""6649""
""blur"",""4"",""37065""
""focus"",""4"",""37076""
""fullscreenexit"",""5"",""37084""
","""event"",""trial"",""time""
""blur"",""4"",""37065""
","""event"",""trial"",""time""
""focus"",""4"",""37076""
","""event"",""trial"",""time""
""fullscreenenter"",""0"",""6649""
","""event"",""trial"",""time""
""fullscreenexit"",""5"",""37084""
","null","<p></p>","null","","","","","","","","","","","","","","","","","","","","","","","",""
"","do_trial","120","492951","0.0-69.0-0.0","""event"",""trial"",""time""
""fullscreenenter"",""0"",""6649""
""blur"",""4"",""37065""
""focus"",""4"",""37076""
""fullscreenexit"",""5"",""37084""
","""event"",""trial"",""time""
""blur"",""4"",""37065""
","""event"",""trial"",""time""
""focus"",""4"",""37076""
","""event"",""trial"",""time""
""fullscreenenter"",""0"",""6649""
","""event"",""trial"",""time""
""fullscreenexit"",""5"",""37084""
","896.5999999996275","","","","","","","","51","0,1,1","6","blank","280","null","0.26506460301322715","0.09959952364913666","0.4478230591935428","1","","","","","","","","",""
"","html-keyboard-response","121","493961","0.0-69.0-1.0","""event"",""trial"",""time""
""fullscreenenter"",""0"",""6649""
""blur"",""4"",""37065""
""focus"",""4"",""37076""
""fullscreenexit"",""5"",""37084""
","""event"",""trial"",""time""
""blur"",""4"",""37065""
","""event"",""trial"",""time""
""focus"",""4"",""37076""
","""event"",""trial"",""time""
""fullscreenenter"",""0"",""6649""
","""event"",""trial"",""time""
""fullscreenexit"",""5"",""37084""
","null","<p></p>","null","","","","","","","","","","","","","","","","","","","","","","","",""
"","do_recog","122","497825","0.0-70.0-0.0","""event"",""trial"",""time""
""fullscreenenter"",""0"",""6649""
""blur"",""4"",""37065""
""focus"",""4"",""37076""
""fullscreenexit"",""5"",""37084""
","""event"",""trial"",""time""
""blur"",""4"",""37065""
","""event"",""trial"",""time""
""focus"",""4"",""37076""
","""event"",""trial"",""time""
""fullscreenenter"",""0"",""6649""
","""event"",""trial"",""time""
""fullscreenexit"",""5"",""37084""
","2355.5","","","","","","","","56","","","","281","probe-29","","","","","1","[object Object]","198","4","0","","","",""
"","html-keyboard-response","123","498828","0.0-70.0-1.0","""event"",""trial"",""time""
""fullscreenenter"",""0"",""6649""
""blur"",""4"",""37065""
""focus"",""4"",""37076""
""fullscreenexit"",""5"",""37084""
","""event"",""trial"",""time""
""blur"",""4"",""37065""
","""event"",""trial"",""time""
""focus"",""4"",""37076""
","""event"",""trial"",""time""
""fullscreenenter"",""0"",""6649""
","""event"",""trial"",""time""
""fullscreenexit"",""5"",""37084""
","null","<p></p>","null","","","","","","","","","","","","","","","","","","","","","","","",""
"","do_trial","124","501653","0.0-71.0-0.0","""event"",""trial"",""time""
""fullscreenenter"",""0"",""6649""
""blur"",""4"",""37065""
""focus"",""4"",""37076""
""fullscreenexit"",""5"",""37084""
","""event"",""trial"",""time""
""blur"",""4"",""37065""
","""event"",""trial"",""time""
""focus"",""4"",""37076""
","""event"",""trial"",""time""
""fullscreenenter"",""0"",""6649""
","""event"",""trial"",""time""
""fullscreenexit"",""5"",""37084""
","290.09999999962747","","","","","","","","51","1,0,0","6","blank","282","null","0.21289014300132236","0.20572605412861592","0.4742190390252232","0","","","","","","","","",""
"","html-keyboard-response","125","502658","0.0-71.0-1.0","""event"",""trial"",""time""
""fullscreenenter"",""0"",""6649""
""blur"",""4"",""37065""
""focus"",""4"",""37076""
""fullscreenexit"",""5"",""37084""
","""event"",""trial"",""time""
""blur"",""4"",""37065""
","""event"",""trial"",""time""
""focus"",""4"",""37076""
","""event"",""trial"",""time""
""fullscreenenter"",""0"",""6649""
","""event"",""trial"",""time""
""fullscreenexit"",""5"",""37084""
","null","<p></p>","null","","","","","","","","","","","","","","","","","","","","","","","",""
"","do_trial","126","505456","0.0-72.0-0.0","""event"",""trial"",""time""
""fullscreenenter"",""0"",""6649""
""blur"",""4"",""37065""
""focus"",""4"",""37076""
""fullscreenexit"",""5"",""37084""
","""event"",""trial"",""time""
""blur"",""4"",""37065""
","""event"",""trial"",""time""
""focus"",""4"",""37076""
","""event"",""trial"",""time""
""fullscreenenter"",""0"",""6649""
","""event"",""trial"",""time""
""fullscreenexit"",""5"",""37084""
","259.90000000037253","","","","","","","","51","0,0,1","6","blank","283","null","0.23948346088435177","0.11168827864015736","0.6950631395714234","1","","","","","","","","",""
"","html-keyboard-response","127","506466","0.0-72.0-1.0","""event"",""trial"",""time""
""fullscreenenter"",""0"",""6649""
""blur"",""4"",""37065""
""focus"",""4"",""37076""
""fullscreenexit"",""5"",""37084""
","""event"",""trial"",""time""
""blur"",""4"",""37065""
","""event"",""trial"",""time""
""focus"",""4"",""37076""
","""event"",""trial"",""time""
""fullscreenenter"",""0"",""6649""
","""event"",""trial"",""time""
""fullscreenexit"",""5"",""37084""
","null","<p></p>","null","","","","","","","","","","","","","","","","","","","","","","","",""
"","do_trial","128","509298","0.0-73.0-0.0","""event"",""trial"",""time""
""fullscreenenter"",""0"",""6649""
""blur"",""4"",""37065""
""focus"",""4"",""37076""
""fullscreenexit"",""5"",""37084""
","""event"",""trial"",""time""
""blur"",""4"",""37065""
","""event"",""trial"",""time""
""focus"",""4"",""37076""
","""event"",""trial"",""time""
""fullscreenenter"",""0"",""6649""
","""event"",""trial"",""time""
""fullscreenexit"",""5"",""37084""
","290.90000000037253","","","","","","","","51","1,0,1","6","blank","284","null","0.3747419764637553","0.05218936741859235","0.7088456837783594","1","","","","","","","","",""
"","html-keyboard-response","129","510311","0.0-73.0-1.0","""event"",""trial"",""time""
""fullscreenenter"",""0"",""6649""
""blur"",""4"",""37065""
""focus"",""4"",""37076""
""fullscreenexit"",""5"",""37084""
","""event"",""trial"",""time""
""blur"",""4"",""37065""
","""event"",""trial"",""time""
""focus"",""4"",""37076""
","""event"",""trial"",""time""
""fullscreenenter"",""0"",""6649""
","""event"",""trial"",""time""
""fullscreenexit"",""5"",""37084""
","null","<p></p>","null","","","","","","","","","","","","","","","","","","","","","","","",""
"","do_trial","130","513185","0.0-74.0-0.0","""event"",""trial"",""time""
""fullscreenenter"",""0"",""6649""
""blur"",""4"",""37065""
""focus"",""4"",""37076""
""fullscreenexit"",""5"",""37084""
","""event"",""trial"",""time""
""blur"",""4"",""37065""
","""event"",""trial"",""time""
""focus"",""4"",""37076""
","""event"",""trial"",""time""
""fullscreenenter"",""0"",""6649""
","""event"",""trial"",""time""
""fullscreenexit"",""5"",""37084""
","344.3999999994412","","","","","","","","51","0,0,0","6","blank","285","null","0.4323844061114829","0.11772883951168375","0.5629177916392017","0","","","","","","","","",""
"","html-keyboard-response","131","514191","0.0-74.0-1.0","""event"",""trial"",""time""
""fullscreenenter"",""0"",""6649""
""blur"",""4"",""37065""
""focus"",""4"",""37076""
""fullscreenexit"",""5"",""37084""
","""event"",""trial"",""time""
""blur"",""4"",""37065""
","""event"",""trial"",""time""
""focus"",""4"",""37076""
","""event"",""trial"",""time""
""fullscreenenter"",""0"",""6649""
","""event"",""trial"",""time""
""fullscreenexit"",""5"",""37084""
","null","<p></p>","null","","","","","","","","","","","","","","","","","","","","","","","",""
"","do_recog","132","517810","0.0-75.0-0.0","""event"",""trial"",""time""
""fullscreenenter"",""0"",""6649""
""blur"",""4"",""37065""
""focus"",""4"",""37076""
""fullscreenexit"",""5"",""37084""
","""event"",""trial"",""time""
""blur"",""4"",""37065""
","""event"",""trial"",""time""
""focus"",""4"",""37076""
","""event"",""trial"",""time""
""fullscreenenter"",""0"",""6649""
","""event"",""trial"",""time""
""fullscreenexit"",""5"",""37084""
","2106.7000000001863","","","","","","","","55","","","","286","probe-05","","","","","1","[object Object]","194","4","0","","","",""
"","html-keyboard-response","133","518819","0.0-75.0-1.0","""event"",""trial"",""time""
""fullscreenenter"",""0"",""6649""
""blur"",""4"",""37065""
""focus"",""4"",""37076""
""fullscreenexit"",""5"",""37084""
","""event"",""trial"",""time""
""blur"",""4"",""37065""
","""event"",""trial"",""time""
""focus"",""4"",""37076""
","""event"",""trial"",""time""
""fullscreenenter"",""0"",""6649""
","""event"",""trial"",""time""
""fullscreenexit"",""5"",""37084""
","null","<p></p>","null","","","","","","","","","","","","","","","","","","","","","","","",""
"","do_trial","134","521873","0.0-76.0-0.0","""event"",""trial"",""time""
""fullscreenenter"",""0"",""6649""
""blur"",""4"",""37065""
""focus"",""4"",""37076""
""fullscreenexit"",""5"",""37084""
","""event"",""trial"",""time""
""blur"",""4"",""37065""
","""event"",""trial"",""time""
""focus"",""4"",""37076""
","""event"",""trial"",""time""
""fullscreenenter"",""0"",""6649""
","""event"",""trial"",""time""
""fullscreenexit"",""5"",""37084""
","519.7000000001863","","","","","","","","51","1,0,1","6","blank","287","null","0.27432027520603053","0.1436452297854292","0.5795312759127212","1","","","","","","","","",""
"","html-keyboard-response","135","522882","0.0-76.0-1.0","""event"",""trial"",""time""
""fullscreenenter"",""0"",""6649""
""blur"",""4"",""37065""
""focus"",""4"",""37076""
""fullscreenexit"",""5"",""37084""
","""event"",""trial"",""time""
""blur"",""4"",""37065""
","""event"",""trial"",""time""
""focus"",""4"",""37076""
","""event"",""trial"",""time""
""fullscreenenter"",""0"",""6649""
","""event"",""trial"",""time""
""fullscreenexit"",""5"",""37084""
","null","<p></p>","null","","","","","","","","","","","","","","","","","","","","","","","",""
"","do_recog","136","525612","0.0-77.0-0.0","""event"",""trial"",""time""
""fullscreenenter"",""0"",""6649""
""blur"",""4"",""37065""
""focus"",""4"",""37076""
""fullscreenexit"",""5"",""37084""
","""event"",""trial"",""time""
""blur"",""4"",""37065""
","""event"",""trial"",""time""
""focus"",""4"",""37076""
","""event"",""trial"",""time""
""fullscreenenter"",""0"",""6649""
","""event"",""trial"",""time""
""fullscreenexit"",""5"",""37084""
","1214.2999999998137","","","","","","","","53","","","","288","probe-100","","","","","1","[object Object]","74","1","1","","","",""
"","html-keyboard-response","137","526627","0.0-77.0-1.0","""event"",""trial"",""time""
""fullscreenenter"",""0"",""6649""
""blur"",""4"",""37065""
""focus"",""4"",""37076""
""fullscreenexit"",""5"",""37084""
","""event"",""trial"",""time""
""blur"",""4"",""37065""
","""event"",""trial"",""time""
""focus"",""4"",""37076""
","""event"",""trial"",""time""
""fullscreenenter"",""0"",""6649""
","""event"",""trial"",""time""
""fullscreenexit"",""5"",""37084""
","null","<p></p>","null","","","","","","","","","","","","","","","","","","","","","","","",""
"","do_trial","138","529645","0.0-78.0-0.0","""event"",""trial"",""time""
""fullscreenenter"",""0"",""6649""
""blur"",""4"",""37065""
""focus"",""4"",""37076""
""fullscreenexit"",""5"",""37084""
","""event"",""trial"",""time""
""blur"",""4"",""37065""
","""event"",""trial"",""time""
""focus"",""4"",""37076""
","""event"",""trial"",""time""
""fullscreenenter"",""0"",""6649""
","""event"",""trial"",""time""
""fullscreenexit"",""5"",""37084""
","486.6000000005588","","","","","","","","51","0,0,1","6","blank","289","null","0.32912406465678085","0.25556067565311547","0.5383139721655874","1","","","","","","","","",""
"","html-keyboard-response","139","530656","0.0-78.0-1.0","""event"",""trial"",""time""
""fullscreenenter"",""0"",""6649""
""blur"",""4"",""37065""
""focus"",""4"",""37076""
""fullscreenexit"",""5"",""37084""
","""event"",""trial"",""time""
""blur"",""4"",""37065""
","""event"",""trial"",""time""
""focus"",""4"",""37076""
","""event"",""trial"",""time""
""fullscreenenter"",""0"",""6649""
","""event"",""trial"",""time""
""fullscreenexit"",""5"",""37084""
","null","<p></p>","null","","","","","","","","","","","","","","","","","","","","","","","",""
"","do_recog","140","533878","0.0-79.0-0.0","""event"",""trial"",""time""
""fullscreenenter"",""0"",""6649""
""blur"",""4"",""37065""
""focus"",""4"",""37076""
""fullscreenexit"",""5"",""37084""
","""event"",""trial"",""time""
""blur"",""4"",""37065""
","""event"",""trial"",""time""
""focus"",""4"",""37076""
","""event"",""trial"",""time""
""fullscreenenter"",""0"",""6649""
","""event"",""trial"",""time""
""fullscreenexit"",""5"",""37084""
","1715.7999999998137","","","","","","","","55","","","","290","probe-98","","","","","1","[object Object]","196","4","0","","","",""
"","html-keyboard-response","141","534885","0.0-79.0-1.0","""event"",""trial"",""time""
""fullscreenenter"",""0"",""6649""
""blur"",""4"",""37065""
""focus"",""4"",""37076""
""fullscreenexit"",""5"",""37084""
","""event"",""trial"",""time""
""blur"",""4"",""37065""
","""event"",""trial"",""time""
""focus"",""4"",""37076""
","""event"",""trial"",""time""
""fullscreenenter"",""0"",""6649""
","""event"",""trial"",""time""
""fullscreenexit"",""5"",""37084""
","null","<p></p>","null","","","","","","","","","","","","","","","","","","","","","","","",""
"","do_trial","142","537853","0.0-80.0-0.0","""event"",""trial"",""time""
""fullscreenenter"",""0"",""6649""
""blur"",""4"",""37065""
""focus"",""4"",""37076""
""fullscreenexit"",""5"",""37084""
","""event"",""trial"",""time""
""blur"",""4"",""37065""
","""event"",""trial"",""time""
""focus"",""4"",""37076""
","""event"",""trial"",""time""
""fullscreenenter"",""0"",""6649""
","""event"",""trial"",""time""
""fullscreenexit"",""5"",""37084""
","434.70000000018626","","","","","","","","51","0,0,0","6","blank","291","null","0.5061998789387387","0.13188571356013018","0.5616662110709639","0","","","","","","","","",""
"","html-keyboard-response","143","538864","0.0-80.0-1.0","""event"",""trial"",""time""
""fullscreenenter"",""0"",""6649""
""blur"",""4"",""37065""
""focus"",""4"",""37076""
""fullscreenexit"",""5"",""37084""
","""event"",""trial"",""time""
""blur"",""4"",""37065""
","""event"",""trial"",""time""
""focus"",""4"",""37076""
","""event"",""trial"",""time""
""fullscreenenter"",""0"",""6649""
","""event"",""trial"",""time""
""fullscreenexit"",""5"",""37084""
","null","<p></p>","null","","","","","","","","","","","","","","","","","","","","","","","",""
"","do_trial","144","541706","0.0-81.0-0.0","""event"",""trial"",""time""
""fullscreenenter"",""0"",""6649""
""blur"",""4"",""37065""
""focus"",""4"",""37076""
""fullscreenexit"",""5"",""37084""
","""event"",""trial"",""time""
""blur"",""4"",""37065""
","""event"",""trial"",""time""
""focus"",""4"",""37076""
","""event"",""trial"",""time""
""fullscreenenter"",""0"",""6649""
","""event"",""trial"",""time""
""fullscreenexit"",""5"",""37084""
","307.09999999962747","","","","","","","","51","1,0,1","6","blank","292","null","0.40751216606976703","0.2071613406287946","0.5969440027040899","1","","","","","","","","",""
"","html-keyboard-response","145","542715","0.0-81.0-1.0","""event"",""trial"",""time""
""fullscreenenter"",""0"",""6649""
""blur"",""4"",""37065""
""focus"",""4"",""37076""
""fullscreenexit"",""5"",""37084""
","""event"",""trial"",""time""
""blur"",""4"",""37065""
","""event"",""trial"",""time""
""focus"",""4"",""37076""
","""event"",""trial"",""time""
""fullscreenenter"",""0"",""6649""
","""event"",""trial"",""time""
""fullscreenexit"",""5"",""37084""
","null","<p></p>","null","","","","","","","","","","","","","","","","","","","","","","","",""
"","do_trial","146","545556","0.0-82.0-0.0","""event"",""trial"",""time""
""fullscreenenter"",""0"",""6649""
""blur"",""4"",""37065""
""focus"",""4"",""37076""
""fullscreenexit"",""5"",""37084""
","""event"",""trial"",""time""
""blur"",""4"",""37065""
","""event"",""trial"",""time""
""focus"",""4"",""37076""
","""event"",""trial"",""time""
""fullscreenenter"",""0"",""6649""
","""event"",""trial"",""time""
""fullscreenexit"",""5"",""37084""
","309.8999999994412","","","","","","","","51","0,0,1","6","blank","293","null","0.4244065884097006","0.3244466775551742","0.4698533520184723","1","","","","","","","","",""
"","html-keyboard-response","147","546565","0.0-82.0-1.0","""event"",""trial"",""time""
""fullscreenenter"",""0"",""6649""
""blur"",""4"",""37065""
""focus"",""4"",""37076""
""fullscreenexit"",""5"",""37084""
","""event"",""trial"",""time""
""blur"",""4"",""37065""
","""event"",""trial"",""time""
""focus"",""4"",""37076""
","""event"",""trial"",""time""
""fullscreenenter"",""0"",""6649""
","""event"",""trial"",""time""
""fullscreenexit"",""5"",""37084""
","null","<p></p>","null","","","","","","","","","","","","","","","","","","","","","","","",""
"","do_trial","148","549483","0.0-83.0-0.0","""event"",""trial"",""time""
""fullscreenenter"",""0"",""6649""
""blur"",""4"",""37065""
""focus"",""4"",""37076""
""fullscreenexit"",""5"",""37084""
","""event"",""trial"",""time""
""blur"",""4"",""37065""
","""event"",""trial"",""time""
""focus"",""4"",""37076""
","""event"",""trial"",""time""
""fullscreenenter"",""0"",""6649""
","""event"",""trial"",""time""
""fullscreenexit"",""5"",""37084""
","375.19999999925494","","","","","","","","51","0,0,0","6","blank","294","null","0.4226053082140654","0.26963724874676687","0.41509994492109703","0","","","","","","","","",""
"","html-keyboard-response","149","550491","0.0-83.0-1.0","""event"",""trial"",""time""
""fullscreenenter"",""0"",""6649""
""blur"",""4"",""37065""
""focus"",""4"",""37076""
""fullscreenexit"",""5"",""37084""
","""event"",""trial"",""time""
""blur"",""4"",""37065""
","""event"",""trial"",""time""
""focus"",""4"",""37076""
","""event"",""trial"",""time""
""fullscreenenter"",""0"",""6649""
","""event"",""trial"",""time""
""fullscreenexit"",""5"",""37084""
","null","<p></p>","null","","","","","","","","","","","","","","","","","","","","","","","",""
"","do_trial","150","553288","0.0-84.0-0.0","""event"",""trial"",""time""
""fullscreenenter"",""0"",""6649""
""blur"",""4"",""37065""
""focus"",""4"",""37076""
""fullscreenexit"",""5"",""37084""
","""event"",""trial"",""time""
""blur"",""4"",""37065""
","""event"",""trial"",""time""
""focus"",""4"",""37076""
","""event"",""trial"",""time""
""fullscreenenter"",""0"",""6649""
","""event"",""trial"",""time""
""fullscreenexit"",""5"",""37084""
","258.90000000037253","","","","","","","","51","0,1,0","6","blank","295","null","0.3170711182018956","0.2689742161827083","0.21879904790210872","0","","","","","","","","",""
"","html-keyboard-response","151","554298","0.0-84.0-1.0","""event"",""trial"",""time""
""fullscreenenter"",""0"",""6649""
""blur"",""4"",""37065""
""focus"",""4"",""37076""
""fullscreenexit"",""5"",""37084""
","""event"",""trial"",""time""
""blur"",""4"",""37065""
","""event"",""trial"",""time""
""focus"",""4"",""37076""
","""event"",""trial"",""time""
""fullscreenenter"",""0"",""6649""
","""event"",""trial"",""time""
""fullscreenexit"",""5"",""37084""
","null","<p></p>","null","","","","","","","","","","","","","","","","","","","","","","","",""
"","do_recog","152","557182","0.0-85.0-0.0","""event"",""trial"",""time""
""fullscreenenter"",""0"",""6649""
""blur"",""4"",""37065""
""focus"",""4"",""37076""
""fullscreenexit"",""5"",""37084""
","""event"",""trial"",""time""
""blur"",""4"",""37065""
","""event"",""trial"",""time""
""focus"",""4"",""37076""
","""event"",""trial"",""time""
""fullscreenenter"",""0"",""6649""
","""event"",""trial"",""time""
""fullscreenexit"",""5"",""37084""
","1372.7999999998137","","","","","","","","53","","","","296","probe-83","","","","","1","[object Object]","150","3","1","","","",""
"","html-keyboard-response","153","558190","0.0-85.0-1.0","""event"",""trial"",""time""
""fullscreenenter"",""0"",""6649""
""blur"",""4"",""37065""
""focus"",""4"",""37076""
""fullscreenexit"",""5"",""37084""
","""event"",""trial"",""time""
""blur"",""4"",""37065""
","""event"",""trial"",""time""
""focus"",""4"",""37076""
","""event"",""trial"",""time""
""fullscreenenter"",""0"",""6649""
","""event"",""trial"",""time""
""fullscreenexit"",""5"",""37084""
","null","<p></p>","null","","","","","","","","","","","","","","","","","","","","","","","",""
"","do_trial","154","561051","0.0-86.0-0.0","""event"",""trial"",""time""
""fullscreenenter"",""0"",""6649""
""blur"",""4"",""37065""
""focus"",""4"",""37076""
""fullscreenexit"",""5"",""37084""
","""event"",""trial"",""time""
""blur"",""4"",""37065""
","""event"",""trial"",""time""
""focus"",""4"",""37076""
","""event"",""trial"",""time""
""fullscreenenter"",""0"",""6649""
","""event"",""trial"",""time""
""fullscreenexit"",""5"",""37084""
","328.59999999962747","","","","","","","","51","0,0,0","6","blank","297","null","0.4593563377291789","0.3250749200132787","0.19353073031742024","0","","","","","","","","",""
"","html-keyboard-response","155","562056","0.0-86.0-1.0","""event"",""trial"",""time""
""fullscreenenter"",""0"",""6649""
""blur"",""4"",""37065""
""focus"",""4"",""37076""
""fullscreenexit"",""5"",""37084""
","""event"",""trial"",""time""
""blur"",""4"",""37065""
","""event"",""trial"",""time""
""focus"",""4"",""37076""
","""event"",""trial"",""time""
""fullscreenenter"",""0"",""6649""
","""event"",""trial"",""time""
""fullscreenexit"",""5"",""37084""
","null","<p></p>","null","","","","","","","","","","","","","","","","","","","","","","","",""
"","do_recog","156","564884","0.0-87.0-0.0","""event"",""trial"",""time""
""fullscreenenter"",""0"",""6649""
""blur"",""4"",""37065""
""focus"",""4"",""37076""
""fullscreenexit"",""5"",""37084""
","""event"",""trial"",""time""
""blur"",""4"",""37065""
","""event"",""trial"",""time""
""focus"",""4"",""37076""
","""event"",""trial"",""time""
""fullscreenenter"",""0"",""6649""
","""event"",""trial"",""time""
""fullscreenexit"",""5"",""37084""
","1311.5","","","","","","","","56","","","","298","probe-134","","","","","1","[object Object]","115","2","0","","","",""
"","html-keyboard-response","157","565896","0.0-87.0-1.0","""event"",""trial"",""time""
""fullscreenenter"",""0"",""6649""
""blur"",""4"",""37065""
""focus"",""4"",""37076""
""fullscreenexit"",""5"",""37084""
","""event"",""trial"",""time""
""blur"",""4"",""37065""
","""event"",""trial"",""time""
""focus"",""4"",""37076""
","""event"",""trial"",""time""
