"success","trial_type","trial_index","time_elapsed","internal_node_id","rt","stimulus","key_press","subject_id","response","choice_outcomes","context_n","context_img_id","trial_n","probe_img_id","pR_red","pR_white","pR_black","outcome","is_valid","image_to_show","probed_trial","probed_context","correct","context_id"
"true","fullscreen","0","4584","0.0-0.0","","","","","","","","","","","","","","","","","","","",""
"","pavlovia","1","4597","0.0-1.0","","","","","","","","","","","","","","","","","","","",""
"","html-keyboard-response","2","21679","0.0-2.0","17077.099999904633","<div class='center'><p>Welcome! This is the second day of the experiment. This part will last ~30 minutes. </p><br><p>Just as a reminder, you are the head captain of a pirate ship traveling around the world to different places. </p><p>Today,you’ve arrived at the final destination of your journey!</p><p> Unfortunately, it’s very foggy out, so you won’t be able to see it in the distance like the places you visited yesterday.</p><p>You’ll still be deciding which pirates you want to rob ships. Because of the fog, however, you won't be able to see which ship your chosen pirate is robbing. </p><p><b>[Press the space bar to go over the instructions]</b></p></div>","32","61088472610a6fdd9b54fb9d","","","","","","","","","","","","","","","",""
"","html-keyboard-response","3","29295","0.0-3.0","7613.700000047684","<div class='center'><p>Like yesterday,as the head captain of the ship, you have one important things to do: </p><b><p> Pick the pirate who you think will be most successful at robbing the next ship.</p></b><p>This is important in determining how much bonus money you’ll win.</p><br><p>The game will start by showing you the pirates. First pick a pirate using the <b> 1, 2, 3 </b> buttons on your keyboard. </p><p> Press <b>'1'</b> to choose red beard, <b>'2'</b> to choose white beard, and <b>'3'</b> to choose black beard</p><p> You only have 3 seconds to pick a pirate, so please make a choice quickly! If you are too slow, you’ll have to wait a bit during the time out.</p><p> Don’t feel rushed, but please do try to make a choice every time.</p><p>How good a pirate is at robbing a ship will change depending on the place they are in and how good the defenses are of the ship.</p><p><b>[Press the space bar to begin the practice game]</b></p></div>","32","","","","","","","","","","","","","","","","",""
"","html-keyboard-response","4","176589","0.0-4.0","147287.60000014305","<div class='center'><p>Unlike yesterday, sometimes you’ll be asked if you’ve seen a ship before (see the example below). You will use the 5, 6, 7, 8 buttons on your keyboard to respond. </p><p> If you definitely did not see the ship, pick the the big red thumbs down by pressing <b>5</b>.</p><p> If you don’t think you saw it but aren’t sure, then pick the small red thumbs down by pressing <b>6</b>.</p><p> If you think you might have seen it, then pick the small green thumbs up by pressing <b>7</b>.</p><p> If you definitely did see this ship before, then pick the big thumb green thumbs up by pressing <b>8</b>.</p><p> If you recall it correctly, then you’ll get a gold coin!</p><p><b>[Press the space bar to the experiment]</b></p><p><img src='run_exp/static/images/example_recog_trial.png' height='500'></p></div>","32","","","","","","","","","","","","","","","","",""
"","do_welcome","5","178127","0.0-5.0-0.0","null","","","","null","","","","","","","","","","","","","","",""
"","do_trial","6","182626","0.0-6.0-0.0","1897.5999999046326","","","","49","1,0,1","6","blank","240","null","0.30066496054959385","0.13314235280108272","1","1","","","","","",""
"","do_recog","7","188672","0.0-7.0-0.0","null","","","","null","","","","241","probe-05","","","","","1","[object Object]","204","5","0",""
"","do_trial","8","192754","0.0-8.0-0.0","1510.1000001430511","","","","51","0,0,1","6","blank","242","null","0.29096449117593504","0.08781156886424828","0.8731467478059678","1","","","","","",""
"","do_recog","9","198785","0.0-9.0-0.0","null","","","","null","","","","243","probe-254","","","","","0","[object Object]","null","null","0",""
"","do_trial","10","203956","0.0-10.0-0.0","2547.7000000476837","","","","50","0,0,1","6","blank","244","null","0.28115242681655656","0.05656919868579931","0.7736190949259918","0","","","","","",""
"","do_recog","11","206671","0.0-11.0-0.0","1190.6999998092651","","","","56","","","","245","probe-258","","","","","0","[object Object]","null","null","0",""
"","do_trial","12","210266","0.0-12.0-0.0","1024.5","","","","49","0,0,1","6","blank","246","null","0.46148556110961636","0.14031254967052215","0.7743941951475223","0","","","","","",""
"","do_trial","13","213952","0.0-13.0-0.0","1106.0999999046326","","","","51","1,0,1","6","blank","247","null","0.47474169002403566","0.27660217229206696","0.8111912663685813","1","","","","","",""
"","do_trial","14","217901","0.0-14.0-0.0","1368.4000000953674","","","","51","0,0,1","6","blank","248","null","0.5765541159242725","0.1588658065754389","0.7586269092396077","1","","","","","",""
"","do_recog","15","220790","0.0-15.0-0.0","1364","","","","54","","","","249","probe-131","","","","","1","[object Object]","200","5","0",""
"","do_trial","16","223939","0.0-16.0-0.0","504","","","","49","0,0,1","6","blank","250","null","0.5189078414598091","0.06362867800385794","0.7267811035848125","0","","","","","",""
"","do_recog","17","229957","0.0-17.0-0.0","null","","","","null","","","","251","probe-215","","","","","1","[object Object]","128","3","0",""
"","do_trial","18","233810","0.0-18.0-0.0","1290.9000000953674","","","","51","0,1,1","6","blank","252","null","0.5302162320819237","0.12905197931794188","0.7882219050865197","1","","","","","",""
"","do_recog","19","236661","0.0-19.0-0.0","1320.5999999046326","","","","53","","","","253","probe-178","","","","","1","[object Object]","82","2","0",""
"","do_trial","20","240934","0.0-20.0-0.0","1701.9000000953674","","","","51","1,0,1","6","blank","254","null","0.5447009681213176","0.0800011668391507","0.7959875317925739","1","","","","","",""
"","do_recog","21","243743","0.0-21.0-0.0","1281","","","","56","","","","255","probe-149","","","","","1","[object Object]","84","2","1",""
"","do_trial","22","247490","0.0-22.0-0.0","1163.2999999523163","","","","50","0,0,1","6","blank","256","null","0.5071198310415924","0.09430635615544926","0.8760462594727781","0","","","","","",""
"","do_trial","23","250978","0.0-23.0-0.0","924.9000000953674","","","","49","0,0,0","6","blank","257","null","0.6830785616942318","0.24298247448994942","0.5195708530901131","0","","","","","",""
"","do_trial","24","253904","0.0-24.0-0.0","338.5","","","","51","0,1,0","6","blank","258","null","0.5854062690064639","0.3097575838087157","0.23022242575420804","0","","","","","",""
"","do_trial","25","256856","0.0-25.0-0.0","344.90000009536743","","","","51","0,0,0","6","blank","259","null","0.7014998202916866","0.338134667294949","0.1198237874937508","0","","","","","",""
"","do_trial","26","259837","0.0-26.0-0.0","400.09999990463257","","","","51","1,0,0","6","blank","260","null","0.7829292508639901","0.39731672709182764","0.10949024596527532","0","","","","","",""
"","do_trial","27","262558","0.0-27.0-0.0","116","","","","50","0,1,0","6","blank","261","null","0.7215337569859793","0.432000798851888","0.09151328129600263","1","","","","","",""
"","do_recog","28","265138","0.0-28.0-0.0","1054","","","","56","","","","262","probe-33","","","","","1","[object Object]","47","1","1",""
"","do_trial","29","268307","0.0-29.0-0.0","592.2000000476837","","","","51","1,1,0","6","blank","263","null","0.7969082322498332","0.4655151374970344","0.19023254044065646","0","","","","","",""
"","do_trial","30","271407","0.0-30.0-0.0","519.5","","","","49","1,1,0","6","blank","264","null","0.9056792267924254","0.4306913952608769","0.29183258542639595","1","","","","","",""
"","do_trial","31","275236","0.0-31.0-0.0","1259.2000000476837","","","","50","1,1,0","6","blank","265","null","0.8782015472817717","0.42494040319577","0.21405385389425888","1","","","","","",""
"","do_trial","32","278511","0.0-32.0-0.0","708.7000000476837","","","","50","1,0,0","6","blank","266","null","0.7746392685920587","0.3791260080142345","0.06827716034273999","0","","","","","",""
"","do_recog","33","281141","0.0-33.0-0.0","1107.2999999523163","","","","56","","","","267","probe-240","","","","","1","[object Object]","203","5","1",""
"","do_trial","34","285268","0.0-34.0-0.0","1546.3999998569489","","","","51","1,0,0","6","blank","268","null","0.7946967107743241","0.423129414472843","0.15699246270743256","0","","","","","",""
"","do_trial","35","288547","0.0-35.0-0.0","701.4000000953674","","","","49","1,0,0","6","blank","269","null","0.752722526781763","0.4180521967601438","0.16288197149381398","1","","","","","",""
"","do_trial","36","291706","0.0-36.0-0.0","593.3000001907349","","","","49","0,0,0","6","blank","270","null","0.8109296507714256","0.4417304528198356","0.158785672203705","0","","","","","",""
"","do_trial","37","294569","0.0-37.0-0.0","291.40000009536743","","","","50","1,0,0","6","blank","271","null","0.7777742476818347","0.42490624642395647","0.07800639510332515","0","","","","","",""
"","do_trial","38","297361","0.0-38.0-0.0","209.79999995231628","","","","50","1,0,1","6","blank","272","null","0.7442871531600995","0.45958687743656584","0.1081993379278957","0","","","","","",""
"","do_recog","39","300135","0.0-39.0-0.0","1265.7000000476837","","","","56","","","","273","probe-147","","","","","1","[object Object]","126","3","1",""
"","do_trial","40","306211","0.0-40.0-0.0","null","","","","null","1,0,0","6","blank","274","null","0.8014177648950104","0.326842152050054","0.16993977398964227","","","","","","",""
"","do_recog","41","309580","0.0-41.0-0.0","1855.2000000476837","","","","56","","","","275","probe-12","","","","","1","[object Object]","201","5","1",""
"","do_trial","42","312741","0.0-42.0-0.0","598.5","","","","50","1,0,0","6","blank","276","null","0.8310960331435924","0.28775121541793147","0.19055928159539876","0","","","","","",""
"","do_recog","43","315050","0.0-43.0-0.0","789.7000000476837","","","","56","","","","277","probe-74","","","","","1","[object Object]","81","2","1",""
"","do_trial","44","318190","0.0-44.0-0.0","566.4000000953674","","","","49","0,1,0","6","blank","278","null","0.7531939627273162","0.4119303697520156","0.05827805342638799","0","","","","","",""
"","do_recog","45","320180","0.0-45.0-0.0","468","","","","55","","","","279","probe-64","","","","","1","[object Object]","46","1","1",""
"","do_trial","46","323578","0.0-46.0-0.0","818.2999999523163","","","","50","1,0,0","6","blank","280","null","0.7736563077229177","0.613964950752928","0.06268961582446952","0","","","","","",""
"","do_recog","47","326015","0.0-47.0-0.0","916.7999999523163","","","","56","","","","281","probe-252","","","","","0","[object Object]","null","null","0",""
"","do_trial","48","329088","0.0-48.0-0.0","431.5","","","","51","1,1,0","6","blank","282","null","0.6724972874305685","0.5639253096905139","0.0587379629371622","0","","","","","",""
"","do_recog","49","331415","0.0-49.0-0.0","802.5","","","","56","","","","283","probe-179","","","","","1","[object Object]","123","3","1",""
"","do_trial","50","334704","0.0-50.0-0.0","669.8999998569489","","","","49","0,1,0","6","blank","284","null","0.7714825361119312","0.6267131728125007","0.0937235407226385","0","","","","","",""
"","do_recog","51","336798","0.0-51.0-0.0","571.8999998569489","","","","55","","","","285","probe-154","","","","","1","[object Object]","207","5","1",""
"","do_trial","52","340178","0.0-52.0-0.0","788.3999998569489","","","","51","1,1,0","6","blank","286","null","1","0.6009773758446143","0.05527905046488913","0","","","","","",""
"","do_recog","53","342511","0.0-53.0-0.0","817.2000000476837","","","","56","","","","287","probe-139","","","","","1","[object Object]","85","2","1",""
"","do_trial","54","346023","0.0-54.0-0.0","895.7000000476837","","","","50","1,0,0","6","blank","288","null","0.9045089692679337","0.4039632113383899","0.08324645254771941","0","","","","","",""
"","do_recog","55","348636","0.0-55.0-0.0","1099.7000000476837","","","","56","","","","289","probe-70","","","","","1","[object Object]","88","2","1",""
"","do_trial","56","354159","0.0-56.0-0.0","2955.5","","","","49","0,1,0","6","blank","290","null","0.6940735556036658","0.5050217941486738","0.21304880294792625","0","","","","","",""
"","do_recog","57","356428","0.0-57.0-0.0","746","","","","53","","","","291","probe-216","","","","","1","[object Object]","161","4","0",""
"","do_trial","58","360109","0.0-58.0-0.0","1111.4000000953674","","","","50","1,0,0","6","blank","292","null","0.7517062124291125","0.5270097746561906","0.053609691523509966","0","","","","","",""
"","do_trial","59","363026","0.0-59.0-0.0","354.09999990463257","","","","51","1,0,0","6","blank","293","null","0.6610043542598446","0.25872831970005883","0.1088363110831162","0","","","","","",""
"","do_trial","60","366201","0.0-60.0-0.0","606.6000001430511","","","","51","1,1,0","6","blank","294","null","0.7616947119062141","0.34379228438760573","0.24528226287709778","0","","","","","",""
"","do_trial","61","370913","0.0-61.0-0.0","2144.300000190735","","","","49","1,0,1","6","blank","295","null","0.7739298580192986","0.3265939192747009","0.1259942538193943","1","","","","","",""
"","do_trial","62","376987","0.0-62.0-0.0","null","","","","null","0,1,0","6","blank","296","null","0.7794801506132174","0.318186462366228","0.08428883316921476","","","","","","",""
"","do_recog","63","379299","0.0-63.0-0.0","802.5","","","","56","","","","297","probe-176","","","","","1","[object Object]","122","3","1",""
"","do_trial","64","382541","0.0-64.0-0.0","666.8999998569489","","","","49","0,1,0","6","blank","298","null","0.7683499238805968","0.37038761959246563","0.07267980700205123","0","","","","","",""
"","do_trial","65","385914","0.0-65.0-0.0","805.2000000476837","","","","50","0,0,0","6","blank","299","null","0.7327254172169638","0.24060750559026","0.08031399033548775","0","","","","","",""
"","do_trial","66","388795","0.0-66.0-0.0","307.10000014305115","","","","51","0,0,1","6","blank","300","null","0.8153774342972363","0.36488439088697744","0.05006906913846475","1","","","","","",""
"","do_trial","67","393227","0.0-67.0-0.0","1867.7000000476837","","","","50","1,1,0","6","blank","301","null","0.77355552842125","0.22847664262258058","0.19911971800053344","1","","","","","",""
"","do_recog","68","395699","0.0-68.0-0.0","961.2000000476837","","","","56","","","","302","probe-77","","","","","1","[object Object]","87","2","1",""
"","do_trial","69","398814","0.0-69.0-0.0","553.0999999046326","","","","49","0,1,1","6","blank","303","null","0.5159006269067282","0.3460735272958586","0.5074737591432482","0","","","","","",""
"","do_trial","70","401828","0.0-70.0-0.0","445.2999999523163","","","","51","0,0,1","6","blank","304","null","0.35380775744912507","0.3525311818641506","0.6537226853699662","1","","","","","",""
"","do_trial","71","405915","0.0-71.0-0.0","1509.9000000953674","","","","51","1,0,1","6","blank","305","null","0.2546574110595904","0.4412687758302113","0.5775814192935933","1","","","","","",""
"","do_trial","72","409113","0.0-72.0-0.0","621","","","","51","0,1,1","6","blank","306","null","0.12015005412521738","0.4217807651101929","0.5277580114110594","1","","","","","",""
"","do_recog","73","412119","0.0-73.0-0.0","1491.5","","","","54","","","","307","probe-151","","","","","1","[object Object]","129","3","0",""
"","do_trial","74","416225","0.0-74.0-0.0","1536","","","","49","1,0,1","6","blank","308","null","0.15831757358191714","0.36227829677058965","0.6486722349615385","1","","","","","",""
"","do_recog","75","418839","0.0-75.0-0.0","1103.3000001907349","","","","55","","","","309","probe-60","","","","","1","[object Object]","169","4","1",""
"","do_trial","76","421968","0.0-76.0-0.0","564.8999998569489","","","","50","0,1,0","6","blank","310","null","0.3096083833941406","0.2930989605265694","0.6300304631399556","1","","","","","",""
"","do_trial","77","425211","0.0-77.0-0.0","677.5","","","","51","0,1,0","6","blank","311","null","0.06589064854368722","0.29212316632079643","0.6880620200867744","0","","","","","",""
"","do_recog","78","427857","0.0-78.0-0.0","1125.0999999046326","","","","56","","","","312","probe-136","","","","","1","[object Object]","44","1","1",""
"","do_trial","79","431024","0.0-79.0-0.0","600.1000001430511","","","","49","0,0,1","6","blank","313","null","0.20897114946621906","0.36333522713239824","0.7397734863249015","0","","","","","",""
"","do_recog","80","433635","0.0-80.0-0.0","1101.2999999523163","","","","56","","","","314","probe-16","","","","","1","[object Object]","80","2","1",""
"","do_trial","81","436745","0.0-81.0-0.0","536.7999999523163","","","","50","0,1,1","6","blank","315","null","0.13866904444045544","0.2404722556159984","0.8546343547922588","1","","","","","",""
"","do_trial","82","440587","0.0-82.0-0.0","1275.7000000476837","","","","49","1,0,1","6","blank","316","null","0.07963776993500805","0.39780321786655365","0.8125593871457762","1","","","","","",""
"","do_recog","83","443272","0.0-83.0-0.0","1165.1000001430511","","","","56","","","","317","probe-68","","","","","1","[object Object]","41","1","1",""
"","do_trial","84","449347","0.0-84.0-0.0","null","","","","null","0,0,1","6","blank","318","null","0.14391812892640307","0.33936287164616447","0.8063264357100376","","","","","","",""
"","do_recog","85","451746","0.0-85.0-0.0","883.6000001430511","","","","56","","","","319","probe-72","","","","","1","[object Object]","160","4","1",""
"","do_trial","86","455562","0.0-86.0-0.0","1257.7000000476837","","","","51","0,0,1","6","blank","320","null","0.20858543938297375","0.33434901013465146","0.7077662700367006","1","","","","","",""
"","do_recog","87","457944","0.0-87.0-0.0","866.4000000953674","","","","56","","","","321","probe-108","","","","","1","[object Object]","83","2","1",""
"","do_trial","88","461606","0.0-88.0-0.0","1090.5","","","","49","0,0,1","6","blank","322","null","0.1220587528360997","0.3631870170499343","0.7624802960784929","0","","","","","",""
"","do_recog","89","464269","0.0-89.0-0.0","1155.5","","","","56","","","","323","probe-07","","","","","1","[object Object]","124","3","1",""
"","do_trial","90","467394","0.0-90.0-0.0","561.7000000476837","","","","50","1,1,0","6","blank","324","null","0.13648868642801038","0.5108889860340287","0.7070579560211013","1","","","","","",""
"","do_trial","91","470766","0.0-91.0-0.0","791.2000000476837","","","","50","0,0,0","6","blank","325","null","0.08844698503078417","0.33975807293097676","0.7811561771781835","0","","","","","",""
"","do_trial","92","473827","0.0-92.0-0.0","431.5","","","","51","0,0,1","6","blank","326","null","0.06859496469446759","0.31959633059422293","0.800712893709541","1","","","","","",""
"","do_trial","93","477476","0.0-93.0-0.0","1082.5999999046326","","","","49","0,1,1","6","blank","327","null","0.0884925009437399","0.1796471273428505","0.6516007984392969","0","","","","","",""
"","do_recog","94","480290","0.0-94.0-0.0","1298.9000000953674","","","","56","","","","328","probe-38","","","","","1","[object Object]","86","2","1",""
"","do_trial","95","486366","0.0-95.0-0.0","null","","","","null","0,1,0","6","blank","329","null","0.1192515087833917","0.2964976340410286","0.7219590038226292","","","","","","",""
"","do_trial","96","489448","0.0-96.0-0.0","513.8999998569489","","","","49","0,0,1","6","blank","330","null","0.10096719427780616","0.1922879751809432","1","0","","","","","",""
"","do_trial","97","492397","0.0-97.0-0.0","381.59999990463257","","","","51","0,1,1","6","blank","331","null","0.11554810877570615","0.3164901653324222","0.8620922411007252","1","","","","","",""
"","do_trial","98","495317","0.0-98.0-0.0","347","","","","50","1,0,1","6","blank","332","null","0.25449276131174986","0.21874834959498812","0.8093860056547126","0","","","","","",""
"","do_recog","99","497597","0.0-99.0-0.0","753.8999998569489","","","","56","","","","333","probe-47","","","","","1","[object Object]","208","5","1",""
"","do_trial","100","500684","0.0-100.0-0.0","510.09999990463257","","","","51","0,0,0","6","blank","334","null","0.22804681889117068","0.3329299488944685","0.7449530202243346","0","","","","","",""
"","do_recog","101","503077","0.0-101.0-0.0","880.8000001907349","","","","56","","","","335","probe-142","","","","","1","[object Object]","127","3","1",""
"","do_trial","102","506415","0.0-102.0-0.0","770.7999999523163","","","","49","0,0,1","6","blank","336","null","0.29000181472335024","0.18588505002251457","0.8092395061637507","0","","","","","",""
"","do_recog","103","509047","0.0-103.0-0.0","1111.5","","","","54","","","","337","probe-245","","","","","0","[object Object]","null","null","1",""
"","do_trial","104","512810","0.0-104.0-0.0","1185.2999999523163","","","","51","1,0,1","6","blank","338","null","0.2472826372459525","0.2104902458331105","0.7565257505756411","1","","","","","",""
"","do_trial","105","516321","0.0-105.0-0.0","946.3999998569489","","","","51","0,1,0","6","blank","339","null","0.16426372540694809","0.1695801879053804","0.6978284354210136","0","","","","","",""
"","do_trial","106","519328","0.0-106.0-0.0","432.2000000476837","","","","50","0,0,1","6","blank","340","null","0.20748424275551294","0.3585902213921054","0.7850375245145185","0","","","","","",""
"","do_trial","107","522285","0.0-107.0-0.0","381.5","","","","51","0,0,1","6","blank","341","null","0.08430073870984389","0.4727806332090514","0.7177033751592601","1","","","","","",""
"","do_trial","108","525394","0.0-108.0-0.0","534.2000000476837","","","","51","0,0,0","6","blank","342","null","0.062214093253538105","0.3266343853345432","0.7804827393838575","0","","","","","",""
"","do_recog","109","527963","0.0-109.0-0.0","1059.2999999523163","","","","56","","","","343","probe-192","","","","","1","[object Object]","89","2","1",""
"","do_trial","110","531060","0.0-110.0-0.0","532.6000001430511","","","","49","0,0,0","6","blank","344","null","0.4295158894190877","0.15025499997983333","0.5678882696255556","0","","","","","",""
"","do_recog","111","533231","0.0-111.0-0.0","660.1000001430511","","","","56","","","","345","probe-222","","","","","1","[object Object]","48","1","1",""
"","do_trial","112","536189","0.0-112.0-0.0","380.2000000476837","","","","49","1,0,1","6","blank","346","null","0.48205143528511224","0.1347137545847565","0.6167501186487835","1","","","","","",""
"","do_trial","113","539429","0.0-113.0-0.0","661.7999999523163","","","","49","1,1,0","6","blank","347","null","0.5483098937482938","0.10898921391657379","0.5826941837221655","1","","","","","",""
"","do_recog","114","541700","0.0-114.0-0.0","748.9000000953674","","","","55","","","","348","probe-164","","","","","1","[object Object]","202","5","1",""
"","do_trial","115","544897","0.0-115.0-0.0","632.2000000476837","","","","50","1,0,0","6","blank","349","null","0.6276000364750599","0.10540501240816372","0.49461150214534627","0","","","","","",""
"","do_trial","116","548369","0.0-116.0-0.0","905.7999999523163","","","","49","0,0,0","6","blank","350","null","0.606245372943781","0.15185660360949654","0.45950522430012064","0","","","","","",""
"","do_recog","117","550693","0.0-117.0-0.0","813.2000000476837","","","","55","","","","351","probe-217","","","","","1","[object Object]","205","5","1",""
"","do_trial","118","553895","0.0-118.0-0.0","630.2000000476837","","","","50","0,0,1","6","blank","352","null","0.6878161182923946","0.09135015860800713","0.34856969878961946","0","","","","","",""
"","do_recog","119","556479","0.0-119.0-0.0","1067.2999999523163","","","","56","","","","353","probe-09","","","","","1","[object Object]","209","5","1",""
"","do_trial","120","562546","0.0-120.0-0.0","null","","","","null","1,1,0","6","blank","354","null","0.5966884186254832","0.06744374683884018","0.4161564391642461","","","","","","",""
"","do_recog","121","564771","0.0-121.0-0.0","717.3999998569489","","","","56","","","","355","probe-117","","","","","1","[object Object]","45","1","1",""
"","do_trial","122","568008","0.0-122.0-0.0","666.0999999046326","","","","49","1,0,1","6","blank","356","null","0.6391590875320995","0.0870242670693571","0.39297130398200714","1","","","","","",""
"","do_recog","123","570787","0.0-123.0-0.0","1260.7000000476837","","","","56","","","","357","probe-94","","","","","1","[object Object]","162","4","1",""
"","do_trial","124","573686","0.0-124.0-0.0","329.2999999523163","","","","49","0,0,1","6","blank","358","null","0.5440256170523281","0.08848647925426431","0.36395343410781666","0","","","","","",""
"","do_recog","125","575950","0.0-125.0-0.0","750.1000001430511","","","","56","","","","359","probe-63","","","","","1","[object Object]","121","3","1",""
"","do_trial","126","579197","0.0-126.0-0.0","684","","","","50","1,0,1","6","blank","360","null","0.5816338604501405","0.11189617943303237","0.4647104037913954","0","","","","","",""
"","do_trial","127","583502","0.0-127.0-0.0","1734.0999999046326","","","","50","1,0,0","6","blank","361","null","0.5643484840617096","0.11771871914494035","0.46689120006860985","0","","","","","",""
"","do_recog","128","587334","0.0-128.0-0.0","2323.7000000476837","","","","54","","","","362","probe-76","","","","","1","[object Object]","165","4","0",""
"","do_trial","129","590697","0.0-129.0-0.0","785.2000000476837","","","","50","1,0,1","6","blank","363","null","0.5682831191968165","0.13602871112899054","0.7176340095357024","0","","","","","",""
"","do_recog","130","592702","0.0-130.0-0.0","498.5","","","","56","","","","364","probe-126","","","","","1","[object Object]","43","1","1",""
"","do_trial","131","595915","0.0-131.0-0.0","637.1000001430511","","","","49","1,0,0","6","blank","365","null","0.6509291361072492","0.08247452169186208","0.610640598553643","1","","","","","",""
"","do_trial","132","599356","0.0-132.0-0.0","871.5","","","","49","1,0,1","6","blank","366","null","0.7065585612484152","0.07169778488433293","0.5227599272591702","1","","","","","",""
"","do_trial","133","602508","0.0-133.0-0.0","579","","","","49","1,1,1","6","blank","367","null","0.682570555283557","0.06963868616438963","0.550567766768634","1","","","","","",""
"","do_trial","134","608629","0.0-134.0-0.0","null","","","","null","0,0,0","6","blank","368","null","0.7436094787120772","0.16492595823713052","0.42761081485402863","","","","","","",""
"","do_trial","135","612048","0.0-135.0-0.0","847.2999999523163","","","","49","1,0,1","6","blank","369","null","0.7180808312284171","0.16988050743520514","0.43864850427507157","1","","","","","",""
"","do_recog","136","614749","0.0-136.0-0.0","1182","","","","56","","","","370","probe-95","","","","","1","[object Object]","42","1","1",""
"","do_trial","137","618379","0.0-137.0-0.0","1057.5999999046326","","","","50","0,0,0","6","blank","371","null","0.9255253501532977","0.079192057908454","0.2724481936503298","0","","","","","",""
"","do_recog","138","620573","0.0-138.0-0.0","673.2000000476837","","","","56","","","","372","probe-110","","","","","1","[object Object]","49","1","1",""
"","do_trial","139","623958","0.0-139.0-0.0","801.1000001430511","","","","49","1,0,0","6","blank","373","null","0.8669292180970442","0.1530146464440925","0.25083662942508583","1","","","","","",""
"","do_recog","140","626443","0.0-140.0-0.0","975.9000000953674","","","","56","","","","374","probe-146","","","","","1","[object Object]","125","3","1",""
"","do_trial","141","630126","0.0-141.0-0.0","1104.2000000476837","","","","49","1,1,0","6","blank","375","null","0.9058296929417019","0.3374066922508159","0.26820160839129037","1","","","","","",""
"","do_recog","142","632398","0.0-142.0-0.0","763","","","","56","","","","376","probe-97","","","","","1","[object Object]","206","5","1",""
"","do_trial","143","635459","0.0-143.0-0.0","489.2999999523163","","","","49","1,1,1","6","blank","377","null","1","0.3320089309709231","0.4053241138513336","1","","","","","",""
"","do_recog","144","637777","0.0-144.0-0.0","798.1000001430511","","","","56","","","","378","probe-259","","","","","0","[object Object]","null","null","0",""
"","do_trial","145","641002","0.0-145.0-0.0","661.1000001430511","","","","49","1,0,1","6","blank","379","null","0.8966739278319042","0.15336391149091705","0.19671449279933217","1","","","","","",""
"","do_trial","146","644332","0.0-146.0-0.0","754.2000000476837","","","","49","1,0,0","6","blank","380","null","0.8541822743579699","0.17418663393740227","0.2614263452124421","1","","","","","",""
"","do_trial","147","647379","0.0-147.0-0.0","477.80000019073486","","","","49","1,0,0","6","blank","381","null","0.7318473662112668","0.07179949463549568","0.26257159411412145","1","","","","","",""
"","do_recog","148","649799","0.0-148.0-0.0","905.5","","","","56","","","","382","probe-248","","","","","0","[object Object]","null","null","0",""
"","do_trial","149","653061","0.0-149.0-0.0","697.3000001907349","","","","49","1,0,0","6","blank","383","null","0.6790946254933445","0.07121576608062659","0.2472402996766758","1","","","","","",""
"","do_recog","150","655979","0.0-150.0-0.0","1409.1000001430511","","","","55","","","","384","probe-244","","","","","0","[object Object]","null","null","0",""
"","do_trial","151","658925","0.0-151.0-0.0","374.90000009536743","","","","49","1,0,0","6","blank","385","null","0.7571016364023418","0.10537300512568466","0.34007415022393794","1","","","","","",""
"","do_trial","152","662184","0.0-152.0-0.0","695.1999998092651","","","","49","1,1,0","6","blank","386","null","0.7145490852794751","0.06297066148184585","0.35858927009760605","1","","","","","",""
"","do_trial","153","665482","0.0-153.0-0.0","733.2000000476837","","","","49","0,0,1","6","blank","387","null","0.6180927415972749","0.17464705233926495","0.23827966425936167","0","","","","","",""
"","do_trial","154","668541","0.0-154.0-0.0","494","","","","50","0,0,0","6","blank","388","null","0.543961102570032","0.19026390357801198","0.30137845985231304","0","","","","","",""
"","do_trial","155","671471","0.0-155.0-0.0","356.59999990463257","","","","51","0,0,0","6","blank","389","null","0.5833623052529829","0.2586241107215786","0.41772990273938876","0","","","","","",""
"","do_recog","156","674693","0.0-156.0-0.0","1710.2999999523163","","","","54","","","","390","probe-246","","","","","0","[object Object]","null","null","1",""
"","do_trial","157","677858","0.0-157.0-0.0","604","","","","51","0,0,0","6","blank","391","null","0.43560399201217365","0.3268954051522273","0.49915609482029094","0","","","","","",""
"","do_recog","158","680981","0.0-158.0-0.0","1615.7999999523163","","","","54","","","","392","probe-241","","","","","0","[object Object]","null","null","1",""
"","do_trial","159","683877","0.0-159.0-0.0","329","","","","49","0,0,0","6","blank","393","null","0.2527067265544782","0.30681502393473425","0.7134547080842851","0","","","","","",""
"","do_recog","160","686760","0.0-160.0-0.0","1365.4000000953674","","","","54","","","","394","probe-255","","","","","0","[object Object]","null","null","1",""
"","do_trial","161","689990","0.0-161.0-0.0","666","","","","49","0,1,1","6","blank","395","null","0.17150547435390462","0.4608892414935858","0.7015692293461074","0","","","","","",""
"","do_trial","162","692970","0.0-162.0-0.0","409.90000009536743","","","","49","0,0,0","6","blank","396","null","0.16056893969595798","0.3303371320276342","0.780850700776984","0","","","","","",""
"","do_trial","163","695904","0.0-163.0-0.0","370","","","","49","0,1,0","6","blank","397","null","0.19555524034985297","0.5184827777716008","0.7405093510474252","0","","","","","",""
"","do_trial","164","698734","0.0-164.0-0.0","256.40000009536743","","","","49","0,0,1","6","blank","398","null","0.2752459696803091","0.5038270688634097","0.7724657720864697","0","","","","","",""
"","do_trial","165","701445","0.0-165.0-0.0","140.59999990463257","","","","49","0,0,1","6","blank","399","null","0.06541648788560052","0.3821060806015472","0.8703443889851632","0","","","","","",""
"","do_trial","166","704492","0.0-166.0-0.0","481.59999990463257","","","","50","0,0,1","6","blank","400","null","0.07203584197268112","0.3300002991589079","0.8058275418443122","0","","","","","",""
"","do_recog","167","707831","0.0-167.0-0.0","1828.4000000953674","","","","54","","","","401","probe-247","","","","","0","[object Object]","null","null","1",""
"","do_trial","168","711018","0.0-168.0-0.0","622.9000000953674","","","","49","0,1,1","6","blank","402","null","0.08790232042102492","0.3750701165667664","0.7488833372331564","0","","","","","",""
"","do_recog","169","713826","0.0-169.0-0.0","1287.7999999523163","","","","53","","","","403","probe-242","","","","","0","[object Object]","null","null","1",""
"","do_trial","170","719903","0.0-170.0-0.0","null","","","","null","0,1,1","6","blank","404","null","0.12752250711263138","0.39593297927863136","0.856878101566175","","","","","","",""
"","do_recog","171","722903","0.0-171.0-0.0","1475.5","","","","54","","","","405","probe-249","","","","","0","[object Object]","null","null","1",""
"","do_trial","172","726955","0.0-172.0-0.0","1465.9000000953674","","","","49","0,0,1","6","blank","406","null","0.26063535152215633","0.37924032737863356","0.7311535598476974","0","","","","","",""
"","do_recog","173","730109","0.0-173.0-0.0","1635.5","","","","54","","","","407","probe-256","","","","","0","[object Object]","null","null","1",""
"","do_trial","174","736195","0.0-174.0-0.0","null","","","","null","0,0,0","6","blank","408","null","0.20754435336031005","0.41762842015938995","0.781237884957444","","","","","","",""
"","do_trial","175","739236","0.0-175.0-0.0","470.60000014305115","","","","51","0,1,1","6","blank","409","null","0.15099646636323258","0.5768979440087004","0.651684017723213","1","","","","","",""
"","do_recog","176","741788","0.0-176.0-0.0","1035.7999999523163","","","","54","","","","410","probe-251","","","","","0","[object Object]","null","null","1",""
"","do_trial","177","745057","0.0-177.0-0.0","685.8000001907349","","","","50","0,1,1","6","blank","411","null","0.08777092045672577","0.6204427510822942","0.6785412923454698","1","","","","","",""
"","do_trial","178","748618","0.0-178.0-0.0","964.0999999046326","","","","50","0,0,1","6","blank","412","null","0.08094680646799234","0.3953721495973667","0.6319270334063802","0","","","","","",""
"","do_trial","179","751695","0.0-179.0-0.0","494","","","","49","0,0,1","6","blank","413","null","0.13037450321358685","0.34412968947743006","0.7744140552365418","0","","","","","",""
"","do_trial","180","757791","0.0-180.0-0.0","null","","","","null","0,0,0","6","blank","414","null","0.08185306975221288","0.3817035375694703","0.6947004220666148","","","","","","",""
"","do_recog","181","760663","0.0-181.0-0.0","1364.5","","","","54","","","","415","probe-253","","","","","0","[object Object]","null","null","1",""
"","do_trial","182","763766","0.0-182.0-0.0","523","","","","49","0,0,1","6","blank","416","null","0.06755859852931076","0.513452921296718","0.8211115780563327","0","","","","","",""
"","do_trial","183","767590","0.0-183.0-0.0","1233.5999999046326","","","","49","0,1,1","6","blank","417","null","0.050285568753640486","0.5514794746075622","0.7351013748643296","0","","","","","",""
"","do_trial","184","771965","0.0-184.0-0.0","1814.8000001907349","","","","49","0,0,1","6","blank","418","null","0.053851814912497104","0.5235029218307335","0.8562470449205846","0","","","","","",""
"","do_recog","185","774632","0.0-185.0-0.0","1161.3999998569489","","","","54","","","","419","probe-257","","","","","0","[object Object]","null","null","1",""
"","do_pick_best_pirate","186","780363","0.0-186.0-0.0","4716.799999952316","","","","49","","","","","","","","","","","","","","",""
"","do_pick_best_pirate","187","784274","0.0-187.0-0.0","2900.9000000953674","","","","50","","","","","","","","","","","","","","",""
"","do_pick_best_pirate","188","787004","0.0-188.0-0.0","1720.1999998092651","","","","51","","","","","","","","","","","","","","",""
"","do_pick_best_pirate","189","789329","0.0-189.0-0.0","1318.5999999046326","","","","51","","","","","","","","","","","","","","",""
"","do_pick_best_pirate","190","791519","0.0-190.0-0.0","1180.9000000953674","","","","49","","","","","","","","","","","","","","",""
"","do_pick_best_pirate","191","793824","0.0-191.0-0.0","1297.2999999523163","","","","50","","","","","","","","","","","","","","",""
"","html-keyboard-response","192","801334","0.0-192.0-0.0","7504.600000143051","<div class='center'>You are all done with both parts of the experiment! You made $15 plus $3 in bonus payment!! Thank you for participating. You will recieve your payment within 3 days<p><b>[Press the space bar to end the experiment]</b></p></div>","32","","","","","","","","","","","","","","","","",""
