"success","trial_type","trial_index","time_elapsed","internal_node_id","rt","stimulus","key_press","subject_id","participant_id","age","gender","prompt","response","choice_outcomes","context_n","context_img_id","trial_n","probe_img_id","pR_red","pR_white","pR_black","outcome","is_valid","image_to_show","probed_trial","probed_context","correct","probe","probed_trial_n","probed_context_n","context_im"
"true","fullscreen","0","4579","0.0-0.0","","","","","","","","","","","","","","","","","","","","","","","","","","",""
"","pavlovia","1","4582","0.0-1.0","","","","","","","","","","","","","","","","","","","","","","","","","","",""
"","welc_back","2","17233","0.0-2.0","null","run_exp/static/audio/clip_29_welcome_back.m4a","null","62","520","12","male","<div class='center'><p>Welcome to day 2!</p><p> Yesterday, you were the head captain of a pirate ship. You and your fellow pirates robbed ships for their gold and traveled to six different islands .</p></div>","","","","","","","","","","","","","","","","","","",""
"","html-keyboard-response","3","26455","0.0-3.0","9220.200000286102","<div class='center'><p>Welcome to day 2!</p><p> Yesterday, you were the head captain of a pirate ship. You and your fellow pirates robbed ships for their gold and traveled to six different islands .</p><p><b>[Press the space bar to continue]</b></p></div>","32","","","","","","","","","","","","","","","","","","","","","","","",""
"","day_1_summary_goal","4","46421","0.0-4.0","null","run_exp/static/audio/clip_30_goal_of_game.m4a","null","","","","","<div class='center'><p>Today, like yesterday, you get to pick which pirate you want to rob the next ship.</p><p>If the pirate is successful in robbing a ship, you get gold coins that look like this: </p><p><img src='run_exp/static/images/tutorial/reward.png' height='150'></p><p> If they were not successful in robbing the ship, then you will get no gold coins and you'll see a big red x like this: </p><p><img src='run_exp/static/images/tutorial/reward_no.png' height='150'></p></div>","","","","","","","","","","","","","","","","","","",""
"","html-keyboard-response","5","47638","0.0-5.0","1215.6999998092651","<div class='center'><p>Today, like yesterday, you get to pick which pirate you want to rob the next ship.</p><p>If the pirate is successful in robbing a ship, you get gold coins that look like this: </p><p><img src='run_exp/static/images/tutorial/reward.png' height='150'></p><p> If they were not successful in robbing the ship, then you will get no gold coins and you'll see a big red x like this: </p><p><img src='run_exp/static/images/tutorial/reward_no.png' height='150'></p><p><b>[Press the space bar to continue]</b></p></div>","32","","","","","","","","","","","","","","","","","","","","","","","",""
"","day_1_summary_pick","6","65462","0.0-6.0","null","run_exp/static/audio/clip_31_how_to_pick_a_pirate.m4a","null","","","","","<div class='center'><p>Also, just like yesterday, you will use the 1,2,3 keys on your keyboard to pick a pirate. Press '1' to choose red beard, '2' to choose white beard, and '3' to choose black beard . You only have 3 seconds to pick a pirate, so please make a choice quickly!</p></div>","","","","","","","","","","","","","","","","","","",""
"","html-keyboard-response","7","66781","0.0-7.0","1318.1999998092651","<div class='center'><p>Also, just like yesterday, you will use the 1,2,3 keys on your keyboard to pick a pirate. Press '1' to choose red beard, '2' to choose white beard, and '3' to choose black beard . You only have 3 seconds to pick a pirate, so please make a choice quickly!</p><p><b>[Press the space bar to continue]</b></p></div>","32","","","","","","","","","","","","","","","","","","","","","","","",""
"","test_phase_begin","8","91214","0.0-8.0","null","run_exp/static/audio/clip_32_final_place.m4a","null","","","","","<div class='center'><p>You’ve arrived at the final island of your journey! Unfortunately, it’s very foggy out, so you won’t be able to see it in the distance like the other islands you've visited.</p><p>You’ll still be deciding which pirate you want to rob a ship like before. However, because of the fog, you also won’t be able to see the ship.</p><p>This means you do not have to remember the ships you rob on this island.</p></p></div>","","","","","","","","","","","","","","","","","","",""
"","html-keyboard-response","9","92037","0.0-9.0","822.3999996185303","<div class='center'><p>You’ve arrived at the final island of your journey! Unfortunately, it’s very foggy out, so you won’t be able to see it in the distance like the other islands you've visited.</p><p>You’ll still be deciding which pirate you want to rob a ship like before. However, because of the fog, you also won’t be able to see the ship.</p><p>This means you do not have to remember the ships you rob on this island.</p></p><p><b>[Press the space bar to continue]</b></p></div>","32","","","","","","","","","","","","","","","","","","","","","","","",""
"","explain_probe_1","10","101454","0.0-10.0","null","run_exp/static/audio/clip_33_recognition_1.m4a","null","","","","","<div class='center'><p> Sometimes you’ll be shown a ship, and you will be asked if you saw this ship on a past island.</p><p> Here is an example of what you will see.</p><p><img src='run_exp/static/images/tutorial/example_recog_trial.png' height='500'></p></div>","","","","","","","","","","","","","","","","","","",""
"","html-keyboard-response","11","102754","0.0-11.0","1299.5","<div class='center'><p> Sometimes you’ll be shown a ship, and you will be asked if you saw this ship on a past island.</p><p> Here is an example of what you will see.</p><p><img src='run_exp/static/images/tutorial/example_recog_trial.png' height='500'></p><p><b>[Press the space bar to continue]</b></p></div>","32","","","","","","","","","","","","","","","","","","","","","","","",""
"","explain_probe_2","12","129574","0.0-12.0","null","run_exp/static/audio/clip_34_recognition_2.m4a","null","","","","","<div class='center'><p> You will press the 5, 6, 7, 8 keys on your keyboard to respond.</p><p>If you are very sure saw the ship, press <b>5</b> on your keyboard.</p><p> If you think you  saw it before but are not sure, then press <b>6</b>.</p><p> If you think you have <b>not</b> seen it before but are not sure, then press <b>7</b>.</p><p> If you are sure you did <b>not</b> see the ship before, then press <b>8</b>.</p><p><img src='run_exp/static/images/tutorial/example_recog_trial.png' height='500'></p></div>","","","","","","","","","","","","","","","","","","",""
"","html-keyboard-response","13","130265","0.0-13.0","690.0999999046326","<div class='center'><p> You will press the 5, 6, 7, 8 keys on your keyboard to respond.</p><p>If you are very sure saw the ship, press <b>5</b> on your keyboard.</p><p> If you think you  saw it before but are not sure, then press <b>6</b>.</p><p> If you think you have <b>not</b> seen it before but are not sure, then press <b>7</b>.</p><p> If you are sure you did <b>not</b> see the ship before, then press <b>8</b>.</p><p><img src='run_exp/static/images/tutorial/example_recog_trial.png' height='500'></p><p><b>[Press the space bar to continue]</b></p></div>","32","","","","","","","","","","","","","","","","","","","","","","","",""
"","explain_outcome","14","151797","0.0-14.0","null","run_exp/static/audio/clip_35_recognition_3.m4a","null","","","","","<div class='center'><p> If you remember correctly, then you’ll get a gold coin like this: </p><p><img src='run_exp/static/images/tutorial/reward_small.png' height='200'></p><p>If you do not remember correctly, then you'll see a red x like this: </p><p><img src='run_exp/static/images/tutorial/reward_no.png' height='200'></p><p>Importantly, when you are shown a ship, take the time to remind yourself which island you saw it on. This will help you in the next part of the study.</p></div>","","","","","","","","","","","","","","","","","","",""
"","html-keyboard-response","15","153973","0.0-15.0","2175.4000000953674","<div class='center'><p> If you remember correctly, then you’ll get a gold coin like this: </p><p><img src='run_exp/static/images/tutorial/reward_small.png' height='200'></p><p>If you do not remember correctly, then you'll see a red x like this: </p><p><img src='run_exp/static/images/tutorial/reward_no.png' height='200'></p><p>Importantly, when you are shown a ship, take the time to remind yourself which island you saw it on. This will help you in the next part of the study.</p><p><b>[Press the space bar to continue]</b></p></div>","32","","","","","","","","","","","","","","","","","","","","","","","",""
"","begin_test_phase","16","178500","0.0-16.0","null","run_exp/static/audio/clip_36_begin_final.m4a","null","","","","","<div class='center'><p>Let's go over the important points again. Your job is to: </p><p>1. Pick the pirate who is best at robbing ships and will bring you back gold coins. </p><p>2. Correctly remember whether or not you saw a ship before. If you did see the ship before, remind yourself on which island you saw the ship. </p></div>","","","","","","","","","","","","","","","","","","",""
"","html-keyboard-response","17","179982","0.0-17.0","1450.8000001907349","<div class='center'><p>Let's go over the important points again. Your job is to: </p><p>1. Pick the pirate who is best at robbing ships and will bring you back gold coins. </p><p>2. Correctly remember whether or not you saw a ship before. If you did see the ship before, remind yourself on which island you saw the ship. </p><p><b>[Press the space bar to continue]</b></p></div>","32","","","","","","","","","","","","","","","","","","","","","","","",""
"","do_welcome","18","181487","0.0-18.0","null","","","","","","","","null","","","","","","","","","","","","","","","","","",""
"","do_trial","19","185040","0.0-19.0-0.0","1003.0999999046326","","","","","","","","49","0,0,0","6","blank","230","null","0.47186486386650744","0.057779644701203864","0.38295293829200805","0","","","","","","","","",""
"","html-keyboard-response","20","186047","0.0-19.0-1.0","null","<p></p>","null","","","","","","","","","","","","","","","","","","","","","","","",""
"","do_trial","21","189208","0.0-20.0-0.0","615.4000000953674","","","","","","","","50","0,0,0","6","blank","231","null","0.46747895720916044","0.08496806746632057","0.48063968285249775","0","","","","","","","","",""
"","html-keyboard-response","22","190214","0.0-20.0-1.0","null","<p></p>","null","","","","","","","","","","","","","","","","","","","","","","","",""
"","do_trial","23","193335","0.0-21.0-0.0","566.7999997138977","","","","","","","","51","0,0,1","6","blank","232","null","0.5161848873785849","0.0828218245446067","0.46324671118047034","1","","","","","","","","",""
"","html-keyboard-response","24","194338","0.0-21.0-1.0","null","<p></p>","null","","","","","","","","","","","","","","","","","","","","","","","",""
"","do_trial","25","196929","0.0-22.0-0.0","46.299999713897705","","","","","","","","49","0,0,1","6","blank","233","null","0.4056044289028962","0.11469548588384534","0.47654042892937953","0","","","","","","","","",""
"","html-keyboard-response","26","197935","0.0-22.0-1.0","null","<p></p>","null","","","","","","","","","","","","","","","","","","","","","","","",""
"","do_trial","27","201206","0.0-23.0-0.0","726.5","","","","","","","","50","1,0,1","6","blank","234","null","0.33529772560775184","0.13733156121517143","0.5614536414567284","0","","","","","","","","",""
"","html-keyboard-response","28","202210","0.0-23.0-1.0","null","<p></p>","null","","","","","","","","","","","","","","","","","","","","","","","",""
"","do_trial","29","205325","0.0-24.0-0.0","569.6000003814697","","","","","","","","51","1,0,0","6","blank","235","null","0.3915070978476489","0.06574799960207481","0.49952140531645245","0","","","","","","","","",""
"","html-keyboard-response","30","206329","0.0-24.0-1.0","null","<p></p>","null","","","","","","","","","","","","","","","","","","","","","","","",""
"","do_trial","31","209012","0.0-25.0-0.0","140.5","","","","","","","","49","1,0,0","6","blank","236","null","0.5314011262404599","0.13541024955681294","0.6718703032041351","1","","","","","","","","",""
"","html-keyboard-response","32","210016","0.0-25.0-1.0","null","<p></p>","null","","","","","","","","","","","","","","","","","","","","","","","",""
"","do_trial","33","213077","0.0-26.0-0.0","516.7999997138977","","","","","","","","50","0,0,1","6","blank","237","null","0.3074221448167525","0.23575649882155184","0.49089780903906544","0","","","","","","","","",""
"","html-keyboard-response","34","214081","0.0-26.0-1.0","null","<p></p>","null","","","","","","","","","","","","","","","","","","","","","","","",""
"","do_trial","35","217035","0.0-27.0-0.0","411.09999990463257","","","","","","","","51","0,0,1","6","blank","238","null","0.30217113098963144","0.231146764556247","0.49308745333199966","1","","","","","","","","",""
"","html-keyboard-response","36","218039","0.0-27.0-1.0","null","<p></p>","null","","","","","","","","","","","","","","","","","","","","","","","",""
"","do_trial","37","220945","0.0-28.0-0.0","351.59999990463257","","","","","","","","49","0,0,1","6","blank","239","null","0.2044940776844722","0.1679437605263247","0.6165930346179692","0","","","","","","","","",""
"","html-keyboard-response","38","221949","0.0-28.0-1.0","null","<p></p>","null","","","","","","","","","","","","","","","","","","","","","","","",""
"","do_trial","39","224835","0.0-29.0-0.0","340.40000009536743","","","","","","","","50","0,0,1","6","blank","240","null","0.3149073328210401","0.31387420413004696","0.6840788905919736","0","","","","","","","","",""
"","html-keyboard-response","40","225839","0.0-29.0-1.0","null","<p></p>","null","","","","","","","","","","","","","","","","","","","","","","","",""
"","do_recog","41","231855","0.0-30.0-0.0","null","","","","","","","","null","","","","241","probe-46","","","","","1","[object Object]","81","2","0","","","",""
"","html-keyboard-response","42","232859","0.0-30.0-1.0","null","<p></p>","null","","","","","","","","","","","","","","","","","","","","","","","",""
"","do_trial","43","236219","0.0-31.0-0.0","817.5999999046326","","","","","","","","49","0,0,0","6","blank","242","null","0.2629114852489476","0.06244531559410731","0.6111127941017706","0","","","","","","","","",""
"","html-keyboard-response","44","237223","0.0-31.0-1.0","null","<p></p>","null","","","","","","","","","","","","","","","","","","","","","","","",""
"","do_trial","45","240137","0.0-32.0-0.0","367.5","","","","","","","","50","0,0,0","6","blank","243","null","0.4042627945806748","0.06227774585784587","0.2983339501600057","0","","","","","","","","",""
"","html-keyboard-response","46","241142","0.0-32.0-1.0","null","<p></p>","null","","","","","","","","","","","","","","","","","","","","","","","",""
"","do_trial","47","244238","0.0-33.0-0.0","553.8999996185303","","","","","","","","51","0,0,1","6","blank","244","null","0.3832577788813225","0.11322613691578626","0.2709691605621369","1","","","","","","","","",""
"","html-keyboard-response","48","245241","0.0-33.0-1.0","null","<p></p>","null","","","","","","","","","","","","","","","","","","","","","","","",""
"","do_trial","49","248221","0.0-34.0-0.0","433","","","","","","","","49","0,0,0","6","blank","245","null","0.5117566037250602","0.11592153678886391","0.2546386497330496","0","","","","","","","","",""
"","html-keyboard-response","50","249225","0.0-34.0-1.0","null","<p></p>","null","","","","","","","","","","","","","","","","","","","","","","","",""
"","do_trial","51","252296","0.0-35.0-0.0","524.5","","","","","","","","50","0,0,0","6","blank","246","null","0.576356192899999","0.08080686201786184","0.26913250330778876","0","","","","","","","","",""
"","html-keyboard-response","52","253300","0.0-35.0-1.0","null","<p></p>","null","","","","","","","","","","","","","","","","","","","","","","","",""
"","do_recog","53","257764","0.0-36.0-0.0","2952.800000190735","","","","","","","","53","","","","247","probe-176","","","","","1","[object Object]","86","2","1","","","",""
"","html-keyboard-response","54","258768","0.0-36.0-1.0","null","<p></p>","null","","","","","","","","","","","","","","","","","","","","","","","",""
"","do_trial","55","261951","0.0-37.0-0.0","642.1000003814697","","","","","","","","49","0,0,0","6","blank","248","null","0.6082907750508862","0.25923842441231204","0.37758660393383753","0","","","","","","","","",""
"","html-keyboard-response","56","262955","0.0-37.0-1.0","null","<p></p>","null","","","","","","","","","","","","","","","","","","","","","","","",""
"","do_trial","57","265932","0.0-38.0-0.0","433.09999990463257","","","","","","","","51","0,0,0","6","blank","249","null","0.6799016306485893","0.27626634586959997","0.4453196199850727","0","","","","","","","","",""
"","html-keyboard-response","58","266936","0.0-38.0-1.0","null","<p></p>","null","","","","","","","","","","","","","","","","","","","","","","","",""
"","do_trial","59","269758","0.0-39.0-0.0","280","","","","","","","","50","1,0,0","6","blank","250","null","0.6598307575757828","0.2430323409198169","0.32667668959594265","0","","","","","","","","",""
"","html-keyboard-response","60","270762","0.0-39.0-1.0","null","<p></p>","null","","","","","","","","","","","","","","","","","","","","","","","",""
"","do_recog","61","274704","0.0-40.0-0.0","2434.800000190735","","","","","","","","53","","","","251","probe-38","","","","","1","[object Object]","80","2","1","","","",""
"","html-keyboard-response","62","275710","0.0-40.0-1.0","null","<p></p>","null","","","","","","","","","","","","","","","","","","","","","","","",""
"","do_trial","63","279330","0.0-41.0-0.0","1077.1999998092651","","","","","","","","51","1,0,1","6","blank","252","null","0.4878832976672145","0.2687199427532739","0.3343026067038943","1","","","","","","","","",""
"","html-keyboard-response","64","280336","0.0-41.0-1.0","null","<p></p>","null","","","","","","","","","","","","","","","","","","","","","","","",""
"","do_recog","65","283654","0.0-42.0-0.0","1810","","","","","","","","53","","","","253","probe-133","","","","","1","[object Object]","200","5","1","","","",""
"","html-keyboard-response","66","284657","0.0-42.0-1.0","null","<p></p>","null","","","","","","","","","","","","","","","","","","","","","","","",""
"","do_trial","67","288616","0.0-43.0-0.0","1414.3000001907349","","","","","","","","51","1,0,0","6","blank","254","null","0.5516582725432028","0.15510019999117716","0.4144657471763016","0","","","","","","","","",""
"","html-keyboard-response","68","289621","0.0-43.0-1.0","null","<p></p>","null","","","","","","","","","","","","","","","","","","","","","","","",""
"","do_trial","69","292934","0.0-44.0-0.0","770.3999996185303","","","","","","","","51","0,0,1","6","blank","255","null","0.630264320027555","0.08861554224959985","0.3572126874840153","1","","","","","","","","",""
"","html-keyboard-response","70","293938","0.0-44.0-1.0","null","<p></p>","null","","","","","","","","","","","","","","","","","","","","","","","",""
"","do_trial","71","297304","0.0-45.0-0.0","823.5","","","","","","","","51","1,1,0","6","blank","256","null","0.5523353617166553","0.08617212797773569","0.3444793091648296","0","","","","","","","","",""
"","html-keyboard-response","72","298308","0.0-45.0-1.0","null","<p></p>","null","","","","","","","","","","","","","","","","","","","","","","","",""
"","do_trial","73","301530","0.0-46.0-0.0","677.9000000953674","","","","","","","","51","0,0,0","6","blank","257","null","0.5451577384856882","0.24343388420326256","0.2575028284858413","0","","","","","","","","",""
"","html-keyboard-response","74","302536","0.0-46.0-1.0","null","<p></p>","null","","","","","","","","","","","","","","","","","","","","","","","",""
"","do_trial","75","305713","0.0-47.0-0.0","632.7000002861023","","","","","","","","51","1,0,0","6","blank","258","null","0.6096327787344763","0.0558609006008507","0.22220286017642765","0","","","","","","","","",""
"","html-keyboard-response","76","306717","0.0-47.0-1.0","null","<p></p>","null","","","","","","","","","","","","","","","","","","","","","","","",""
"","do_trial","77","310127","0.0-48.0-0.0","832.5","","","","","","","","49","0,0,1","6","blank","259","null","0.37334606029076073","0.052441888351824006","0.33759703436329747","0","","","","","","","","",""
"","html-keyboard-response","78","311131","0.0-48.0-1.0","null","<p></p>","null","","","","","","","","","","","","","","","","","","","","","","","",""
"","do_recog","79","317146","0.0-49.0-0.0","null","","","","","","","","null","","","","260","probe-217","","","","","1","[object Object]","201","5","0","","","",""
"","html-keyboard-response","80","318150","0.0-49.0-1.0","null","<p></p>","null","","","","","","","","","","","","","","","","","","","","","","","",""
"","do_trial","81","321387","0.0-50.0-0.0","692.4000000953674","","","","","","","","49","1,0,1","6","blank","261","null","0.49946084362290777","0.11157591254752296","0.3588139447612463","1","","","","","","","","",""
"","html-keyboard-response","82","322391","0.0-50.0-1.0","null","<p></p>","null","","","","","","","","","","","","","","","","","","","","","","","",""
"","do_trial","83","325386","0.0-51.0-0.0","452.30000019073486","","","","","","","","49","0,0,0","6","blank","262","null","0.47007494707199854","0.16497785223440198","0.334887342376142","0","","","","","","","","",""
"","html-keyboard-response","84","326390","0.0-51.0-1.0","null","<p></p>","null","","","","","","","","","","","","","","","","","","","","","","","",""
"","do_recog","85","330183","0.0-52.0-0.0","2283.199999809265","","","","","","","","54","","","","263","probe-203","","","","","1","[object Object]","128","3","1","","","",""
"","html-keyboard-response","86","331187","0.0-52.0-1.0","null","<p></p>","null","","","","","","","","","","","","","","","","","","","","","","","",""
"","do_trial","87","334922","0.0-53.0-0.0","1189.0999999046326","","","","","","","","50","1,0,1","6","blank","264","null","0.5678467444385497","0.10700789615624082","0.4789926518647792","0","","","","","","","","",""
"","html-keyboard-response","88","335928","0.0-53.0-1.0","null","<p></p>","null","","","","","","","","","","","","","","","","","","","","","","","",""
"","do_recog","89","338714","0.0-54.0-0.0","1277.0999999046326","","","","","","","","56","","","","265","probe-34","","","","","1","[object Object]","85","2","0","","","",""
"","html-keyboard-response","90","339718","0.0-54.0-1.0","null","<p></p>","null","","","","","","","","","","","","","","","","","","","","","","","",""
"","do_trial","91","342956","0.0-55.0-0.0","693.2999997138977","","","","","","","","51","1,0,0","6","blank","266","null","0.46647483344478263","0.10625668259290844","0.37277247347027564","0","","","","","","","","",""
"","html-keyboard-response","92","343957","0.0-55.0-1.0","null","<p></p>","null","","","","","","","","","","","","","","","","","","","","","","","",""
"","do_trial","93","347108","0.0-56.0-0.0","604.6999998092651","","","","","","","","51","0,1,1","6","blank","267","null","0.5281776754957435","0.14172239330331496","0.4252070520372211","1","","","","","","","","",""
"","html-keyboard-response","94","348112","0.0-56.0-1.0","null","<p></p>","null","","","","","","","","","","","","","","","","","","","","","","","",""
"","do_trial","95","351399","0.0-57.0-0.0","741","","","","","","","","49","1,1,1","6","blank","268","null","0.5231535874848179","0.16864517656249065","0.497315820941566","1","","","","","","","","",""
"","html-keyboard-response","96","352405","0.0-57.0-1.0","null","<p></p>","null","","","","","","","","","","","","","","","","","","","","","","","",""
"","do_trial","97","355625","0.0-58.0-0.0","674.5","","","","","","","","49","1,0,0","6","blank","269","null","0.49876147713356284","0.14117272586649895","0.42740298036140273","1","","","","","","","","",""
"","html-keyboard-response","98","356629","0.0-58.0-1.0","null","<p></p>","null","","","","","","","","","","","","","","","","","","","","","","","",""
"","do_recog","99","359749","0.0-59.0-0.0","1611.0999999046326","","","","","","","","56","","","","270","probe-135","","","","","1","[object Object]","47","1","0","","","",""
"","html-keyboard-response","100","360752","0.0-59.0-1.0","null","<p></p>","null","","","","","","","","","","","","","","","","","","","","","","","",""
"","do_trial","101","363930","0.0-60.0-0.0","636.4000000953674","","","","","","","","49","0,0,1","6","blank","271","null","0.440419527038113","0.0749417851437158","0.4467310829355411","0","","","","","","","","",""
"","html-keyboard-response","102","364936","0.0-60.0-1.0","null","<p></p>","null","","","","","","","","","","","","","","","","","","","","","","","",""
"","do_trial","103","368240","0.0-61.0-0.0","757.1999998092651","","","","","","","","49","1,1,0","6","blank","272","null","0.48693073039743473","0.23217675523351283","0.4924586603775687","1","","","","","","","","",""
"","html-keyboard-response","104","369244","0.0-61.0-1.0","null","<p></p>","null","","","","","","","","","","","","","","","","","","","","","","","",""
"","do_trial","105","372381","0.0-62.0-0.0","590.7999997138977","","","","","","","","49","1,0,0","6","blank","273","null","0.4520038490345861","0.13401651467523942","0.3545973304474331","1","","","","","","","","",""
"","html-keyboard-response","106","373385","0.0-62.0-1.0","null","<p></p>","null","","","","","","","","","","","","","","","","","","","","","","","",""
"","do_trial","107","376456","0.0-63.0-0.0","529","","","","","","","","49","1,0,0","6","blank","274","null","0.4890884478389376","0.05983183315794793","0.2617421127168151","1","","","","","","","","",""
"","html-keyboard-response","108","377459","0.0-63.0-1.0","null","<p></p>","null","","","","","","","","","","","","","","","","","","","","","","","",""
"","do_recog","109","380493","0.0-64.0-0.0","1523.4000000953674","","","","","","","","56","","","","275","probe-211","","","","","1","[object Object]","208","5","0","","","",""
"","html-keyboard-response","110","381496","0.0-64.0-1.0","null","<p></p>","null","","","","","","","","","","","","","","","","","","","","","","","",""
"","do_trial","111","384729","0.0-65.0-0.0","690.4000000953674","","","","","","","","49","1,0,0","6","blank","276","null","0.5716293902511123","0.07706532163722883","0.301493854541006","1","","","","","","","","",""
"","html-keyboard-response","112","385733","0.0-65.0-1.0","null","<p></p>","null","","","","","","","","","","","","","","","","","","","","","","","",""
"","do_recog","113","388895","0.0-66.0-0.0","1655","","","","","","","","56","","","","277","probe-251","","","","","0","[object Object]","null","null","1","","","",""
"","html-keyboard-response","114","389901","0.0-66.0-1.0","null","<p></p>","null","","","","","","","","","","","","","","","","","","","","","","","",""
"","do_trial","115","393081","0.0-67.0-0.0","633.7999997138977","","","","","","","","49","1,0,0","6","blank","278","null","0.5434614154151247","0.1730775103338208","0.3593334069700924","1","","","","","","","","",""
"","html-keyboard-response","116","394085","0.0-67.0-1.0","null","<p></p>","null","","","","","","","","","","","","","","","","","","","","","","","",""
"","do_trial","117","397547","0.0-68.0-0.0","919","","","","","","","","49","0,0,1","6","blank","279","null","0.45892767900316017","0.059004482413455295","0.33294411408076735","0","","","","","","","","",""
"","html-keyboard-response","118","398550","0.0-68.0-1.0","null","<p></p>","null","","","","","","","","","","","","","","","","","","","","","","","",""
"","do_trial","119","401722","0.0-69.0-0.0","625.9000000953674","","","","","","","","49","0,1,1","6","blank","280","null","0.4831032005223667","0.07203094345607969","0.25746965599923133","0","","","","","","","","",""
"","html-keyboard-response","120","402725","0.0-69.0-1.0","null","<p></p>","null","","","","","","","","","","","","","","","","","","","","","","","",""
"","do_recog","121","405913","0.0-70.0-0.0","1679.7000002861023","","","","","","","","53","","","","281","probe-146","","","","","1","[object Object]","84","2","1","","","",""
"","html-keyboard-response","122","406917","0.0-70.0-1.0","null","<p></p>","null","","","","","","","","","","","","","","","","","","","","","","","",""
"","do_trial","123","410434","0.0-71.0-0.0","971.1000003814697","","","","","","","","49","1,0,1","6","blank","282","null","0.49932574519193046","0.05776455790621833","0.10885637643011645","1","","","","","","","","",""
"","html-keyboard-response","124","411438","0.0-71.0-1.0","null","<p></p>","null","","","","","","","","","","","","","","","","","","","","","","","",""
"","do_trial","125","414810","0.0-72.0-0.0","825.6999998092651","","","","","","","","49","0,1,1","6","blank","283","null","0.5172969785771331","0.07630503942109368","0.22863935711524874","0","","","","","","","","",""
"","html-keyboard-response","126","415811","0.0-72.0-1.0","null","<p></p>","null","","","","","","","","","","","","","","","","","","","","","","","",""
"","do_trial","127","418855","0.0-73.0-0.0","503.09999990463257","","","","","","","","49","1,0,1","6","blank","284","null","0.5169076876571764","0.12829691035073917","0.384761653701364","1","","","","","","","","",""
"","html-keyboard-response","128","419859","0.0-73.0-1.0","null","<p></p>","null","","","","","","","","","","","","","","","","","","","","","","","",""
"","do_trial","129","423145","0.0-74.0-0.0","744.4000000953674","","","","","","","","49","0,0,1","6","blank","285","null","0.6757084178624674","0.20603370907561963","0.4040552771252879","0","","","","","","","","",""
"","html-keyboard-response","130","424149","0.0-74.0-1.0","null","<p></p>","null","","","","","","","","","","","","","","","","","","","","","","","",""
"","do_trial","131","427327","0.0-75.0-0.0","634.9000000953674","","","","","","","","49","1,0,0","6","blank","286","null","0.5269756309439493","0.05543776821884901","0.3666985498415554","1","","","","","","","","",""
"","html-keyboard-response","132","428329","0.0-75.0-1.0","null","<p></p>","null","","","","","","","","","","","","","","","","","","","","","","","",""
"","do_trial","133","431354","0.0-76.0-0.0","482.59999990463257","","","","","","","","49","0,0,0","6","blank","287","null","0.542296616493246","0.09510139587883705","0.40881515547428976","0","","","","","","","","",""
"","html-keyboard-response","134","432358","0.0-76.0-1.0","null","<p></p>","null","","","","","","","","","","","","","","","","","","","","","","","",""
"","do_trial","135","435384","0.0-77.0-0.0","484.6000003814697","","","","","","","","49","1,0,0","6","blank","288","null","0.4894534742902942","0.25066458944899717","0.3003146840077391","1","","","","","","","","",""
"","html-keyboard-response","136","436388","0.0-77.0-1.0","null","<p></p>","null","","","","","","","","","","","","","","","","","","","","","","","",""
"","do_recog","137","440447","0.0-78.0-0.0","2548.5999999046326","","","","","","","","54","","","","289","probe-139","","","","","1","[object Object]","168","4","1","","","",""
"","html-keyboard-response","138","441451","0.0-78.0-1.0","null","<p></p>","null","","","","","","","","","","","","","","","","","","","","","","","",""
"","do_trial","139","444616","0.0-79.0-0.0","618.7000002861023","","","","","","","","49","0,0,0","6","blank","290","null","0.44074185248103187","0.20197771999162162","0.3925199757176675","0","","","","","","","","",""
"","html-keyboard-response","140","445619","0.0-79.0-1.0","null","<p></p>","null","","","","","","","","","","","","","","","","","","","","","","","",""
"","do_trial","141","448722","0.0-80.0-0.0","556.3000001907349","","","","","","","","49","1,0,0","6","blank","291","null","0.44768886496605254","0.21233973791737348","0.23039397864947284","1","","","","","","","","",""
"","html-keyboard-response","142","449726","0.0-80.0-1.0","null","<p></p>","null","","","","","","","","","","","","","","","","","","","","","","","",""
"","do_trial","143","452840","0.0-81.0-0.0","568.2999997138977","","","","","","","","50","1,0,0","6","blank","292","null","0.2362998291742423","0.2677184355872478","0.22730039110591654","0","","","","","","","","",""
"","html-keyboard-response","144","453844","0.0-81.0-1.0","null","<p></p>","null","","","","","","","","","","","","","","","","","","","","","","","",""
"","do_recog","145","456991","0.0-82.0-0.0","1639.1999998092651","","","","","","","","53","","","","293","probe-249","","","","","0","[object Object]","null","null","0","","","",""
"","html-keyboard-response","146","457992","0.0-82.0-1.0","null","<p></p>","null","","","","","","","","","","","","","","","","","","","","","","","",""
"","do_trial","147","462984","0.0-83.0-0.0","2450","","","","","","","","49","0,0,0","6","blank","294","null","0.2543002544155443","0.19208645233854796","0.20400427913877983","0","","","","","","","","",""
"","html-keyboard-response","148","463988","0.0-83.0-1.0","null","<p></p>","null","","","","","","","","","","","","","","","","","","","","","","","",""
"","do_recog","149","466844","0.0-84.0-0.0","1348.1000003814697","","","","","","","","53","","","","295","probe-164","","","","","1","[object Object]","203","5","1","","","",""
"","html-keyboard-response","150","467849","0.0-84.0-1.0","null","<p></p>","null","","","","","","","","","","","","","","","","","","","","","","","",""
"","do_trial","151","470948","0.0-85.0-0.0","552.6999998092651","","","","","","","","49","0,0,0","6","blank","296","null","0.370454191048979","0.42943858993144174","0.1605618352700089","0","","","","","","","","",""
"","html-keyboard-response","152","471950","0.0-85.0-1.0","null","<p></p>","null","","","","","","","","","","","","","","","","","","","","","","","",""
"","do_recog","153","474954","0.0-86.0-0.0","1492.5","","","","","","","","53","","","","297","probe-215","","","","","1","[object Object]","124","3","1","","","",""
"","html-keyboard-response","154","475958","0.0-86.0-1.0","null","<p></p>","null","","","","","","","","","","","","","","","","","","","","","","","",""
"","do_trial","155","479162","0.0-87.0-0.0","657.5999999046326","","","","","","","","49","1,0,0","6","blank","298","null","0.3599637253549108","0.5911878049613568","0.18371125973514155","1","","","","","","","","",""
"","html-keyboard-response","156","480166","0.0-87.0-1.0","null","<p></p>","null","","","","","","","","","","","","","","","","","","","","","","","",""
"","do_trial","157","483417","0.0-88.0-0.0","708.1000003814697","","","","","","","","49","1,1,1","6","blank","299","null","0.35457803370264207","0.5341994412255258","0.3680638198016971","1","","","","","","","","",""
"","html-keyboard-response","158","484421","0.0-88.0-1.0","null","<p></p>","null","","","","","","","","","","","","","","","","","","","","","","","",""
"","do_trial","159","487594","0.0-89.0-0.0","627.1999998092651","","","","","","","","49","1,1,0","6","blank","300","null","0.4136648042332216","0.6186295551299739","0.1792098101814932","1","","","","","","","","",""
"","html-keyboard-response","160","488595","0.0-89.0-1.0","null","<p></p>","null","","","","","","","","","","","","","","","","","","","","","","","",""
"","do_trial","161","491886","0.0-90.0-0.0","750","","","","","","","","49","0,0,0","6","blank","301","null","0.3847116048752367","0.5393954305457184","0.20173120101827896","0","","","","","","","","",""
"","html-keyboard-response","162","492887","0.0-90.0-1.0","null","<p></p>","null","","","","","","","","","","","","","","","","","","","","","","","",""
"","do_trial","163","496100","0.0-91.0-0.0","668.3000001907349","","","","","","","","49","0,0,0","6","blank","302","null","0.34025191907392777","0.5653494686743415","0.10142537979805516","0","","","","","","","","",""
"","html-keyboard-response","164","497104","0.0-91.0-1.0","null","<p></p>","null","","","","","","","","","","","","","","","","","","","","","","","",""
"","do_trial","165","500146","0.0-92.0-0.0","495.5","","","","","","","","49","1,0,0","6","blank","303","null","0.34734662808631145","0.5736785511505421","0.1267279475002006","1","","","","","","","","",""
"","html-keyboard-response","166","501149","0.0-92.0-1.0","null","<p></p>","null","","","","","","","","","","","","","","","","","","","","","","","",""
"","do_trial","167","504359","0.0-93.0-0.0","664","","","","","","","","49","1,0,0","6","blank","304","null","0.29476569328470215","0.6527010970900614","0.2667241962428823","1","","","","","","","","",""
"","html-keyboard-response","168","505364","0.0-93.0-1.0","null","<p></p>","null","","","","","","","","","","","","","","","","","","","","","","","",""
"","do_recog","169","508513","0.0-94.0-0.0","1642.5","","","","","","","","56","","","","305","probe-68","","","","","1","[object Object]","167","4","0","","","",""
"","html-keyboard-response","170","509517","0.0-94.0-1.0","null","<p></p>","null","","","","","","","","","","","","","","","","","","","","","","","",""
"","do_trial","171","512859","0.0-95.0-0.0","797.9000000953674","","","","","","","","49","0,1,0","6","blank","306","null","0.3498664275079373","0.6099931990005826","0.1740252452657085","0","","","","","","","","",""
"","html-keyboard-response","172","513860","0.0-95.0-1.0","null","<p></p>","null","","","","","","","","","","","","","","","","","","","","","","","",""
"","do_trial","173","516847","0.0-96.0-0.0","443.59999990463257","","","","","","","","51","0,1,0","6","blank","307","null","0.4196463236371537","0.6488393952110569","0.1873701476252763","0","","","","","","","","",""
"","html-keyboard-response","174","517852","0.0-96.0-1.0","null","<p></p>","null","","","","","","","","","","","","","","","","","","","","","","","",""
"","do_trial","175","520868","0.0-97.0-0.0","470.30000019073486","","","","","","","","51","1,0,1","6","blank","308","null","0.48399371858077034","0.6419162439696454","0.1718127822020285","1","","","","","","","","",""
"","html-keyboard-response","176","521871","0.0-97.0-1.0","null","<p></p>","null","","","","","","","","","","","","","","","","","","","","","","","",""
"","do_trial","177","525099","0.0-98.0-0.0","684.6999998092651","","","","","","","","51","0,1,0","6","blank","309","null","0.527337391061888","0.6852939799218135","0.057989641204358636","0","","","","","","","","",""
"","html-keyboard-response","178","526103","0.0-98.0-1.0","null","<p></p>","null","","","","","","","","","","","","","","","","","","","","","","","",""
"","do_trial","179","529164","0.0-99.0-0.0","517.3000001907349","","","","","","","","51","0,1,0","6","blank","310","null","0.3733261318970364","0.7483168131312061","0.14933591490915854","0","","","","","","","","",""
"","html-keyboard-response","180","530168","0.0-99.0-1.0","null","<p></p>","null","","","","","","","","","","","","","","","","","","","","","","","",""
"","do_trial","181","533443","0.0-100.0-0.0","732.5","","","","","","","","51","0,1,1","6","blank","311","null","0.36904441724881987","0.5164863109210536","0.2619820581907244","1","","","","","","","","",""
"","html-keyboard-response","182","534446","0.0-100.0-1.0","null","<p></p>","null","","","","","","","","","","","","","","","","","","","","","","","",""
"","do_recog","183","538331","0.0-101.0-0.0","2373.9000000953674","","","","","","","","56","","","","312","probe-01","","","","","1","[object Object]","45","1","0","","","",""
"","html-keyboard-response","184","539337","0.0-101.0-1.0","null","<p></p>","null","","","","","","","","","","","","","","","","","","","","","","","",""
"","do_trial","185","542687","0.0-102.0-0.0","804","","","","","","","","49","1,0,1","6","blank","313","null","0.3737143762504745","0.6108646864981773","0.3068184597093956","1","","","","","","","","",""
"","html-keyboard-response","186","543691","0.0-102.0-1.0","null","<p></p>","null","","","","","","","","","","","","","","","","","","","","","","","",""
"","do_trial","187","546991","0.0-103.0-0.0","754.4000000953674","","","","","","","","49","1,1,1","6","blank","314","null","0.37346444045726584","0.6327730259427046","0.13687863847752513","1","","","","","","","","",""
"","html-keyboard-response","188","547994","0.0-103.0-1.0","null","<p></p>","null","","","","","","","","","","","","","","","","","","","","","","","",""
"","do_recog","189","551546","0.0-104.0-0.0","2047","","","","","","","","55","","","","315","probe-244","","","","","0","[object Object]","null","null","1","","","",""
"","html-keyboard-response","190","552550","0.0-104.0-1.0","null","<p></p>","null","","","","","","","","","","","","","","","","","","","","","","","",""
"","do_trial","191","555766","0.0-105.0-0.0","669.5999999046326","","","","","","","","49","1,0,0","6","blank","316","null","0.2514996279329451","0.5040903318169943","0.1043969146032047","1","","","","","","","","",""
"","html-keyboard-response","192","556770","0.0-105.0-1.0","null","<p></p>","null","","","","","","","","","","","","","","","","","","","","","","","",""
"","do_recog","193","560211","0.0-106.0-0.0","1931.7999997138977","","","","","","","","55","","","","317","probe-253","","","","","0","[object Object]","null","null","1","","","",""
"","html-keyboard-response","194","561217","0.0-106.0-1.0","null","<p></p>","null","","","","","","","","","","","","","","","","","","","","","","","",""
"","do_trial","195","564425","0.0-107.0-0.0","667.2999997138977","","","","","","","","49","1,0,0","6","blank","318","null","0.2603987021113541","0.586834111478216","0.05888304606150302","1","","","","","","","","",""
"","html-keyboard-response","196","565429","0.0-107.0-1.0","null","<p></p>","null","","","","","","","","","","","","","","","","","","","","","","","",""
"","do_trial","197","568528","0.0-108.0-0.0","558.1999998092651","","","","","","","","49","0,0,0","6","blank","319","null","0.23777511774308013","0.6121990290062731","0.13515783226175943","0","","","","","","","","",""
"","html-keyboard-response","198","569533","0.0-108.0-1.0","null","<p></p>","null","","","","","","","","","","","","","","","","","","","","","","","",""
"","do_trial","199","572790","0.0-109.0-0.0","708.7999997138977","","","","","","","","49","0,1,0","6","blank","320","null","0.24148438285088675","0.5631950048405719","0.22956354891339806","0","","","","","","","","",""
"","html-keyboard-response","200","573794","0.0-109.0-1.0","null","<p></p>","null","","","","","","","","","","","","","","","","","","","","","","","",""
"","do_trial","201","576821","0.0-110.0-0.0","480.80000019073486","","","","","","","","49","0,0,0","6","blank","321","null","0.18586144065672322","0.5432348289206322","0.22612673854543994","0","","","","","","","","",""
"","html-keyboard-response","202","577825","0.0-110.0-1.0","null","<p></p>","null","","","","","","","","","","","","","","","","","","","","","","","",""
"","do_recog","203","581383","0.0-111.0-0.0","2047.5999999046326","","","","","","","","54","","","","322","probe-142","","","","","1","[object Object]","169","4","1","","","",""
"","html-keyboard-response","204","582387","0.0-111.0-1.0","null","<p></p>","null","","","","","","","","","","","","","","","","","","","","","","","",""
"","do_trial","205","585453","0.0-112.0-0.0","522.1999998092651","","","","","","","","49","0,0,0","6","blank","323","null","0.21118123497944974","0.525533284150722","0.2745301466062255","0","","","","","","","","",""
"","html-keyboard-response","206","586456","0.0-112.0-1.0","null","<p></p>","null","","","","","","","","","","","","","","","","","","","","","","","",""
"","do_recog","207","590008","0.0-113.0-0.0","2043","","","","","","","","55","","","","324","probe-103","","","","","1","[object Object]","163","4","0","","","",""
"","html-keyboard-response","208","591012","0.0-113.0-1.0","null","<p></p>","null","","","","","","","","","","","","","","","","","","","","","","","",""
"","do_trial","209","594010","0.0-114.0-0.0","451.5","","","","","","","","51","0,0,0","6","blank","325","null","0.10284958742053757","0.39612171371150723","0.2309627590333559","0","","","","","","","","",""
"","html-keyboard-response","210","595013","0.0-114.0-1.0","null","<p></p>","null","","","","","","","","","","","","","","","","","","","","","","","",""
"","do_trial","211","598111","0.0-115.0-0.0","552.6000003814697","","","","","","","","50","0,0,0","6","blank","326","null","0.1384165042523844","0.44751456383033744","0.1921265583387779","0","","","","","","","","",""
"","html-keyboard-response","212","599117","0.0-115.0-1.0","null","<p></p>","null","","","","","","","","","","","","","","","","","","","","","","","",""
"","do_recog","213","602400","0.0-116.0-0.0","1772","","","","","","","","53","","","","327","probe-107","","","","","1","[object Object]","121","3","1","","","",""
"","html-keyboard-response","214","603401","0.0-116.0-1.0","null","<p></p>","null","","","","","","","","","","","","","","","","","","","","","","","",""
"","do_trial","215","606467","0.0-117.0-0.0","523.9000000953674","","","","","","","","49","0,0,1","6","blank","328","null","0.2971567527430169","0.2657511791296503","0.21749240366497535","0","","","","","","","","",""
"","html-keyboard-response","216","607474","0.0-117.0-1.0","null","<p></p>","null","","","","","","","","","","","","","","","","","","","","","","","",""
"","do_trial","217","610524","0.0-118.0-0.0","507.59999990463257","","","","","","","","49","0,1,0","6","blank","329","null","0.31077467976898243","0.5578327466579606","0.12236198994261376","0","","","","","","","","",""
"","html-keyboard-response","218","611528","0.0-118.0-1.0","null","<p></p>","null","","","","","","","","","","","","","","","","","","","","","","","",""
"","do_trial","219","614566","0.0-119.0-0.0","494.2999997138977","","","","","","","","49","0,0,0","6","blank","330","null","0.3730718516195078","0.4723998472101409","0.06169347139088737","0","","","","","","","","",""
"","html-keyboard-response","220","615570","0.0-119.0-1.0","null","<p></p>","null","","","","","","","","","","","","","","","","","","","","","","","",""
"","do_trial","221","618606","0.0-120.0-0.0","489.5","","","","","","","","49","0,0,0","6","blank","331","null","0.39334204047363897","0.5736873735930591","0.13177475418998413","0","","","","","","","","",""
"","html-keyboard-response","222","619610","0.0-120.0-1.0","null","<p></p>","null","","","","","","","","","","","","","","","","","","","","","","","",""
"","do_trial","223","622615","0.0-121.0-0.0","457.5","","","","","","","","49","1,1,0","6","blank","332","null","0.4537442898296154","0.5981999655863052","0.07463772681855525","1","","","","","","","","",""
"","html-keyboard-response","224","623620","0.0-121.0-1.0","null","<p></p>","null","","","","","","","","","","","","","","","","","","","","","","","",""
"","do_trial","225","626658","0.0-122.0-0.0","491.7999997138977","","","","","","","","49","1,1,1","6","blank","333","null","0.48279563468539016","0.5918961264460871","0.12262787869831648","1","","","","","","","","",""
"","html-keyboard-response","226","627661","0.0-122.0-1.0","null","<p></p>","null","","","","","","","","","","","","","","","","","","","","","","","",""
"","do_recog","227","630555","0.0-123.0-0.0","1384.5","","","","","","","","53","","","","334","probe-153","","","","","1","[object Object]","42","1","1","","","",""
"","html-keyboard-response","228","631559","0.0-123.0-1.0","null","<p></p>","null","","","","","","","","","","","","","","","","","","","","","","","",""
"","do_trial","229","634699","0.0-124.0-0.0","593.6999998092651","","","","","","","","49","1,1,0","6","blank","335","null","0.3384097085999129","0.63923348041688","0.11295165692344605","1","","","","","","","","",""
"","html-keyboard-response","230","635702","0.0-124.0-1.0","null","<p></p>","null","","","","","","","","","","","","","","","","","","","","","","","",""
"","do_recog","231","639132","0.0-125.0-0.0","1921.1999998092651","","","","","","","","54","","","","336","probe-43","","","","","1","[object Object]","88","2","1","","","",""
"","html-keyboard-response","232","640136","0.0-125.0-1.0","null","<p></p>","null","","","","","","","","","","","","","","","","","","","","","","","",""
"","do_trial","233","643349","0.0-126.0-0.0","667.1000003814697","","","","","","","","49","0,1,0","6","blank","337","null","0.21168247626634454","0.6302508263063132","0.0973366042202402","0","","","","","","","","",""
"","html-keyboard-response","234","644355","0.0-126.0-1.0","null","<p></p>","null","","","","","","","","","","","","","","","","","","","","","","","",""
"","do_trial","235","647549","0.0-127.0-0.0","648.6999998092651","","","","","","","","49","0,0,0","6","blank","338","null","0.1637763013369162","0.5934024058877329","0.06031697681717733","0","","","","","","","","",""
"","html-keyboard-response","236","648554","0.0-127.0-1.0","null","<p></p>","null","","","","","","","","","","","","","","","","","","","","","","","",""
"","do_trial","237","651956","0.0-128.0-0.0","855.6999998092651","","","","","","","","49","0,1,1","6","blank","339","null","0.18996107201098406","0.5155648664756793","0.174063311555126","0","","","","","","","","",""
"","html-keyboard-response","238","652960","0.0-128.0-1.0","null","<p></p>","null","","","","","","","","","","","","","","","","","","","","","","","",""
"","do_trial","239","656058","0.0-129.0-0.0","553.8000001907349","","","","","","","","49","0,1,0","6","blank","340","null","0.3996527768197909","0.4722634191238614","0.11225789108825743","0","","","","","","","","",""
"","html-keyboard-response","240","657062","0.0-129.0-1.0","null","<p></p>","null","","","","","","","","","","","","","","","","","","","","","","","",""
"","do_trial","241","660122","0.0-130.0-0.0","516.1999998092651","","","","","","","","49","1,1,0","6","blank","341","null","0.3601350505888031","0.5678896973673477","0.20717863947088994","1","","","","","","","","",""
"","html-keyboard-response","242","661127","0.0-130.0-1.0","null","<p></p>","null","","","","","","","","","","","","","","","","","","","","","","","",""
"","do_recog","243","663982","0.0-131.0-0.0","1346.4000000953674","","","","","","","","53","","","","342","probe-175","","","","","1","[object Object]","123","3","1","","","",""
"","html-keyboard-response","244","664986","0.0-131.0-1.0","null","<p></p>","null","","","","","","","","","","","","","","","","","","","","","","","",""
"","do_trial","245","668094","0.0-132.0-0.0","561.1999998092651","","","","","","","","49","0,1,1","6","blank","343","null","0.2577177165898781","0.6252107054669862","0.2485381226827317","0","","","","","","","","",""
"","html-keyboard-response","246","669099","0.0-132.0-1.0","null","<p></p>","null","","","","","","","","","","","","","","","","","","","","","","","",""
"","do_trial","247","672289","0.0-133.0-0.0","649.7999997138977","","","","","","","","49","1,0,0","6","blank","344","null","0.33631468398466297","0.6709105054293373","0.09411197457108751","1","","","","","","","","",""
"","html-keyboard-response","248","673294","0.0-133.0-1.0","null","<p></p>","null","","","","","","","","","","","","","","","","","","","","","","","",""
"","do_recog","249","676649","0.0-134.0-0.0","1845.3000001907349","","","","","","","","53","","","","345","probe-55","","","","","1","[object Object]","126","3","1","","","",""
"","html-keyboard-response","250","677653","0.0-134.0-1.0","null","<p></p>","null","","","","","","","","","","","","","","","","","","","","","","","",""
"","do_trial","251","680837","0.0-135.0-0.0","639.9000000953674","","","","","","","","49","0,0,0","6","blank","346","null","0.32806993967424","0.7122799138781959","0.14085633265074654","0","","","","","","","","",""
"","html-keyboard-response","252","681841","0.0-135.0-1.0","null","<p></p>","null","","","","","","","","","","","","","","","","","","","","","","","",""
"","do_recog","253","685151","0.0-136.0-0.0","1803.6999998092651","","","","","","","","54","","","","347","probe-09","","","","","1","[object Object]","205","5","1","","","",""
"","html-keyboard-response","254","686153","0.0-136.0-1.0","null","<p></p>","null","","","","","","","","","","","","","","","","","","","","","","","",""
"","do_trial","255","689570","0.0-137.0-0.0","872","","","","","","","","49","1,0,0","6","blank","348","null","0.33853575977318395","0.5920467981595467","0.09647400793394695","1","","","","","","","","",""
"","html-keyboard-response","256","690575","0.0-137.0-1.0","null","<p></p>","null","","","","","","","","","","","","","","","","","","","","","","","",""
"","do_recog","257","693668","0.0-138.0-0.0","1582.4000000953674","","","","","","","","55","","","","349","probe-39","","","","","1","[object Object]","82","2","0","","","",""
"","html-keyboard-response","258","694671","0.0-138.0-1.0","null","<p></p>","null","","","","","","","","","","","","","","","","","","","","","","","",""
"","do_trial","259","697910","0.0-139.0-0.0","691.5999999046326","","","","","","","","49","0,0,1","6","blank","350","null","0.2051016026760475","0.4765540862665364","0.1708545246709399","0","","","","","","","","",""
"","html-keyboard-response","260","698915","0.0-139.0-1.0","null","<p></p>","null","","","","","","","","","","","","","","","","","","","","","","","",""
"","do_trial","261","702199","0.0-140.0-0.0","738.6999998092651","","","","","","","","49","0,0,0","6","blank","351","null","0.2689505180781459","0.15205035954490387","0.4414270493033948","0","","","","","","","","",""
"","html-keyboard-response","262","703203","0.0-140.0-1.0","null","<p></p>","null","","","","","","","","","","","","","","","","","","","","","","","",""
"","do_trial","263","706371","0.0-141.0-0.0","625.3000001907349","","","","","","","","49","0,0,1","6","blank","352","null","0.3142829217893079","0.07835301755000326","0.44982923636073696","0","","","","","","","","",""
"","html-keyboard-response","264","707375","0.0-141.0-1.0","null","<p></p>","null","","","","","","","","","","","","","","","","","","","","","","","",""
"","do_recog","265","710262","0.0-142.0-0.0","1377.8000001907349","","","","","","","","53","","","","353","probe-149","","","","","1","[object Object]","204","5","1","","","",""
"","html-keyboard-response","266","711266","0.0-142.0-1.0","null","<p></p>","null","","","","","","","","","","","","","","","","","","","","","","","",""
"","do_trial","267","714628","0.0-143.0-0.0","820.4000000953674","","","","","","","","49","0,0,0","6","blank","354","null","0.30625554038310965","0.0860713961188218","0.4338734687182311","0","","","","","","","","",""
"","html-keyboard-response","268","715632","0.0-143.0-1.0","null","<p></p>","null","","","","","","","","","","","","","","","","","","","","","","","",""
"","do_recog","269","718847","0.0-144.0-0.0","1704.7000002861023","","","","","","","","53","","","","355","probe-13","","","","","1","[object Object]","48","1","1","","","",""
"","html-keyboard-response","270","719851","0.0-144.0-1.0","null","<p></p>","null","","","","","","","","","","","","","","","","","","","","","","","",""
"","do_trial","271","722999","0.0-145.0-0.0","602.5999999046326","","","","","","","","49","0,0,0","6","blank","356","null","0.16095703064245967","0.05856920885202593","0.5601511955873275","0","","","","","","","","",""
"","html-keyboard-response","272","724001","0.0-145.0-1.0","null","<p></p>","null","","","","","","","","","","","","","","","","","","","","","","","",""
"","do_recog","273","727039","0.0-146.0-0.0","1530.3000001907349","","","","","","","","53","","","","357","probe-74","","","","","1","[object Object]","129","3","1","","","",""
"","html-keyboard-response","274","728042","0.0-146.0-1.0","null","<p></p>","null","","","","","","","","","","","","","","","","","","","","","","","",""
"","do_trial","275","731518","0.0-147.0-0.0","930.5999999046326","","","","","","","","49","0,0,1","6","blank","358","null","0.2505384174859861","0.08762567042180505","0.5968956762038906","0","","","","","","","","",""
"","html-keyboard-response","276","732522","0.0-147.0-1.0","null","<p></p>","null","","","","","","","","","","","","","","","","","","","","","","","",""
"","do_trial","277","735548","0.0-148.0-0.0","485.40000009536743","","","","","","","","49","0,0,1","6","blank","359","null","0.2211607835808529","0.19736645420428378","0.44224003180312016","0","","","","","","","","",""
"","html-keyboard-response","278","736552","0.0-148.0-1.0","null","<p></p>","null","","","","","","","","","","","","","","","","","","","","","","","",""
"","do_trial","279","739653","0.0-149.0-0.0","558.6000003814697","","","","","","","","49","1,0,1","6","blank","360","null","0.21940748425517217","0.16806002460734185","0.5699839880595016","1","","","","","","","","",""
"","html-keyboard-response","280","740658","0.0-149.0-1.0","null","<p></p>","null","","","","","","","","","","","","","","","","","","","","","","","",""
"","do_trial","281","743934","0.0-150.0-0.0","730","","","","","","","","49","1,0,0","6","blank","361","null","0.2813045975290083","0.16230304860367853","0.5708983302259967","1","","","","","","","","",""
"","html-keyboard-response","282","744938","0.0-150.0-1.0","null","<p></p>","null","","","","","","","","","","","","","","","","","","","","","","","",""
"","do_trial","283","748521","0.0-151.0-0.0","1037.5","","","","","","","","49","1,1,1","6","blank","362","null","0.22694158350493182","0.2897493285267743","0.5245371070385674","1","","","","","","","","",""
"","html-keyboard-response","284","749525","0.0-151.0-1.0","null","<p></p>","null","","","","","","","","","","","","","","","","","","","","","","","",""
"","do_trial","285","752684","0.0-152.0-0.0","616","","","","","","","","49","0,0,1","6","blank","363","null","0.29874811494220394","0.22352655364024204","0.5601997986988646","0","","","","","","","","",""
"","html-keyboard-response","286","753688","0.0-152.0-1.0","null","<p></p>","null","","","","","","","","","","","","","","","","","","","","","","","",""
"","do_trial","287","756760","0.0-153.0-0.0","525.5","","","","","","","","49","0,0,1","6","blank","364","null","0.20640821527683004","0.11689989175612604","0.6234398487017909","0","","","","","","","","",""
"","html-keyboard-response","288","757763","0.0-153.0-1.0","null","<p></p>","null","","","","","","","","","","","","","","","","","","","","","","","",""
"","do_recog","289","761355","0.0-154.0-0.0","2082.4000000953674","","","","","","","","55","","","","365","probe-105","","","","","1","[object Object]","166","4","0","","","",""
"","html-keyboard-response","290","762358","0.0-154.0-1.0","null","<p></p>","null","","","","","","","","","","","","","","","","","","","","","","","",""
"","do_trial","291","765482","0.0-155.0-0.0","578.5","","","","","","","","49","0,0,0","6","blank","366","null","0.12390353174542934","0.17981755226591126","0.6067171676809018","0","","","","","","","","",""
"","html-keyboard-response","292","766486","0.0-155.0-1.0","null","<p></p>","null","","","","","","","","","","","","","","","","","","","","","","","",""
"","do_trial","293","769529","0.0-156.0-0.0","496.40000009536743","","","","","","","","49","0,1,0","6","blank","367","null","0.35733273595197984","0.19696327029853136","0.6570232425913776","0","","","","","","","","",""
"","html-keyboard-response","294","770533","0.0-156.0-1.0","null","<p></p>","null","","","","","","","","","","","","","","","","","","","","","","","",""
"","do_trial","295","773480","0.0-157.0-0.0","399.90000009536743","","","","","","","","51","1,1,0","6","blank","368","null","0.356766727609845","0.2553335939863654","0.48524382538126093","0","","","","","","","","",""
"","html-keyboard-response","296","774484","0.0-157.0-1.0","null","<p></p>","null","","","","","","","","","","","","","","","","","","","","","","","",""
"","do_trial","297","777526","0.0-158.0-0.0","497.69999980926514","","","","","","","","51","1,0,0","6","blank","369","null","0.47140389793402093","0.17588175111878418","0.46643719308349324","0","","","","","","","","",""
"","html-keyboard-response","298","778530","0.0-158.0-1.0","null","<p></p>","null","","","","","","","","","","","","","","","","","","","","","","","",""
"","do_recog","299","781243","0.0-159.0-0.0","1204.0999999046326","","","","","","","","53","","","","370","probe-134","","","","","1","[object Object]","40","1","1","","","",""
"","html-keyboard-response","300","782248","0.0-159.0-1.0","null","<p></p>","null","","","","","","","","","","","","","","","","","","","","","","","",""
"","do_trial","301","785676","0.0-160.0-0.0","886.9000000953674","","","","","","","","51","0,0,0","6","blank","371","null","0.3506252252216741","0.06671372389448439","0.5618154639963201","0","","","","","","","","",""
"","html-keyboard-response","302","786681","0.0-160.0-1.0","null","<p></p>","null","","","","","","","","","","","","","","","","","","","","","","","",""
"","do_trial","303","789811","0.0-161.0-0.0","588","","","","","","","","51","0,0,0","6","blank","372","null","0.34843814632175696","0.09428660011228995","0.46048692989671397","0","","","","","","","","",""
"","html-keyboard-response","304","790815","0.0-161.0-1.0","null","<p></p>","null","","","","","","","","","","","","","","","","","","","","","","","",""
"","do_trial","305","794098","0.0-162.0-0.0","738.6000003814697","","","","","","","","51","0,0,0","6","blank","373","null","0.37050393815128535","0.06760785491915375","0.41897610601992286","0","","","","","","","","",""
"","html-keyboard-response","306","795099","0.0-162.0-1.0","null","<p></p>","null","","","","","","","","","","","","","","","","","","","","","","","",""
"","do_trial","307","798220","0.0-163.0-0.0","576.4000000953674","","","","","","","","49","0,0,0","6","blank","374","null","0.4301209469919355","0.05136262746420593","0.470543081132294","0","","","","","","","","",""
"","html-keyboard-response","308","799223","0.0-163.0-1.0","null","<p></p>","null","","","","","","","","","","","","","","","","","","","","","","","",""
"","do_trial","309","802120","0.0-164.0-0.0","350.30000019073486","","","","","","","","49","0,0,0","6","blank","375","null","0.32469259803374184","0.06873170041575559","0.36070552682681284","0","","","","","","","","",""
"","html-keyboard-response","310","803125","0.0-164.0-1.0","null","<p></p>","null","","","","","","","","","","","","","","","","","","","","","","","",""
"","do_trial","311","806062","0.0-165.0-0.0","391.2999997138977","","","","","","","","49","1,1,0","6","blank","376","null","0.2914069748883877","0.13890642741672168","0.4538005748465137","1","","","","","","","","",""
"","html-keyboard-response","312","807066","0.0-165.0-1.0","null","<p></p>","null","","","","","","","","","","","","","","","","","","","","","","","",""
"","do_recog","313","810866","0.0-166.0-0.0","2293.5999999046326","","","","","","","","53","","","","377","probe-71","","","","","1","[object Object]","122","3","1","","","",""
"","html-keyboard-response","314","811870","0.0-166.0-1.0","null","<p></p>","null","","","","","","","","","","","","","","","","","","","","","","","",""
"","do_trial","315","815058","0.0-167.0-0.0","645.5999999046326","","","","","","","","49","0,0,1","6","blank","378","null","0.5055932296987714","0.09477630305112035","0.5962974395159486","0","","","","","","","","",""
"","html-keyboard-response","316","816062","0.0-167.0-1.0","null","<p></p>","null","","","","","","","","","","","","","","","","","","","","","","","",""
"","do_trial","317","818991","0.0-168.0-0.0","382.09999990463257","","","","","","","","49","1,0,1","6","blank","379","null","0.5047663844303051","0.266747080959535","0.6216952247850829","1","","","","","","","","",""
"","html-keyboard-response","318","819995","0.0-168.0-1.0","null","<p></p>","null","","","","","","","","","","","","","","","","","","","","","","","",""
"","do_trial","319","823169","0.0-169.0-0.0","628.5","","","","","","","","49","0,0,1","6","blank","380","null","0.553228471329836","0.10542031214950413","0.6508050531135114","0","","","","","","","","",""
"","html-keyboard-response","320","824173","0.0-169.0-1.0","null","<p></p>","null","","","","","","","","","","","","","","","","","","","","","","","",""
"","do_trial","321","827440","0.0-170.0-0.0","720.4000000953674","","","","","","","","49","1,1,0","6","blank","381","null","0.3656574426754179","0.17677087267674055","0.5440334859152754","1","","","","","","","","",""
"","html-keyboard-response","322","828446","0.0-170.0-1.0","null","<p></p>","null","","","","","","","","","","","","","","","","","","","","","","","",""
"","do_trial","323","831463","0.0-171.0-0.0","475.40000009536743","","","","","","","","49","0,0,0","6","blank","382","null","0.3439281617538561","0.09729304131177001","0.5627092318826109","0","","","","","","","","",""
"","html-keyboard-response","324","832467","0.0-171.0-1.0","null","<p></p>","null","","","","","","","","","","","","","","","","","","","","","","","",""
"","do_recog","325","835426","0.0-172.0-0.0","1453.5999999046326","","","","","","","","53","","","","383","probe-138","","","","","1","[object Object]","43","1","1","","","",""
"","html-keyboard-response","326","836428","0.0-172.0-1.0","null","<p></p>","null","","","","","","","","","","","","","","","","","","","","","","","",""
"","do_trial","327","840043","0.0-173.0-0.0","1066.9000000953674","","","","","","","","49","0,0,1","6","blank","384","null","0.2919477731968212","0.13538447410166923","0.6336248972363983","0","","","","","","","","",""
"","html-keyboard-response","328","841049","0.0-173.0-1.0","null","<p></p>","null","","","","","","","","","","","","","","","","","","","","","","","",""
"","do_recog","329","844114","0.0-174.0-0.0","1557.9000000953674","","","","","","","","53","","","","385","probe-198","","","","","1","[object Object]","87","2","1","","","",""
"","html-keyboard-response","330","845118","0.0-174.0-1.0","null","<p></p>","null","","","","","","","","","","","","","","","","","","","","","","","",""
"","do_trial","331","848134","0.0-175.0-0.0","469.90000009536743","","","","","","","","49","0,0,1","6","blank","386","null","0.19564250991959328","0.12301076686033298","0.6313394668951068","0","","","","","","","","",""
"","html-keyboard-response","332","849138","0.0-175.0-1.0","null","<p></p>","null","","","","","","","","","","","","","","","","","","","","","","","",""
"","do_trial","333","852243","0.0-176.0-0.0","557.5","","","","","","","","49","0,0,1","6","blank","387","null","0.17536375954542252","0.23410052858557792","0.6447830569201404","0","","","","","","","","",""
"","html-keyboard-response","334","853247","0.0-176.0-1.0","null","<p></p>","null","","","","","","","","","","","","","","","","","","","","","","","",""
"","do_trial","335","856250","0.0-177.0-0.0","456.2999997138977","","","","","","","","51","0,0,0","6","blank","388","null","0.12655185324541676","0.31329547333340496","0.6402345180209923","0","","","","","","","","",""
"","html-keyboard-response","336","857252","0.0-177.0-1.0","null","<p></p>","null","","","","","","","","","","","","","","","","","","","","","","","",""
"","do_trial","337","860272","0.0-178.0-0.0","474.6000003814697","","","","","","","","50","1,0,1","6","blank","389","null","0.3091765632470408","0.20184792160983064","0.6415087107139794","0","","","","","","","","",""
"","html-keyboard-response","338","861276","0.0-178.0-1.0","null","<p></p>","null","","","","","","","","","","","","","","","","","","","","","","","",""
"","do_recog","339","864835","0.0-179.0-0.0","2049.7999997138977","","","","","","","","54","","","","390","probe-64","","","","","1","[object Object]","120","3","1","","","",""
"","html-keyboard-response","340","865840","0.0-179.0-1.0","null","<p></p>","null","","","","","","","","","","","","","","","","","","","","","","","",""
"","do_trial","341","869105","0.0-180.0-0.0","720.3000001907349","","","","","","","","49","0,0,1","6","blank","391","null","0.3648526826784926","0.2121261612312104","0.595931698982694","0","","","","","","","","",""
"","html-keyboard-response","342","870109","0.0-180.0-1.0","null","<p></p>","null","","","","","","","","","","","","","","","","","","","","","","","",""
"","do_recog","343","873627","0.0-181.0-0.0","2008.1000003814697","","","","","","","","55","","","","392","probe-22","","","","","1","[object Object]","46","1","0","","","",""
"","html-keyboard-response","344","874631","0.0-181.0-1.0","null","<p></p>","null","","","","","","","","","","","","","","","","","","","","","","","",""
"","do_trial","345","877884","0.0-182.0-0.0","705.6999998092651","","","","","","","","49","0,0,1","6","blank","393","null","0.3855475151250138","0.27778991303308487","0.579614103633135","0","","","","","","","","",""
"","html-keyboard-response","346","878886","0.0-182.0-1.0","null","<p></p>","null","","","","","","","","","","","","","","","","","","","","","","","",""
"","do_recog","347","882932","0.0-183.0-0.0","2538","","","","","","","","53","","","","394","probe-58","","","","","1","[object Object]","125","3","1","","","",""
"","html-keyboard-response","348","883936","0.0-183.0-1.0","null","<p></p>","null","","","","","","","","","","","","","","","","","","","","","","","",""
"","do_trial","349","887123","0.0-184.0-0.0","643.2999997138977","","","","","","","","49","0,0,0","6","blank","395","null","0.23687140482098976","0.22348582297081254","0.4348165189375023","0","","","","","","","","",""
"","html-keyboard-response","350","888127","0.0-184.0-1.0","null","<p></p>","null","","","","","","","","","","","","","","","","","","","","","","","",""
"","do_recog","351","890645","0.0-185.0-0.0","1010.7000002861023","","","","","","","","53","","","","396","probe-42","","","","","1","[object Object]","202","5","1","","","",""
"","html-keyboard-response","352","891649","0.0-185.0-1.0","null","<p></p>","null","","","","","","","","","","","","","","","","","","","","","","","",""
"","do_trial","353","894822","0.0-186.0-0.0","628.2000002861023","","","","","","","","49","0,0,1","6","blank","397","null","0.23593839686645612","0.1940418297950354","0.4329287140081713","0","","","","","","","","",""
"","html-keyboard-response","354","895826","0.0-186.0-1.0","null","<p></p>","null","","","","","","","","","","","","","","","","","","","","","","","",""
"","do_recog","355","898437","0.0-187.0-0.0","1101.5999999046326","","","","","","","","53","","","","398","probe-224","","","","","1","[object Object]","161","4","1","","","",""
"","html-keyboard-response","356","899438","0.0-187.0-1.0","null","<p></p>","null","","","","","","","","","","","","","","","","","","","","","","","",""
"","do_trial","357","902509","0.0-188.0-0.0","525.6000003814697","","","","","","","","49","0,0,0","6","blank","399","null","0.334249980719193","0.2045499472295048","0.3170130089410062","0","","","","","","","","",""
"","html-keyboard-response","358","903510","0.0-188.0-1.0","null","<p></p>","null","","","","","","","","","","","","","","","","","","","","","","","",""
"","do_recog","359","906497","0.0-189.0-0.0","1476","","","","","","","","53","","","","400","probe-189","","","","","1","[object Object]","44","1","1","","","",""
"","html-keyboard-response","360","907501","0.0-189.0-1.0","null","<p></p>","null","","","","","","","","","","","","","","","","","","","","","","","",""
"","do_trial","361","910445","0.0-190.0-0.0","398.19999980926514","","","","","","","","51","1,1,0","6","blank","401","null","0.29607621897092457","0.28627663580587476","0.4154467817287597","0","","","","","","","","",""
"","html-keyboard-response","362","911452","0.0-190.0-1.0","null","<p></p>","null","","","","","","","","","","","","","","","","","","","","","","","",""
"","do_trial","363","914635","0.0-191.0-0.0","637.7000002861023","","","","","","","","51","1,1,1","6","blank","402","null","0.2783201372910678","0.3910215946425099","0.25438327946883077","1","","","","","","","","",""
"","html-keyboard-response","364","915638","0.0-191.0-1.0","null","<p></p>","null","","","","","","","","","","","","","","","","","","","","","","","",""
"","do_trial","365","918960","0.0-192.0-0.0","777.9000000953674","","","","","","","","51","0,0,0","6","blank","403","null","0.3207834068539054","0.349732576291029","0.16735453770877776","0","","","","","","","","",""
"","html-keyboard-response","366","919967","0.0-192.0-1.0","null","<p></p>","null","","","","","","","","","","","","","","","","","","","","","","","",""
"","do_trial","367","922936","0.0-193.0-0.0","422.80000019073486","","","","","","","","51","1,0,0","6","blank","404","null","0.618495228748577","0.18036466415778868","0.2690050586970904","0","","","","","","","","",""
"","html-keyboard-response","368","923940","0.0-193.0-1.0","null","<p></p>","null","","","","","","","","","","","","","","","","","","","","","","","",""
"","do_trial","369","927077","0.0-194.0-0.0","593.4000000953674","","","","","","","","49","0,1,1","6","blank","405","null","0.5731589837414448","0.11402013245107803","0.1411233166631968","0","","","","","","","","",""
"","html-keyboard-response","370","928083","0.0-194.0-1.0","null","<p></p>","null","","","","","","","","","","","","","","","","","","","","","","","",""
"","do_trial","371","931298","0.0-195.0-0.0","673.5","","","","","","","","49","0,1,0","6","blank","406","null","0.48254794798409606","0.23301774041407722","0.1516890915643839","0","","","","","","","","",""
"","html-keyboard-response","372","932301","0.0-195.0-1.0","null","<p></p>","null","","","","","","","","","","","","","","","","","","","","","","","",""
"","do_recog","373","935035","0.0-196.0-0.0","1224.5","","","","","","","","53","","","","407","probe-37","","","","","1","[object Object]","49","1","1","","","",""
"","html-keyboard-response","374","936038","0.0-196.0-1.0","null","<p></p>","null","","","","","","","","","","","","","","","","","","","","","","","",""
"","do_trial","375","938937","0.0-197.0-0.0","357.69999980926514","","","","","","","","50","0,0,0","6","blank","408","null","0.5468992629521897","0.27638837508254094","0.19837323695892722","0","","","","","","","","",""
"","html-keyboard-response","376","939941","0.0-197.0-1.0","null","<p></p>","null","","","","","","","","","","","","","","","","","","","","","","","",""
"","do_trial","377","942944","0.0-198.0-0.0","455","","","","","","","","50","1,0,0","6","blank","409","null","0.676310212585758","0.14011315258353613","0.21199661447433926","0","","","","","","","","",""
"","html-keyboard-response","378","943947","0.0-198.0-1.0","null","<p></p>","null","","","","","","","","","","","","","","","","","","","","","","","",""
"","do_trial","379","947465","0.0-199.0-0.0","975.0999999046326","","","","","","","","49","0,0,1","6","blank","410","null","0.54020447742929","0.263372270483492","0.13624898982751618","0","","","","","","","","",""
"","html-keyboard-response","380","948468","0.0-199.0-1.0","null","<p></p>","null","","","","","","","","","","","","","","","","","","","","","","","",""
"","do_trial","381","951447","0.0-200.0-0.0","433.7999997138977","","","","","","","","49","1,0,0","6","blank","411","null","0.6081238777863616","0.11067517402170948","0.3455227305251566","1","","","","","","","","",""
"","html-keyboard-response","382","952453","0.0-200.0-1.0","null","<p></p>","null","","","","","","","","","","","","","","","","","","","","","","","",""
"","do_trial","383","955133","0.0-201.0-0.0","138.80000019073486","","","","","","","","49","1,1,0","6","blank","412","null","0.658458672129148","0.2520286964742091","0.1589591340731985","1","","","","","","","","",""
"","html-keyboard-response","384","956137","0.0-201.0-1.0","null","<p></p>","null","","","","","","","","","","","","","","","","","","","","","","","",""
"","do_trial","385","959222","0.0-202.0-0.0","542.9000000953674","","","","","","","","49","0,0,1","6","blank","413","null","0.6410730206271029","0.209659626688481","0.2166658641701067","0","","","","","","","","",""
"","html-keyboard-response","386","960226","0.0-202.0-1.0","null","<p></p>","null","","","","","","","","","","","","","","","","","","","","","","","",""
"","do_trial","387","963411","0.0-203.0-0.0","642.4000000953674","","","","","","","","49","1,0,0","6","blank","414","null","0.549945452410093","0.110693834926051","0.21021250007249645","1","","","","","","","","",""
"","html-keyboard-response","388","964415","0.0-203.0-1.0","null","<p></p>","null","","","","","","","","","","","","","","","","","","","","","","","",""
"","do_recog","389","967103","0.0-204.0-0.0","1177","","","","","","","","53","","","","415","probe-112","","","","","1","[object Object]","162","4","1","","","",""
"","html-keyboard-response","390","968107","0.0-204.0-1.0","null","<p></p>","null","","","","","","","","","","","","","","","","","","","","","","","",""
"","do_trial","391","971110","0.0-205.0-0.0","457.69999980926514","","","","","","","","49","1,0,0","6","blank","416","null","0.5760663556364708","0.07721308131391942","0.4222541705780105","1","","","","","","","","",""
"","html-keyboard-response","392","972114","0.0-205.0-1.0","null","<p></p>","null","","","","","","","","","","","","","","","","","","","","","","","",""
"","do_trial","393","975176","0.0-206.0-0.0","516.8000001907349","","","","","","","","49","0,0,1","6","blank","417","null","0.5601501070024003","0.06767567488637187","0.3673442117994905","0","","","","","","","","",""
"","html-keyboard-response","394","976180","0.0-206.0-1.0","null","<p></p>","null","","","","","","","","","","","","","","","","","","","","","","","",""
"","do_recog","395","980040","0.0-207.0-0.0","2352.7000002861023","","","","","","","","53","","","","418","probe-108","","","","","1","[object Object]","41","1","1","","","",""
"","html-keyboard-response","396","981044","0.0-207.0-1.0","null","<p></p>","null","","","","","","","","","","","","","","","","","","","","","","","",""
"","do_trial","397","984041","0.0-208.0-0.0","452.19999980926514","","","","","","","","49","1,0,0","6","blank","419","null","0.5182104403259638","0.0504512028050508","0.3040334423853943","1","","","","","","","","",""
"","html-keyboard-response","398","985046","0.0-208.0-1.0","null","<p></p>","null","","","","","","","","","","","","","","","","","","","","","","","",""
"","do_trial","399","988154","0.0-209.0-0.0","563.1999998092651","","","","","","","","49","1,0,0","6","blank","420","null","0.6421250883877329","0.05893859810994407","0.31078600445313415","1","","","","","","","","",""
"","html-keyboard-response","400","989158","0.0-209.0-1.0","null","<p></p>","null","","","","","","","","","","","","","","","","","","","","","","","",""
"","do_trial","401","992336","0.0-210.0-0.0","632.5999999046326","","","","","","","","49","1,0,1","6","blank","421","null","0.7018976249120457","0.18110438423174333","0.42314519170761244","1","","","","","","","","",""
"","html-keyboard-response","402","993340","0.0-210.0-1.0","null","<p></p>","null","","","","","","","","","","","","","","","","","","","","","","","",""
"","do_recog","403","997326","0.0-211.0-0.0","2478.3999996185303","","","","","","","","53","","","","422","probe-04","","","","","1","[object Object]","83","2","1","","","",""
"","html-keyboard-response","404","998329","0.0-211.0-1.0","null","<p></p>","null","","","","","","","","","","","","","","","","","","","","","","","",""
"","do_trial","405","1001576","0.0-212.0-0.0","699.8999996185303","","","","","","","","49","1,0,1","6","blank","423","null","0.6794430476289196","0.12464350526712265","0.31360978042055515","1","","","","","","","","",""
"","html-keyboard-response","406","1002582","0.0-212.0-1.0","null","<p></p>","null","","","","","","","","","","","","","","","","","","","","","","","",""
"","do_trial","407","1006181","0.0-213.0-0.0","1053.6000003814697","","","","","","","","49","1,0,1","6","blank","424","null","0.48895334231400245","0.05576528707396739","0.4250441596451009","1","","","","","","","","",""
"","html-keyboard-response","408","1007185","0.0-213.0-1.0","null","<p></p>","null","","","","","","","","","","","","","","","","","","","","","","","",""
"","do_trial","409","1010558","0.0-214.0-0.0","829.6000003814697","","","","","","","","49","0,0,0","6","blank","425","null","0.3726650845974393","0.10728328327879531","0.3543867460182382","0","","","","","","","","",""
"","html-keyboard-response","410","1011562","0.0-214.0-1.0","null","<p></p>","null","","","","","","","","","","","","","","","","","","","","","","","",""
"","do_trial","411","1015078","0.0-215.0-0.0","969.6999998092651","","","","","","","","49","0,0,0","6","blank","426","null","0.5344577688658175","0.06928301598697313","0.3621047943681224","0","","","","","","","","",""
"","html-keyboard-response","412","1016082","0.0-215.0-1.0","null","<p></p>","null","","","","","","","","","","","","","","","","","","","","","","","",""
"","do_recog","413","1018839","0.0-216.0-0.0","1247.8000001907349","","","","","","","","53","","","","427","probe-72","","","","","1","[object Object]","160","4","1","","","",""
"","html-keyboard-response","414","1019843","0.0-216.0-1.0","null","<p></p>","null","","","","","","","","","","","","","","","","","","","","","","","",""
"","do_trial","415","1022864","0.0-217.0-0.0","475.59999990463257","","","","","","","","49","1,0,1","6","blank","428","null","0.6329594226968763","0.10052413451422482","0.27363328095214334","1","","","","","","","","",""
"","html-keyboard-response","416","1023868","0.0-217.0-1.0","null","<p></p>","null","","","","","","","","","","","","","","","","","","","","","","","",""
"","do_trial","417","1026990","0.0-218.0-0.0","575.4000000953674","","","","","","","","49","0,0,0","6","blank","429","null","0.5681338194398189","0.051514593641333255","0.29860489890742165","0","","","","","","","","",""
"","html-keyboard-response","418","1027994","0.0-218.0-1.0","null","<p></p>","null","","","","","","","","","","","","","","","","","","","","","","","",""
"","do_trial","419","1031084","0.0-219.0-0.0","543.8000001907349","","","","","","","","49","1,0,0","6","blank","430","null","0.5889505271870216","0.17190101223697787","0.34429429993323923","1","","","","","","","","",""
"","html-keyboard-response","420","1032088","0.0-219.0-1.0","null","<p></p>","null","","","","","","","","","","","","","","","","","","","","","","","",""
"","do_trial","421","1035985","0.0-220.0-0.0","1350.8000001907349","","","","","","","","49","1,0,0","6","blank","431","null","0.7388107633383321","0.2904346591346241","0.23693485144923757","1","","","","","","","","",""
"","html-keyboard-response","422","1036989","0.0-220.0-1.0","null","<p></p>","null","","","","","","","","","","","","","","","","","","","","","","","",""
"","do_recog","423","1040029","0.0-221.0-0.0","1531.5999999046326","","","","","","","","53","","","","432","probe-144","","","","","1","[object Object]","209","5","1","","","",""
"","html-keyboard-response","424","1041033","0.0-221.0-1.0","null","<p></p>","null","","","","","","","","","","","","","","","","","","","","","","","",""
"","do_trial","425","1044068","0.0-222.0-0.0","489.7000002861023","","","","","","","","49","0,1,0","6","blank","433","null","0.6076606158445949","0.3335487693634927","0.23047621901312368","0","","","","","","","","",""
"","html-keyboard-response","426","1045072","0.0-222.0-1.0","null","<p></p>","null","","","","","","","","","","","","","","","","","","","","","","","",""
"","do_trial","427","1048076","0.0-223.0-0.0","462.5","","","","","","","","49","1,0,1","6","blank","434","null","0.513417783726363","0.24708818869032528","0.1639115665893511","1","","","","","","","","",""
"","html-keyboard-response","428","1049080","0.0-223.0-1.0","null","<p></p>","null","","","","","","","","","","","","","","","","","","","","","","","",""
"","do_trial","429","1052257","0.0-224.0-0.0","630.8000001907349","","","","","","","","49","0,0,1","6","blank","435","null","0.5019067096075633","0.11685136557183057","0.2474836237353483","0","","","","","","","","",""
"","html-keyboard-response","430","1053263","0.0-224.0-1.0","null","<p></p>","null","","","","","","","","","","","","","","","","","","","","","","","",""
"","do_trial","431","1056309","0.0-225.0-0.0","503.8999996185303","","","","","","","","49","1,0,1","6","blank","436","null","0.5346984428113477","0.2745594262057714","0.27546966664570355","1","","","","","","","","",""
"","html-keyboard-response","432","1057313","0.0-225.0-1.0","null","<p></p>","null","","","","","","","","","","","","","","","","","","","","","","","",""
"","do_trial","433","1060180","0.0-226.0-0.0","322","","","","","","","","50","1,0,0","6","blank","437","null","0.45288189614882657","0.17841053031086085","0.39995945084750134","0","","","","","","","","",""
"","html-keyboard-response","434","1061184","0.0-226.0-1.0","null","<p></p>","null","","","","","","","","","","","","","","","","","","","","","","","",""
"","do_trial","435","1064066","0.0-227.0-0.0","336.40000009536743","","","","","","","","51","1,0,0","6","blank","438","null","0.4579834376508166","0.12579019240465314","0.3625957684618342","0","","","","","","","","",""
"","html-keyboard-response","436","1065069","0.0-227.0-1.0","null","<p></p>","null","","","","","","","","","","","","","","","","","","","","","","","",""
"","do_recog","437","1067663","0.0-228.0-0.0","1086.0999999046326","","","","","","","","53","","","","439","probe-237","","","","","0","[object Object]","null","null","0","","","",""
"","html-keyboard-response","438","1068667","0.0-228.0-1.0","null","<p></p>","null","","","","","","","","","","","","","","","","","","","","","","","",""
"","do_trial","439","1071664","0.0-229.0-0.0","454.09999990463257","","","","","","","","49","0,0,0","6","blank","440","null","0.4521698088602548","0.06837293869611656","0.34939761933317237","0","","","","","","","","",""
"","html-keyboard-response","440","1072668","0.0-229.0-1.0","null","<p></p>","null","","","","","","","","","","","","","","","","","","","","","","","",""
"","do_recog","441","1076654","0.0-230.0-0.0","2473.9000000953674","","","","","","","","55","","","","441","probe-182","","","","","1","[object Object]","206","5","0","","","",""
"","html-keyboard-response","442","1077655","0.0-230.0-1.0","null","<p></p>","null","","","","","","","","","","","","","","","","","","","","","","","",""
"","do_trial","443","1080992","0.0-231.0-0.0","791.8000001907349","","","","","","","","51","0,1,0","6","blank","442","null","0.4506979089316424","0.10334373176712536","0.3021246594692936","0","","","","","","","","",""
"","html-keyboard-response","444","1081995","0.0-231.0-1.0","null","<p></p>","null","","","","","","","","","","","","","","","","","","","","","","","",""
"","do_recog","445","1085384","0.0-232.0-0.0","1878.3000001907349","","","","","","","","56","","","","443","probe-59","","","","","1","[object Object]","127","3","0","","","",""
"","html-keyboard-response","446","1086388","0.0-232.0-1.0","null","<p></p>","null","","","","","","","","","","","","","","","","","","","","","","","",""
"","do_trial","447","1089344","0.0-233.0-0.0","409.7999997138977","","","","","","","","49","0,0,0","6","blank","444","null","0.4305562161912444","0.0909776586550674","0.12863084152835808","0","","","","","","","","",""
"","html-keyboard-response","448","1090348","0.0-233.0-1.0","null","<p></p>","null","","","","","","","","","","","","","","","","","","","","","","","",""
"","do_trial","449","1093551","0.0-234.0-0.0","657.5","","","","","","","","49","0,0,0","6","blank","445","null","0.5192143378693165","0.2165341754643847","0.100226976088895","0","","","","","","","","",""
"","html-keyboard-response","450","1094554","0.0-234.0-1.0","null","<p></p>","null","","","","","","","","","","","","","","","","","","","","","","","",""
"","do_trial","451","1097817","0.0-235.0-0.0","717.4000000953674","","","","","","","","49","0,0,0","6","blank","446","null","0.6512098857551868","0.10917767042606524","0.11660049773127948","0","","","","","","","","",""
"","html-keyboard-response","452","1098821","0.0-235.0-1.0","null","<p></p>","null","","","","","","","","","","","","","","","","","","","","","","","",""
"","do_trial","453","1102043","0.0-236.0-0.0","675.3000001907349","","","","","","","","50","1,0,0","6","blank","447","null","0.720372815333029","0.17837425066545026","0.2839339217447003","0","","","","","","","","",""
"","html-keyboard-response","454","1103047","0.0-236.0-1.0","null","<p></p>","null","","","","","","","","","","","","","","","","","","","","","","","",""
"","do_trial","455","1106126","0.0-237.0-0.0","535.2999997138977","","","","","","","","49","1,1,0","6","blank","448","null","0.5766658304186227","0.3293030427738967","0.38940063597383373","1","","","","","","","","",""
"","html-keyboard-response","456","1107129","0.0-237.0-1.0","null","<p></p>","null","","","","","","","","","","","","","","","","","","","","","","","",""
"","do_recog","457","1110029","0.0-238.0-0.0","1389.0999999046326","","","","","","","","53","","","","449","probe-67","","","","","1","[object Object]","89","2","1","","","",""
"","html-keyboard-response","458","1111032","0.0-238.0-1.0","null","<p></p>","null","","","","","","","","","","","","","","","","","","","","","","","",""
"","do_trial","459","1114109","0.0-239.0-0.0","530.3000001907349","","","","","","","","49","1,0,1","6","blank","450","null","0.6126140319160509","0.1839889222561424","0.38008605032283965","1","","","","","","","","",""
"","html-keyboard-response","460","1115113","0.0-239.0-1.0","null","<p></p>","null","","","","","","","","","","","","","","","","","","","","","","","",""
"","do_recog","461","1117895","0.0-240.0-0.0","1275","","","","","","","","56","","","","451","probe-70","","","","","1","[object Object]","207","5","0","","","",""
"","html-keyboard-response","462","1118899","0.0-240.0-1.0","null","<p></p>","null","","","","","","","","","","","","","","","","","","","","","","","",""
"","do_trial","463","1121787","0.0-241.0-0.0","341.40000009536743","","","","","","","","49","0,0,0","6","blank","452","null","0.5673047154049615","0.09192045665010268","0.45021747144568786","0","","","","","","","","",""
"","html-keyboard-response","464","1122791","0.0-241.0-1.0","null","<p></p>","null","","","","","","","","","","","","","","","","","","","","","","","",""
"","do_recog","465","1125707","0.0-242.0-0.0","1405.1000003814697","","","","","","","","53","","","","453","probe-41","","","","","1","[object Object]","165","4","1","","","",""
"","html-keyboard-response","466","1126710","0.0-242.0-1.0","null","<p></p>","null","","","","","","","","","","","","","","","","","","","","","","","",""
"","do_trial","467","1129959","0.0-243.0-0.0","706.8999996185303","","","","","","","","49","0,0,1","6","blank","454","null","0.393288700219945","0.05114531809283249","0.3659353268933856","0","","","","","","","","",""
"","html-keyboard-response","468","1130964","0.0-243.0-1.0","null","<p></p>","null","","","","","","","","","","","","","","","","","","","","","","","",""
"","do_trial","469","1134098","0.0-244.0-0.0","588.4000000953674","","","","","","","","49","0,0,1","6","blank","455","null","0.2553976237354753","0.12285649337743226","0.3952743291890225","0","","","","","","","","",""
"","html-keyboard-response","470","1135099","0.0-244.0-1.0","null","<p></p>","null","","","","","","","","","","","","","","","","","","","","","","","",""
"","do_trial","471","1138310","0.0-245.0-0.0","664.2000002861023","","","","","","","","49","0,0,1","6","blank","456","null","0.09483058824670305","0.2704307903067224","0.4886356842245938","0","","","","","","","","",""
"","html-keyboard-response","472","1139313","0.0-245.0-1.0","null","<p></p>","null","","","","","","","","","","","","","","","","","","","","","","","",""
"","do_trial","473","1142419","0.0-246.0-0.0","560.9000000953674","","","","","","","","49","0,0,1","6","blank","457","null","0.05899639930933884","0.22319043265941838","0.5648338238698177","0","","","","","","","","",""
"","html-keyboard-response","474","1143424","0.0-246.0-1.0","null","<p></p>","null","","","","","","","","","","","","","","","","","","","","","","","",""
"","do_recog","475","1146053","0.0-247.0-0.0","1121.0999999046326","","","","","","","","53","","","","458","probe-236","","","","","0","[object Object]","null","null","0","","","",""
"","html-keyboard-response","476","1147057","0.0-247.0-1.0","null","<p></p>","null","","","","","","","","","","","","","","","","","","","","","","","",""
"","do_trial","477","1150182","0.0-248.0-0.0","578.6000003814697","","","","","","","","49","1,0,0","6","blank","459","null","0.16790122105441627","0.19001537307163463","0.6925690818814022","1","","","","","","","","",""
"","html-keyboard-response","478","1151186","0.0-248.0-1.0","null","<p></p>","null","","","","","","","","","","","","","","","","","","","","","","","",""
"","do_trial","479","1154194","0.0-249.0-0.0","464.30000019073486","","","","","","","","49","0,0,0","6","blank","460","null","0.2798072297521147","0.1665173593956854","0.6952644654164641","0","","","","","","","","",""
"","html-keyboard-response","480","1155197","0.0-249.0-1.0","null","<p></p>","null","","","","","","","","","","","","","","","","","","","","","","","",""
"","do_trial","481","1158459","0.0-250.0-0.0","715.5999999046326","","","","","","","","49","1,0,0","6","blank","461","null","0.2901775147950578","0.2718952460882257","0.598404271339763","1","","","","","","","","",""
"","html-keyboard-response","482","1159463","0.0-250.0-1.0","null","<p></p>","null","","","","","","","","","","","","","","","","","","","","","","","",""
"","do_trial","483","1162954","0.0-251.0-0.0","946.2000002861023","","","","","","","","49","0,0,1","6","blank","462","null","0.19279011918650915","0.20522601776195706","0.6102120666014006","0","","","","","","","","",""
"","html-keyboard-response","484","1163956","0.0-251.0-1.0","null","<p></p>","null","","","","","","","","","","","","","","","","","","","","","","","",""
"","do_trial","485","1168008","0.0-252.0-0.0","1505.8000001907349","","","","","","","","49","1,0,0","6","blank","463","null","0.1699368699491955","0.4071002917070871","0.47527804858104356","1","","","","","","","","",""
"","html-keyboard-response","486","1169012","0.0-252.0-1.0","null","<p></p>","null","","","","","","","","","","","","","","","","","","","","","","","",""
"","do_trial","487","1172178","0.0-253.0-0.0","622.5","","","","","","","","49","1,1,1","6","blank","464","null","0.08649106111313681","0.385240517532835","0.5281144860390314","1","","","","","","","","",""
"","html-keyboard-response","488","1173182","0.0-253.0-1.0","null","<p></p>","null","","","","","","","","","","","","","","","","","","","","","","","",""
"","do_trial","489","1178383","0.0-254.0-0.0","2653.699999809265","","","","","","","","49","0,1,1","6","blank","465","null","0.11390070414372358","0.3371025674901402","0.6009445623297508","0","","","","","","","","",""
"","html-keyboard-response","490","1179387","0.0-254.0-1.0","null","<p></p>","null","","","","","","","","","","","","","","","","","","","","","","","",""
"","do_recog","491","1185400","0.0-255.0-0.0","null","","","","","","","","null","","","","466","probe-233","","","","","0","[object Object]","null","null","0","","","",""
"","html-keyboard-response","492","1186406","0.0-255.0-1.0","null","<p></p>","null","","","","","","","","","","","","","","","","","","","","","","","",""
"","do_trial","493","1189496","0.0-256.0-0.0","543.5999999046326","","","","","","","","49","1,0,0","6","blank","467","null","0.09804170094172415","0.2573166078325022","0.5931237473954873","1","","","","","","","","",""
"","html-keyboard-response","494","1190500","0.0-256.0-1.0","null","<p></p>","null","","","","","","","","","","","","","","","","","","","","","","","",""
"","do_trial","495","1193706","0.0-257.0-0.0","663","","","","","","","","49","0,0,1","6","blank","468","null","0.07903715307270856","0.25463633975255967","0.7435029822255063","0","","","","","","","","",""
"","html-keyboard-response","496","1194710","0.0-257.0-1.0","null","<p></p>","null","","","","","","","","","","","","","","","","","","","","","","","",""
"","do_recog","497","1197548","0.0-258.0-0.0","1327.1999998092651","","","","","","","","53","","","","469","probe-255","","","","","0","[object Object]","null","null","0","","","",""
"","html-keyboard-response","498","1198553","0.0-258.0-1.0","null","<p></p>","null","","","","","","","","","","","","","","","","","","","","","","","",""
"","do_trial","499","1201823","0.0-259.0-0.0","730.1000003814697","","","","","","","","49","0,1,1","6","blank","470","null","0.11129891052587901","0.20319688659238275","0.615595287722845","0","","","","","","","","",""
"","html-keyboard-response","500","1202828","0.0-259.0-1.0","null","<p></p>","null","","","","","","","","","","","","","","","","","","","","","","","",""
"","do_trial","501","1207082","0.0-260.0-0.0","1708.2999997138977","","","","","","","","49","0,1,0","6","blank","471","null","0.15431218934664714","0.309559254871568","0.7364262976893884","0","","","","","","","","",""
"","html-keyboard-response","502","1208087","0.0-260.0-1.0","null","<p></p>","null","","","","","","","","","","","","","","","","","","","","","","","",""
"","do_trial","503","1211121","0.0-261.0-0.0","492.69999980926514","","","","","","","","49","1,0,1","6","blank","472","null","0.20911736344906753","0.3455945780101079","0.7684068038676114","1","","","","","","","","",""
"","html-keyboard-response","504","1212125","0.0-261.0-1.0","null","<p></p>","null","","","","","","","","","","","","","","","","","","","","","","","",""
"","do_trial","505","1215238","0.0-262.0-0.0","568.7999997138977","","","","","","","","49","0,1,1","6","blank","473","null","0.1641813417538681","0.3019284881321825","0.9055529908337225","0","","","","","","","","",""
"","html-keyboard-response","506","1216242","0.0-262.0-1.0","null","<p></p>","null","","","","","","","","","","","","","","","","","","","","","","","",""
"","do_recog","507","1219359","0.0-263.0-0.0","1605.9000000953674","","","","","","","","56","","","","474","probe-247","","","","","0","[object Object]","null","null","1","","","",""
"","html-keyboard-response","508","1220360","0.0-263.0-1.0","null","<p></p>","null","","","","","","","","","","","","","","","","","","","","","","","",""
"","do_trial","509","1223405","0.0-264.0-0.0","500.3999996185303","","","","","","","","49","0,0,0","6","blank","475","null","0.17120099903114697","0.1964204957869965","0.7987065303455895","0","","","","","","","","",""
"","html-keyboard-response","510","1224409","0.0-264.0-1.0","null","<p></p>","null","","","","","","","","","","","","","","","","","","","","","","","",""
"","do_recog","511","1227124","0.0-265.0-0.0","1209","","","","","","","","56","","","","476","probe-252","","","","","0","[object Object]","null","null","1","","","",""
"","html-keyboard-response","512","1228128","0.0-265.0-1.0","null","<p></p>","null","","","","","","","","","","","","","","","","","","","","","","","",""
"","do_trial","513","1231489","0.0-266.0-0.0","819.7000002861023","","","","","","","","49","0,0,0","6","blank","477","null","0.1362062616586605","0.1623145659656086","0.6502612441249771","0","","","","","","","","",""
"","html-keyboard-response","514","1232493","0.0-266.0-1.0","null","<p></p>","null","","","","","","","","","","","","","","","","","","","","","","","",""
