"success","trial_type","trial_index","time_elapsed","internal_node_id","interactions","blur_events","focus_events","fullscreenenter_events","fullscreenexit_events","rt","stimulus","key_press","subject_id","participant_id","age","gender","prompt","response","choice_outcomes","context_n","context_img_id","trial_n","probe_img_id","pR_red","pR_white","pR_black","outcome","is_valid","image_to_show","probed_trial","probed_context","correct","probe","probed_trial_n","probed_context_n","context_im"
"true","fullscreen","0","4876","0.0-0.0","""event"",""trial"",""time""
""fullscreenenter"",""0"",""3893""
","
","
","""event"",""trial"",""time""
""fullscreenenter"",""0"",""3893""
","
","","","","","","","","","","","","","","","","","","","","","","","","","","",""
"","pavlovia","1","4886","0.0-1.0","""event"",""trial"",""time""
""fullscreenenter"",""0"",""3893""
","
","
","""event"",""trial"",""time""
""fullscreenenter"",""0"",""3893""
","
","","","","","","","","","","","","","","","","","","","","","","","","","","",""
"","welc_back","2","14674","0.0-2.0","""event"",""trial"",""time""
""fullscreenenter"",""0"",""3893""
","
","
","""event"",""trial"",""time""
""fullscreenenter"",""0"",""3893""
","
","null","run_exp/static/audio/clip_29_welcome_back.m4a","null","435","104","11","Female","<div class='center'><p>Welcome to day 2!</p><p> Yesterday, you were the head captain of a pirate ship. You asked your fellow pirates to rob other ships of their gold across six different islands.</p></div>","","","","","","","","","","","","","","","","","","",""
"","html-keyboard-response","3","21489","0.0-3.0","""event"",""trial"",""time""
""fullscreenenter"",""0"",""3893""
","
","
","""event"",""trial"",""time""
""fullscreenenter"",""0"",""3893""
","
","6812.5","<div class='center'><p>Welcome to day 2!</p><p> Yesterday, you were the head captain of a pirate ship. You asked your fellow pirates to rob other ships of their gold across six different islands.</p><p><b>[Press the space bar to continue]</b></p></div>","32","","","","","","","","","","","","","","","","","","","","","","","",""
"","day_1_summary_goal","4","38670","0.0-4.0","""event"",""trial"",""time""
""fullscreenenter"",""0"",""3893""
","
","
","""event"",""trial"",""time""
""fullscreenenter"",""0"",""3893""
","
","null","run_exp/static/audio/clip_30_goal_of_game.m4a","null","","","","","<div class='center'><p>Today, like yesterday, you get to pick which pirate you want to rob the next ship.</p><p>If the pirate is successful in robbing a ship, you get gold coins that look like this: </p><p><img src='run_exp/static/images/tutorial/reward.png' height='150'></p><p> If they were not successful in robbing the ship, then you will get no gold coins and you'll see a big red x like this: </p><p><img src='run_exp/static/images/tutorial/reward_no.png' height='150'></p></div>","","","","","","","","","","","","","","","","","","",""
"","html-keyboard-response","5","39950","0.0-5.0","""event"",""trial"",""time""
""fullscreenenter"",""0"",""3893""
","
","
","""event"",""trial"",""time""
""fullscreenenter"",""0"",""3893""
","
","1276.199999988079","<div class='center'><p>Today, like yesterday, you get to pick which pirate you want to rob the next ship.</p><p>If the pirate is successful in robbing a ship, you get gold coins that look like this: </p><p><img src='run_exp/static/images/tutorial/reward.png' height='150'></p><p> If they were not successful in robbing the ship, then you will get no gold coins and you'll see a big red x like this: </p><p><img src='run_exp/static/images/tutorial/reward_no.png' height='150'></p><p><b>[Press the space bar to continue]</b></p></div>","32","","","","","","","","","","","","","","","","","","","","","","","",""
"","day_1_summary_pick","6","54629","0.0-6.0","""event"",""trial"",""time""
""fullscreenenter"",""0"",""3893""
","
","
","""event"",""trial"",""time""
""fullscreenenter"",""0"",""3893""
","
","null","run_exp/static/audio/clip_31_how_to_pick_a_pirate.m4a","null","","","","","<div class='center'><p>Also, just like yesterday, you will use the 1,2,3 keys on your keyboard to pick a pirate. Press '1' to choose red beard, '2' to choose white beard, and '3' to choose black beard . You only have 3 seconds to pick a pirate, so please make a choice quickly!</p></div>","","","","","","","","","","","","","","","","","","",""
"","html-keyboard-response","7","57473","0.0-7.0","""event"",""trial"",""time""
""fullscreenenter"",""0"",""3893""
","
","
","""event"",""trial"",""time""
""fullscreenenter"",""0"",""3893""
","
","2842.600000023842","<div class='center'><p>Also, just like yesterday, you will use the 1,2,3 keys on your keyboard to pick a pirate. Press '1' to choose red beard, '2' to choose white beard, and '3' to choose black beard . You only have 3 seconds to pick a pirate, so please make a choice quickly!</p><p><b>[Press the space bar to continue]</b></p></div>","32","","","","","","","","","","","","","","","","","","","","","","","",""
"","test_phase_begin","8","87870","0.0-8.0","""event"",""trial"",""time""
""fullscreenenter"",""0"",""3893""
","
","
","""event"",""trial"",""time""
""fullscreenenter"",""0"",""3893""
","
","null","run_exp/static/audio/clip_32_final_place.m4a","null","","","","","<div class='center'><p>You’ve arrived at the final island of your journey! Unfortunately, it’s very foggy out, so you won’t be able to see it in the distance like the other islands you've visited.</p><p>You’ll still be deciding which pirate you want to rob a ship like before. However, because of the fog, you also won’t be able to see the ship.</p><p>This means you do not have to remember the ships you rob on this island.</p><p>Unlike yesterday, you won't be visiting multiple islands today. You will stay on this island for the entire game. This game will last ~30 minutes.</p></div>","","","","","","","","","","","","","","","","","","",""
"","html-keyboard-response","9","92048","0.0-9.0","""event"",""trial"",""time""
""fullscreenenter"",""0"",""3893""
","
","
","""event"",""trial"",""time""
""fullscreenenter"",""0"",""3893""
","
","4176.100000023842","<div class='center'><p>You’ve arrived at the final island of your journey! Unfortunately, it’s very foggy out, so you won’t be able to see it in the distance like the other islands you've visited.</p><p>You’ll still be deciding which pirate you want to rob a ship like before. However, because of the fog, you also won’t be able to see the ship.</p><p>This means you do not have to remember the ships you rob on this island.</p><p>Unlike yesterday, you won't be visiting multiple islands today. You will stay on this island for the entire game. This game will last ~30 minutes.</p><p><b>[Press the space bar to continue]</b></p></div>","32","","","","","","","","","","","","","","","","","","","","","","","",""
"","explain_probe_1","10","99752","0.0-10.0","""event"",""trial"",""time""
""fullscreenenter"",""0"",""3893""
","
","
","""event"",""trial"",""time""
""fullscreenenter"",""0"",""3893""
","
","null","run_exp/static/audio/clip_33_recognition_1.m4a","null","","","","","<div class='center'><p> Sometimes you’ll be shown a ship, and you will be asked if you saw this ship on a past island.</p><p> Here is an example of what you will see.</p><p><img src='run_exp/static/images/tutorial/example_recog_trial.png' height='500'></p></div>","","","","","","","","","","","","","","","","","","",""
"","html-keyboard-response","11","107307","0.0-11.0","""event"",""trial"",""time""
""fullscreenenter"",""0"",""3893""
","
","
","""event"",""trial"",""time""
""fullscreenenter"",""0"",""3893""
","
","7553.399999976158","<div class='center'><p> Sometimes you’ll be shown a ship, and you will be asked if you saw this ship on a past island.</p><p> Here is an example of what you will see.</p><p><img src='run_exp/static/images/tutorial/example_recog_trial.png' height='500'></p><p><b>[Press the space bar to continue]</b></p></div>","32","","","","","","","","","","","","","","","","","","","","","","","",""
"","explain_probe_2","12","129013","0.0-12.0","""event"",""trial"",""time""
""fullscreenenter"",""0"",""3893""
","
","
","""event"",""trial"",""time""
""fullscreenenter"",""0"",""3893""
","
","null","run_exp/static/audio/clip_34_recognition_2.m4a","null","","","","","<div class='center'><p> You will press the 5, 6, 7, 8 keys on your keyboard to respond.</p><p>If you are sure you saw the ship, press <b>5</b> on your keyboard.</p><p> If you think you saw it before but aren't sure, then press <b>6</b>.</p><p> If you think you have <b>not</b> seen it before but aren't sure, then press <b>7</b>.</p><p> If you are sure you did <b>not</b> see the ship before, then press <b>8</b>.</p><p><img src='run_exp/static/images/tutorial/example_recog_trial.png' height='500'></p></div>","","","","","","","","","","","","","","","","","","",""
"","html-keyboard-response","13","133491","0.0-13.0","""event"",""trial"",""time""
""fullscreenenter"",""0"",""3893""
","
","
","""event"",""trial"",""time""
""fullscreenenter"",""0"",""3893""
","
","4476.199999988079","<div class='center'><p> You will press the 5, 6, 7, 8 keys on your keyboard to respond.</p><p>If you are sure you saw the ship, press <b>5</b> on your keyboard.</p><p> If you think you saw it before but aren't sure, then press <b>6</b>.</p><p> If you think you have <b>not</b> seen it before but aren't sure, then press <b>7</b>.</p><p> If you are sure you did <b>not</b> see the ship before, then press <b>8</b>.</p><p><img src='run_exp/static/images/tutorial/example_recog_trial.png' height='500'></p><p><b>[Press the space bar to continue]</b></p></div>","32","","","","","","","","","","","","","","","","","","","","","","","",""
"","explain_outcome","14","150673","0.0-14.0","""event"",""trial"",""time""
""fullscreenenter"",""0"",""3893""
","
","
","""event"",""trial"",""time""
""fullscreenenter"",""0"",""3893""
","
","null","run_exp/static/audio/clip_35_recognition_3.m4a","null","","","","","<div class='center'><p> If you remember correctly, then you’ll get a gold coin like this: </p><p><img src='run_exp/static/images/tutorial/reward_small.png' height='200'></p><p>If you do not remember correctly, then you'll see a red x like this: </p><p><img src='run_exp/static/images/tutorial/reward_no.png' height='200'></p><p>Importantly, when you are shown a ship, take the time to remind yourself which island you saw it on. This will help you in the next part of the study.</p></div>","","","","","","","","","","","","","","","","","","",""
"","html-keyboard-response","15","159750","0.0-15.0","""event"",""trial"",""time""
""fullscreenenter"",""0"",""3893""
","
","
","""event"",""trial"",""time""
""fullscreenenter"",""0"",""3893""
","
","9077.300000011921","<div class='center'><p> If you remember correctly, then you’ll get a gold coin like this: </p><p><img src='run_exp/static/images/tutorial/reward_small.png' height='200'></p><p>If you do not remember correctly, then you'll see a red x like this: </p><p><img src='run_exp/static/images/tutorial/reward_no.png' height='200'></p><p>Importantly, when you are shown a ship, take the time to remind yourself which island you saw it on. This will help you in the next part of the study.</p><p><b>[Press the space bar to continue]</b></p></div>","32","","","","","","","","","","","","","","","","","","","","","","","",""
"","begin_test_phase","16","175550","0.0-16.0","""event"",""trial"",""time""
""fullscreenenter"",""0"",""3893""
","
","
","""event"",""trial"",""time""
""fullscreenenter"",""0"",""3893""
","
","null","run_exp/static/audio/clip_36_begin_final.m4a","null","","","","","<div class='center'><p>Let's go over the important points again. Your job is to: </p><p>1. Pick the pirate who is best at robbing ships and will bring you back gold coins. </p><p>2. Correctly remember whether or not you saw a ship before. If you did see the ship before, remind yourself on which island you saw it. </p></div>","","","","","","","","","","","","","","","","","","",""
"","html-keyboard-response","17","178378","0.0-17.0","""event"",""trial"",""time""
""fullscreenenter"",""0"",""3893""
","
","
","""event"",""trial"",""time""
""fullscreenenter"",""0"",""3893""
","
","2788.599999964237","<div class='center'><p>Let's go over the important points again. Your job is to: </p><p>1. Pick the pirate who is best at robbing ships and will bring you back gold coins. </p><p>2. Correctly remember whether or not you saw a ship before. If you did see the ship before, remind yourself on which island you saw it. </p><p><b>[Press the space bar to continue]</b></p></div>","32","","","","","","","","","","","","","","","","","","","","","","","",""
"","do_welcome","18","182401","0.0-18.0","""event"",""trial"",""time""
""fullscreenenter"",""0"",""3893""
","
","
","""event"",""trial"",""time""
""fullscreenenter"",""0"",""3893""
","
","null","","","","","","","","null","","","","","","","","","","","","","","","","","",""
"","do_trial","19","188459","0.0-19.0-0.0","""event"",""trial"",""time""
""fullscreenenter"",""0"",""3893""
","
","
","""event"",""trial"",""time""
""fullscreenenter"",""0"",""3893""
","
","null","","","","","","","","null","1,0,0","6","blank","230","null","0.3739911019438868","0.1092645956163236","0.4337454238336629","","","","","","","","","",""
"","html-keyboard-response","20","189480","0.0-19.0-1.0","""event"",""trial"",""time""
""fullscreenenter"",""0"",""3893""
","
","
","""event"",""trial"",""time""
""fullscreenenter"",""0"",""3893""
","
","null","<p></p>","null","","","","","","","","","","","","","","","","","","","","","","","",""
"","do_trial","21","195554","0.0-20.0-0.0","""event"",""trial"",""time""
""fullscreenenter"",""0"",""3893""
","
","
","""event"",""trial"",""time""
""fullscreenenter"",""0"",""3893""
","
","null","","","","","","","","null","1,0,0","6","blank","231","null","0.4285132558133241","0.1968933776365894","0.5089571360488767","","","","","","","","","",""
"","html-keyboard-response","22","196570","0.0-20.0-1.0","""event"",""trial"",""time""
""fullscreenenter"",""0"",""3893""
","
","
","""event"",""trial"",""time""
""fullscreenenter"",""0"",""3893""
","
","null","<p></p>","null","","","","","","","","","","","","","","","","","","","","","","","",""
"","do_trial","23","202611","0.0-21.0-0.0","""event"",""trial"",""time""
""fullscreenenter"",""0"",""3893""
","
","
","""event"",""trial"",""time""
""fullscreenenter"",""0"",""3893""
","
","null","","","","","","","","null","0,0,0","6","blank","232","null","0.362848754286509","0.15005491911384944","0.5765331107014255","","","","","","","","","",""
"","html-keyboard-response","24","203627","0.0-21.0-1.0","""event"",""trial"",""time""
""fullscreenenter"",""0"",""3893""
","
","
","""event"",""trial"",""time""
""fullscreenenter"",""0"",""3893""
","
","null","<p></p>","null","","","","","","","","","","","","","","","","","","","","","","","",""
"","do_trial","25","206712","0.0-22.0-0.0","""event"",""trial"",""time""
""fullscreenenter"",""0"",""3893""
","
","
","""event"",""trial"",""time""
""fullscreenenter"",""0"",""3893""
","
","545.1999999880791","","","","","","","","50","0,1,0","6","blank","233","null","0.21639576770728894","0.19968326862746963","0.6106060331245592","1","","","","","","","","",""
"","html-keyboard-response","26","207724","0.0-22.0-1.0","""event"",""trial"",""time""
""fullscreenenter"",""0"",""3893""
","
","
","""event"",""trial"",""time""
""fullscreenenter"",""0"",""3893""
","
","null","<p></p>","null","","","","","","","","","","","","","","","","","","","","","","","",""
"","do_trial","27","211564","0.0-23.0-0.0","""event"",""trial"",""time""
""fullscreenenter"",""0"",""3893""
","
","
","""event"",""trial"",""time""
""fullscreenenter"",""0"",""3893""
","
","1271.9000000357628","","","","","","","","49","0,0,0","6","blank","234","null","0.31089418678750735","0.11019345443117388","0.6191317783523058","0","","","","","","","","",""
"","html-keyboard-response","28","212568","0.0-23.0-1.0","""event"",""trial"",""time""
""fullscreenenter"",""0"",""3893""
","
","
","""event"",""trial"",""time""
""fullscreenenter"",""0"",""3893""
","
","null","<p></p>","null","","","","","","","","","","","","","","","","","","","","","","","",""
"","do_trial","29","215478","0.0-24.0-0.0","""event"",""trial"",""time""
""fullscreenenter"",""0"",""3893""
","
","
","""event"",""trial"",""time""
""fullscreenenter"",""0"",""3893""
","
","365.5","","","","","","","","51","1,0,1","6","blank","235","null","0.3919881752962226","0.09081229412772811","0.6293801928069676","1","","","","","","","","",""
"","html-keyboard-response","30","216491","0.0-24.0-1.0","""event"",""trial"",""time""
""fullscreenenter"",""0"",""3893""
","
","
","""event"",""trial"",""time""
""fullscreenenter"",""0"",""3893""
","
","null","<p></p>","null","","","","","","","","","","","","","","","","","","","","","","","",""
"","do_trial","31","219481","0.0-25.0-0.0","""event"",""trial"",""time""
""fullscreenenter"",""0"",""3893""
","
","
","""event"",""trial"",""time""
""fullscreenenter"",""0"",""3893""
","
","436.69999998807907","","","","","","","","51","1,0,1","6","blank","236","null","0.4011220515468194","0.15869031621259222","0.63374198675873","1","","","","","","","","",""
"","html-keyboard-response","32","220495","0.0-25.0-1.0","""event"",""trial"",""time""
""fullscreenenter"",""0"",""3893""
","
","
","""event"",""trial"",""time""
""fullscreenenter"",""0"",""3893""
","
","null","<p></p>","null","","","","","","","","","","","","","","","","","","","","","","","",""
"","do_trial","33","223296","0.0-26.0-0.0","""event"",""trial"",""time""
""fullscreenenter"",""0"",""3893""
","
","
","""event"",""trial"",""time""
""fullscreenenter"",""0"",""3893""
","
","264.69999998807907","","","","","","","","50","1,0,1","6","blank","237","null","0.4484788437038034","0.09536435500038357","0.6306658344681185","0","","","","","","","","",""
"","html-keyboard-response","34","224312","0.0-26.0-1.0","""event"",""trial"",""time""
""fullscreenenter"",""0"",""3893""
","
","
","""event"",""trial"",""time""
""fullscreenenter"",""0"",""3893""
","
","null","<p></p>","null","","","","","","","","","","","","","","","","","","","","","","","",""
"","do_trial","35","227161","0.0-27.0-0.0","""event"",""trial"",""time""
""fullscreenenter"",""0"",""3893""
","
","
","""event"",""trial"",""time""
""fullscreenenter"",""0"",""3893""
","
","299.10000002384186","","","","","","","","49","0,1,1","6","blank","238","null","0.30523110008052556","0.21214324826775738","0.541662802826539","0","","","","","","","","",""
"","html-keyboard-response","36","228166","0.0-27.0-1.0","""event"",""trial"",""time""
""fullscreenenter"",""0"",""3893""
","
","
","""event"",""trial"",""time""
""fullscreenenter"",""0"",""3893""
","
","null","<p></p>","null","","","","","","","","","","","","","","","","","","","","","","","",""
"","do_trial","37","231045","0.0-28.0-0.0","""event"",""trial"",""time""
""fullscreenenter"",""0"",""3893""
","
","
","""event"",""trial"",""time""
""fullscreenenter"",""0"",""3893""
","
","336.39999997615814","","","","","","","","51","0,1,0","6","blank","239","null","0.30208055991603644","0.20063509320067613","0.5974963180313415","0","","","","","","","","",""
"","html-keyboard-response","38","232056","0.0-28.0-1.0","""event"",""trial"",""time""
""fullscreenenter"",""0"",""3893""
","
","
","""event"",""trial"",""time""
""fullscreenenter"",""0"",""3893""
","
","null","<p></p>","null","","","","","","","","","","","","","","","","","","","","","","","",""
"","do_trial","39","234828","0.0-29.0-0.0","""event"",""trial"",""time""
""fullscreenenter"",""0"",""3893""
","
","
","""event"",""trial"",""time""
""fullscreenenter"",""0"",""3893""
","
","228.19999998807907","","","","","","","","50","0,0,1","6","blank","240","null","0.2299085367659037","0.2581409537665764","0.5639292865745409","0","","","","","","","","",""
"","html-keyboard-response","40","235843","0.0-29.0-1.0","""event"",""trial"",""time""
""fullscreenenter"",""0"",""3893""
","
","
","""event"",""trial"",""time""
""fullscreenenter"",""0"",""3893""
","
","null","<p></p>","null","","","","","","","","","","","","","","","","","","","","","","","",""
"","do_trial","41","238738","0.0-30.0-0.0","""event"",""trial"",""time""
""fullscreenenter"",""0"",""3893""
","
","
","""event"",""trial"",""time""
""fullscreenenter"",""0"",""3893""
","
","353.19999998807907","","","","","","","","51","0,0,0","6","blank","241","null","0.16218539997161563","0.09979756966164423","0.4900196025147278","0","","","","","","","","",""
"","html-keyboard-response","42","239743","0.0-30.0-1.0","""event"",""trial"",""time""
""fullscreenenter"",""0"",""3893""
","
","
","""event"",""trial"",""time""
""fullscreenenter"",""0"",""3893""
","
","null","<p></p>","null","","","","","","","","","","","","","","","","","","","","","","","",""
"","do_trial","43","242682","0.0-31.0-0.0","""event"",""trial"",""time""
""fullscreenenter"",""0"",""3893""
","
","
","""event"",""trial"",""time""
""fullscreenenter"",""0"",""3893""
","
","390.5999999642372","","","","","","","","51","0,1,1","6","blank","242","null","0.2417091096467084","0.2866532495072946","0.18458708115488942","1","","","","","","","","",""
"","html-keyboard-response","44","243693","0.0-31.0-1.0","""event"",""trial"",""time""
""fullscreenenter"",""0"",""3893""
","
","
","""event"",""trial"",""time""
""fullscreenenter"",""0"",""3893""
","
","null","<p></p>","null","","","","","","","","","","","","","","","","","","","","","","","",""
"","do_recog","45","249708","0.0-32.0-0.0","""event"",""trial"",""time""
""fullscreenenter"",""0"",""3893""
","
","
","""event"",""trial"",""time""
""fullscreenenter"",""0"",""3893""
","
","null","","","","","","","","null","","","","243","probe-49","","","","","1","[object Object]","193","4","0","","","",""
"","html-keyboard-response","46","250710","0.0-32.0-1.0","""event"",""trial"",""time""
""fullscreenenter"",""0"",""3893""
","
","
","""event"",""trial"",""time""
""fullscreenenter"",""0"",""3893""
","
","null","<p></p>","null","","","","","","","","","","","","","","","","","","","","","","","",""
"","do_trial","47","256764","0.0-33.0-0.0","""event"",""trial"",""time""
""fullscreenenter"",""0"",""3893""
","
","
","""event"",""trial"",""time""
""fullscreenenter"",""0"",""3893""
","
","null","","","","","","","","null","1,0,0","6","blank","244","null","0.21753771108664471","0.3795915034836051","0.25650261935437935","","","","","","","","","",""
"","html-keyboard-response","48","257772","0.0-33.0-1.0","""event"",""trial"",""time""
""fullscreenenter"",""0"",""3893""
","
","
","""event"",""trial"",""time""
""fullscreenenter"",""0"",""3893""
","
","null","<p></p>","null","","","","","","","","","","","","","","","","","","","","","","","",""
"","do_trial","49","260797","0.0-34.0-0.0","""event"",""trial"",""time""
""fullscreenenter"",""0"",""3893""
","
","
","""event"",""trial"",""time""
""fullscreenenter"",""0"",""3893""
","
","465.30000001192093","","","","","","","","51","0,0,0","6","blank","245","null","0.2869383546937694","0.5280362227259924","0.2701324817259549","0","","","","","","","","",""
"","html-keyboard-response","50","261812","0.0-34.0-1.0","""event"",""trial"",""time""
""fullscreenenter"",""0"",""3893""
","
","
","""event"",""trial"",""time""
""fullscreenenter"",""0"",""3893""
","
","null","<p></p>","null","","","","","","","","","","","","","","","","","","","","","","","",""
"","do_recog","51","267824","0.0-35.0-0.0","""event"",""trial"",""time""
""fullscreenenter"",""0"",""3893""
","
","
","""event"",""trial"",""time""
""fullscreenenter"",""0"",""3893""
","
","null","","","","","","","","null","","","","246","probe-186","","","","","1","[object Object]","37","0","0","","","",""
"","html-keyboard-response","52","268827","0.0-35.0-1.0","""event"",""trial"",""time""
""fullscreenenter"",""0"",""3893""
","
","
","""event"",""trial"",""time""
""fullscreenenter"",""0"",""3893""
","
","null","<p></p>","null","","","","","","","","","","","","","","","","","","","","","","","",""
"","do_trial","53","272754","0.0-36.0-0.0","""event"",""trial"",""time""
""fullscreenenter"",""0"",""3893""
","
","
","""event"",""trial"",""time""
""fullscreenenter"",""0"",""3893""
","
","1387.5","","","","","","","","51","0,0,0","6","blank","247","null","0.15442981914228912","0.5789141517017299","0.23409254169683433","0","","","","","","","","",""
"","html-keyboard-response","54","273760","0.0-36.0-1.0","""event"",""trial"",""time""
""fullscreenenter"",""0"",""3893""
","
","
","""event"",""trial"",""time""
""fullscreenenter"",""0"",""3893""
","
","null","<p></p>","null","","","","","","","","","","","","","","","","","","","","","","","",""
"","do_trial","55","276680","0.0-37.0-0.0","""event"",""trial"",""time""
""fullscreenenter"",""0"",""3893""
","
","
","""event"",""trial"",""time""
""fullscreenenter"",""0"",""3893""
","
","374","","","","","","","","51","1,0,0","6","blank","248","null","0.3193264563360181","0.4703271733113499","0.21933610553961164","0","","","","","","","","",""
"","html-keyboard-response","56","277695","0.0-37.0-1.0","""event"",""trial"",""time""
""fullscreenenter"",""0"",""3893""
","
","
","""event"",""trial"",""time""
""fullscreenenter"",""0"",""3893""
","
","null","<p></p>","null","","","","","","","","","","","","","","","","","","","","","","","",""
"","do_recog","57","280895","0.0-38.0-0.0","""event"",""trial"",""time""
""fullscreenenter"",""0"",""3893""
","
","
","""event"",""trial"",""time""
""fullscreenenter"",""0"",""3893""
","
","1687.1000000238419","","","","","","","","53","","","","249","probe-79","","","","","1","[object Object]","159","3","1","","","",""
"","html-keyboard-response","58","281910","0.0-38.0-1.0","""event"",""trial"",""time""
""fullscreenenter"",""0"",""3893""
","
","
","""event"",""trial"",""time""
""fullscreenenter"",""0"",""3893""
","
","null","<p></p>","null","","","","","","","","","","","","","","","","","","","","","","","",""
"","do_trial","59","285630","0.0-39.0-0.0","""event"",""trial"",""time""
""fullscreenenter"",""0"",""3893""
","
","
","""event"",""trial"",""time""
""fullscreenenter"",""0"",""3893""
","
","1182.300000011921","","","","","","","","51","0,0,0","6","blank","250","null","0.33327325207346326","0.518047943765161","0.12154442232490709","0","","","","","","","","",""
"","html-keyboard-response","60","286641","0.0-39.0-1.0","""event"",""trial"",""time""
""fullscreenenter"",""0"",""3893""
","
","
","""event"",""trial"",""time""
""fullscreenenter"",""0"",""3893""
","
","null","<p></p>","null","","","","","","","","","","","","","","","","","","","","","","","",""
"","do_trial","61","289465","0.0-40.0-0.0","""event"",""trial"",""time""
""fullscreenenter"",""0"",""3893""
","
","
","""event"",""trial"",""time""
""fullscreenenter"",""0"",""3893""
","
","277.0999999642372","","","","","","","","50","1,0,0","6","blank","251","null","0.29934734218536974","0.5764988716341551","0.12523149420104557","0","","","","","","","","",""
"","html-keyboard-response","62","290472","0.0-40.0-1.0","""event"",""trial"",""time""
""fullscreenenter"",""0"",""3893""
","
","
","""event"",""trial"",""time""
""fullscreenenter"",""0"",""3893""
","
","null","<p></p>","null","","","","","","","","","","","","","","","","","","","","","","","",""
"","do_recog","63","293188","0.0-41.0-0.0","""event"",""trial"",""time""
""fullscreenenter"",""0"",""3893""
","
","
","""event"",""trial"",""time""
""fullscreenenter"",""0"",""3893""
","
","1204.9000000357628","","","","","","","","54","","","","252","probe-45","","","","","1","[object Object]","191","4","1","","","",""
"","html-keyboard-response","64","294193","0.0-41.0-1.0","""event"",""trial"",""time""
""fullscreenenter"",""0"",""3893""
","
","
","""event"",""trial"",""time""
""fullscreenenter"",""0"",""3893""
","
","null","<p></p>","null","","","","","","","","","","","","","","","","","","","","","","","",""
"","do_trial","65","297632","0.0-42.0-0.0","""event"",""trial"",""time""
""fullscreenenter"",""0"",""3893""
","
","
","""event"",""trial"",""time""
""fullscreenenter"",""0"",""3893""
","
","876.5","","","","","","","","51","1,0,1","6","blank","253","null","0.2951787033464812","0.5003633924510441","0.18113767692831226","1","","","","","","","","",""
"","html-keyboard-response","66","298634","0.0-42.0-1.0","""event"",""trial"",""time""
""fullscreenenter"",""0"",""3893""
","
","
","""event"",""trial"",""time""
""fullscreenenter"",""0"",""3893""
","
","null","<p></p>","null","","","","","","","","","","","","","","","","","","","","","","","",""
"","do_trial","67","301653","0.0-43.0-0.0","""event"",""trial"",""time""
""fullscreenenter"",""0"",""3893""
","
","
","""event"",""trial"",""time""
""fullscreenenter"",""0"",""3893""
","
","440.30000001192093","","","","","","","","50","0,1,1","6","blank","254","null","0.19373732223160992","0.47128890667886175","0.15569036114637194","1","","","","","","","","",""
"","html-keyboard-response","68","302666","0.0-43.0-1.0","""event"",""trial"",""time""
""fullscreenenter"",""0"",""3893""
","
","
","""event"",""trial"",""time""
""fullscreenenter"",""0"",""3893""
","
","null","<p></p>","null","","","","","","","","","","","","","","","","","","","","","","","",""
"","do_trial","69","305624","0.0-44.0-0.0","""event"",""trial"",""time""
""fullscreenenter"",""0"",""3893""
","
","
","""event"",""trial"",""time""
""fullscreenenter"",""0"",""3893""
","
","401.80000001192093","","","","","","","","51","0,0,0","6","blank","255","null","0.2747570448139739","0.48169810691240567","0.09847971602599462","0","","","","","","","","",""
"","html-keyboard-response","70","306628","0.0-44.0-1.0","""event"",""trial"",""time""
""fullscreenenter"",""0"",""3893""
","
","
","""event"",""trial"",""time""
""fullscreenenter"",""0"",""3893""
","
","null","<p></p>","null","","","","","","","","","","","","","","","","","","","","","","","",""
"","do_trial","71","309483","0.0-45.0-0.0","""event"",""trial"",""time""
""fullscreenenter"",""0"",""3893""
","
","
","""event"",""trial"",""time""
""fullscreenenter"",""0"",""3893""
","
","306.9000000357628","","","","","","","","49","1,1,0","6","blank","256","null","0.2784253698276346","0.39295418464802084","0.07216243733049592","1","","","","","","","","",""
"","html-keyboard-response","72","310495","0.0-45.0-1.0","""event"",""trial"",""time""
""fullscreenenter"",""0"",""3893""
","
","
","""event"",""trial"",""time""
""fullscreenenter"",""0"",""3893""
","
","null","<p></p>","null","","","","","","","","","","","","","","","","","","","","","","","",""
"","do_trial","73","313770","0.0-46.0-0.0","""event"",""trial"",""time""
""fullscreenenter"",""0"",""3893""
","
","
","""event"",""trial"",""time""
""fullscreenenter"",""0"",""3893""
","
","723.9000000357628","","","","","","","","51","0,0,0","6","blank","257","null","0.18180917254472426","0.47279983422413263","0.08242403595477275","0","","","","","","","","",""
"","html-keyboard-response","74","314775","0.0-46.0-1.0","""event"",""trial"",""time""
""fullscreenenter"",""0"",""3893""
","
","
","""event"",""trial"",""time""
""fullscreenenter"",""0"",""3893""
","
","null","<p></p>","null","","","","","","","","","","","","","","","","","","","","","","","",""
"","do_recog","75","317523","0.0-47.0-0.0","""event"",""trial"",""time""
""fullscreenenter"",""0"",""3893""
","
","
","""event"",""trial"",""time""
""fullscreenenter"",""0"",""3893""
","
","1239.5999999642372","","","","","","","","54","","","","258","probe-73","","","","","1","[object Object]","116","2","1","","","",""
"","html-keyboard-response","76","318535","0.0-47.0-1.0","""event"",""trial"",""time""
""fullscreenenter"",""0"",""3893""
","
","
","""event"",""trial"",""time""
""fullscreenenter"",""0"",""3893""
","
","null","<p></p>","null","","","","","","","","","","","","","","","","","","","","","","","",""
"","do_trial","77","322031","0.0-48.0-0.0","""event"",""trial"",""time""
""fullscreenenter"",""0"",""3893""
","
","
","""event"",""trial"",""time""
""fullscreenenter"",""0"",""3893""
","
","958.1999999880791","","","","","","","","51","1,0,0","6","blank","259","null","0.17894308885955978","0.5083430653886721","0.07185119129820937","0","","","","","","","","",""
"","html-keyboard-response","78","323048","0.0-48.0-1.0","""event"",""trial"",""time""
""fullscreenenter"",""0"",""3893""
","
","
","""event"",""trial"",""time""
""fullscreenenter"",""0"",""3893""
","
","null","<p></p>","null","","","","","","","","","","","","","","","","","","","","","","","",""
"","do_trial","79","325978","0.0-49.0-0.0","""event"",""trial"",""time""
""fullscreenenter"",""0"",""3893""
","
","
","""event"",""trial"",""time""
""fullscreenenter"",""0"",""3893""
","
","386.69999998807907","","","","","","","","51","0,1,0","6","blank","260","null","0.20418311567247613","0.5414145832242041","0.18066627791505313","0","","","","","","","","",""
"","html-keyboard-response","80","326994","0.0-49.0-1.0","""event"",""trial"",""time""
""fullscreenenter"",""0"",""3893""
","
","
","""event"",""trial"",""time""
""fullscreenenter"",""0"",""3893""
","
","null","<p></p>","null","","","","","","","","","","","","","","","","","","","","","","","",""
"","do_trial","81","329952","0.0-50.0-0.0","""event"",""trial"",""time""
""fullscreenenter"",""0"",""3893""
","
","
","""event"",""trial"",""time""
""fullscreenenter"",""0"",""3893""
","
","420.60000002384186","","","","","","","","51","0,1,1","6","blank","261","null","0.2150861821688411","0.6434391815880021","0.15566187461801773","1","","","","","","","","",""
"","html-keyboard-response","82","330962","0.0-50.0-1.0","""event"",""trial"",""time""
""fullscreenenter"",""0"",""3893""
","
","
","""event"",""trial"",""time""
""fullscreenenter"",""0"",""3893""
","
","null","<p></p>","null","","","","","","","","","","","","","","","","","","","","","","","",""
"","do_recog","83","333818","0.0-51.0-0.0","""event"",""trial"",""time""
""fullscreenenter"",""0"",""3893""
","
","
","""event"",""trial"",""time""
""fullscreenenter"",""0"",""3893""
","
","1344.5999999642372","","","","","","","","54","","","","262","probe-191","","","","","1","[object Object]","154","3","1","","","",""
"","html-keyboard-response","84","334826","0.0-51.0-1.0","""event"",""trial"",""time""
""fullscreenenter"",""0"",""3893""
","
","
","""event"",""trial"",""time""
""fullscreenenter"",""0"",""3893""
","
","null","<p></p>","null","","","","","","","","","","","","","","","","","","","","","","","",""
"","do_trial","85","338203","0.0-52.0-0.0","""event"",""trial"",""time""
""fullscreenenter"",""0"",""3893""
","
","
","""event"",""trial"",""time""
""fullscreenenter"",""0"",""3893""
","
","826.6999999880791","","","","","","","","51","0,0,0","6","blank","263","null","0.28678740131066194","0.5812543361438945","0.1285743107195623","0","","","","","","","","",""
"","html-keyboard-response","86","339211","0.0-52.0-1.0","""event"",""trial"",""time""
""fullscreenenter"",""0"",""3893""
","
","
","""event"",""trial"",""time""
""fullscreenenter"",""0"",""3893""
","
","null","<p></p>","null","","","","","","","","","","","","","","","","","","","","","","","",""
"","do_recog","87","341818","0.0-53.0-0.0","""event"",""trial"",""time""
""fullscreenenter"",""0"",""3893""
","
","
","""event"",""trial"",""time""
""fullscreenenter"",""0"",""3893""
","
","1100.300000011921","","","","","","","","55","","","","264","probe-210","","","","","1","[object Object]","75","1","0","","","",""
"","html-keyboard-response","88","342833","0.0-53.0-1.0","""event"",""trial"",""time""
""fullscreenenter"",""0"",""3893""
","
","
","""event"",""trial"",""time""
""fullscreenenter"",""0"",""3893""
","
","null","<p></p>","null","","","","","","","","","","","","","","","","","","","","","","","",""
"","do_trial","89","345779","0.0-54.0-0.0","""event"",""trial"",""time""
""fullscreenenter"",""0"",""3893""
","
","
","""event"",""trial"",""time""
""fullscreenenter"",""0"",""3893""
","
","407.19999998807907","","","","","","","","50","0,0,1","6","blank","265","null","0.30728168223021013","0.6032005458614497","0.24831068561677883","0","","","","","","","","",""
"","html-keyboard-response","90","346793","0.0-54.0-1.0","""event"",""trial"",""time""
""fullscreenenter"",""0"",""3893""
","
","
","""event"",""trial"",""time""
""fullscreenenter"",""0"",""3893""
","
","null","<p></p>","null","","","","","","","","","","","","","","","","","","","","","","","",""
"","do_recog","91","349714","0.0-55.0-0.0","""event"",""trial"",""time""
""fullscreenenter"",""0"",""3893""
","
","
","""event"",""trial"",""time""
""fullscreenenter"",""0"",""3893""
","
","1410.5999999642372","","","","","","","","56","","","","266","probe-56","","","","","1","[object Object]","36","0","0","","","",""
"","html-keyboard-response","92","350727","0.0-55.0-1.0","""event"",""trial"",""time""
""fullscreenenter"",""0"",""3893""
","
","
","""event"",""trial"",""time""
""fullscreenenter"",""0"",""3893""
","
","null","<p></p>","null","","","","","","","","","","","","","","","","","","","","","","","",""
"","do_trial","93","353679","0.0-56.0-0.0","""event"",""trial"",""time""
""fullscreenenter"",""0"",""3893""
","
","
","""event"",""trial"",""time""
""fullscreenenter"",""0"",""3893""
","
","392.80000001192093","","","","","","","","50","0,0,0","6","blank","267","null","0.32557043717758105","0.5023928227289707","0.23419650324147373","0","","","","","","","","",""
"","html-keyboard-response","94","354688","0.0-56.0-1.0","""event"",""trial"",""time""
""fullscreenenter"",""0"",""3893""
","
","
","""event"",""trial"",""time""
""fullscreenenter"",""0"",""3893""
","
","null","<p></p>","null","","","","","","","","","","","","","","","","","","","","","","","",""
"","do_trial","95","357659","0.0-57.0-0.0","""event"",""trial"",""time""
""fullscreenenter"",""0"",""3893""
","
","
","""event"",""trial"",""time""
""fullscreenenter"",""0"",""3893""
","
","405.19999998807907","","","","","","","","51","1,0,0","6","blank","268","null","0.34231929564905417","0.44362795371344166","0.1534975185735212","0","","","","","","","","",""
"","html-keyboard-response","96","358664","0.0-57.0-1.0","""event"",""trial"",""time""
""fullscreenenter"",""0"",""3893""
","
","
","""event"",""trial"",""time""
""fullscreenenter"",""0"",""3893""
","
","null","<p></p>","null","","","","","","","","","","","","","","","","","","","","","","","",""
"","break","97","360810","0.0-58.0-0.0","""event"",""trial"",""time""
""fullscreenenter"",""0"",""3893""
","
","
","""event"",""trial"",""time""
""fullscreenenter"",""0"",""3893""
","
","2144.199999988079","<div class='center'><p>Time to take a quick break! You have 2 minutes to rest, but you can move on sooner if you'd like.</p><p> Press the <b>space bar</b> to continue.</p></div>","32","","","","","","","","","","","","","","","","","","","","","","","",""
"","do_trial","98","366115","0.0-58.0-1.0","""event"",""trial"",""time""
""fullscreenenter"",""0"",""3893""
","
","
","""event"",""trial"",""time""
""fullscreenenter"",""0"",""3893""
","
","2755.100000023842","","","","","","","","51","1,1,0","6","blank","269","null","0.26005473266606915","0.6867540713056733","0.1438531080759646","0","","","","","","","","",""
"","html-keyboard-response","99","367127","0.0-58.0-2.0","""event"",""trial"",""time""
""fullscreenenter"",""0"",""3893""
","
","
","""event"",""trial"",""time""
""fullscreenenter"",""0"",""3893""
","
","null","<p></p>","null","","","","","","","","","","","","","","","","","","","","","","","",""
"","do_trial","100","370086","0.0-59.0-0.0","""event"",""trial"",""time""
""fullscreenenter"",""0"",""3893""
","
","
","""event"",""trial"",""time""
""fullscreenenter"",""0"",""3893""
","
","413","","","","","","","","51","0,1,0","6","blank","270","null","0.2236609611829161","0.7949164297256854","0.1498844139696586","0","","","","","","","","",""
"","html-keyboard-response","101","371101","0.0-59.0-1.0","""event"",""trial"",""time""
""fullscreenenter"",""0"",""3893""
","
","
","""event"",""trial"",""time""
""fullscreenenter"",""0"",""3893""
","
","null","<p></p>","null","","","","","","","","","","","","","","","","","","","","","","","",""
"","do_recog","102","373764","0.0-60.0-0.0","""event"",""trial"",""time""
""fullscreenenter"",""0"",""3893""
","
","
","""event"",""trial"",""time""
""fullscreenenter"",""0"",""3893""
","
","1142.8999999761581","","","","","","","","55","","","","271","probe-155","","","","","1","[object Object]","78","1","0","","","",""
"","html-keyboard-response","103","374777","0.0-60.0-1.0","""event"",""trial"",""time""
""fullscreenenter"",""0"",""3893""
","
","
","""event"",""trial"",""time""
""fullscreenenter"",""0"",""3893""
","
","null","<p></p>","null","","","","","","","","","","","","","","","","","","","","","","","",""
"","do_trial","104","377745","0.0-61.0-0.0","""event"",""trial"",""time""
""fullscreenenter"",""0"",""3893""
","
","
","""event"",""trial"",""time""
""fullscreenenter"",""0"",""3893""
","
","422","","","","","","","","50","0,0,0","6","blank","272","null","0.34182760150773256","0.564776302802549","0.14746391130387237","0","","","","","","","","",""
"","html-keyboard-response","105","378751","0.0-61.0-1.0","""event"",""trial"",""time""
""fullscreenenter"",""0"",""3893""
","
","
","""event"",""trial"",""time""
""fullscreenenter"",""0"",""3893""
","
","null","<p></p>","null","","","","","","","","","","","","","","","","","","","","","","","",""
"","do_trial","106","381846","0.0-62.0-0.0","""event"",""trial"",""time""
""fullscreenenter"",""0"",""3893""
","
","
","""event"",""trial"",""time""
""fullscreenenter"",""0"",""3893""
","
","551.2999999523163","","","","","","","","49","0,1,1","6","blank","273","null","0.4104951534028004","0.6035363019366868","0.11673325825747032","0","","","","","","","","",""
"","html-keyboard-response","107","382859","0.0-62.0-1.0","""event"",""trial"",""time""
""fullscreenenter"",""0"",""3893""
","
","
","""event"",""trial"",""time""
""fullscreenenter"",""0"",""3893""
","
","null","<p></p>","null","","","","","","","","","","","","","","","","","","","","","","","",""
"","do_trial","108","385731","0.0-63.0-0.0","""event"",""trial"",""time""
""fullscreenenter"",""0"",""3893""
","
","
","""event"",""trial"",""time""
""fullscreenenter"",""0"",""3893""
","
","331.39999997615814","","","","","","","","51","1,1,0","6","blank","274","null","0.5564235105458967","0.7300177543483956","0.1626838886207059","0","","","","","","","","",""
"","html-keyboard-response","109","386743","0.0-63.0-1.0","""event"",""trial"",""time""
""fullscreenenter"",""0"",""3893""
","
","
","""event"",""trial"",""time""
""fullscreenenter"",""0"",""3893""
","
","null","<p></p>","null","","","","","","","","","","","","","","","","","","","","","","","",""
"","do_trial","110","389629","0.0-64.0-0.0","""event"",""trial"",""time""
""fullscreenenter"",""0"",""3893""
","
","
","""event"",""trial"",""time""
""fullscreenenter"",""0"",""3893""
","
","334.5","","","","","","","","50","0,1,0","6","blank","275","null","0.41215057320460036","0.6733664010502213","0.14802513288431063","1","","","","","","","","",""
"","html-keyboard-response","111","390645","0.0-64.0-1.0","""event"",""trial"",""time""
""fullscreenenter"",""0"",""3893""
","
","
","""event"",""trial"",""time""
""fullscreenenter"",""0"",""3893""
","
","null","<p></p>","null","","","","","","","","","","","","","","","","","","","","","","","",""
"","do_recog","112","393211","0.0-65.0-0.0","""event"",""trial"",""time""
""fullscreenenter"",""0"",""3893""
","
","
","""event"",""trial"",""time""
""fullscreenenter"",""0"",""3893""
","
","1049.5","","","","","","","","55","","","","276","probe-112","","","","","1","[object Object]","110","2","0","","","",""
"","html-keyboard-response","113","394221","0.0-65.0-1.0","""event"",""trial"",""time""
""fullscreenenter"",""0"",""3893""
","
","
","""event"",""trial"",""time""
""fullscreenenter"",""0"",""3893""
","
","null","<p></p>","null","","","","","","","","","","","","","","","","","","","","","","","",""
"","do_trial","114","397564","0.0-66.0-0.0","""event"",""trial"",""time""
""fullscreenenter"",""0"",""3893""
","
","
","""event"",""trial"",""time""
""fullscreenenter"",""0"",""3893""
","
","794.1999999880791","","","","","","","","50","0,1,0","6","blank","277","null","0.2980500731355961","0.6900337507307224","0.13874608005544828","1","","","","","","","","",""
"","html-keyboard-response","115","398569","0.0-66.0-1.0","""event"",""trial"",""time""
""fullscreenenter"",""0"",""3893""
","
","
","""event"",""trial"",""time""
""fullscreenenter"",""0"",""3893""
","
","null","<p></p>","null","","","","","","","","","","","","","","","","","","","","","","","",""
"","do_trial","116","401495","0.0-67.0-0.0","""event"",""trial"",""time""
""fullscreenenter"",""0"",""3893""
","
","
","""event"",""trial"",""time""
""fullscreenenter"",""0"",""3893""
","
","384.19999998807907","","","","","","","","51","0,1,0","6","blank","278","null","0.2328275241965797","0.6328635432960392","0.1555152666615592","0","","","","","","","","",""
"","html-keyboard-response","117","402508","0.0-67.0-1.0","""event"",""trial"",""time""
""fullscreenenter"",""0"",""3893""
","
","
","""event"",""trial"",""time""
""fullscreenenter"",""0"",""3893""
","
","null","<p></p>","null","","","","","","","","","","","","","","","","","","","","","","","",""
"","do_trial","118","405444","0.0-68.0-0.0","""event"",""trial"",""time""
""fullscreenenter"",""0"",""3893""
","
","
","""event"",""trial"",""time""
""fullscreenenter"",""0"",""3893""
","
","391.10000002384186","","","","","","","","50","0,1,0","6","blank","279","null","0.39061082407713654","0.6564956884979168","0.05956843295792755","1","","","","","","","","",""
"","html-keyboard-response","119","406460","0.0-68.0-1.0","""event"",""trial"",""time""
""fullscreenenter"",""0"",""3893""
","
","
","""event"",""trial"",""time""
""fullscreenenter"",""0"",""3893""
","
","null","<p></p>","null","","","","","","","","","","","","","","","","","","","","","","","",""
"","do_trial","120","409395","0.0-69.0-0.0","""event"",""trial"",""time""
""fullscreenenter"",""0"",""3893""
","
","
","""event"",""trial"",""time""
""fullscreenenter"",""0"",""3893""
","
","392.5","","","","","","","","51","1,0,0","6","blank","280","null","0.43646559676455243","0.5255645417330057","0.1732053881998569","0","","","","","","","","",""
"","html-keyboard-response","121","410410","0.0-69.0-1.0","""event"",""trial"",""time""
""fullscreenenter"",""0"",""3893""
","
","
","""event"",""trial"",""time""
""fullscreenenter"",""0"",""3893""
","
","null","<p></p>","null","","","","","","","","","","","","","","","","","","","","","","","",""
"","do_trial","122","413862","0.0-70.0-0.0","""event"",""trial"",""time""
""fullscreenenter"",""0"",""3893""
","
","
","""event"",""trial"",""time""
""fullscreenenter"",""0"",""3893""
","
","909.3000000119209","","","","","","","","49","0,1,0","6","blank","281","null","0.4800601949550115","0.6190597053482161","0.10859057789167363","0","","","","","","","","",""
"","html-keyboard-response","123","414868","0.0-70.0-1.0","""event"",""trial"",""time""
""fullscreenenter"",""0"",""3893""
","
","
","""event"",""trial"",""time""
""fullscreenenter"",""0"",""3893""
","
","null","<p></p>","null","","","","","","","","","","","","","","","","","","","","","","","",""
"","do_recog","124","418573","0.0-71.0-0.0","""event"",""trial"",""time""
""fullscreenenter"",""0"",""3893""
","
","
","""event"",""trial"",""time""
""fullscreenenter"",""0"",""3893""
","
","2182.2999999523163","","","","","","","","55","","","","282","probe-37","","","","","1","[object Object]","74","1","0","","","",""
"","html-keyboard-response","125","419578","0.0-71.0-1.0","""event"",""trial"",""time""
""fullscreenenter"",""0"",""3893""
","
","
","""event"",""trial"",""time""
""fullscreenenter"",""0"",""3893""
","
","null","<p></p>","null","","","","","","","","","","","","","","","","","","","","","","","",""
"","do_trial","126","423067","0.0-72.0-0.0","""event"",""trial"",""time""
""fullscreenenter"",""0"",""3893""
","
","
","""event"",""trial"",""time""
""fullscreenenter"",""0"",""3893""
","
","939.5999999642372","","","","","","","","49","1,1,0","6","blank","283","null","0.3688194161995246","0.7061518731237872","0.17210402139511652","1","","","","","","","","",""
"","html-keyboard-response","127","424072","0.0-72.0-1.0","""event"",""trial"",""time""
""fullscreenenter"",""0"",""3893""
","
","
","""event"",""trial"",""time""
""fullscreenenter"",""0"",""3893""
","
","null","<p></p>","null","","","","","","","","","","","","","","","","","","","","","","","",""
"","do_trial","128","427010","0.0-73.0-0.0","""event"",""trial"",""time""
""fullscreenenter"",""0"",""3893""
","
","
","""event"",""trial"",""time""
""fullscreenenter"",""0"",""3893""
","
","398.10000002384186","","","","","","","","51","0,0,0","6","blank","284","null","0.29579722875976766","0.6531486200926621","0.17044978072040892","0","","","","","","","","",""
"","html-keyboard-response","129","428019","0.0-73.0-1.0","""event"",""trial"",""time""
""fullscreenenter"",""0"",""3893""
","
","
","""event"",""trial"",""time""
""fullscreenenter"",""0"",""3893""
","
","null","<p></p>","null","","","","","","","","","","","","","","","","","","","","","","","",""
"","do_trial","130","431181","0.0-74.0-0.0","""event"",""trial"",""time""
""fullscreenenter"",""0"",""3893""
","
","
","""event"",""trial"",""time""
""fullscreenenter"",""0"",""3893""
","
","611.4000000357628","","","","","","","","50","0,0,0","6","blank","285","null","0.32313005901131503","0.46474575548185115","0.15728167483125996","0","","","","","","","","",""
"","html-keyboard-response","131","432194","0.0-74.0-1.0","""event"",""trial"",""time""
""fullscreenenter"",""0"",""3893""
","
","
","""event"",""trial"",""time""
""fullscreenenter"",""0"",""3893""
","
","null","<p></p>","null","","","","","","","","","","","","","","","","","","","","","","","",""
"","do_trial","132","435165","0.0-75.0-0.0","""event"",""trial"",""time""
""fullscreenenter"",""0"",""3893""
","
","
","""event"",""trial"",""time""
""fullscreenenter"",""0"",""3893""
","
","435.89999997615814","","","","","","","","49","0,0,0","6","blank","286","null","0.4209685131139183","0.600676224731699","0.06517103255934702","0","","","","","","","","",""
"","html-keyboard-response","133","436175","0.0-75.0-1.0","""event"",""trial"",""time""
""fullscreenenter"",""0"",""3893""
","
","
","""event"",""trial"",""time""
""fullscreenenter"",""0"",""3893""
","
","null","<p></p>","null","","","","","","","","","","","","","","","","","","","","","","","",""
"","do_trial","134","440528","0.0-76.0-0.0","""event"",""trial"",""time""
""fullscreenenter"",""0"",""3893""
","
","
","""event"",""trial"",""time""
""fullscreenenter"",""0"",""3893""
","
","1807.199999988079","","","","","","","","51","1,1,1","6","blank","287","null","0.3439229930010507","0.5342070996527781","0.20266442010255412","1","","","","","","","","",""
"","html-keyboard-response","135","441545","0.0-76.0-1.0","""event"",""trial"",""time""
""fullscreenenter"",""0"",""3893""
","
","
","""event"",""trial"",""time""
""fullscreenenter"",""0"",""3893""
","
","null","<p></p>","null","","","","","","","","","","","","","","","","","","","","","","","",""
"","do_recog","136","444197","0.0-77.0-0.0","""event"",""trial"",""time""
""fullscreenenter"",""0"",""3893""
","
","
","""event"",""trial"",""time""
""fullscreenenter"",""0"",""3893""
","
","1138.6000000238419","","","","","","","","55","","","","288","probe-196","","","","","1","[object Object]","194","4","0","","","",""
"","html-keyboard-response","137","445210","0.0-77.0-1.0","""event"",""trial"",""time""
""fullscreenenter"",""0"",""3893""
","
","
","""event"",""trial"",""time""
""fullscreenenter"",""0"",""3893""
","
","null","<p></p>","null","","","","","","","","","","","","","","","","","","","","","","","",""
"","do_trial","138","448148","0.0-78.0-0.0","""event"",""trial"",""time""
""fullscreenenter"",""0"",""3893""
","
","
","""event"",""trial"",""time""
""fullscreenenter"",""0"",""3893""
","
","395.69999998807907","","","","","","","","50","0,1,1","6","blank","289","null","0.4440952265501666","0.5358527134932531","0.16616994282704248","1","","","","","","","","",""
"","html-keyboard-response","139","449160","0.0-78.0-1.0","""event"",""trial"",""time""
""fullscreenenter"",""0"",""3893""
","
","
","""event"",""trial"",""time""
""fullscreenenter"",""0"",""3893""
","
","null","<p></p>","null","","","","","","","","","","","","","","","","","","","","","","","",""
"","do_trial","140","452028","0.0-79.0-0.0","""event"",""trial"",""time""
""fullscreenenter"",""0"",""3893""
","
","
","""event"",""trial"",""time""
""fullscreenenter"",""0"",""3893""
","
","315.9000000357628","","","","","","","","51","0,1,0","6","blank","290","null","0.23348509493289593","0.5803959387206462","0.20323715255195904","0","","","","","","","","",""
"","html-keyboard-response","141","453042","0.0-79.0-1.0","""event"",""trial"",""time""
""fullscreenenter"",""0"",""3893""
","
","
","""event"",""trial"",""time""
""fullscreenenter"",""0"",""3893""
","
","null","<p></p>","null","","","","","","","","","","","","","","","","","","","","","","","",""
"","do_recog","142","455713","0.0-80.0-0.0","""event"",""trial"",""time""
""fullscreenenter"",""0"",""3893""
","
","
","""event"",""trial"",""time""
""fullscreenenter"",""0"",""3893""
","
","1160.5","","","","","","","","55","","","","291","probe-35","","","","","1","[object Object]","32","0","0","","","",""
"","html-keyboard-response","143","456718","0.0-80.0-1.0","""event"",""trial"",""time""
""fullscreenenter"",""0"",""3893""
","
","
","""event"",""trial"",""time""
""fullscreenenter"",""0"",""3893""
","
","null","<p></p>","null","","","","","","","","","","","","","","","","","","","","","","","",""
"","do_trial","144","459921","0.0-81.0-0.0","""event"",""trial"",""time""
""fullscreenenter"",""0"",""3893""
","
","
","""event"",""trial"",""time""
""fullscreenenter"",""0"",""3893""
","
","666.3999999761581","","","","","","","","49","1,1,1","6","blank","292","null","0.3590755950063557","0.617541577362488","0.10240379066410124","1","","","","","","","","",""
"","html-keyboard-response","145","460926","0.0-81.0-1.0","""event"",""trial"",""time""
""fullscreenenter"",""0"",""3893""
","
","
","""event"",""trial"",""time""
""fullscreenenter"",""0"",""3893""
","
","null","<p></p>","null","","","","","","","","","","","","","","","","","","","","","","","",""
"","do_trial","146","464015","0.0-82.0-0.0","""event"",""trial"",""time""
""fullscreenenter"",""0"",""3893""
","
","
","""event"",""trial"",""time""
""fullscreenenter"",""0"",""3893""
","
","552","","","","","","","","50","0,1,1","6","blank","293","null","0.29094085951469223","0.647167307148945","0.1729871637054776","1","","","","","","","","",""
"","html-keyboard-response","147","465027","0.0-82.0-1.0","""event"",""trial"",""time""
""fullscreenenter"",""0"",""3893""
","
","
","""event"",""trial"",""time""
""fullscreenenter"",""0"",""3893""
","
","null","<p></p>","null","","","","","","","","","","","","","","","","","","","","","","","",""
"","do_trial","148","467888","0.0-83.0-0.0","""event"",""trial"",""time""
""fullscreenenter"",""0"",""3893""
","
","
","""event"",""trial"",""time""
""fullscreenenter"",""0"",""3893""
","
","322.69999998807907","","","","","","","","51","0,0,0","6","blank","294","null","0.3699508559284347","0.6254075905841561","0.22652903365381558","0","","","","","","","","",""
"","html-keyboard-response","149","468895","0.0-83.0-1.0","""event"",""trial"",""time""
""fullscreenenter"",""0"",""3893""
","
","
","""event"",""trial"",""time""
""fullscreenenter"",""0"",""3893""
","
","null","<p></p>","null","","","","","","","","","","","","","","","","","","","","","","","",""
"","do_trial","150","471967","0.0-84.0-0.0","""event"",""trial"",""time""
""fullscreenenter"",""0"",""3893""
","
","
","""event"",""trial"",""time""
""fullscreenenter"",""0"",""3893""
","
","534.8000000119209","","","","","","","","50","0,0,0","6","blank","295","null","0.3560033240346479","0.3947833016156956","0.3166413613912036","0","","","","","","","","",""
"","html-keyboard-response","151","472980","0.0-84.0-1.0","""event"",""trial"",""time""
""fullscreenenter"",""0"",""3893""
","
","
","""event"",""trial"",""time""
""fullscreenenter"",""0"",""3893""
","
","null","<p></p>","null","","","","","","","","","","","","","","","","","","","","","","","",""
"","do_trial","152","475848","0.0-85.0-0.0","""event"",""trial"",""time""
""fullscreenenter"",""0"",""3893""
","
","
","""event"",""trial"",""time""
""fullscreenenter"",""0"",""3893""
","
","329","","","","","","","","51","0,1,0","6","blank","296","null","0.3655754454320933","0.33229743902813347","0.3888784018936895","0","","","","","","","","",""
"","html-keyboard-response","153","476859","0.0-85.0-1.0","""event"",""trial"",""time""
""fullscreenenter"",""0"",""3893""
","
","
","""event"",""trial"",""time""
""fullscreenenter"",""0"",""3893""
","
","null","<p></p>","null","","","","","","","","","","","","","","","","","","","","","","","",""
"","do_recog","154","479565","0.0-86.0-0.0","""event"",""trial"",""time""
""fullscreenenter"",""0"",""3893""
","
","
","""event"",""trial"",""time""
""fullscreenenter"",""0"",""3893""
","
","1194.8999999761581","","","","","","","","55","","","","297","probe-202","","","","","1","[object Object]","112","2","0","","","",""
"","html-keyboard-response","155","480567","0.0-86.0-1.0","""event"",""trial"",""time""
""fullscreenenter"",""0"",""3893""
","
","
","""event"",""trial"",""time""
""fullscreenenter"",""0"",""3893""
","
","null","<p></p>","null","","","","","","","","","","","","","","","","","","","","","","","",""
"","do_trial","156","484460","0.0-87.0-0.0","""event"",""trial"",""time""
""fullscreenenter"",""0"",""3893""
","
","
","""event"",""trial"",""time""
""fullscreenenter"",""0"",""3893""
","
","1344","","","","","","","","50","1,1,0","6","blank","298","null","0.4439879912585417","0.21197794419834218","0.33033746976613837","1","","","","","","","","",""
"","html-keyboard-response","157","485477","0.0-87.0-1.0","""event"",""trial"",""time""
""fullscreenenter"",""0"",""3893""
","
","
","""event"",""trial"",""time""
""fullscreenenter"",""0"",""3893""
","
","null","<p></p>","null","","","","","","","","","","","","","","","","","","","","","","","",""
"","do_recog","158","488281","0.0-88.0-0.0","""event"",""trial"",""time""
""fullscreenenter"",""0"",""3893""
","
","
","""event"",""trial"",""time""
""fullscreenenter"",""0"",""3893""
","
","1285.800000011921","","","","","","","","55","","","","299","probe-125","","","","","1","[object Object]","198","4","0","","","",""
"","html-keyboard-response","159","489288","0.0-88.0-1.0","""event"",""trial"",""time""
""fullscreenenter"",""0"",""3893""
","
","
","""event"",""trial"",""time""
""fullscreenenter"",""0"",""3893""
","
","null","<p></p>","null","","","","","","","","","","","","","","","","","","","","","","","",""
"","do_trial","160","492697","0.0-89.0-0.0","""event"",""trial"",""time""
""fullscreenenter"",""0"",""3893""
","
","
","""event"",""trial"",""time""
""fullscreenenter"",""0"",""3893""
","
","859.3999999761581","","","","","","","","49","0,1,0","6","blank","300","null","0.47184487963125366","0.26648837362031924","0.43025567305991635","0","","","","","","","","",""
"","html-keyboard-response","161","493702","0.0-89.0-1.0","""event"",""trial"",""time""
""fullscreenenter"",""0"",""3893""
","
","
","""event"",""trial"",""time""
""fullscreenenter"",""0"",""3893""
","
","null","<p></p>","null","","","","","","","","","","","","","","","","","","","","","","","",""
"","do_recog","162","496480","0.0-90.0-0.0","""event"",""trial"",""time""
""fullscreenenter"",""0"",""3893""
","
","
","""event"",""trial"",""time""
""fullscreenenter"",""0"",""3893""
","
","1261.3999999761581","","","","","","","","54","","","","301","probe-51","","","","","1","[object Object]","115","2","1","","","",""
"","html-keyboard-response","163","497493","0.0-90.0-1.0","""event"",""trial"",""time""
""fullscreenenter"",""0"",""3893""
","
","
","""event"",""trial"",""time""
""fullscreenenter"",""0"",""3893""
","
","null","<p></p>","null","","","","","","","","","","","","","","","","","","","","","","","",""
"","do_trial","164","500831","0.0-91.0-0.0","""event"",""trial"",""time""
""fullscreenenter"",""0"",""3893""
","
","
","""event"",""trial"",""time""
""fullscreenenter"",""0"",""3893""
","
","798.1999999880791","","","","","","","","51","1,0,1","6","blank","302","null","0.6552888998122433","0.19750311552787714","0.3571725081594945","1","","","","","","","","",""
"","html-keyboard-response","165","501843","0.0-91.0-1.0","""event"",""trial"",""time""
""fullscreenenter"",""0"",""3893""
","
","
","""event"",""trial"",""time""
""fullscreenenter"",""0"",""3893""
","
","null","<p></p>","null","","","","","","","","","","","","","","","","","","","","","","","",""
"","do_recog","166","504749","0.0-92.0-0.0","""event"",""trial"",""time""
""fullscreenenter"",""0"",""3893""
","
","
","""event"",""trial"",""time""
""fullscreenenter"",""0"",""3893""
","
","1385.199999988079","","","","","","","","53","","","","303","probe-246","","","","","0","[object Object]","null","null","0","","","",""
"","html-keyboard-response","167","505760","0.0-92.0-1.0","""event"",""trial"",""time""
""fullscreenenter"",""0"",""3893""
","
","
","""event"",""trial"",""time""
""fullscreenenter"",""0"",""3893""
","
","null","<p></p>","null","","","","","","","","","","","","","","","","","","","","","","","",""
"","do_trial","168","509064","0.0-93.0-0.0","""event"",""trial"",""time""
""fullscreenenter"",""0"",""3893""
","
","
","""event"",""trial"",""time""
""fullscreenenter"",""0"",""3893""
","
","760","","","","","","","","51","1,0,1","6","blank","304","null","0.590397955262169","0.19481432450229616","0.35695857592106167","1","","","","","","","","",""
"","html-keyboard-response","169","510077","0.0-93.0-1.0","""event"",""trial"",""time""
""fullscreenenter"",""0"",""3893""
","
","
","""event"",""trial"",""time""
""fullscreenenter"",""0"",""3893""
","
","null","<p></p>","null","","","","","","","","","","","","","","","","","","","","","","","",""
"","do_recog","170","512914","0.0-94.0-0.0","""event"",""trial"",""time""
""fullscreenenter"",""0"",""3893""
","
","
","""event"",""trial"",""time""
""fullscreenenter"",""0"",""3893""
","
","1319.0999999642372","","","","","","","","54","","","","305","probe-44","","","","","1","[object Object]","33","0","1","","","",""
"","html-keyboard-response","171","513926","0.0-94.0-1.0","""event"",""trial"",""time""
""fullscreenenter"",""0"",""3893""
","
","
","""event"",""trial"",""time""
""fullscreenenter"",""0"",""3893""
","
","null","<p></p>","null","","","","","","","","","","","","","","","","","","","","","","","",""
"","do_trial","172","517297","0.0-95.0-0.0","""event"",""trial"",""time""
""fullscreenenter"",""0"",""3893""
","
","
","""event"",""trial"",""time""
""fullscreenenter"",""0"",""3893""
","
","834.1999999880791","","","","","","","","49","1,0,1","6","blank","306","null","0.5307409030299753","0.3384587724130396","0.302444643248642","1","","","","","","","","",""
"","html-keyboard-response","173","518311","0.0-95.0-1.0","""event"",""trial"",""time""
""fullscreenenter"",""0"",""3893""
","
","
","""event"",""trial"",""time""
""fullscreenenter"",""0"",""3893""
","
","null","<p></p>","null","","","","","","","","","","","","","","","","","","","","","","","",""
"","do_trial","174","521302","0.0-96.0-0.0","""event"",""trial"",""time""
""fullscreenenter"",""0"",""3893""
","
","
","""event"",""trial"",""time""
""fullscreenenter"",""0"",""3893""
","
","445.80000001192093","","","","","","","","50","0,1,0","6","blank","307","null","0.6090879995401686","0.3730427613953694","0.3162076900962939","1","","","","","","","","",""
"","html-keyboard-response","175","522310","0.0-96.0-1.0","""event"",""trial"",""time""
""fullscreenenter"",""0"",""3893""
","
","
","""event"",""trial"",""time""
""fullscreenenter"",""0"",""3893""
","
","null","<p></p>","null","","","","","","","","","","","","","","","","","","","","","","","",""
"","do_trial","176","525182","0.0-97.0-0.0","""event"",""trial"",""time""
""fullscreenenter"",""0"",""3893""
","
","
","""event"",""trial"",""time""
""fullscreenenter"",""0"",""3893""
","
","320","","","","","","","","49","0,0,0","6","blank","308","null","0.5731218863268286","0.22018055275548296","0.3386941840931634","0","","","","","","","","",""
"","html-keyboard-response","177","526194","0.0-97.0-1.0","""event"",""trial"",""time""
""fullscreenenter"",""0"",""3893""
","
","
","""event"",""trial"",""time""
""fullscreenenter"",""0"",""3893""
","
","null","<p></p>","null","","","","","","","","","","","","","","","","","","","","","","","",""
"","break","178","530346","0.0-98.0-0.0","""event"",""trial"",""time""
""fullscreenenter"",""0"",""3893""
","
","
","""event"",""trial"",""time""
""fullscreenenter"",""0"",""3893""
","
","4150.400000035763","<div class='center'><p>Time to take a quick break! You have 2 minutes to rest, but you can move on sooner if you'd like.</p><p> Press the <b>space bar</b> to continue.</p></div>","32","","","","","","","","","","","","","","","","","","","","","","","",""
"","do_trial","179","533715","0.0-98.0-1.0","""event"",""trial"",""time""
""fullscreenenter"",""0"",""3893""
","
","
","""event"",""trial"",""time""
""fullscreenenter"",""0"",""3893""
","
","826.5","","","","","","","","51","1,0,0","6","blank","309","null","0.6056562424979068","0.11943992223434315","0.3484862077986745","0","","","","","","","","",""
"","html-keyboard-response","180","534725","0.0-98.0-2.0","""event"",""trial"",""time""
""fullscreenenter"",""0"",""3893""
","
","
","""event"",""trial"",""time""
""fullscreenenter"",""0"",""3893""
","
","null","<p></p>","null","","","","","","","","","","","","","","","","","","","","","","","",""
"","do_trial","181","537685","0.0-99.0-0.0","""event"",""trial"",""time""
""fullscreenenter"",""0"",""3893""
","
","
","""event"",""trial"",""time""
""fullscreenenter"",""0"",""3893""
","
","414.5","","","","","","","","50","0,0,0","6","blank","310","null","0.5405266533827715","0.10828744580834743","0.31420757645169495","0","","","","","","","","",""
"","html-keyboard-response","182","538694","0.0-99.0-1.0","""event"",""trial"",""time""
""fullscreenenter"",""0"",""3893""
","
","
","""event"",""trial"",""time""
""fullscreenenter"",""0"",""3893""
","
","null","<p></p>","null","","","","","","","","","","","","","","","","","","","","","","","",""
"","do_trial","183","541611","0.0-100.0-0.0","""event"",""trial"",""time""
""fullscreenenter"",""0"",""3893""
","
","
","""event"",""trial"",""time""
""fullscreenenter"",""0"",""3893""
","
","344.5","","","","","","","","51","0,0,1","6","blank","311","null","0.6024111798354198","0.1454530506889298","0.2754815461625487","1","","","","","","","","",""
"","html-keyboard-response","184","542627","0.0-100.0-1.0","""event"",""trial"",""time""
""fullscreenenter"",""0"",""3893""
","
","
","""event"",""trial"",""time""
""fullscreenenter"",""0"",""3893""
","
","null","<p></p>","null","","","","","","","","","","","","","","","","","","","","","","","",""
"","do_trial","185","545500","0.0-101.0-0.0","""event"",""trial"",""time""
""fullscreenenter"",""0"",""3893""
","
","
","""event"",""trial"",""time""
""fullscreenenter"",""0"",""3893""
","
","322.2999999523163","","","","","","","","51","0,0,0","6","blank","312","null","0.5835857706894976","0.21849921207402276","0.26751036726894756","0","","","","","","","","",""
"","html-keyboard-response","186","546509","0.0-101.0-1.0","""event"",""trial"",""time""
""fullscreenenter"",""0"",""3893""
","
","
","""event"",""trial"",""time""
""fullscreenenter"",""0"",""3893""
","
","null","<p></p>","null","","","","","","","","","","","","","","","","","","","","","","","",""
"","do_recog","187","549132","0.0-102.0-0.0","""event"",""trial"",""time""
""fullscreenenter"",""0"",""3893""
","
","
","""event"",""trial"",""time""
""fullscreenenter"",""0"",""3893""
","
","1101.6000000238419","","","","","","","","55","","","","313","probe-33","","","","","1","[object Object]","111","2","0","","","",""
"","html-keyboard-response","188","550141","0.0-102.0-1.0","""event"",""trial"",""time""
""fullscreenenter"",""0"",""3893""
","
","
","""event"",""trial"",""time""
""fullscreenenter"",""0"",""3893""
","
","null","<p></p>","null","","","","","","","","","","","","","","","","","","","","","","","",""
"","do_trial","189","553081","0.0-103.0-0.0","""event"",""trial"",""time""
""fullscreenenter"",""0"",""3893""
","
","
","""event"",""trial"",""time""
""fullscreenenter"",""0"",""3893""
","
","392.10000002384186","","","","","","","","50","0,0,1","6","blank","314","null","0.5375777402212968","0.2204759771995061","0.2744572355558859","0","","","","","","","","",""
"","html-keyboard-response","190","554093","0.0-103.0-1.0","""event"",""trial"",""time""
""fullscreenenter"",""0"",""3893""
","
","
","""event"",""trial"",""time""
""fullscreenenter"",""0"",""3893""
","
","null","<p></p>","null","","","","","","","","","","","","","","","","","","","","","","","",""
"","do_recog","191","556898","0.0-104.0-0.0","""event"",""trial"",""time""
""fullscreenenter"",""0"",""3893""
","
","
","""event"",""trial"",""time""
""fullscreenenter"",""0"",""3893""
","
","1286.8999999761581","","","","","","","","54","","","","315","probe-143","","","","","1","[object Object]","34","0","1","","","",""
"","html-keyboard-response","192","557910","0.0-104.0-1.0","""event"",""trial"",""time""
""fullscreenenter"",""0"",""3893""
","
","
","""event"",""trial"",""time""
""fullscreenenter"",""0"",""3893""
","
","null","<p></p>","null","","","","","","","","","","","","","","","","","","","","","","","",""
"","do_trial","193","561147","0.0-105.0-0.0","""event"",""trial"",""time""
""fullscreenenter"",""0"",""3893""
","
","
","""event"",""trial"",""time""
""fullscreenenter"",""0"",""3893""
","
","687","","","","","","","","49","0,0,1","6","blank","316","null","0.5040936501144911","0.18305706077229658","0.2853471059615215","0","","","","","","","","",""
"","html-keyboard-response","194","562158","0.0-105.0-1.0","""event"",""trial"",""time""
""fullscreenenter"",""0"",""3893""
","
","
","""event"",""trial"",""time""
""fullscreenenter"",""0"",""3893""
","
","null","<p></p>","null","","","","","","","","","","","","","","","","","","","","","","","",""
"","do_recog","195","565014","0.0-106.0-0.0","""event"",""trial"",""time""
""fullscreenenter"",""0"",""3893""
","
","
","""event"",""trial"",""time""
""fullscreenenter"",""0"",""3893""
","
","1342.2999999523163","","","","","","","","55","","","","317","probe-123","","","","","1","[object Object]","117","2","0","","","",""
"","html-keyboard-response","196","566026","0.0-106.0-1.0","""event"",""trial"",""time""
""fullscreenenter"",""0"",""3893""
","
","
","""event"",""trial"",""time""
""fullscreenenter"",""0"",""3893""
","
","null","<p></p>","null","","","","","","","","","","","","","","","","","","","","","","","",""
"","do_trial","197","569363","0.0-107.0-0.0","""event"",""trial"",""time""
""fullscreenenter"",""0"",""3893""
","
","
","""event"",""trial"",""time""
""fullscreenenter"",""0"",""3893""
","
","795.5","","","","","","","","50","1,0,0","6","blank","318","null","0.6812809192418938","0.11963991139307044","0.3035868794667557","0","","","","","","","","",""
"","html-keyboard-response","198","570376","0.0-107.0-1.0","""event"",""trial"",""time""
""fullscreenenter"",""0"",""3893""
","
","
","""event"",""trial"",""time""
""fullscreenenter"",""0"",""3893""
","
","null","<p></p>","null","","","","","","","","","","","","","","","","","","","","","","","",""
"","do_trial","199","573314","0.0-108.0-0.0","""event"",""trial"",""time""
""fullscreenenter"",""0"",""3893""
","
","
","""event"",""trial"",""time""
""fullscreenenter"",""0"",""3893""
","
","398","","","","","","","","51","1,0,1","6","blank","319","null","0.7196239007964117","0.148866968689114","0.324131159395431","1","","","","","","","","",""
"","html-keyboard-response","200","574328","0.0-108.0-1.0","""event"",""trial"",""time""
""fullscreenenter"",""0"",""3893""
","
","
","""event"",""trial"",""time""
""fullscreenenter"",""0"",""3893""
","
","null","<p></p>","null","","","","","","","","","","","","","","","","","","","","","","","",""
"","do_trial","201","577648","0.0-109.0-0.0","""event"",""trial"",""time""
""fullscreenenter"",""0"",""3893""
","
","
","""event"",""trial"",""time""
""fullscreenenter"",""0"",""3893""
","
","782.2000000476837","","","","","","","","49","1,0,1","6","blank","320","null","0.7034945473687971","0.13194017637583166","0.48574829275657055","1","","","","","","","","",""
"","html-keyboard-response","202","578659","0.0-109.0-1.0","""event"",""trial"",""time""
""fullscreenenter"",""0"",""3893""
","
","
","""event"",""trial"",""time""
""fullscreenenter"",""0"",""3893""
","
","null","<p></p>","null","","","","","","","","","","","","","","","","","","","","","","","",""
"","do_trial","203","581547","0.0-110.0-0.0","""event"",""trial"",""time""
""fullscreenenter"",""0"",""3893""
","
","
","""event"",""trial"",""time""
""fullscreenenter"",""0"",""3893""
","
","337.69999998807907","","","","","","","","51","0,0,0","6","blank","321","null","0.7952914187722894","0.2092836691378316","0.4387762265707752","0","","","","","","","","",""
"","html-keyboard-response","204","582559","0.0-110.0-1.0","""event"",""trial"",""time""
""fullscreenenter"",""0"",""3893""
","
","
","""event"",""trial"",""time""
""fullscreenenter"",""0"",""3893""
","
","null","<p></p>","null","","","","","","","","","","","","","","","","","","","","","","","",""
"","do_trial","205","587046","0.0-111.0-0.0","""event"",""trial"",""time""
""fullscreenenter"",""0"",""3893""
","
","
","""event"",""trial"",""time""
""fullscreenenter"",""0"",""3893""
","
","1936","","","","","","","","51","1,1,0","6","blank","322","null","0.8576780800816343","0.31256794077053146","0.28136910167965284","0","","","","","","","","",""
"","html-keyboard-response","206","588052","0.0-111.0-1.0","""event"",""trial"",""time""
""fullscreenenter"",""0"",""3893""
","
","
","""event"",""trial"",""time""
""fullscreenenter"",""0"",""3893""
","
","null","<p></p>","null","","","","","","","","","","","","","","","","","","","","","","","",""
"","do_recog","207","590731","0.0-112.0-0.0","""event"",""trial"",""time""
""fullscreenenter"",""0"",""3893""
","
","
","""event"",""trial"",""time""
""fullscreenenter"",""0"",""3893""
","
","1159.199999988079","","","","","","","","54","","","","323","probe-85","","","","","1","[object Object]","71","1","1","","","",""
"","html-keyboard-response","208","591741","0.0-112.0-1.0","""event"",""trial"",""time""
""fullscreenenter"",""0"",""3893""
","
","
","""event"",""trial"",""time""
""fullscreenenter"",""0"",""3893""
","
","null","<p></p>","null","","","","","","","","","","","","","","","","","","","","","","","",""
"","do_trial","209","594680","0.0-113.0-0.0","""event"",""trial"",""time""
""fullscreenenter"",""0"",""3893""
","
","
","""event"",""trial"",""time""
""fullscreenenter"",""0"",""3893""
","
","394.19999998807907","","","","","","","","50","1,0,1","6","blank","324","null","0.6742362272842911","0.2586625688240932","0.353912384451359","0","","","","","","","","",""
"","html-keyboard-response","210","595692","0.0-113.0-1.0","""event"",""trial"",""time""
""fullscreenenter"",""0"",""3893""
","
","
","""event"",""trial"",""time""
""fullscreenenter"",""0"",""3893""
","
","null","<p></p>","null","","","","","","","","","","","","","","","","","","","","","","","",""
"","do_recog","211","598396","0.0-114.0-0.0","""event"",""trial"",""time""
""fullscreenenter"",""0"",""3893""
","
","
","""event"",""trial"",""time""
""fullscreenenter"",""0"",""3893""
","
","1178.3999999761581","","","","","","","","55","","","","325","probe-220","","","","","1","[object Object]","195","4","0","","","",""
"","html-keyboard-response","212","599412","0.0-114.0-1.0","""event"",""trial"",""time""
""fullscreenenter"",""0"",""3893""
","
","
","""event"",""trial"",""time""
""fullscreenenter"",""0"",""3893""
","
","null","<p></p>","null","","","","","","","","","","","","","","","","","","","","","","","",""
"","do_trial","213","602831","0.0-115.0-0.0","""event"",""trial"",""time""
""fullscreenenter"",""0"",""3893""
","
","
","""event"",""trial"",""time""
""fullscreenenter"",""0"",""3893""
","
","881.1999999880791","","","","","","","","50","1,0,0","6","blank","326","null","0.5329063839217244","0.21329256968506743","0.3594170585216096","0","","","","","","","","",""
"","html-keyboard-response","214","603832","0.0-115.0-1.0","""event"",""trial"",""time""
""fullscreenenter"",""0"",""3893""
","
","
","""event"",""trial"",""time""
""fullscreenenter"",""0"",""3893""
","
","null","<p></p>","null","","","","","","","","","","","","","","","","","","","","","","","",""
"","do_trial","215","606917","0.0-116.0-0.0","""event"",""trial"",""time""
""fullscreenenter"",""0"",""3893""
","
","
","""event"",""trial"",""time""
""fullscreenenter"",""0"",""3893""
","
","545.1999999880791","","","","","","","","51","0,0,1","6","blank","327","null","0.4035249943052996","0.05099208986386955","0.3140104140892884","1","","","","","","","","",""
"","html-keyboard-response","216","607933","0.0-116.0-1.0","""event"",""trial"",""time""
""fullscreenenter"",""0"",""3893""
","
","
","""event"",""trial"",""time""
""fullscreenenter"",""0"",""3893""
","
","null","<p></p>","null","","","","","","","","","","","","","","","","","","","","","","","",""
"","do_trial","217","610896","0.0-117.0-0.0","""event"",""trial"",""time""
""fullscreenenter"",""0"",""3893""
","
","
","""event"",""trial"",""time""
""fullscreenenter"",""0"",""3893""
","
","426.39999997615814","","","","","","","","49","0,1,0","6","blank","328","null","0.542135093640013","0.13552698142503697","0.3485738977836268","0","","","","","","","","",""
"","html-keyboard-response","218","611905","0.0-117.0-1.0","""event"",""trial"",""time""
""fullscreenenter"",""0"",""3893""
","
","
","""event"",""trial"",""time""
""fullscreenenter"",""0"",""3893""
","
","null","<p></p>","null","","","","","","","","","","","","","","","","","","","","","","","",""
"","do_trial","219","615211","0.0-118.0-0.0","""event"",""trial"",""time""
""fullscreenenter"",""0"",""3893""
","
","
","""event"",""trial"",""time""
""fullscreenenter"",""0"",""3893""
","
","733.1000000238419","","","","","","","","51","1,0,1","6","blank","329","null","0.5275392233077202","0.12139588370863118","0.4069192552829155","1","","","","","","","","",""
"","html-keyboard-response","220","616227","0.0-118.0-1.0","""event"",""trial"",""time""
""fullscreenenter"",""0"",""3893""
","
","
","""event"",""trial"",""time""
""fullscreenenter"",""0"",""3893""
","
","null","<p></p>","null","","","","","","","","","","","","","","","","","","","","","","","",""
"","do_trial","221","619315","0.0-119.0-0.0","""event"",""trial"",""time""
""fullscreenenter"",""0"",""3893""
","
","
","""event"",""trial"",""time""
""fullscreenenter"",""0"",""3893""
","
","547.3000000119209","","","","","","","","50","1,0,1","6","blank","330","null","0.6401317739556494","0.15599507427347434","0.31749845242442726","0","","","","","","","","",""
"","html-keyboard-response","222","620327","0.0-119.0-1.0","""event"",""trial"",""time""
""fullscreenenter"",""0"",""3893""
","
","
","""event"",""trial"",""time""
""fullscreenenter"",""0"",""3893""
","
","null","<p></p>","null","","","","","","","","","","","","","","","","","","","","","","","",""
"","do_trial","223","623231","0.0-120.0-0.0","""event"",""trial"",""time""
""fullscreenenter"",""0"",""3893""
","
","
","""event"",""trial"",""time""
""fullscreenenter"",""0"",""3893""
","
","368.2999999523163","","","","","","","","51","0,0,0","6","blank","331","null","0.6081607525226997","0.1945431395836759","0.25656829305754136","0","","","","","","","","",""
"","html-keyboard-response","224","624240","0.0-120.0-1.0","""event"",""trial"",""time""
""fullscreenenter"",""0"",""3893""
","
","
","""event"",""trial"",""time""
""fullscreenenter"",""0"",""3893""
","
","null","<p></p>","null","","","","","","","","","","","","","","","","","","","","","","","",""
"","do_recog","225","626970","0.0-121.0-0.0","""event"",""trial"",""time""
""fullscreenenter"",""0"",""3893""
","
","
","""event"",""trial"",""time""
""fullscreenenter"",""0"",""3893""
","
","1210.5","","","","","","","","53","","","","332","probe-177","","","","","1","[object Object]","31","0","1","","","",""
"","html-keyboard-response","226","627978","0.0-121.0-1.0","""event"",""trial"",""time""
""fullscreenenter"",""0"",""3893""
","
","
","""event"",""trial"",""time""
""fullscreenenter"",""0"",""3893""
","
","null","<p></p>","null","","","","","","","","","","","","","","","","","","","","","","","",""
"","do_trial","227","631299","0.0-122.0-0.0","""event"",""trial"",""time""
""fullscreenenter"",""0"",""3893""
","
","
","""event"",""trial"",""time""
""fullscreenenter"",""0"",""3893""
","
","758.6999999880791","","","","","","","","49","1,0,0","6","blank","333","null","0.4995106411238709","0.13871547533584055","0.33269643637728225","1","","","","","","","","",""
"","html-keyboard-response","228","632311","0.0-122.0-1.0","""event"",""trial"",""time""
""fullscreenenter"",""0"",""3893""
","
","
","""event"",""trial"",""time""
""fullscreenenter"",""0"",""3893""
","
","null","<p></p>","null","","","","","","","","","","","","","","","","","","","","","","","",""
"","do_trial","229","636797","0.0-123.0-0.0","""event"",""trial"",""time""
""fullscreenenter"",""0"",""3893""
","
","
","""event"",""trial"",""time""
""fullscreenenter"",""0"",""3893""
","
","1942.9000000357628","","","","","","","","50","0,0,0","6","blank","334","null","0.5138306845106589","0.16157286245063407","0.4780645792646907","0","","","","","","","","",""
"","html-keyboard-response","230","637809","0.0-123.0-1.0","""event"",""trial"",""time""
""fullscreenenter"",""0"",""3893""
","
","
","""event"",""trial"",""time""
""fullscreenenter"",""0"",""3893""
","
","null","<p></p>","null","","","","","","","","","","","","","","","","","","","","","","","",""
"","do_trial","231","640886","0.0-124.0-0.0","""event"",""trial"",""time""
""fullscreenenter"",""0"",""3893""
","
","
","""event"",""trial"",""time""
""fullscreenenter"",""0"",""3893""
","
","534.0999999642372","","","","","","","","50","1,0,1","6","blank","335","null","0.5610428121465492","0.16246369750635567","0.6092146630265026","0","","","","","","","","",""
"","html-keyboard-response","232","641895","0.0-124.0-1.0","""event"",""trial"",""time""
""fullscreenenter"",""0"",""3893""
","
","
","""event"",""trial"",""time""
""fullscreenenter"",""0"",""3893""
","
","null","<p></p>","null","","","","","","","","","","","","","","","","","","","","","","","",""
"","do_trial","233","644788","0.0-125.0-0.0","""event"",""trial"",""time""
""fullscreenenter"",""0"",""3893""
","
","
","""event"",""trial"",""time""
""fullscreenenter"",""0"",""3893""
","
","349.69999998807907","","","","","","","","51","0,0,1","6","blank","336","null","0.5208746666973996","0.159765621830625","0.40918821620467277","1","","","","","","","","",""
"","html-keyboard-response","234","645793","0.0-125.0-1.0","""event"",""trial"",""time""
""fullscreenenter"",""0"",""3893""
","
","
","""event"",""trial"",""time""
""fullscreenenter"",""0"",""3893""
","
","null","<p></p>","null","","","","","","","","","","","","","","","","","","","","","","","",""
"","do_trial","235","648863","0.0-126.0-0.0","""event"",""trial"",""time""
""fullscreenenter"",""0"",""3893""
","
","
","""event"",""trial"",""time""
""fullscreenenter"",""0"",""3893""
","
","533.0999999642372","","","","","","","","49","1,0,0","6","blank","337","null","0.4983010333052038","0.07468817904773457","0.35053759407955604","1","","","","","","","","",""
"","html-keyboard-response","236","649876","0.0-126.0-1.0","""event"",""trial"",""time""
""fullscreenenter"",""0"",""3893""
","
","
","""event"",""trial"",""time""
""fullscreenenter"",""0"",""3893""
","
","null","<p></p>","null","","","","","","","","","","","","","","","","","","","","","","","",""
"","do_recog","237","652429","0.0-127.0-0.0","""event"",""trial"",""time""
""fullscreenenter"",""0"",""3893""
","
","
","""event"",""trial"",""time""
""fullscreenenter"",""0"",""3893""
","
","1038.5","","","","","","","","54","","","","338","probe-20","","","","","1","[object Object]","190","4","1","","","",""
"","html-keyboard-response","238","653442","0.0-127.0-1.0","""event"",""trial"",""time""
""fullscreenenter"",""0"",""3893""
","
","
","""event"",""trial"",""time""
""fullscreenenter"",""0"",""3893""
","
","null","<p></p>","null","","","","","","","","","","","","","","","","","","","","","","","",""
"","do_trial","239","656814","0.0-128.0-0.0","""event"",""trial"",""time""
""fullscreenenter"",""0"",""3893""
","
","
","""event"",""trial"",""time""
""fullscreenenter"",""0"",""3893""
","
","810.5","","","","","","","","50","1,0,0","6","blank","339","null","0.5249588230804373","0.15568404335897165","0.30176668286937947","0","","","","","","","","",""
"","html-keyboard-response","240","657827","0.0-128.0-1.0","""event"",""trial"",""time""
""fullscreenenter"",""0"",""3893""
","
","
","""event"",""trial"",""time""
""fullscreenenter"",""0"",""3893""
","
","null","<p></p>","null","","","","","","","","","","","","","","","","","","","","","","","",""
"","do_recog","241","660478","0.0-129.0-0.0","""event"",""trial"",""time""
""fullscreenenter"",""0"",""3893""
","
","
","""event"",""trial"",""time""
""fullscreenenter"",""0"",""3893""
","
","1129.199999988079","","","","","","","","54","","","","340","probe-178","","","","","1","[object Object]","35","0","1","","","",""
"","html-keyboard-response","242","661493","0.0-129.0-1.0","""event"",""trial"",""time""
""fullscreenenter"",""0"",""3893""
","
","
","""event"",""trial"",""time""
""fullscreenenter"",""0"",""3893""
","
","null","<p></p>","null","","","","","","","","","","","","","","","","","","","","","","","",""
"","do_trial","243","664465","0.0-130.0-0.0","""event"",""trial"",""time""
""fullscreenenter"",""0"",""3893""
","
","
","""event"",""trial"",""time""
""fullscreenenter"",""0"",""3893""
","
","423.80000001192093","","","","","","","","50","0,0,0","6","blank","341","null","0.5264178784900443","0.1245722954191435","0.2827530878568056","0","","","","","","","","",""
"","html-keyboard-response","244","665469","0.0-130.0-1.0","""event"",""trial"",""time""
""fullscreenenter"",""0"",""3893""
","
","
","""event"",""trial"",""time""
""fullscreenenter"",""0"",""3893""
","
","null","<p></p>","null","","","","","","","","","","","","","","","","","","","","","","","",""
"","do_recog","245","668018","0.0-131.0-0.0","""event"",""trial"",""time""
""fullscreenenter"",""0"",""3893""
","
","
","""event"",""trial"",""time""
""fullscreenenter"",""0"",""3893""
","
","1037.3999999761581","","","","","","","","55","","","","342","probe-242","","","","","0","[object Object]","null","null","1","","","",""
"","html-keyboard-response","246","669028","0.0-131.0-1.0","""event"",""trial"",""time""
""fullscreenenter"",""0"",""3893""
","
","
","""event"",""trial"",""time""
""fullscreenenter"",""0"",""3893""
","
","null","<p></p>","null","","","","","","","","","","","","","","","","","","","","","","","",""
"","do_trial","247","672064","0.0-132.0-0.0","""event"",""trial"",""time""
""fullscreenenter"",""0"",""3893""
","
","
","""event"",""trial"",""time""
""fullscreenenter"",""0"",""3893""
","
","488","","","","","","","","50","1,0,1","6","blank","343","null","0.3959738703515076","0.09635014380556267","0.3146199507889652","0","","","","","","","","",""
"","html-keyboard-response","248","673069","0.0-132.0-1.0","""event"",""trial"",""time""
""fullscreenenter"",""0"",""3893""
","
","
","""event"",""trial"",""time""
""fullscreenenter"",""0"",""3893""
","
","null","<p></p>","null","","","","","","","","","","","","","","","","","","","","","","","",""
"","do_recog","249","676214","0.0-133.0-0.0","""event"",""trial"",""time""
""fullscreenenter"",""0"",""3893""
","
","
","""event"",""trial"",""time""
""fullscreenenter"",""0"",""3893""
","
","1636.800000011921","","","","","","","","54","","","","344","probe-239","","","","","0","[object Object]","null","null","0","","","",""
"","html-keyboard-response","250","677225","0.0-133.0-1.0","""event"",""trial"",""time""
""fullscreenenter"",""0"",""3893""
","
","
","""event"",""trial"",""time""
""fullscreenenter"",""0"",""3893""
","
","null","<p></p>","null","","","","","","","","","","","","","","","","","","","","","","","",""
"","do_trial","251","680563","0.0-134.0-0.0","""event"",""trial"",""time""
""fullscreenenter"",""0"",""3893""
","
","
","""event"",""trial"",""time""
""fullscreenenter"",""0"",""3893""
","
","795","","","","","","","","49","0,0,0","6","blank","345","null","0.6037280661443665","0.2146701449557174","0.5090379703166529","0","","","","","","","","",""
"","html-keyboard-response","252","681573","0.0-134.0-1.0","""event"",""trial"",""time""
""fullscreenenter"",""0"",""3893""
","
","
","""event"",""trial"",""time""
""fullscreenenter"",""0"",""3893""
","
","null","<p></p>","null","","","","","","","","","","","","","","","","","","","","","","","",""
"","do_trial","253","684612","0.0-135.0-0.0","""event"",""trial"",""time""
""fullscreenenter"",""0"",""3893""
","
","
","""event"",""trial"",""time""
""fullscreenenter"",""0"",""3893""
","
","490.30000001192093","","","","","","","","50","0,1,0","6","blank","346","null","0.5447542356468832","0.11234445231377407","0.3100729689159589","1","","","","","","","","",""
"","html-keyboard-response","254","685628","0.0-135.0-1.0","""event"",""trial"",""time""
""fullscreenenter"",""0"",""3893""
","
","
","""event"",""trial"",""time""
""fullscreenenter"",""0"",""3893""
","
","null","<p></p>","null","","","","","","","","","","","","","","","","","","","","","","","",""
"","do_recog","255","688122","0.0-136.0-0.0","""event"",""trial"",""time""
""fullscreenenter"",""0"",""3893""
","
","
","""event"",""trial"",""time""
""fullscreenenter"",""0"",""3893""
","
","974.4000000357628","","","","","","","","54","","","","347","probe-156","","","","","1","[object Object]","39","0","1","","","",""
"","html-keyboard-response","256","689126","0.0-136.0-1.0","""event"",""trial"",""time""
""fullscreenenter"",""0"",""3893""
","
","
","""event"",""trial"",""time""
""fullscreenenter"",""0"",""3893""
","
","null","<p></p>","null","","","","","","","","","","","","","","","","","","","","","","","",""
"","do_trial","257","692448","0.0-137.0-0.0","""event"",""trial"",""time""
""fullscreenenter"",""0"",""3893""
","
","
","""event"",""trial"",""time""
""fullscreenenter"",""0"",""3893""
","
","782.3999999761581","","","","","","","","49","1,0,0","6","blank","348","null","0.5310499573150306","0.06916370908731286","0.3289053946462228","1","","","","","","","","",""
"","html-keyboard-response","258","693453","0.0-137.0-1.0","""event"",""trial"",""time""
""fullscreenenter"",""0"",""3893""
","
","
","""event"",""trial"",""time""
""fullscreenenter"",""0"",""3893""
","
","null","<p></p>","null","","","","","","","","","","","","","","","","","","","","","","","",""
"","break","259","694858","0.0-138.0-0.0","""event"",""trial"",""time""
""fullscreenenter"",""0"",""3893""
","
","
","""event"",""trial"",""time""
""fullscreenenter"",""0"",""3893""
","
","1402.699999988079","<div class='center'><p>Time to take a quick break! You have 2 minutes to rest, but you can move on sooner if you'd like.</p><p> Press the <b>space bar</b> to continue.</p></div>","32","","","","","","","","","","","","","","","","","","","","","","","",""
"","do_trial","260","698248","0.0-138.0-1.0","""event"",""trial"",""time""
""fullscreenenter"",""0"",""3893""
","
","
","""event"",""trial"",""time""
""fullscreenenter"",""0"",""3893""
","
","852.6000000238419","","","","","","","","51","1,0,0","6","blank","349","null","0.49271279033907145","0.19124289643135284","0.5142064947981381","0","","","","","","","","",""
"","html-keyboard-response","261","699253","0.0-138.0-2.0","""event"",""trial"",""time""
""fullscreenenter"",""0"",""3893""
","
","
","""event"",""trial"",""time""
""fullscreenenter"",""0"",""3893""
","
","null","<p></p>","null","","","","","","","","","","","","","","","","","","","","","","","",""
"","do_trial","262","702848","0.0-139.0-0.0","""event"",""trial"",""time""
""fullscreenenter"",""0"",""3893""
","
","
","""event"",""trial"",""time""
""fullscreenenter"",""0"",""3893""
","
","1046.7999999523163","","","","","","","","49","0,0,1","6","blank","350","null","0.46302391819948907","0.22296237431511157","0.6284147338728852","0","","","","","","","","",""
"","html-keyboard-response","263","703858","0.0-139.0-1.0","""event"",""trial"",""time""
""fullscreenenter"",""0"",""3893""
","
","
","""event"",""trial"",""time""
""fullscreenenter"",""0"",""3893""
","
","null","<p></p>","null","","","","","","","","","","","","","","","","","","","","","","","",""
"","do_recog","264","706503","0.0-140.0-0.0","""event"",""trial"",""time""
""fullscreenenter"",""0"",""3893""
","
","
","""event"",""trial"",""time""
""fullscreenenter"",""0"",""3893""
","
","1129","","","","","","","","55","","","","351","probe-82","","","","","1","[object Object]","79","1","0","","","",""
"","html-keyboard-response","265","707512","0.0-140.0-1.0","""event"",""trial"",""time""
""fullscreenenter"",""0"",""3893""
","
","
","""event"",""trial"",""time""
""fullscreenenter"",""0"",""3893""
","
","null","<p></p>","null","","","","","","","","","","","","","","","","","","","","","","","",""
"","do_trial","266","710497","0.0-141.0-0.0","""event"",""trial"",""time""
""fullscreenenter"",""0"",""3893""
","
","
","""event"",""trial"",""time""
""fullscreenenter"",""0"",""3893""
","
","443.69999998807907","","","","","","","","50","1,0,1","6","blank","352","null","0.3433665158686762","0.42775453799949703","0.6062689755995468","0","","","","","","","","",""
"","html-keyboard-response","267","711504","0.0-141.0-1.0","""event"",""trial"",""time""
""fullscreenenter"",""0"",""3893""
","
","
","""event"",""trial"",""time""
""fullscreenenter"",""0"",""3893""
","
","null","<p></p>","null","","","","","","","","","","","","","","","","","","","","","","","",""
"","do_trial","268","714560","0.0-142.0-0.0","""event"",""trial"",""time""
""fullscreenenter"",""0"",""3893""
","
","
","""event"",""trial"",""time""
""fullscreenenter"",""0"",""3893""
","
","496.30000001192093","","","","","","","","50","0,1,1","6","blank","353","null","0.23533215496894916","0.3457743502927403","0.562968732530674","1","","","","","","","","",""
"","html-keyboard-response","269","715562","0.0-142.0-1.0","""event"",""trial"",""time""
""fullscreenenter"",""0"",""3893""
","
","
","""event"",""trial"",""time""
""fullscreenenter"",""0"",""3893""
","
","null","<p></p>","null","","","","","","","","","","","","","","","","","","","","","","","",""
"","do_trial","270","719263","0.0-143.0-0.0","""event"",""trial"",""time""
""fullscreenenter"",""0"",""3893""
","
","
","""event"",""trial"",""time""
""fullscreenenter"",""0"",""3893""
","
","1155.3999999761581","","","","","","","","50","0,0,1","6","blank","354","null","0.3143173459116315","0.22564321241292348","0.6694776670438243","0","","","","","","","","",""
"","html-keyboard-response","271","720275","0.0-143.0-1.0","""event"",""trial"",""time""
""fullscreenenter"",""0"",""3893""
","
","
","""event"",""trial"",""time""
""fullscreenenter"",""0"",""3893""
","
","null","<p></p>","null","","","","","","","","","","","","","","","","","","","","","","","",""
"","do_trial","272","723383","0.0-144.0-0.0","""event"",""trial"",""time""
""fullscreenenter"",""0"",""3893""
","
","
","""event"",""trial"",""time""
""fullscreenenter"",""0"",""3893""
","
","569","","","","","","","","50","0,0,0","6","blank","355","null","0.1481246590582647","0.10743215410794221","0.5524259060627796","0","","","","","","","","",""
"","html-keyboard-response","273","724400","0.0-144.0-1.0","""event"",""trial"",""time""
""fullscreenenter"",""0"",""3893""
","
","
","""event"",""trial"",""time""
""fullscreenenter"",""0"",""3893""
","
","null","<p></p>","null","","","","","","","","","","","","","","","","","","","","","","","",""
"","do_trial","274","727578","0.0-145.0-0.0","""event"",""trial"",""time""
""fullscreenenter"",""0"",""3893""
","
","
","""event"",""trial"",""time""
""fullscreenenter"",""0"",""3893""
","
","628.8000000119209","","","","","","","","50","0,0,0","6","blank","356","null","0.06579471150897181","0.14553332454466966","0.5707743715696308","0","","","","","","","","",""
"","html-keyboard-response","275","728594","0.0-145.0-1.0","""event"",""trial"",""time""
""fullscreenenter"",""0"",""3893""
","
","
","""event"",""trial"",""time""
""fullscreenenter"",""0"",""3893""
","
","null","<p></p>","null","","","","","","","","","","","","","","","","","","","","","","","",""
"","do_recog","276","732379","0.0-146.0-0.0","""event"",""trial"",""time""
""fullscreenenter"",""0"",""3893""
","
","
","""event"",""trial"",""time""
""fullscreenenter"",""0"",""3893""
","
","2273.300000011921","","","","","","","","55","","","","357","probe-100","","","","","1","[object Object]","118","2","0","","","",""
"","html-keyboard-response","277","733391","0.0-146.0-1.0","""event"",""trial"",""time""
""fullscreenenter"",""0"",""3893""
","
","
","""event"",""trial"",""time""
""fullscreenenter"",""0"",""3893""
","
","null","<p></p>","null","","","","","","","","","","","","","","","","","","","","","","","",""
"","do_trial","278","737698","0.0-147.0-0.0","""event"",""trial"",""time""
