"success","trial_type","trial_index","time_elapsed","internal_node_id","interactions","blur_events","focus_events","fullscreenenter_events","fullscreenexit_events","rt","stimulus","key_press","subject_id","participant_id","age","gender","prompt","response","choice_outcomes","context_n","context_img_id","trial_n","probe_img_id","pR_red","pR_white","pR_black","outcome","is_valid","image_to_show","probed_trial","probed_context","correct","probe","probed_trial_n","probed_context_n","context_im"
"true","fullscreen","0","11168","0.0-0.0","""event"",""trial"",""time""
""fullscreenenter"",""0"",""10193""
","
","
","""event"",""trial"",""time""
""fullscreenenter"",""0"",""10193""
","
","","","","","","","","","","","","","","","","","","","","","","","","","","",""
"","pavlovia","1","11175","0.0-1.0","""event"",""trial"",""time""
""fullscreenenter"",""0"",""10193""
","
","
","""event"",""trial"",""time""
""fullscreenenter"",""0"",""10193""
","
","","","","","","","","","","","","","","","","","","","","","","","","","","",""
"","welc_back","2","20979","0.0-2.0","""event"",""trial"",""time""
""fullscreenenter"",""0"",""10193""
","
","
","""event"",""trial"",""time""
""fullscreenenter"",""0"",""10193""
","
","null","run_exp/static/audio/clip_29_welcome_back.m4a","null","421","332","9","Male","<div class='center'><p>Welcome to day 2!</p><p> Yesterday, you were the head captain of a pirate ship. You asked your fellow pirates to rob other ships of their gold across six different islands.</p></div>","","","","","","","","","","","","","","","","","","",""
"","html-keyboard-response","3","22301","0.0-3.0","""event"",""trial"",""time""
""fullscreenenter"",""0"",""10193""
","
","
","""event"",""trial"",""time""
""fullscreenenter"",""0"",""10193""
","
","1321.5","<div class='center'><p>Welcome to day 2!</p><p> Yesterday, you were the head captain of a pirate ship. You asked your fellow pirates to rob other ships of their gold across six different islands.</p><p><b>[Press the space bar to continue]</b></p></div>","32","","","","","","","","","","","","","","","","","","","","","","","",""
"","day_1_summary_goal","4","39479","0.0-4.0","""event"",""trial"",""time""
""fullscreenenter"",""0"",""10193""
","
","
","""event"",""trial"",""time""
""fullscreenenter"",""0"",""10193""
","
","null","run_exp/static/audio/clip_30_goal_of_game.m4a","null","","","","","<div class='center'><p>Today, like yesterday, you get to pick which pirate you want to rob the next ship.</p><p>If the pirate is successful in robbing a ship, you get gold coins that look like this: </p><p><img src='run_exp/static/images/tutorial/reward.png' height='150'></p><p> If they were not successful in robbing the ship, then you will get no gold coins and you'll see a big red x like this: </p><p><img src='run_exp/static/images/tutorial/reward_no.png' height='150'></p></div>","","","","","","","","","","","","","","","","","","",""
"","html-keyboard-response","5","40165","0.0-5.0","""event"",""trial"",""time""
""fullscreenenter"",""0"",""10193""
","
","
","""event"",""trial"",""time""
""fullscreenenter"",""0"",""10193""
","
","684.6999999880791","<div class='center'><p>Today, like yesterday, you get to pick which pirate you want to rob the next ship.</p><p>If the pirate is successful in robbing a ship, you get gold coins that look like this: </p><p><img src='run_exp/static/images/tutorial/reward.png' height='150'></p><p> If they were not successful in robbing the ship, then you will get no gold coins and you'll see a big red x like this: </p><p><img src='run_exp/static/images/tutorial/reward_no.png' height='150'></p><p><b>[Press the space bar to continue]</b></p></div>","32","","","","","","","","","","","","","","","","","","","","","","","",""
"","day_1_summary_pick","6","54839","0.0-6.0","""event"",""trial"",""time""
""fullscreenenter"",""0"",""10193""
","
","
","""event"",""trial"",""time""
""fullscreenenter"",""0"",""10193""
","
","null","run_exp/static/audio/clip_31_how_to_pick_a_pirate.m4a","null","","","","","<div class='center'><p>Also, just like yesterday, you will use the 1,2,3 keys on your keyboard to pick a pirate. Press '1' to choose red beard, '2' to choose white beard, and '3' to choose black beard . You only have 3 seconds to pick a pirate, so please make a choice quickly!</p></div>","","","","","","","","","","","","","","","","","","",""
"","html-keyboard-response","7","57349","0.0-7.0","""event"",""trial"",""time""
""fullscreenenter"",""0"",""10193""
","
","
","""event"",""trial"",""time""
""fullscreenenter"",""0"",""10193""
","
","2509.5","<div class='center'><p>Also, just like yesterday, you will use the 1,2,3 keys on your keyboard to pick a pirate. Press '1' to choose red beard, '2' to choose white beard, and '3' to choose black beard . You only have 3 seconds to pick a pirate, so please make a choice quickly!</p><p><b>[Press the space bar to continue]</b></p></div>","32","","","","","","","","","","","","","","","","","","","","","","","",""
"","test_phase_begin","8","87739","0.0-8.0","""event"",""trial"",""time""
""fullscreenenter"",""0"",""10193""
","
","
","""event"",""trial"",""time""
""fullscreenenter"",""0"",""10193""
","
","null","run_exp/static/audio/clip_32_final_place.m4a","null","","","","","<div class='center'><p>You’ve arrived at the final island of your journey! Unfortunately, it’s very foggy out, so you won’t be able to see it in the distance like the other islands you've visited.</p><p>You’ll still be deciding which pirate you want to rob a ship like before. However, because of the fog, you also won’t be able to see the ship.</p><p>This means you do not have to remember the ships you rob on this island.</p><p>Unlike yesterday, you won't be visiting multiple islands today. You will stay on this island for the entire game. This game will last ~30 minutes.</p></div>","","","","","","","","","","","","","","","","","","",""
"","html-keyboard-response","9","88293","0.0-9.0","""event"",""trial"",""time""
""fullscreenenter"",""0"",""10193""
","
","
","""event"",""trial"",""time""
""fullscreenenter"",""0"",""10193""
","
","553","<div class='center'><p>You’ve arrived at the final island of your journey! Unfortunately, it’s very foggy out, so you won’t be able to see it in the distance like the other islands you've visited.</p><p>You’ll still be deciding which pirate you want to rob a ship like before. However, because of the fog, you also won’t be able to see the ship.</p><p>This means you do not have to remember the ships you rob on this island.</p><p>Unlike yesterday, you won't be visiting multiple islands today. You will stay on this island for the entire game. This game will last ~30 minutes.</p><p><b>[Press the space bar to continue]</b></p></div>","32","","","","","","","","","","","","","","","","","","","","","","","",""
"","explain_probe_1","10","95999","0.0-10.0","""event"",""trial"",""time""
""fullscreenenter"",""0"",""10193""
","
","
","""event"",""trial"",""time""
""fullscreenenter"",""0"",""10193""
","
","null","run_exp/static/audio/clip_33_recognition_1.m4a","null","","","","","<div class='center'><p> Sometimes you’ll be shown a ship, and you will be asked if you saw this ship on a past island.</p><p> Here is an example of what you will see.</p><p><img src='run_exp/static/images/tutorial/example_recog_trial.png' height='500'></p></div>","","","","","","","","","","","","","","","","","","",""
"","html-keyboard-response","11","96693","0.0-11.0","""event"",""trial"",""time""
""fullscreenenter"",""0"",""10193""
","
","
","""event"",""trial"",""time""
""fullscreenenter"",""0"",""10193""
","
","692.9000000059605","<div class='center'><p> Sometimes you’ll be shown a ship, and you will be asked if you saw this ship on a past island.</p><p> Here is an example of what you will see.</p><p><img src='run_exp/static/images/tutorial/example_recog_trial.png' height='500'></p><p><b>[Press the space bar to continue]</b></p></div>","32","","","","","","","","","","","","","","","","","","","","","","","",""
"","explain_probe_2","12","118399","0.0-12.0","""event"",""trial"",""time""
""fullscreenenter"",""0"",""10193""
","
","
","""event"",""trial"",""time""
""fullscreenenter"",""0"",""10193""
","
","null","run_exp/static/audio/clip_34_recognition_2.m4a","null","","","","","<div class='center'><p> You will press the 5, 6, 7, 8 keys on your keyboard to respond.</p><p>If you are sure you saw the ship, press <b>5</b> on your keyboard.</p><p> If you think you saw it before but aren't sure, then press <b>6</b>.</p><p> If you think you have <b>not</b> seen it before but aren't sure, then press <b>7</b>.</p><p> If you are sure you did <b>not</b> see the ship before, then press <b>8</b>.</p><p><img src='run_exp/static/images/tutorial/example_recog_trial.png' height='500'></p></div>","","","","","","","","","","","","","","","","","","",""
"","html-keyboard-response","13","118966","0.0-13.0","""event"",""trial"",""time""
""fullscreenenter"",""0"",""10193""
","
","
","""event"",""trial"",""time""
""fullscreenenter"",""0"",""10193""
","
","565.7999999821186","<div class='center'><p> You will press the 5, 6, 7, 8 keys on your keyboard to respond.</p><p>If you are sure you saw the ship, press <b>5</b> on your keyboard.</p><p> If you think you saw it before but aren't sure, then press <b>6</b>.</p><p> If you think you have <b>not</b> seen it before but aren't sure, then press <b>7</b>.</p><p> If you are sure you did <b>not</b> see the ship before, then press <b>8</b>.</p><p><img src='run_exp/static/images/tutorial/example_recog_trial.png' height='500'></p><p><b>[Press the space bar to continue]</b></p></div>","32","","","","","","","","","","","","","","","","","","","","","","","",""
"","explain_outcome","14","136140","0.0-14.0","""event"",""trial"",""time""
""fullscreenenter"",""0"",""10193""
","
","
","""event"",""trial"",""time""
""fullscreenenter"",""0"",""10193""
","
","null","run_exp/static/audio/clip_35_recognition_3.m4a","null","","","","","<div class='center'><p> If you remember correctly, then you’ll get a gold coin like this: </p><p><img src='run_exp/static/images/tutorial/reward_small.png' height='200'></p><p>If you do not remember correctly, then you'll see a red x like this: </p><p><img src='run_exp/static/images/tutorial/reward_no.png' height='200'></p><p>Importantly, when you are shown a ship, take the time to remind yourself which island you saw it on. This will help you in the next part of the study.</p></div>","","","","","","","","","","","","","","","","","","",""
"","html-keyboard-response","15","136550","0.0-15.0","""event"",""trial"",""time""
""fullscreenenter"",""0"",""10193""
","
","
","""event"",""trial"",""time""
""fullscreenenter"",""0"",""10193""
","
","409","<div class='center'><p> If you remember correctly, then you’ll get a gold coin like this: </p><p><img src='run_exp/static/images/tutorial/reward_small.png' height='200'></p><p>If you do not remember correctly, then you'll see a red x like this: </p><p><img src='run_exp/static/images/tutorial/reward_no.png' height='200'></p><p>Importantly, when you are shown a ship, take the time to remind yourself which island you saw it on. This will help you in the next part of the study.</p><p><b>[Press the space bar to continue]</b></p></div>","32","","","","","","","","","","","","","","","","","","","","","","","",""
"","begin_test_phase","16","152360","0.0-16.0","""event"",""trial"",""time""
""fullscreenenter"",""0"",""10193""
","
","
","""event"",""trial"",""time""
""fullscreenenter"",""0"",""10193""
","
","null","run_exp/static/audio/clip_36_begin_final.m4a","null","","","","","<div class='center'><p>Let's go over the important points again. Your job is to: </p><p>1. Pick the pirate who is best at robbing ships and will bring you back gold coins. </p><p>2. Correctly remember whether or not you saw a ship before. If you did see the ship before, remind yourself on which island you saw it. </p></div>","","","","","","","","","","","","","","","","","","",""
"","html-keyboard-response","17","153015","0.0-17.0","""event"",""trial"",""time""
""fullscreenenter"",""0"",""10193""
","
","
","""event"",""trial"",""time""
""fullscreenenter"",""0"",""10193""
","
","614.5","<div class='center'><p>Let's go over the important points again. Your job is to: </p><p>1. Pick the pirate who is best at robbing ships and will bring you back gold coins. </p><p>2. Correctly remember whether or not you saw a ship before. If you did see the ship before, remind yourself on which island you saw it. </p><p><b>[Press the space bar to continue]</b></p></div>","32","","","","","","","","","","","","","","","","","","","","","","","",""
"","do_welcome","18","157033","0.0-18.0","""event"",""trial"",""time""
""fullscreenenter"",""0"",""10193""
","
","
","""event"",""trial"",""time""
""fullscreenenter"",""0"",""10193""
","
","null","","","","","","","","null","","","","","","","","","","","","","","","","","",""
"","do_trial","19","163078","0.0-19.0-0.0","""event"",""trial"",""time""
""fullscreenenter"",""0"",""10193""
","
","
","""event"",""trial"",""time""
""fullscreenenter"",""0"",""10193""
","
","null","","","","","","","","null","0,0,0","6","blank","230","null","0.507115944157527","0.09785513834981345","0.40406717822498067","","","","","","","","","",""
"","html-keyboard-response","20","164083","0.0-19.0-1.0","""event"",""trial"",""time""
""fullscreenenter"",""0"",""10193""
","
","
","""event"",""trial"",""time""
""fullscreenenter"",""0"",""10193""
","
","null","<p></p>","null","","","","","","","","","","","","","","","","","","","","","","","",""
"","do_trial","21","167639","0.0-20.0-0.0","""event"",""trial"",""time""
""fullscreenenter"",""0"",""10193""
","
","
","""event"",""trial"",""time""
""fullscreenenter"",""0"",""10193""
","
","1000.4000000059605","","","","","","","","49","1,0,0","6","blank","231","null","0.5616837356414097","0.1749541135932931","0.26937925057703654","1","","","","","","","","",""
"","html-keyboard-response","22","168653","0.0-20.0-1.0","""event"",""trial"",""time""
""fullscreenenter"",""0"",""10193""
","
","
","""event"",""trial"",""time""
""fullscreenenter"",""0"",""10193""
","
","null","<p></p>","null","","","","","","","","","","","","","","","","","","","","","","","",""
"","do_trial","23","171486","0.0-21.0-0.0","""event"",""trial"",""time""
""fullscreenenter"",""0"",""10193""
","
","
","""event"",""trial"",""time""
""fullscreenenter"",""0"",""10193""
","
","287","","","","","","","","50","0,0,0","6","blank","232","null","0.3577943280536788","0.07799241464966054","0.3013605570288156","0","","","","","","","","",""
"","html-keyboard-response","24","172492","0.0-21.0-1.0","""event"",""trial"",""time""
""fullscreenenter"",""0"",""10193""
","
","
","""event"",""trial"",""time""
""fullscreenenter"",""0"",""10193""
","
","null","<p></p>","null","","","","","","","","","","","","","","","","","","","","","","","",""
"","do_trial","25","175414","0.0-22.0-0.0","""event"",""trial"",""time""
""fullscreenenter"",""0"",""10193""
","
","
","""event"",""trial"",""time""
""fullscreenenter"",""0"",""10193""
","
","358","","","","","","","","51","1,0,0","6","blank","233","null","0.37944171343408684","0.16326508381387506","0.17738179224042655","0","","","","","","","","",""
"","html-keyboard-response","26","176429","0.0-22.0-1.0","""event"",""trial"",""time""
""fullscreenenter"",""0"",""10193""
","
","
","""event"",""trial"",""time""
""fullscreenenter"",""0"",""10193""
","
","null","<p></p>","null","","","","","","","","","","","","","","","","","","","","","","","",""
"","do_trial","27","179471","0.0-23.0-0.0","""event"",""trial"",""time""
""fullscreenenter"",""0"",""10193""
","
","
","""event"",""trial"",""time""
""fullscreenenter"",""0"",""10193""
","
","495","","","","","","","","49","0,1,0","6","blank","234","null","0.4470536488743602","0.31215653645232044","0.2027398213015448","0","","","","","","","","",""
"","html-keyboard-response","28","180483","0.0-23.0-1.0","""event"",""trial"",""time""
""fullscreenenter"",""0"",""10193""
","
","
","""event"",""trial"",""time""
""fullscreenenter"",""0"",""10193""
","
","null","<p></p>","null","","","","","","","","","","","","","","","","","","","","","","","",""
"","do_trial","29","183368","0.0-24.0-0.0","""event"",""trial"",""time""
""fullscreenenter"",""0"",""10193""
","
","
","""event"",""trial"",""time""
""fullscreenenter"",""0"",""10193""
","
","336.69999998807907","","","","","","","","50","0,0,0","6","blank","235","null","0.5853072143622459","0.3136655814023407","0.21834510623189457","0","","","","","","","","",""
"","html-keyboard-response","30","184380","0.0-24.0-1.0","""event"",""trial"",""time""
""fullscreenenter"",""0"",""10193""
","
","
","""event"",""trial"",""time""
""fullscreenenter"",""0"",""10193""
","
","null","<p></p>","null","","","","","","","","","","","","","","","","","","","","","","","",""
"","do_trial","31","187175","0.0-25.0-0.0","""event"",""trial"",""time""
""fullscreenenter"",""0"",""10193""
","
","
","""event"",""trial"",""time""
""fullscreenenter"",""0"",""10193""
","
","253.59999999403954","","","","","","","","50","1,1,0","6","blank","236","null","0.6065778179248661","0.1528891699818472","0.30822388118111066","1","","","","","","","","",""
"","html-keyboard-response","32","188189","0.0-25.0-1.0","""event"",""trial"",""time""
""fullscreenenter"",""0"",""10193""
","
","
","""event"",""trial"",""time""
""fullscreenenter"",""0"",""10193""
","
","null","<p></p>","null","","","","","","","","","","","","","","","","","","","","","","","",""
"","do_trial","33","190946","0.0-26.0-0.0","""event"",""trial"",""time""
""fullscreenenter"",""0"",""10193""
","
","
","""event"",""trial"",""time""
""fullscreenenter"",""0"",""10193""
","
","215.40000000596046","","","","","","","","50","1,0,1","6","blank","237","null","0.7234051043070306","0.0605283324064945","0.3099895298385823","0","","","","","","","","",""
"","html-keyboard-response","34","191956","0.0-26.0-1.0","""event"",""trial"",""time""
""fullscreenenter"",""0"",""10193""
","
","
","""event"",""trial"",""time""
""fullscreenenter"",""0"",""10193""
","
","null","<p></p>","null","","","","","","","","","","","","","","","","","","","","","","","",""
"","do_trial","35","194748","0.0-27.0-0.0","""event"",""trial"",""time""
""fullscreenenter"",""0"",""10193""
","
","
","""event"",""trial"",""time""
""fullscreenenter"",""0"",""10193""
","
","247.7999999821186","","","","","","","","51","1,0,0","6","blank","238","null","0.8117599842483262","0.13950067955320633","0.4398113711868056","0","","","","","","","","",""
"","html-keyboard-response","36","195764","0.0-27.0-1.0","""event"",""trial"",""time""
""fullscreenenter"",""0"",""10193""
","
","
","""event"",""trial"",""time""
""fullscreenenter"",""0"",""10193""
","
","null","<p></p>","null","","","","","","","","","","","","","","","","","","","","","","","",""
"","do_trial","37","198539","0.0-28.0-0.0","""event"",""trial"",""time""
""fullscreenenter"",""0"",""10193""
","
","
","""event"",""trial"",""time""
""fullscreenenter"",""0"",""10193""
","
","232.39999997615814","","","","","","","","51","1,0,1","6","blank","239","null","0.7447155959408177","0.18184016552599722","0.4391635828340447","1","","","","","","","","",""
"","html-keyboard-response","38","199554","0.0-28.0-1.0","""event"",""trial"",""time""
""fullscreenenter"",""0"",""10193""
","
","
","""event"",""trial"",""time""
""fullscreenenter"",""0"",""10193""
","
","null","<p></p>","null","","","","","","","","","","","","","","","","","","","","","","","",""
"","do_trial","39","202357","0.0-29.0-0.0","""event"",""trial"",""time""
""fullscreenenter"",""0"",""10193""
","
","
","""event"",""trial"",""time""
""fullscreenenter"",""0"",""10193""
","
","261.90000000596046","","","","","","","","51","1,0,1","6","blank","240","null","0.6324665263323539","0.2024181059632695","0.41660902100078423","1","","","","","","","","",""
"","html-keyboard-response","40","203372","0.0-29.0-1.0","""event"",""trial"",""time""
""fullscreenenter"",""0"",""10193""
","
","
","""event"",""trial"",""time""
""fullscreenenter"",""0"",""10193""
","
","null","<p></p>","null","","","","","","","","","","","","","","","","","","","","","","","",""
"","do_trial","41","206138","0.0-30.0-0.0","""event"",""trial"",""time""
""fullscreenenter"",""0"",""10193""
","
","
","""event"",""trial"",""time""
""fullscreenenter"",""0"",""10193""
","
","212.90000000596046","","","","","","","","51","1,0,0","6","blank","241","null","0.6875903979999692","0.06514253234040565","0.34479776602472156","0","","","","","","","","",""
"","html-keyboard-response","42","207146","0.0-30.0-1.0","""event"",""trial"",""time""
""fullscreenenter"",""0"",""10193""
","
","
","""event"",""trial"",""time""
""fullscreenenter"",""0"",""10193""
","
","null","<p></p>","null","","","","","","","","","","","","","","","","","","","","","","","",""
"","do_trial","43","209959","0.0-31.0-0.0","""event"",""trial"",""time""
""fullscreenenter"",""0"",""10193""
","
","
","""event"",""trial"",""time""
""fullscreenenter"",""0"",""10193""
","
","260.09999999403954","","","","","","","","51","1,0,0","6","blank","242","null","0.3971547416488037","0.18609163376331714","0.4129254251089477","0","","","","","","","","",""
"","html-keyboard-response","44","210976","0.0-31.0-1.0","""event"",""trial"",""time""
""fullscreenenter"",""0"",""10193""
","
","
","""event"",""trial"",""time""
""fullscreenenter"",""0"",""10193""
","
","null","<p></p>","null","","","","","","","","","","","","","","","","","","","","","","","",""
"","do_trial","45","213779","0.0-32.0-0.0","""event"",""trial"",""time""
""fullscreenenter"",""0"",""10193""
","
","
","""event"",""trial"",""time""
""fullscreenenter"",""0"",""10193""
","
","248.5","","","","","","","","49","0,1,1","6","blank","243","null","0.25840660212643873","0.2354069821304206","0.5832951064433124","0","","","","","","","","",""
"","html-keyboard-response","46","214791","0.0-32.0-1.0","""event"",""trial"",""time""
""fullscreenenter"",""0"",""10193""
","
","
","""event"",""trial"",""time""
""fullscreenenter"",""0"",""10193""
","
","null","<p></p>","null","","","","","","","","","","","","","","","","","","","","","","","",""
"","do_trial","47","217581","0.0-33.0-0.0","""event"",""trial"",""time""
""fullscreenenter"",""0"",""10193""
","
","
","""event"",""trial"",""time""
""fullscreenenter"",""0"",""10193""
","
","253.69999998807907","","","","","","","","51","0,1,1","6","blank","244","null","0.23515844178974102","0.1149318168949197","0.561184876163495","1","","","","","","","","",""
"","html-keyboard-response","48","218595","0.0-33.0-1.0","""event"",""trial"",""time""
""fullscreenenter"",""0"",""10193""
","
","
","""event"",""trial"",""time""
""fullscreenenter"",""0"",""10193""
","
","null","<p></p>","null","","","","","","","","","","","","","","","","","","","","","","","",""
"","do_recog","49","224620","0.0-34.0-0.0","""event"",""trial"",""time""
""fullscreenenter"",""0"",""10193""
","
","
","""event"",""trial"",""time""
""fullscreenenter"",""0"",""10193""
","
","null","","","","","","","","null","","","","245","probe-171","","","","","1","[object Object]","117","2","0","","","",""
"","html-keyboard-response","50","225630","0.0-34.0-1.0","""event"",""trial"",""time""
""fullscreenenter"",""0"",""10193""
","
","
","""event"",""trial"",""time""
""fullscreenenter"",""0"",""10193""
","
","null","<p></p>","null","","","","","","","","","","","","","","","","","","","","","","","",""
"","do_trial","51","229133","0.0-35.0-0.0","""event"",""trial"",""time""
""fullscreenenter"",""0"",""10193""
","
","
","""event"",""trial"",""time""
""fullscreenenter"",""0"",""10193""
","
","967","","","","","","","","51","0,0,1","6","blank","246","null","0.3167168029363656","0.18871969462364363","0.5158745567963297","1","","","","","","","","",""
"","html-keyboard-response","52","230145","0.0-35.0-1.0","""event"",""trial"",""time""
""fullscreenenter"",""0"",""10193""
","
","
","""event"",""trial"",""time""
""fullscreenenter"",""0"",""10193""
","
","null","<p></p>","null","","","","","","","","","","","","","","","","","","","","","","","",""
"","do_recog","53","236168","0.0-36.0-0.0","""event"",""trial"",""time""
""fullscreenenter"",""0"",""10193""
","
","
","""event"",""trial"",""time""
""fullscreenenter"",""0"",""10193""
","
","null","","","","","","","","null","","","","247","probe-23","","","","","1","[object Object]","70","1","0","","","",""
"","html-keyboard-response","54","237188","0.0-36.0-1.0","""event"",""trial"",""time""
""fullscreenenter"",""0"",""10193""
","
","
","""event"",""trial"",""time""
""fullscreenenter"",""0"",""10193""
","
","null","<p></p>","null","","","","","","","","","","","","","","","","","","","","","","","",""
"","do_trial","55","240483","0.0-37.0-0.0","""event"",""trial"",""time""
""fullscreenenter"",""0"",""10193""
","
","
","""event"",""trial"",""time""
""fullscreenenter"",""0"",""10193""
","
","702.3999999761581","","","","","","","","50","0,0,1","6","blank","248","null","0.22170213388477705","0.372829455585251","0.6091569307742387","0","","","","","","","","",""
"","html-keyboard-response","56","241497","0.0-37.0-1.0","""event"",""trial"",""time""
""fullscreenenter"",""0"",""10193""
","
","
","""event"",""trial"",""time""
""fullscreenenter"",""0"",""10193""
","
","null","<p></p>","null","","","","","","","","","","","","","","","","","","","","","","","",""
"","do_recog","57","243653","0.0-38.0-0.0","""event"",""trial"",""time""
""fullscreenenter"",""0"",""10193""
","
","
","""event"",""trial"",""time""
""fullscreenenter"",""0"",""10193""
","
","643.1999999880791","","","","","","","","56","","","","249","probe-253","","","","","0","[object Object]","null","null","1","","","",""
"","html-keyboard-response","58","244666","0.0-38.0-1.0","""event"",""trial"",""time""
""fullscreenenter"",""0"",""10193""
","
","
","""event"",""trial"",""time""
""fullscreenenter"",""0"",""10193""
","
","null","<p></p>","null","","","","","","","","","","","","","","","","","","","","","","","",""
"","do_trial","59","247848","0.0-39.0-0.0","""event"",""trial"",""time""
""fullscreenenter"",""0"",""10193""
","
","
","""event"",""trial"",""time""
""fullscreenenter"",""0"",""10193""
","
","634","","","","","","","","51","0,1,0","6","blank","250","null","0.10282560579456565","0.45272293367216604","0.5243206171567563","0","","","","","","","","",""
"","html-keyboard-response","60","248859","0.0-39.0-1.0","""event"",""trial"",""time""
""fullscreenenter"",""0"",""10193""
","
","
","""event"",""trial"",""time""
""fullscreenenter"",""0"",""10193""
","
","null","<p></p>","null","","","","","","","","","","","","","","","","","","","","","","","",""
"","do_trial","61","251717","0.0-40.0-0.0","""event"",""trial"",""time""
""fullscreenenter"",""0"",""10193""
","
","
","""event"",""trial"",""time""
""fullscreenenter"",""0"",""10193""
","
","316.19999998807907","","","","","","","","50","0,0,1","6","blank","251","null","0.11766872711387709","0.2569726358053652","0.5278615202695202","0","","","","","","","","",""
"","html-keyboard-response","62","252731","0.0-40.0-1.0","""event"",""trial"",""time""
""fullscreenenter"",""0"",""10193""
","
","
","""event"",""trial"",""time""
""fullscreenenter"",""0"",""10193""
","
","null","<p></p>","null","","","","","","","","","","","","","","","","","","","","","","","",""
"","do_trial","63","255611","0.0-41.0-0.0","""event"",""trial"",""time""
""fullscreenenter"",""0"",""10193""
","
","
","""event"",""trial"",""time""
""fullscreenenter"",""0"",""10193""
","
","334.90000000596046","","","","","","","","50","0,1,0","6","blank","252","null","0.05676251405901998","0.21553515289416816","0.4163104489025976","1","","","","","","","","",""
"","html-keyboard-response","64","256626","0.0-41.0-1.0","""event"",""trial"",""time""
""fullscreenenter"",""0"",""10193""
","
","
","""event"",""trial"",""time""
""fullscreenenter"",""0"",""10193""
","
","null","<p></p>","null","","","","","","","","","","","","","","","","","","","","","","","",""
"","do_trial","65","259398","0.0-42.0-0.0","""event"",""trial"",""time""
""fullscreenenter"",""0"",""10193""
","
","
","""event"",""trial"",""time""
""fullscreenenter"",""0"",""10193""
","
","225","","","","","","","","50","0,0,0","6","blank","253","null","0.09818947383326972","0.3750739421274927","0.6187799403836022","0","","","","","","","","",""
"","html-keyboard-response","66","260414","0.0-42.0-1.0","""event"",""trial"",""time""
""fullscreenenter"",""0"",""10193""
","
","
","""event"",""trial"",""time""
""fullscreenenter"",""0"",""10193""
","
","null","<p></p>","null","","","","","","","","","","","","","","","","","","","","","","","",""
"","do_trial","67","263221","0.0-43.0-0.0","""event"",""trial"",""time""
""fullscreenenter"",""0"",""10193""
","
","
","""event"",""trial"",""time""
""fullscreenenter"",""0"",""10193""
","
","252.2000000178814","","","","","","","","50","0,0,1","6","blank","254","null","0.1179265440061129","0.37727790751037654","0.7573453968373557","0","","","","","","","","",""
"","html-keyboard-response","68","264233","0.0-43.0-1.0","""event"",""trial"",""time""
""fullscreenenter"",""0"",""10193""
","
","
","""event"",""trial"",""time""
""fullscreenenter"",""0"",""10193""
","
","null","<p></p>","null","","","","","","","","","","","","","","","","","","","","","","","",""
"","do_recog","69","266678","0.0-44.0-0.0","""event"",""trial"",""time""
""fullscreenenter"",""0"",""10193""
","
","
","""event"",""trial"",""time""
""fullscreenenter"",""0"",""10193""
","
","931","","","","","","","","56","","","","255","probe-228","","","","","1","[object Object]","199","4","0","","","",""
"","html-keyboard-response","70","267693","0.0-44.0-1.0","""event"",""trial"",""time""
""fullscreenenter"",""0"",""10193""
","
","
","""event"",""trial"",""time""
""fullscreenenter"",""0"",""10193""
","
","null","<p></p>","null","","","","","","","","","","","","","","","","","","","","","","","",""
"","do_trial","71","271154","0.0-45.0-0.0","""event"",""trial"",""time""
""fullscreenenter"",""0"",""10193""
","
","
","""event"",""trial"",""time""
""fullscreenenter"",""0"",""10193""
","
","901.9000000059605","","","","","","","","51","0,0,1","6","blank","256","null","0.050682171384346","0.3440489265303962","0.7826021451170395","1","","","","","","","","",""
"","html-keyboard-response","72","272156","0.0-45.0-1.0","""event"",""trial"",""time""
""fullscreenenter"",""0"",""10193""
","
","
","""event"",""trial"",""time""
""fullscreenenter"",""0"",""10193""
","
","null","<p></p>","null","","","","","","","","","","","","","","","","","","","","","","","",""
"","do_recog","73","278179","0.0-46.0-0.0","""event"",""trial"",""time""
""fullscreenenter"",""0"",""10193""
","
","
","""event"",""trial"",""time""
""fullscreenenter"",""0"",""10193""
","
","null","","","","","","","","null","","","","257","probe-251","","","","","0","[object Object]","null","null","0","","","",""
"","html-keyboard-response","74","279184","0.0-46.0-1.0","""event"",""trial"",""time""
""fullscreenenter"",""0"",""10193""
","
","
","""event"",""trial"",""time""
""fullscreenenter"",""0"",""10193""
","
","null","<p></p>","null","","","","","","","","","","","","","","","","","","","","","","","",""
"","do_trial","75","282241","0.0-47.0-0.0","""event"",""trial"",""time""
""fullscreenenter"",""0"",""10193""
","
","
","""event"",""trial"",""time""
""fullscreenenter"",""0"",""10193""
","
","503.19999998807907","","","","","","","","51","0,0,1","6","blank","258","null","0.08481149246442637","0.3745034110829661","0.6690183919939918","1","","","","","","","","",""
"","html-keyboard-response","76","283254","0.0-47.0-1.0","""event"",""trial"",""time""
""fullscreenenter"",""0"",""10193""
","
","
","""event"",""trial"",""time""
""fullscreenenter"",""0"",""10193""
","
","null","<p></p>","null","","","","","","","","","","","","","","","","","","","","","","","",""
"","do_recog","77","285568","0.0-48.0-0.0","""event"",""trial"",""time""
""fullscreenenter"",""0"",""10193""
","
","
","""event"",""trial"",""time""
""fullscreenenter"",""0"",""10193""
","
","807.5999999940395","","","","","","","","56","","","","259","probe-219","","","","","1","[object Object]","32","0","0","","","",""
"","html-keyboard-response","78","286576","0.0-48.0-1.0","""event"",""trial"",""time""
""fullscreenenter"",""0"",""10193""
","
","
","""event"",""trial"",""time""
""fullscreenenter"",""0"",""10193""
","
","null","<p></p>","null","","","","","","","","","","","","","","","","","","","","","","","",""
"","do_trial","79","289551","0.0-49.0-0.0","""event"",""trial"",""time""
""fullscreenenter"",""0"",""10193""
","
","
","""event"",""trial"",""time""
""fullscreenenter"",""0"",""10193""
","
","425.30000001192093","","","","","","","","51","0,0,1","6","blank","260","null","0.07807242893756863","0.16502400621766378","0.7882810040716761","1","","","","","","","","",""
"","html-keyboard-response","80","290556","0.0-49.0-1.0","""event"",""trial"",""time""
""fullscreenenter"",""0"",""10193""
","
","
","""event"",""trial"",""time""
""fullscreenenter"",""0"",""10193""
","
","null","<p></p>","null","","","","","","","","","","","","","","","","","","","","","","","",""
"","do_trial","81","293372","0.0-50.0-0.0","""event"",""trial"",""time""
""fullscreenenter"",""0"",""10193""
","
","
","""event"",""trial"",""time""
""fullscreenenter"",""0"",""10193""
","
","269.80000001192093","","","","","","","","50","0,1,1","6","blank","261","null","0.21847026297581276","0.17680251985668513","0.7480202711067628","1","","","","","","","","",""
"","html-keyboard-response","82","294377","0.0-50.0-1.0","""event"",""trial"",""time""
""fullscreenenter"",""0"",""10193""
","
","
","""event"",""trial"",""time""
""fullscreenenter"",""0"",""10193""
","
","null","<p></p>","null","","","","","","","","","","","","","","","","","","","","","","","",""
"","do_trial","83","297211","0.0-51.0-0.0","""event"",""trial"",""time""
""fullscreenenter"",""0"",""10193""
","
","
","""event"",""trial"",""time""
""fullscreenenter"",""0"",""10193""
","
","285.7999999821186","","","","","","","","50","1,0,0","6","blank","262","null","0.18404316705804405","0.22378229102878344","0.6299051630282579","0","","","","","","","","",""
"","html-keyboard-response","84","298217","0.0-51.0-1.0","""event"",""trial"",""time""
""fullscreenenter"",""0"",""10193""
","
","
","""event"",""trial"",""time""
""fullscreenenter"",""0"",""10193""
","
","null","<p></p>","null","","","","","","","","","","","","","","","","","","","","","","","",""
"","do_trial","85","301137","0.0-52.0-0.0","""event"",""trial"",""time""
""fullscreenenter"",""0"",""10193""
","
","
","""event"",""trial"",""time""
""fullscreenenter"",""0"",""10193""
","
","381.80000001192093","","","","","","","","50","0,0,1","6","blank","263","null","0.17879544022656435","0.2564170505047774","0.6318921645556105","0","","","","","","","","",""
"","html-keyboard-response","86","302165","0.0-52.0-1.0","""event"",""trial"",""time""
""fullscreenenter"",""0"",""10193""
","
","
","""event"",""trial"",""time""
""fullscreenenter"",""0"",""10193""
","
","null","<p></p>","null","","","","","","","","","","","","","","","","","","","","","","","",""
"","do_trial","87","305115","0.0-53.0-0.0","""event"",""trial"",""time""
""fullscreenenter"",""0"",""10193""
","
","
","""event"",""trial"",""time""
""fullscreenenter"",""0"",""10193""
","
","375.5","","","","","","","","50","0,1,0","6","blank","264","null","0.12111379624924029","0.23698353838378572","0.5983945658159388","1","","","","","","","","",""
"","html-keyboard-response","88","306127","0.0-53.0-1.0","""event"",""trial"",""time""
""fullscreenenter"",""0"",""10193""
","
","
","""event"",""trial"",""time""
""fullscreenenter"",""0"",""10193""
","
","null","<p></p>","null","","","","","","","","","","","","","","","","","","","","","","","",""
"","do_recog","89","308338","0.0-54.0-0.0","""event"",""trial"",""time""
""fullscreenenter"",""0"",""10193""
","
","
","""event"",""trial"",""time""
""fullscreenenter"",""0"",""10193""
","
","703.4000000059605","","","","","","","","56","","","","265","probe-122","","","","","1","[object Object]","155","3","0","","","",""
"","html-keyboard-response","90","309355","0.0-54.0-1.0","""event"",""trial"",""time""
""fullscreenenter"",""0"",""10193""
","
","
","""event"",""trial"",""time""
""fullscreenenter"",""0"",""10193""
","
","null","<p></p>","null","","","","","","","","","","","","","","","","","","","","","","","",""
"","do_trial","91","312290","0.0-55.0-0.0","""event"",""trial"",""time""
""fullscreenenter"",""0"",""10193""
","
","
","""event"",""trial"",""time""
""fullscreenenter"",""0"",""10193""
","
","392.5","","","","","","","","51","1,0,1","6","blank","266","null","0.18759425384420725","0.23829350529233664","0.6458898387845529","1","","","","","","","","",""
"","html-keyboard-response","92","313305","0.0-55.0-1.0","""event"",""trial"",""time""
""fullscreenenter"",""0"",""10193""
","
","
","""event"",""trial"",""time""
""fullscreenenter"",""0"",""10193""
","
","null","<p></p>","null","","","","","","","","","","","","","","","","","","","","","","","",""
"","do_trial","93","316096","0.0-56.0-0.0","""event"",""trial"",""time""
""fullscreenenter"",""0"",""10193""
","
","
","""event"",""trial"",""time""
""fullscreenenter"",""0"",""10193""
","
","249.90000000596046","","","","","","","","51","0,1,0","6","blank","267","null","0.08213954470586014","0.15767170815577464","0.603735289695199","0","","","","","","","","",""
"","html-keyboard-response","94","317108","0.0-56.0-1.0","""event"",""trial"",""time""
""fullscreenenter"",""0"",""10193""
","
","
","""event"",""trial"",""time""
""fullscreenenter"",""0"",""10193""
","
","null","<p></p>","null","","","","","","","","","","","","","","","","","","","","","","","",""
"","do_trial","95","319918","0.0-57.0-0.0","""event"",""trial"",""time""
""fullscreenenter"",""0"",""10193""
","
","
","""event"",""trial"",""time""
""fullscreenenter"",""0"",""10193""
","
","257.39999997615814","","","","","","","","50","0,1,1","6","blank","268","null","0.17130974003979085","0.26101892482524114","0.5850753949741899","1","","","","","","","","",""
"","html-keyboard-response","96","320930","0.0-57.0-1.0","""event"",""trial"",""time""
""fullscreenenter"",""0"",""10193""
","
","
","""event"",""trial"",""time""
""fullscreenenter"",""0"",""10193""
","
","null","<p></p>","null","","","","","","","","","","","","","","","","","","","","","","","",""
"","break","97","322809","0.0-58.0-0.0","""event"",""trial"",""time""
""fullscreenenter"",""0"",""10193""
","
","
","""event"",""trial"",""time""
""fullscreenenter"",""0"",""10193""
","
","1878.5","<div class='center'><p>Time to take a quick break! You have 2 minutes to rest, but you can move on sooner if you'd like.</p><p> Press the <b>space bar</b> to continue.</p></div>","32","","","","","","","","","","","","","","","","","","","","","","","",""
"","do_trial","98","325919","0.0-58.0-1.0","""event"",""trial"",""time""
""fullscreenenter"",""0"",""10193""
","
","
","""event"",""trial"",""time""
""fullscreenenter"",""0"",""10193""
","
","565.2000000178814","","","","","","","","51","0,1,0","6","blank","269","null","0.16675209562477478","0.151598628188124","0.7065769452206088","0","","","","","","","","",""
"","html-keyboard-response","99","326936","0.0-58.0-2.0","""event"",""trial"",""time""
""fullscreenenter"",""0"",""10193""
","
","
","""event"",""trial"",""time""
""fullscreenenter"",""0"",""10193""
","
","null","<p></p>","null","","","","","","","","","","","","","","","","","","","","","","","",""
"","do_trial","100","329798","0.0-59.0-0.0","""event"",""trial"",""time""
""fullscreenenter"",""0"",""10193""
","
","
","""event"",""trial"",""time""
""fullscreenenter"",""0"",""10193""
","
","299.2000000178814","","","","","","","","50","0,0,1","6","blank","270","null","0.2584115518413518","0.1810015778196118","0.8169306602247633","0","","","","","","","","",""
"","html-keyboard-response","101","330810","0.0-59.0-1.0","""event"",""trial"",""time""
""fullscreenenter"",""0"",""10193""
","
","
","""event"",""trial"",""time""
""fullscreenenter"",""0"",""10193""
","
","null","<p></p>","null","","","","","","","","","","","","","","","","","","","","","","","",""
"","do_trial","102","333689","0.0-60.0-0.0","""event"",""trial"",""time""
""fullscreenenter"",""0"",""10193""
","
","
","""event"",""trial"",""time""
""fullscreenenter"",""0"",""10193""
","
","332.19999998807907","","","","","","","","51","0,0,0","6","blank","271","null","0.3547203501995848","0.30228048469489616","0.7245613750744255","0","","","","","","","","",""
"","html-keyboard-response","103","334696","0.0-60.0-1.0","""event"",""trial"",""time""
""fullscreenenter"",""0"",""10193""
","
","
","""event"",""trial"",""time""
""fullscreenenter"",""0"",""10193""
","
","null","<p></p>","null","","","","","","","","","","","","","","","","","","","","","","","",""
"","do_trial","104","337561","0.0-61.0-0.0","""event"",""trial"",""time""
""fullscreenenter"",""0"",""10193""
","
","
","""event"",""trial"",""time""
""fullscreenenter"",""0"",""10193""
","
","300.80000001192093","","","","","","","","50","0,1,0","6","blank","272","null","0.13848794837668613","0.30859812877629195","0.6738423274782293","1","","","","","","","","",""
"","html-keyboard-response","105","338566","0.0-61.0-1.0","""event"",""trial"",""time""
""fullscreenenter"",""0"",""10193""
","
","
","""event"",""trial"",""time""
""fullscreenenter"",""0"",""10193""
","
","null","<p></p>","null","","","","","","","","","","","","","","","","","","","","","","","",""
"","do_recog","106","340842","0.0-62.0-0.0","""event"",""trial"",""time""
""fullscreenenter"",""0"",""10193""
","
","
","""event"",""trial"",""time""
""fullscreenenter"",""0"",""10193""
","
","767.6999999880791","","","","","","","","55","","","","273","probe-12","","","","","1","[object Object]","36","0","0","","","",""
"","html-keyboard-response","107","341855","0.0-62.0-1.0","""event"",""trial"",""time""
""fullscreenenter"",""0"",""10193""
","
","
","""event"",""trial"",""time""
""fullscreenenter"",""0"",""10193""
","
","null","<p></p>","null","","","","","","","","","","","","","","","","","","","","","","","",""
"","do_trial","108","345021","0.0-63.0-0.0","""event"",""trial"",""time""
""fullscreenenter"",""0"",""10193""
","
","
","""event"",""trial"",""time""
""fullscreenenter"",""0"",""10193""
","
","624.0999999940395","","","","","","","","51","0,1,1","6","blank","274","null","0.14601454039517403","0.35647989211052733","0.7403795671857846","1","","","","","","","","",""
"","html-keyboard-response","109","346032","0.0-63.0-1.0","""event"",""trial"",""time""
""fullscreenenter"",""0"",""10193""
","
","
","""event"",""trial"",""time""
""fullscreenenter"",""0"",""10193""
","
","null","<p></p>","null","","","","","","","","","","","","","","","","","","","","","","","",""
"","do_recog","110","348252","0.0-64.0-0.0","""event"",""trial"",""time""
""fullscreenenter"",""0"",""10193""
","
","
","""event"",""trial"",""time""
""fullscreenenter"",""0"",""10193""
","
","701.7999999821186","","","","","","","","56","","","","275","probe-78","","","","","1","[object Object]","118","2","0","","","",""
"","html-keyboard-response","111","349255","0.0-64.0-1.0","""event"",""trial"",""time""
""fullscreenenter"",""0"",""10193""
","
","
","""event"",""trial"",""time""
""fullscreenenter"",""0"",""10193""
","
","null","<p></p>","null","","","","","","","","","","","","","","","","","","","","","","","",""
"","do_trial","112","352185","0.0-65.0-0.0","""event"",""trial"",""time""
""fullscreenenter"",""0"",""10193""
","
","
","""event"",""trial"",""time""
""fullscreenenter"",""0"",""10193""
","
","392.89999997615814","","","","","","","","51","0,0,1","6","blank","276","null","0.12378515418714034","0.32321546275414315","0.6489880697580728","1","","","","","","","","",""
"","html-keyboard-response","113","353197","0.0-65.0-1.0","""event"",""trial"",""time""
""fullscreenenter"",""0"",""10193""
","
","
","""event"",""trial"",""time""
""fullscreenenter"",""0"",""10193""
","
","null","<p></p>","null","","","","","","","","","","","","","","","","","","","","","","","",""
"","do_trial","114","356061","0.0-66.0-0.0","""event"",""trial"",""time""
""fullscreenenter"",""0"",""10193""
","
","
","""event"",""trial"",""time""
""fullscreenenter"",""0"",""10193""
","
","310.59999999403954","","","","","","","","50","0,0,0","6","blank","277","null","0.1877335552819387","0.35986344081632565","0.7073062030401783","0","","","","","","","","",""
"","html-keyboard-response","115","357074","0.0-66.0-1.0","""event"",""trial"",""time""
""fullscreenenter"",""0"",""10193""
","
","
","""event"",""trial"",""time""
""fullscreenenter"",""0"",""10193""
","
","null","<p></p>","null","","","","","","","","","","","","","","","","","","","","","","","",""
"","do_recog","116","359212","0.0-67.0-0.0","""event"",""trial"",""time""
""fullscreenenter"",""0"",""10193""
","
","
","""event"",""trial"",""time""
""fullscreenenter"",""0"",""10193""
","
","629.6999999880791","","","","","","","","55","","","","278","probe-198","","","","","1","[object Object]","74","1","0","","","",""
"","html-keyboard-response","117","360224","0.0-67.0-1.0","""event"",""trial"",""time""
""fullscreenenter"",""0"",""10193""
","
","
","""event"",""trial"",""time""
""fullscreenenter"",""0"",""10193""
","
","null","<p></p>","null","","","","","","","","","","","","","","","","","","","","","","","",""
"","do_trial","118","363186","0.0-68.0-0.0","""event"",""trial"",""time""
""fullscreenenter"",""0"",""10193""
","
","
","""event"",""trial"",""time""
""fullscreenenter"",""0"",""10193""
","
","422.5","","","","","","","","50","1,1,1","6","blank","279","null","0.13718289806226158","0.3358682914791602","0.783879330816585","1","","","","","","","","",""
"","html-keyboard-response","119","364202","0.0-68.0-1.0","""event"",""trial"",""time""
""fullscreenenter"",""0"",""10193""
","
","
","""event"",""trial"",""time""
""fullscreenenter"",""0"",""10193""
","
","null","<p></p>","null","","","","","","","","","","","","","","","","","","","","","","","",""
"","do_trial","120","367045","0.0-69.0-0.0","""event"",""trial"",""time""
""fullscreenenter"",""0"",""10193""
","
","
","""event"",""trial"",""time""
""fullscreenenter"",""0"",""10193""
","
","302.09999999403954","","","","","","","","49","1,0,0","6","blank","280","null","0.15792814173783065","0.3008197863295717","0.5401983188196493","1","","","","","","","","",""
"","html-keyboard-response","121","368055","0.0-69.0-1.0","""event"",""trial"",""time""
""fullscreenenter"",""0"",""10193""
","
","
","""event"",""trial"",""time""
""fullscreenenter"",""0"",""10193""
","
","null","<p></p>","null","","","","","","","","","","","","","","","","","","","","","","","",""
"","do_trial","122","370950","0.0-70.0-0.0","""event"",""trial"",""time""
""fullscreenenter"",""0"",""10193""
","
","
","""event"",""trial"",""time""
""fullscreenenter"",""0"",""10193""
","
","319.2000000178814","","","","","","","","50","0,0,0","6","blank","281","null","0.07720295513742874","0.4165984988587509","0.7227049385413455","0","","","","","","","","",""
"","html-keyboard-response","123","371956","0.0-70.0-1.0","""event"",""trial"",""time""
""fullscreenenter"",""0"",""10193""
","
","
","""event"",""trial"",""time""
""fullscreenenter"",""0"",""10193""
","
","null","<p></p>","null","","","","","","","","","","","","","","","","","","","","","","","",""
"","do_recog","124","374302","0.0-71.0-0.0","""event"",""trial"",""time""
""fullscreenenter"",""0"",""10193""
","
","
","""event"",""trial"",""time""
""fullscreenenter"",""0"",""10193""
","
","825.5","","","","","","","","56","","","","282","probe-210","","","","","1","[object Object]","79","1","0","","","",""
"","html-keyboard-response","125","375315","0.0-71.0-1.0","""event"",""trial"",""time""
""fullscreenenter"",""0"",""10193""
","
","
","""event"",""trial"",""time""
""fullscreenenter"",""0"",""10193""
","
","null","<p></p>","null","","","","","","","","","","","","","","","","","","","","","","","",""
"","do_trial","126","378479","0.0-72.0-0.0","""event"",""trial"",""time""
""fullscreenenter"",""0"",""10193""
","
","
","""event"",""trial"",""time""
""fullscreenenter"",""0"",""10193""
","
","621.5","","","","","","","","51","0,0,1","6","blank","283","null","0.057391674238805826","0.40441719589103","0.7300347395159122","1","","","","","","","","",""
"","html-keyboard-response","127","379489","0.0-72.0-1.0","""event"",""trial"",""time""
""fullscreenenter"",""0"",""10193""
","
","
","""event"",""trial"",""time""
""fullscreenenter"",""0"",""10193""
","
","null","<p></p>","null","","","","","","","","","","","","","","","","","","","","","","","",""
"","do_trial","128","382374","0.0-73.0-0.0","""event"",""trial"",""time""
""fullscreenenter"",""0"",""10193""
","
","
","""event"",""trial"",""time""
""fullscreenenter"",""0"",""10193""
","
","334.2999999821186","","","","","","","","51","0,0,1","6","blank","284","null","0.06548266648696285","0.2913334397756851","0.6314127409006257","1","","","","","","","","",""
"","html-keyboard-response","129","383388","0.0-73.0-1.0","""event"",""trial"",""time""
""fullscreenenter"",""0"",""10193""
","
","
","""event"",""trial"",""time""
""fullscreenenter"",""0"",""10193""
","
","null","<p></p>","null","","","","","","","","","","","","","","","","","","","","","","","",""
"","do_trial","130","386215","0.0-74.0-0.0","""event"",""trial"",""time""
""fullscreenenter"",""0"",""10193""
","
","
","""event"",""trial"",""time""
""fullscreenenter"",""0"",""10193""
","
","283.80000001192093","","","","","","","","51","0,0,1","6","blank","285","null","0.07422461885763772","0.22961547125553716","0.4382220658524143","1","","","","","","","","",""
"","html-keyboard-response","131","387231","0.0-74.0-1.0","""event"",""trial"",""time""
""fullscreenenter"",""0"",""10193""
","
","
","""event"",""trial"",""time""
""fullscreenenter"",""0"",""10193""
","
","null","<p></p>","null","","","","","","","","","","","","","","","","","","","","","","","",""
"","do_trial","132","389769","0.0-75.0-0.0","""event"",""trial"",""time""
""fullscreenenter"",""0"",""10193""
","
","
","""event"",""trial"",""time""
""fullscreenenter"",""0"",""10193""
","
","0.19999998807907104","","","","","","","","51","0,0,0","6","blank","286","null","0.0660677052011132","0.2159658670753393","0.7219987626463292","0","","","","","","","","",""
"","html-keyboard-response","133","390783","0.0-75.0-1.0","""event"",""trial"",""time""
""fullscreenenter"",""0"",""10193""
","
","
","""event"",""trial"",""time""
""fullscreenenter"",""0"",""10193""
","
","null","<p></p>","null","","","","","","","","","","","","","","","","","","","","","","","",""
"","do_recog","134","392898","0.0-76.0-0.0","""event"",""trial"",""time""
""fullscreenenter"",""0"",""10193""
","
","
","""event"",""trial"",""time""
""fullscreenenter"",""0"",""10193""
","
","600.0999999940395","","","","","","","","56","","","","287","probe-136","","","","","1","[object Object]","195","4","0","","","",""
"","html-keyboard-response","135","393899","0.0-76.0-1.0","""event"",""trial"",""time""
""fullscreenenter"",""0"",""10193""
","
","
","""event"",""trial"",""time""
""fullscreenenter"",""0"",""10193""
","
","null","<p></p>","null","","","","","","","","","","","","","","","","","","","","","","","",""
"","do_trial","136","396885","0.0-77.0-0.0","""event"",""trial"",""time""
""fullscreenenter"",""0"",""10193""
","
","
","""event"",""trial"",""time""
""fullscreenenter"",""0"",""10193""
","
","445.40000000596046","","","","","","","","51","0,0,0","6","blank","288","null","0.07462575029868218","0.1959747809709382","0.6810684224348301","0","","","","","","","","",""
"","html-keyboard-response","137","397900","0.0-77.0-1.0","""event"",""trial"",""time""
""fullscreenenter"",""0"",""10193""
","
","
","""event"",""trial"",""time""
""fullscreenenter"",""0"",""10193""
","
","null","<p></p>","null","","","","","","","","","","","","","","","","","","","","","","","",""
"","do_trial","138","400760","0.0-78.0-0.0","""event"",""trial"",""time""
""fullscreenenter"",""0"",""10193""
","
","
","""event"",""trial"",""time""
""fullscreenenter"",""0"",""10193""
","
","294","","","","","","","","51","0,0,1","6","blank","289","null","0.16397155777041647","0.11885580462590539","0.7545873679574713","1","","","","","","","","",""
"","html-keyboard-response","139","401776","0.0-78.0-1.0","""event"",""trial"",""time""
""fullscreenenter"",""0"",""10193""
","
","
","""event"",""trial"",""time""
""fullscreenenter"",""0"",""10193""
","
","null","<p></p>","null","","","","","","","","","","","","","","","","","","","","","","","",""
"","do_trial","140","404584","0.0-79.0-0.0","""event"",""trial"",""time""
""fullscreenenter"",""0"",""10193""
","
","
","""event"",""trial"",""time""
""fullscreenenter"",""0"",""10193""
","
","232.39999997615814","","","","","","","","51","1,1,0","6","blank","290","null","0.2542788916291935","0.19270671924472826","0.7071190456452904","0","","","","","","","","",""
"","html-keyboard-response","141","405597","0.0-79.0-1.0","""event"",""trial"",""time""
""fullscreenenter"",""0"",""10193""
","
","
","""event"",""trial"",""time""
""fullscreenenter"",""0"",""10193""
","
","null","<p></p>","null","","","","","","","","","","","","","","","","","","","","","","","",""
"","do_recog","142","407821","0.0-80.0-0.0","""event"",""trial"",""time""
""fullscreenenter"",""0"",""10193""
","
","
","""event"",""trial"",""time""
""fullscreenenter"",""0"",""10193""
","
","713.6999999880791","","","","","","","","56","","","","291","probe-240","","","","","0","[object Object]","null","null","1","","","",""
"","html-keyboard-response","143","408834","0.0-80.0-1.0","""event"",""trial"",""time""
""fullscreenenter"",""0"",""10193""
","
","
","""event"",""trial"",""time""
""fullscreenenter"",""0"",""10193""
","
","null","<p></p>","null","","","","","","","","","","","","","","","","","","","","","","","",""
"","do_trial","144","411961","0.0-81.0-0.0","""event"",""trial"",""time""
""fullscreenenter"",""0"",""10193""
","
","
","""event"",""trial"",""time""
""fullscreenenter"",""0"",""10193""
","
","581.8000000119209","","","","","","","","51","1,1,1","6","blank","292","null","0.21123307715848222","0.3062443770985863","0.7299493277108934","1","","","","","","","","",""
"","html-keyboard-response","145","412973","0.0-81.0-1.0","""event"",""trial"",""time""
""fullscreenenter"",""0"",""10193""
","
","
","""event"",""trial"",""time""
""fullscreenenter"",""0"",""10193""
","
","null","<p></p>","null","","","","","","","","","","","","","","","","","","","","","","","",""
"","do_trial","146","415813","0.0-82.0-0.0","""event"",""trial"",""time""
""fullscreenenter"",""0"",""10193""
","
","
","""event"",""trial"",""time""
""fullscreenenter"",""0"",""10193""
","
","292.09999999403954","","","","","","","","51","0,0,1","6","blank","293","null","0.36947852708684253","0.2844200701946107","0.715714180569554","1","","","","","","","","",""
"","html-keyboard-response","147","416824","0.0-82.0-1.0","""event"",""trial"",""time""
""fullscreenenter"",""0"",""10193""
","
","
","""event"",""trial"",""time""
""fullscreenenter"",""0"",""10193""
","
","null","<p></p>","null","","","","","","","","","","","","","","","","","","","","","","","",""
"","do_trial","148","419785","0.0-83.0-0.0","""event"",""trial"",""time""
""fullscreenenter"",""0"",""10193""
","
","
","""event"",""trial"",""time""
""fullscreenenter"",""0"",""10193""
","
","415.5","","","","","","","","50","1,0,0","6","blank","294","null","0.3210726750849189","0.37902987334165195","0.6609082151753195","0","","","","","","","","",""
"","html-keyboard-response","149","420798","0.0-83.0-1.0","""event"",""trial"",""time""
""fullscreenenter"",""0"",""10193""
","
","
","""event"",""trial"",""time""
""fullscreenenter"",""0"",""10193""
","
","null","<p></p>","null","","","","","","","","","","","","","","","","","","","","","","","",""
"","do_recog","150","422733","0.0-84.0-0.0","""event"",""trial"",""time""
""fullscreenenter"",""0"",""10193""
","
","
","""event"",""trial"",""time""
""fullscreenenter"",""0"",""10193""
","
","425.5","","","","","","","","56","","","","295","probe-242","","","","","0","[object Object]","null","null","1","","","",""
"","html-keyboard-response","151","423744","0.0-84.0-1.0","""event"",""trial"",""time""
""fullscreenenter"",""0"",""10193""
","
","
","""event"",""trial"",""time""
""fullscreenenter"",""0"",""10193""
","
","null","<p></p>","null","","","","","","","","","","","","","","","","","","","","","","","",""
"","do_trial","152","426677","0.0-85.0-0.0","""event"",""trial"",""time""
""fullscreenenter"",""0"",""10193""
","
","
","""event"",""trial"",""time""
""fullscreenenter"",""0"",""10193""
","
","380.69999998807907","","","","","","","","51","1,0,0","6","blank","296","null","0.3924486296160298","0.22097398086170472","0.4506099284886995","0","","","","","","","","",""
"","html-keyboard-response","153","427691","0.0-85.0-1.0","""event"",""trial"",""time""
""fullscreenenter"",""0"",""10193""
","
","
","""event"",""trial"",""time""
""fullscreenenter"",""0"",""10193""
","
","null","<p></p>","null","","","","","","","","","","","","","","","","","","","","","","","",""
"","do_trial","154","430498","0.0-86.0-0.0","""event"",""trial"",""time""
""fullscreenenter"",""0"",""10193""
","
","
","""event"",""trial"",""time""
""fullscreenenter"",""0"",""10193""
","
","254.40000000596046","","","","","","","","51","1,0,0","6","blank","297","null","0.599871465837833","0.0891759649505898","0.2028923554381436","0","","","","","","","","",""
"","html-keyboard-response","155","431503","0.0-86.0-1.0","""event"",""trial"",""time""
""fullscreenenter"",""0"",""10193""
","
","
","""event"",""trial"",""time""
""fullscreenenter"",""0"",""10193""
","
","null","<p></p>","null","","","","","","","","","","","","","","","","","","","","","","","",""
"","do_recog","156","433469","0.0-87.0-0.0","""event"",""trial"",""time""
""fullscreenenter"",""0"",""10193""
","
","
","""event"",""trial"",""time""
""fullscreenenter"",""0"",""10193""
","
","447.09999999403954","","","","","","","","56","","","","298","probe-249","","","","","0","[object Object]","null","null","1","","","",""
"","html-keyboard-response","157","434483","0.0-87.0-1.0","""event"",""trial"",""time""
""fullscreenenter"",""0"",""10193""
","
","
","""event"",""trial"",""time""
""fullscreenenter"",""0"",""10193""
","
","null","<p></p>","null","","","","","","","","","","","","","","","","","","","","","","","",""
"","do_trial","158","437371","0.0-88.0-0.0","""event"",""trial"",""time""
""fullscreenenter"",""0"",""10193""
","
","
","""event"",""trial"",""time""
""fullscreenenter"",""0"",""10193""
","
","344.7999999821186","","","","","","","","51","1,0,1","6","blank","299","null","0.6041358060183412","0.08690984793740082","0.16398487508190865","1","","","","","","","","",""
"","html-keyboard-response","159","438384","0.0-88.0-1.0","""event"",""trial"",""time""
""fullscreenenter"",""0"",""10193""
","
","
","""event"",""trial"",""time""
""fullscreenenter"",""0"",""10193""
","
","null","<p></p>","null","","","","","","","","","","","","","","","","","","","","","","","",""
"","do_recog","160","440591","0.0-89.0-0.0","""event"",""trial"",""time""
""fullscreenenter"",""0"",""10193""
","
","
","""event"",""trial"",""time""
""fullscreenenter"",""0"",""10193""
","
","695.2999999821186","","","","","","","","56","","","","300","probe-46","","","","","1","[object Object]","116","2","0","","","",""
"","html-keyboard-response","161","441599","0.0-89.0-1.0","""event"",""trial"",""time""
""fullscreenenter"",""0"",""10193""
","
","
","""event"",""trial"",""time""
""fullscreenenter"",""0"",""10193""
","
","null","<p></p>","null","","","","","","","","","","","","","","","","","","","","","","","",""
"","do_trial","162","444555","0.0-90.0-0.0","""event"",""trial"",""time""
""fullscreenenter"",""0"",""10193""
","
","
","""event"",""trial"",""time""
""fullscreenenter"",""0"",""10193""
","
","408.7999999821186","","","","","","","","51","1,0,0","6","blank","301","null","0.6751888915806875","0.14669203808731546","0.09749587254196054","0","","","","","","","","",""
"","html-keyboard-response","163","445566","0.0-90.0-1.0","""event"",""trial"",""time""
""fullscreenenter"",""0"",""10193""
","
","
","""event"",""trial"",""time""
""fullscreenenter"",""0"",""10193""
","
","null","<p></p>","null","","","","","","","","","","","","","","","","","","","","","","","",""
"","do_trial","164","448733","0.0-91.0-0.0","""event"",""trial"",""time""
""fullscreenenter"",""0"",""10193""
","
","
","""event"",""trial"",""time""
""fullscreenenter"",""0"",""10193""
","
","601.9000000059605","","","","","","","","51","1,0,0","6","blank","302","null","0.6165977302018757","0.15778764262005038","0.3023817742738551","0","","","","","","","","",""
"","html-keyboard-response","165","449745","0.0-91.0-1.0","""event"",""trial"",""time""
""fullscreenenter"",""0"",""10193""
","
","
","""event"",""trial"",""time""
""fullscreenenter"",""0"",""10193""
","
","null","<p></p>","null","","","","","","","","","","","","","","","","","","","","","","","",""
"","do_recog","166","451718","0.0-92.0-0.0","""event"",""trial"",""time""
""fullscreenenter"",""0"",""10193""
","
","
","""event"",""trial"",""time""
""fullscreenenter"",""0"",""10193""
","
","462.40000000596046","","","","","","","","56","","","","303","probe-161","","","","","1","[object Object]","158","3","0","","","",""
"","html-keyboard-response","167","452726","0.0-92.0-1.0","""event"",""trial"",""time""
""fullscreenenter"",""0"",""10193""
","
","
","""event"",""trial"",""time""
""fullscreenenter"",""0"",""10193""
","
","null","<p></p>","null","","","","","","","","","","","","","","","","","","","","","","","",""
"","do_trial","168","455787","0.0-93.0-0.0","""event"",""trial"",""time""
""fullscreenenter"",""0"",""10193""
","
","
","""event"",""trial"",""time""
""fullscreenenter"",""0"",""10193""
","
","517.0999999940395","","","","","","","","51","1,1,0","6","blank","304","null","0.6410527007180987","0.35889794554870025","0.2333496604218964","0","","","","","","","","",""
"","html-keyboard-response","169","456800","0.0-93.0-1.0","""event"",""trial"",""time""
""fullscreenenter"",""0"",""10193""
","
","
","""event"",""trial"",""time""
""fullscreenenter"",""0"",""10193""
","
","null","<p></p>","null","","","","","","","","","","","","","","","","","","","","","","","",""
"","do_trial","170","459661","0.0-94.0-0.0","""event"",""trial"",""time""
""fullscreenenter"",""0"",""10193""
","
","
","""event"",""trial"",""time""
""fullscreenenter"",""0"",""10193""
","
","319.5","","","","","","","","51","0,0,1","6","blank","305","null","0.46936439418131104","0.4389438487626838","0.3222040117511529","1","","","","","","","","",""
"","html-keyboard-response","171","460675","0.0-94.0-1.0","""event"",""trial"",""time""
""fullscreenenter"",""0"",""10193""
","
","
","""event"",""trial"",""time""
""fullscreenenter"",""0"",""10193""
","
","null","<p></p>","null","","","","","","","","","","","","","","","","","","","","","","","",""
"","do_trial","172","463552","0.0-95.0-0.0","""event"",""trial"",""time""
""fullscreenenter"",""0"",""10193""
","
","
","""event"",""trial"",""time""
""fullscreenenter"",""0"",""10193""
","
","325.80000001192093","","","","","","","","51","0,1,0","6","blank","306","null","0.6254816851183902","0.2817974271919077","0.18849929116895886","0","","","","","","","","",""
"","html-keyboard-response","173","464562","0.0-95.0-1.0","""event"",""trial"",""time""
""fullscreenenter"",""0"",""10193""
","
","
","""event"",""trial"",""time""
""fullscreenenter"",""0"",""10193""
","
","null","<p></p>","null","","","","","","","","","","","","","","","","","","","","","","","",""
"","do_trial","174","467462","0.0-96.0-0.0","""event"",""trial"",""time""
""fullscreenenter"",""0"",""10193""
","
","
","""event"",""trial"",""time""
""fullscreenenter"",""0"",""10193""
","
","328.30000001192093","","","","","","","","51","0,0,0","6","blank","307","null","0.5050895462943593","0.4126508980833137","0.16381395465554754","0","","","","","","","","",""
"","html-keyboard-response","175","468464","0.0-96.0-1.0","""event"",""trial"",""time""
""fullscreenenter"",""0"",""10193""
","
","
","""event"",""trial"",""time""
""fullscreenenter"",""0"",""10193""
","
","null","<p></p>","null","","","","","","","","","","","","","","","","","","","","","","","",""
"","do_trial","176","471280","0.0-97.0-0.0","""event"",""trial"",""time""
""fullscreenenter"",""0"",""10193""
","
","
","""event"",""trial"",""time""
""fullscreenenter"",""0"",""10193""
","
","266.5","","","","","","","","51","0,1,0","6","blank","308","null","0.49756087617775197","0.28617387447212655","0.12965093700933694","0","","","","","","","","",""
"","html-keyboard-response","177","472293","0.0-97.0-1.0","""event"",""trial"",""time""
""fullscreenenter"",""0"",""10193""
","
","
","""event"",""trial"",""time""
""fullscreenenter"",""0"",""10193""
","
","null","<p></p>","null","","","","","","","","","","","","","","","","","","","","","","","",""
"","break","178","473179","0.0-98.0-0.0","""event"",""trial"",""time""
""fullscreenenter"",""0"",""10193""
","
","
","""event"",""trial"",""time""
""fullscreenenter"",""0"",""10193""
","
","885.3000000119209","<div class='center'><p>Time to take a quick break! You have 2 minutes to rest, but you can move on sooner if you'd like.</p><p> Press the <b>space bar</b> to continue.</p></div>","32","","","","","","","","","","","","","","","","","","","","","","","",""
"","do_trial","179","476441","0.0-98.0-1.0","""event"",""trial"",""time""
""fullscreenenter"",""0"",""10193""
","
","
","""event"",""trial"",""time""
""fullscreenenter"",""0"",""10193""
","
","725.5999999940395","","","","","","","","51","0,0,0","6","blank","309","null","0.6021315949885871","0.21151556284329848","0.10149808238879705","0","","","","","","","","",""
"","html-keyboard-response","180","477457","0.0-98.0-2.0","""event"",""trial"",""time""
""fullscreenenter"",""0"",""10193""
","
","
","""event"",""trial"",""time""
""fullscreenenter"",""0"",""10193""
","
","null","<p></p>","null","","","","","","","","","","","","","","","","","","","","","","","",""
"","do_recog","181","479563","0.0-99.0-0.0","""event"",""trial"",""time""
""fullscreenenter"",""0"",""10193""
","
","
","""event"",""trial"",""time""
""fullscreenenter"",""0"",""10193""
","
","590.3000000119209","","","","","","","","56","","","","310","probe-54","","","","","1","[object Object]","35","0","0","","","",""
"","html-keyboard-response","182","480574","0.0-99.0-1.0","""event"",""trial"",""time""
""fullscreenenter"",""0"",""10193""
","
","
","""event"",""trial"",""time""
""fullscreenenter"",""0"",""10193""
","
","null","<p></p>","null","","","","","","","","","","","","","","","","","","","","","","","",""
"","do_trial","183","483444","0.0-100.0-0.0","""event"",""trial"",""time""
""fullscreenenter"",""0"",""10193""
","
","
","""event"",""trial"",""time""
""fullscreenenter"",""0"",""10193""
","
","329.19999998807907","","","","","","","","51","1,0,0","6","blank","311","null","0.6297312167104041","0.28826165516534796","0.11266247481212059","0","","","","","","","","",""
"","html-keyboard-response","184","484458","0.0-100.0-1.0","""event"",""trial"",""time""
""fullscreenenter"",""0"",""10193""
","
","
","""event"",""trial"",""time""
""fullscreenenter"",""0"",""10193""
","
","null","<p></p>","null","","","","","","","","","","","","","","","","","","","","","","","",""
"","do_recog","185","486533","0.0-101.0-0.0","""event"",""trial"",""time""
""fullscreenenter"",""0"",""10193""
","
","
","""event"",""trial"",""time""
""fullscreenenter"",""0"",""10193""
","
","566","","","","","","","","55","","","","312","probe-34","","","","","1","[object Object]","159","3","0","","","",""
"","html-keyboard-response","186","487544","0.0-101.0-1.0","""event"",""trial"",""time""
""fullscreenenter"",""0"",""10193""
","
","
","""event"",""trial"",""time""
""fullscreenenter"",""0"",""10193""
","
","null","<p></p>","null","","","","","","","","","","","","","","","","","","","","","","","",""
"","do_trial","187","490366","0.0-102.0-0.0","""event"",""trial"",""time""
""fullscreenenter"",""0"",""10193""
","
","
","""event"",""trial"",""time""
""fullscreenenter"",""0"",""10193""
","
","272.59999999403954","","","","","","","","50","1,0,1","6","blank","313","null","0.6762887700733122","0.3044827752447332","0.1966380046818195","0","","","","","","","","",""
"","html-keyboard-response","188","491381","0.0-102.0-1.0","""event"",""trial"",""time""
""fullscreenenter"",""0"",""10193""
","
","
","""event"",""trial"",""time""
""fullscreenenter"",""0"",""10193""
","
","null","<p></p>","null","","","","","","","","","","","","","","","","","","","","","","","",""
"","do_trial","189","494233","0.0-103.0-0.0","""event"",""trial"",""time""
""fullscreenenter"",""0"",""10193""
","
","
","""event"",""trial"",""time""
""fullscreenenter"",""0"",""10193""
","
","307.7000000178814","","","","","","","","51","0,0,0","6","blank","314","null","0.5394683095532335","0.24744780663440266","0.06016904230583604","0","","","","","","","","",""
"","html-keyboard-response","190","495245","0.0-103.0-1.0","""event"",""trial"",""time""
""fullscreenenter"",""0"",""10193""
","
","
","""event"",""trial"",""time""
""fullscreenenter"",""0"",""10193""
","
","null","<p></p>","null","","","","","","","","","","","","","","","","","","","","","","","",""
"","do_trial","191","498144","0.0-104.0-0.0","""event"",""trial"",""time""
""fullscreenenter"",""0"",""10193""
","
","
","""event"",""trial"",""time""
""fullscreenenter"",""0"",""10193""
","
","324","","","","","","","","50","1,0,0","6","blank","315","null","0.7258827573828843","0.3225221071776408","0.12299856453533824","0","","","","","","","","",""
"","html-keyboard-response","192","499152","0.0-104.0-1.0","""event"",""trial"",""time""
""fullscreenenter"",""0"",""10193""
","
","
","""event"",""trial"",""time""
""fullscreenenter"",""0"",""10193""
","
","null","<p></p>","null","","","","","","","","","","","","","","","","","","","","","","","",""
"","do_recog","193","501380","0.0-105.0-0.0","""event"",""trial"",""time""
""fullscreenenter"",""0"",""10193""
","
","
","""event"",""trial"",""time""
""fullscreenenter"",""0"",""10193""
","
","720.2000000178814","","","","","","","","55","","","","316","probe-146","","","","","1","[object Object]","190","4","0","","","",""
"","html-keyboard-response","194","502393","0.0-105.0-1.0","""event"",""trial"",""time""
""fullscreenenter"",""0"",""10193""
","
","
","""event"",""trial"",""time""
""fullscreenenter"",""0"",""10193""
","
","null","<p></p>","null","","","","","","","","","","","","","","","","","","","","","","","",""
"","do_trial","195","505481","0.0-106.0-0.0","""event"",""trial"",""time""
""fullscreenenter"",""0"",""10193""
","
","
","""event"",""trial"",""time""
""fullscreenenter"",""0"",""10193""
","
","542","","","","","","","","51","1,0,0","6","blank","317","null","0.7753023472484714","0.3216159691606463","0.17975684104017017","0","","","","","","","","",""
"","html-keyboard-response","196","506495","0.0-106.0-1.0","""event"",""trial"",""time""
""fullscreenenter"",""0"",""10193""
","
","
","""event"",""trial"",""time""
""fullscreenenter"",""0"",""10193""
","
","null","<p></p>","null","","","","","","","","","","","","","","","","","","","","","","","",""
"","do_recog","197","508842","0.0-107.0-0.0","""event"",""trial"",""time""
""fullscreenenter"",""0"",""10193""
","
","
","""event"",""trial"",""time""
""fullscreenenter"",""0"",""10193""
","
","841.1000000238419","","","","","","","","55","","","","318","probe-248","","","","","0","[object Object]","null","null","1","","","",""
"","html-keyboard-response","198","509859","0.0-107.0-1.0","""event"",""trial"",""time""
""fullscreenenter"",""0"",""10193""
","
","
","""event"",""trial"",""time""
""fullscreenenter"",""0"",""10193""
","
","null","<p></p>","null","","","","","","","","","","","","","","","","","","","","","","","",""
"","do_trial","199","512958","0.0-108.0-0.0","""event"",""trial"",""time""
""fullscreenenter"",""0"",""10193""
","
","
","""event"",""trial"",""time""
""fullscreenenter"",""0"",""10193""
","
","527.2000000178814","","","","","","","","50","1,0,0","6","blank","319","null","0.6723876038566325","0.32768852747424476","0.1552446526677416","0","","","","","","","","",""
"","html-keyboard-response","200","513972","0.0-108.0-1.0","""event"",""trial"",""time""
""fullscreenenter"",""0"",""10193""
","
","
","""event"",""trial"",""time""
""fullscreenenter"",""0"",""10193""
","
","null","<p></p>","null","","","","","","","","","","","","","","","","","","","","","","","",""
"","do_trial","201","516797","0.0-109.0-0.0","""event"",""trial"",""time""
""fullscreenenter"",""0"",""10193""
","
","
","""event"",""trial"",""time""
""fullscreenenter"",""0"",""10193""
","
","284.7000000178814","","","","","","","","51","1,0,0","6","blank","320","null","0.6217105961201018","0.28248392876034856","0.06622776150001161","0","","","","","","","","",""
"","html-keyboard-response","202","517810","0.0-109.0-1.0","""event"",""trial"",""time""
""fullscreenenter"",""0"",""10193""
","
","
","""event"",""trial"",""time""
""fullscreenenter"",""0"",""10193""
","
","null","<p></p>","null","","","","","","","","","","","","","","","","","","","","","","","",""
"","do_trial","203","520656","0.0-110.0-0.0","""event"",""trial"",""time""
""fullscreenenter"",""0"",""10193""
","
","
","""event"",""trial"",""time""
""fullscreenenter"",""0"",""10193""
","
","301","","","","","","","","51","1,0,0","6","blank","321","null","0.6045790111470345","0.1518091822857277","0.054598578414580726","0","","","","","","","","",""
"","html-keyboard-response","204","521668","0.0-110.0-1.0","""event"",""trial"",""time""
""fullscreenenter"",""0"",""10193""
","
","
","""event"",""trial"",""time""
""fullscreenenter"",""0"",""10193""
","
","null","<p></p>","null","","","","","","","","","","","","","","","","","","","","","","","",""
"","do_recog","205","524784","0.0-111.0-0.0","""event"",""trial"",""time""
""fullscreenenter"",""0"",""10193""
","
","
","""event"",""trial"",""time""
""fullscreenenter"",""0"",""10193""
","
","1603.9000000059605","","","","","","","","55","","","","322","probe-182","","","","","1","[object Object]","113","2","0","","","",""
"","html-keyboard-response","206","525798","0.0-111.0-1.0","""event"",""trial"",""time""
""fullscreenenter"",""0"",""10193""
","
","
","""event"",""trial"",""time""
""fullscreenenter"",""0"",""10193""
","
","null","<p></p>","null","","","","","","","","","","","","","","","","","","","","","","","",""
"","do_trial","207","528732","0.0-112.0-0.0","""event"",""trial"",""time""
""fullscreenenter"",""0"",""10193""
","
","
","""event"",""trial"",""time""
""fullscreenenter"",""0"",""10193""
","
","390.80000001192093","","","","","","","","51","1,0,0","6","blank","323","null","0.5168613772699101","0.0592324897483406","0.08691945274747574","0","","","","","","","","",""
"","html-keyboard-response","208","529738","0.0-112.0-1.0","""event"",""trial"",""time""
""fullscreenenter"",""0"",""10193""
","
","
","""event"",""trial"",""time""
""fullscreenenter"",""0"",""10193""
","
","null","<p></p>","null","","","","","","","","","","","","","","","","","","","","","","","",""
"","do_trial","209","532629","0.0-113.0-0.0","""event"",""trial"",""time""
""fullscreenenter"",""0"",""10193""
","
","
","""event"",""trial"",""time""
""fullscreenenter"",""0"",""10193""
","
","332.90000000596046","","","","","","","","51","1,0,0","6","blank","324","null","0.49638013715144463","0.12528722174571766","0.07037016060164328","0","","","","","","","","",""
"","html-keyboard-response","210","533641","0.0-113.0-1.0","""event"",""trial"",""time""
""fullscreenenter"",""0"",""10193""
","
","
","""event"",""trial"",""time""
""fullscreenenter"",""0"",""10193""
","
","null","<p></p>","null","","","","","","","","","","","","","","","","","","","","","","","",""
"","do_trial","211","536494","0.0-114.0-0.0","""event"",""trial"",""time""
""fullscreenenter"",""0"",""10193""
","
","
","""event"",""trial"",""time""
""fullscreenenter"",""0"",""10193""
","
","303.30000001192093","","","","","","","","49","0,0,0","6","blank","325","null","0.5925207597170488","0.384832013759869","0.1918033117048933","0","","","","","","","","",""
"","html-keyboard-response","212","537510","0.0-114.0-1.0","""event"",""trial"",""time""
""fullscreenenter"",""0"",""10193""
","
","
","""event"",""trial"",""time""
""fullscreenenter"",""0"",""10193""
","
","null","<p></p>","null","","","","","","","","","","","","","","","","","","","","","","","",""
"","do_trial","213","540382","0.0-115.0-0.0","""event"",""trial"",""time""
""fullscreenenter"",""0"",""10193""
","
","
","""event"",""trial"",""time""
""fullscreenenter"",""0"",""10193""
","
","330.40000000596046","","","","","","","","50","1,0,0","6","blank","326","null","0.6894638067972855","0.40883503266301985","0.15444851659353737","0","","","","","","","","",""
"","html-keyboard-response","214","541397","0.0-115.0-1.0","""event"",""trial"",""time""
""fullscreenenter"",""0"",""10193""
","
","
","""event"",""trial"",""time""
""fullscreenenter"",""0"",""10193""
","
","null","<p></p>","null","","","","","","","","","","","","","","","","","","","","","","","",""
"","do_trial","215","544251","0.0-116.0-0.0","""event"",""trial"",""time""
""fullscreenenter"",""0"",""10193""
","
","
","""event"",""trial"",""time""
""fullscreenenter"",""0"",""10193""
","
","316.30000001192093","","","","","","","","51","1,1,0","6","blank","327","null","0.7986912130931324","0.31796908315554817","0.14006854543260852","0","","","","","","","","",""
"","html-keyboard-response","216","545263","0.0-116.0-1.0","""event"",""trial"",""time""
""fullscreenenter"",""0"",""10193""
","
","
","""event"",""trial"",""time""
""fullscreenenter"",""0"",""10193""
","
","null","<p></p>","null","","","","","","","","","","","","","","","","","","","","","","","",""
"","do_recog","217","547833","0.0-117.0-0.0","""event"",""trial"",""time""
""fullscreenenter"",""0"",""10193""
","
","
","""event"",""trial"",""time""
""fullscreenenter"",""0"",""10193""
","
","1064.5","","","","","","","","55","","","","328","probe-25","","","","","1","[object Object]","75","1","0","","","",""
"","html-keyboard-response","218","548846","0.0-117.0-1.0","""event"",""trial"",""time""
""fullscreenenter"",""0"",""10193""
","
","
","""event"",""trial"",""time""
""fullscreenenter"",""0"",""10193""
","
","null","<p></p>","null","","","","","","","","","","","","","","","","","","","","","","","",""
"","do_trial","219","551732","0.0-118.0-0.0","""event"",""trial"",""time""
""fullscreenenter"",""0"",""10193""
","
","
","""event"",""trial"",""time""
""fullscreenenter"",""0"",""10193""
","
","329","","","","","","","","49","0,1,0","6","blank","329","null","0.7358884026054598","0.3606975706508149","0.12767069447994078","0","","","","","","","","",""
"","html-keyboard-response","220","552745","0.0-118.0-1.0","""event"",""trial"",""time""
""fullscreenenter"",""0"",""10193""
","
","
","""event"",""trial"",""time""
""fullscreenenter"",""0"",""10193""
","
","null","<p></p>","null","","","","","","","","","","","","","","","","","","","","","","","",""
"","do_recog","221","555114","0.0-119.0-0.0","""event"",""trial"",""time""
""fullscreenenter"",""0"",""10193""
","
","
","""event"",""trial"",""time""
""fullscreenenter"",""0"",""10193""
","
","862.8999999761581","","","","","","","","55","","","","330","probe-26","","","","","1","[object Object]","119","2","0","","","",""
"","html-keyboard-response","222","556125","0.0-119.0-1.0","""event"",""trial"",""time""
""fullscreenenter"",""0"",""10193""
","
","
","""event"",""trial"",""time""
""fullscreenenter"",""0"",""10193""
","
","null","<p></p>","null","","","","","","","","","","","","","","","","","","","","","","","",""
"","do_trial","223","559102","0.0-120.0-0.0","""event"",""trial"",""time""
""fullscreenenter"",""0"",""10193""
","
","
","""event"",""trial"",""time""
""fullscreenenter"",""0"",""10193""
","
","427.89999997615814","","","","","","","","49","0,0,0","6","blank","331","null","0.5810935373957063","0.36989189611192635","0.11448934185109916","0","","","","","","","","",""
"","html-keyboard-response","224","560120","0.0-120.0-1.0","""event"",""trial"",""time""
""fullscreenenter"",""0"",""10193""
","
","
","""event"",""trial"",""time""
""fullscreenenter"",""0"",""10193""
","
","null","<p></p>","null","","","","","","","","","","","","","","","","","","","","","","","",""
"","do_trial","225","562999","0.0-121.0-0.0","""event"",""trial"",""time""
""fullscreenenter"",""0"",""10193""
","
","
","""event"",""trial"",""time""
""fullscreenenter"",""0"",""10193""
","
","324.69999998807907","","","","","","","","50","1,0,0","6","blank","332","null","0.5603202251183689","0.30862309523877984","0.058394145201741514","0","","","","","","","","",""
"","html-keyboard-response","226","564014","0.0-121.0-1.0","""event"",""trial"",""time""
""fullscreenenter"",""0"",""10193""
","
","
","""event"",""trial"",""time""
""fullscreenenter"",""0"",""10193""
","
","null","<p></p>","null","","","","","","","","","","","","","","","","","","","","","","","",""
"","do_trial","227","567047","0.0-122.0-0.0","""event"",""trial"",""time""
""fullscreenenter"",""0"",""10193""
","
","
","""event"",""trial"",""time""
""fullscreenenter"",""0"",""10193""
","
","472.30000001192093","","","","","","","","51","1,0,0","6","blank","333","null","0.6191201208377609","0.23575387760874209","0.06502635422255663","0","","","","","","","","",""
"","html-keyboard-response","228","568050","0.0-122.0-1.0","""event"",""trial"",""time""
""fullscreenenter"",""0"",""10193""
","
","
","""event"",""trial"",""time""
""fullscreenenter"",""0"",""10193""
","
","null","<p></p>","null","","","","","","","","","","","","","","","","","","","","","","","",""
"","do_trial","229","571042","0.0-123.0-0.0","""event"",""trial"",""time""
""fullscreenenter"",""0"",""10193""
","
","
","""event"",""trial"",""time""
""fullscreenenter"",""0"",""10193""
","
","454.30000001192093","","","","","","","","50","1,1,0","6","blank","334","null","0.591503018039629","0.25975840553916335","0.2616311117574168","1","","","","","","","","",""
"","html-keyboard-response","230","572055","0.0-123.0-1.0","""event"",""trial"",""time""
""fullscreenenter"",""0"",""10193""
","
","
","""event"",""trial"",""time""
""fullscreenenter"",""0"",""10193""
","
","null","<p></p>","null","","","","","","","","","","","","","","","","","","","","","","","",""
"","do_recog","231","574753","0.0-124.0-0.0","""event"",""trial"",""time""
""fullscreenenter"",""0"",""10193""
","
","
","""event"",""trial"",""time""
""fullscreenenter"",""0"",""10193""
","
","1192.300000011921","","","","","","","","54","","","","335","probe-141","","","","","1","[object Object]","77","1","1","","","",""
"","html-keyboard-response","232","575767","0.0-124.0-1.0","""event"",""trial"",""time""
""fullscreenenter"",""0"",""10193""
","
","
","""event"",""trial"",""time""
""fullscreenenter"",""0"",""10193""
","
","null","<p></p>","null","","","","","","","","","","","","","","","","","","","","","","","",""
"","do_trial","233","578730","0.0-125.0-0.0","""event"",""trial"",""time""
""fullscreenenter"",""0"",""10193""
","
","
","""event"",""trial"",""time""
""fullscreenenter"",""0"",""10193""
","
","417.59999999403954","","","","","","","","50","1,0,1","6","blank","336","null","0.6379701671387396","0.29625423723080757","0.24387960238071024","0","","","","","","","","",""
"","html-keyboard-response","234","579737","0.0-125.0-1.0","""event"",""trial"",""time""
""fullscreenenter"",""0"",""10193""
","
","
","""event"",""trial"",""time""
""fullscreenenter"",""0"",""10193""
","
","null","<p></p>","null","","","","","","","","","","","","","","","","","","","","","","","",""
"","do_recog","235","582591","0.0-126.0-0.0","""event"",""trial"",""time""
""fullscreenenter"",""0"",""10193""
","
","
","""event"",""trial"",""time""
""fullscreenenter"",""0"",""10193""
","
","1335.4000000059605","","","","","","","","54","","","","337","probe-173","","","","","1","[object Object]","31","0","1","","","",""
"","html-keyboard-response","236","583602","0.0-126.0-1.0","""event"",""trial"",""time""
""fullscreenenter"",""0"",""10193""
","
","
","""event"",""trial"",""time""
""fullscreenenter"",""0"",""10193""
","
","null","<p></p>","null","","","","","","","","","","","","","","","","","","","","","","","",""
"","do_trial","237","586544","0.0-127.0-0.0","""event"",""trial"",""time""
""fullscreenenter"",""0"",""10193""
","
","
","""event"",""trial"",""time""
""fullscreenenter"",""0"",""10193""
","
","384","","","","","","","","50","1,0,0","6","blank","338","null","0.7026546297205502","0.27335252634976553","0.28172991864225516","0","","","","","","","","",""
"","html-keyboard-response","238","587556","0.0-127.0-1.0","""event"",""trial"",""time""
""fullscreenenter"",""0"",""10193""
","
","
","""event"",""trial"",""time""
""fullscreenenter"",""0"",""10193""
","
","null","<p></p>","null","","","","","","","","","","","","","","","","","","","","","","","",""
"","do_trial","239","590408","0.0-128.0-0.0","""event"",""trial"",""time""
""fullscreenenter"",""0"",""10193""
","
","
","""event"",""trial"",""time""
""fullscreenenter"",""0"",""10193""
","
","310.19999998807907","","","","","","","","49","1,0,0","6","blank","339","null","0.5863087253960724","0.261795311370598","0.10208947449015997","1","","","","","","","","",""
"","html-keyboard-response","240","591421","0.0-128.0-1.0","""event"",""trial"",""time""
""fullscreenenter"",""0"",""10193""
","
","
","""event"",""trial"",""time""
""fullscreenenter"",""0"",""10193""
","
","null","<p></p>","null","","","","","","","","","","","","","","","","","","","","","","","",""
"","do_trial","241","594428","0.0-129.0-0.0","""event"",""trial"",""time""
""fullscreenenter"",""0"",""10193""
","
","
","""event"",""trial"",""time""
""fullscreenenter"",""0"",""10193""
","
","452","","","","","","","","51","1,0,0","6","blank","340","null","0.5141716986830301","0.2662577827505243","0.22336631564451828","0","","","","","","","","",""
"","html-keyboard-response","242","595435","0.0-129.0-1.0","""event"",""trial"",""time""
""fullscreenenter"",""0"",""10193""
","
","
","""event"",""trial"",""time""
""fullscreenenter"",""0"",""10193""
","
","null","<p></p>","null","","","","","","","","","","","","","","","","","","","","","","","",""
"","do_trial","243","598350","0.0-130.0-0.0","""event"",""trial"",""time""
""fullscreenenter"",""0"",""10193""
","
","
","""event"",""trial"",""time""
""fullscreenenter"",""0"",""10193""
","
","356.90000000596046","","","","","","","","49","1,0,0","6","blank","341","null","0.5173137158242576","0.2604071335940067","0.24477484374489497","1","","","","","","","","",""
"","html-keyboard-response","244","599363","0.0-130.0-1.0","""event"",""trial"",""time""
""fullscreenenter"",""0"",""10193""
","
","
","""event"",""trial"",""time""
""fullscreenenter"",""0"",""10193""
","
","null","<p></p>","null","","","","","","","","","","","","","","","","","","","","","","","",""
"","do_recog","245","602053","0.0-131.0-0.0","""event"",""trial"",""time""
""fullscreenenter"",""0"",""10193""
","
","
","""event"",""trial"",""time""
""fullscreenenter"",""0"",""10193""
","
","1179.9000000059605","","","","","","","","54","","","","342","probe-159","","","","","1","[object Object]","39","0","1","","","",""
"","html-keyboard-response","246","603065","0.0-131.0-1.0","""event"",""trial"",""time""
""fullscreenenter"",""0"",""10193""
","
","
","""event"",""trial"",""time""
""fullscreenenter"",""0"",""10193""
","
","null","<p></p>","null","","","","","","","","","","","","","","","","","","","","","","","",""
"","do_trial","247","606062","0.0-132.0-0.0","""event"",""trial"",""time""
""fullscreenenter"",""0"",""10193""
","
","
","""event"",""trial"",""time""
""fullscreenenter"",""0"",""10193""
","
","450.2999999821186","","","","","","","","49","1,0,0","6","blank","343","null","0.5523059826825624","0.2970578503073939","0.13498859430794993","1","","","","","","","","",""
"","html-keyboard-response","248","607078","0.0-132.0-1.0","""event"",""trial"",""time""
""fullscreenenter"",""0"",""10193""
","
","
","""event"",""trial"",""time""
""fullscreenenter"",""0"",""10193""
","
","null","<p></p>","null","","","","","","","","","","","","","","","","","","","","","","","",""
"","do_trial","249","609937","0.0-133.0-0.0","""event"",""trial"",""time""
""fullscreenenter"",""0"",""10193""
","
","
","""event"",""trial"",""time""
""fullscreenenter"",""0"",""10193""
","
","323.7000000178814","","","","","","","","49","1,0,0","6","blank","344","null","0.6122791468603878","0.2672496048355544","0.1677210255081563","1","","","","","","","","",""
"","html-keyboard-response","250","610951","0.0-133.0-1.0","""event"",""trial"",""time""
""fullscreenenter"",""0"",""10193""
","
","
","""event"",""trial"",""time""
""fullscreenenter"",""0"",""10193""
","
","null","<p></p>","null","","","","","","","","","","","","","","","","","","","","","","","",""
"","do_trial","251","613820","0.0-134.0-0.0","""event"",""trial"",""time""
""fullscreenenter"",""0"",""10193""
","
","
","""event"",""trial"",""time""
""fullscreenenter"",""0"",""10193""
","
","321.89999997615814","","","","","","","","49","1,1,0","6","blank","345","null","0.7268737803182108","0.1612235633322817","0.18792756602837155","1","","","","","","","","",""
"","html-keyboard-response","252","614834","0.0-134.0-1.0","""event"",""trial"",""time""
""fullscreenenter"",""0"",""10193""
","
","
","""event"",""trial"",""time""
""fullscreenenter"",""0"",""10193""
","
","null","<p></p>","null","","","","","","","","","","","","","","","","","","","","","","","",""
"","do_trial","253","617704","0.0-135.0-0.0","""event"",""trial"",""time""
""fullscreenenter"",""0"",""10193""
","
","
","""event"",""trial"",""time""
""fullscreenenter"",""0"",""10193""
","
","318.2000000178814","","","","","","","","49","1,0,1","6","blank","346","null","0.7053237887099016","0.32574814918073136","0.06396077534265274","1","","","","","","","","",""
"","html-keyboard-response","254","618720","0.0-135.0-1.0","""event"",""trial"",""time""
""fullscreenenter"",""0"",""10193""
","
","
","""event"",""trial"",""time""
""fullscreenenter"",""0"",""10193""
","
","null","<p></p>","null","","","","","","","","","","","","","","","","","","","","","","","",""
"","do_trial","255","621590","0.0-136.0-0.0","""event"",""trial"",""time""
""fullscreenenter"",""0"",""10193""
","
","
","""event"",""trial"",""time""
""fullscreenenter"",""0"",""10193""
","
","316.7999999821186","","","","","","","","49","1,0,0","6","blank","347","null","0.6067993302424839","0.4127032661039033","0.0565042228800192","1","","","","","","","","",""
"","html-keyboard-response","256","622600","0.0-136.0-1.0","""event"",""trial"",""time""
""fullscreenenter"",""0"",""10193""
","
","
","""event"",""trial"",""time""
""fullscreenenter"",""0"",""10193""
","
","null","<p></p>","null","","","","","","","","","","","","","","","","","","","","","","","",""
"","do_recog","257","625960","0.0-137.0-0.0","""event"",""trial"",""time""
""fullscreenenter"",""0"",""10193""
","
","
","""event"",""trial"",""time""
""fullscreenenter"",""0"",""10193""
","
","1847.800000011921","","","","","","","","54","","","","348","probe-176","","","","","1","[object Object]","193","4","1","","","",""
"","html-keyboard-response","258","626963","0.0-137.0-1.0","""event"",""trial"",""time""
""fullscreenenter"",""0"",""10193""
","
","
","""event"",""trial"",""time""
""fullscreenenter"",""0"",""10193""
","
","null","<p></p>","null","","","","","","","","","","","","","","","","","","","","","","","",""
"","break","259","627899","0.0-138.0-0.0","""event"",""trial"",""time""
""fullscreenenter"",""0"",""10193""
","
","
","""event"",""trial"",""time""
""fullscreenenter"",""0"",""10193""
","
","934.8000000119209","<div class='center'><p>Time to take a quick break! You have 2 minutes to rest, but you can move on sooner if you'd like.</p><p> Press the <b>space bar</b> to continue.</p></div>","32","","","","","","","","","","","","","","","","","","","","","","","",""
"","do_trial","260","631100","0.0-138.0-1.0","""event"",""trial"",""time""
""fullscreenenter"",""0"",""10193""
","
","
","""event"",""trial"",""time""
""fullscreenenter"",""0"",""10193""
","
","641.3000000119209","","","","","","","","49","1,1,0","6","blank","349","null","0.6909431592827295","0.40987944408669735","0.05794613419698715","1","","","","","","","","",""
"","html-keyboard-response","261","632114","0.0-138.0-2.0","""event"",""trial"",""time""
""fullscreenenter"",""0"",""10193""
","
","
","""event"",""trial"",""time""
""fullscreenenter"",""0"",""10193""
","
","null","<p></p>","null","","","","","","","","","","","","","","","","","","","","","","","",""
"","do_trial","262","635100","0.0-139.0-0.0","""event"",""trial"",""time""
""fullscreenenter"",""0"",""10193""
","
","
","""event"",""trial"",""time""
""fullscreenenter"",""0"",""10193""
","
","439.5","","","","","","","","49","1,0,0","6","blank","350","null","0.5445920857257375","0.47267288495780757","0.13741006233467645","1","","","","","","","","",""
"","html-keyboard-response","263","636115","0.0-139.0-1.0","""event"",""trial"",""time""
""fullscreenenter"",""0"",""10193""
","
","
","""event"",""trial"",""time""
""fullscreenenter"",""0"",""10193""
","
","null","<p></p>","null","","","","","","","","","","","","","","","","","","","","","","","",""
"","do_trial","264","639029","0.0-140.0-0.0","""event"",""trial"",""time""
""fullscreenenter"",""0"",""10193""
","
","
","""event"",""trial"",""time""
""fullscreenenter"",""0"",""10193""
","
","372.80000001192093","","","","","","","","49","0,0,0","6","blank","351","null","0.41254451473221637","0.4862839209913535","0.146009939659556","0","","","","","","","","",""
"","html-keyboard-response","265","640044","0.0-140.0-1.0","""event"",""trial"",""time""
""fullscreenenter"",""0"",""10193""
","
","
","""event"",""trial"",""time""
""fullscreenenter"",""0"",""10193""
","
","null","<p></p>","null","","","","","","","","","","","","","","","","","","","","","","","",""
"","do_trial","266","643019","0.0-141.0-0.0","""event"",""trial"",""time""
""fullscreenenter"",""0"",""10193""
","
","
","""event"",""trial"",""time""
""fullscreenenter"",""0"",""10193""
","
","436.40000000596046","","","","","","","","50","0,0,1","6","blank","352","null","0.3304019526611203","0.5723360286089441","0.21657964787384834","0","","","","","","","","",""
"","html-keyboard-response","267","644034","0.0-141.0-1.0","""event"",""trial"",""time""
""fullscreenenter"",""0"",""10193""
","
","
","""event"",""trial"",""time""
""fullscreenenter"",""0"",""10193""
","
","null","<p></p>","null","","","","","","","","","","","","","","","","","","","","","","","",""
"","do_trial","268","646851","0.0-142.0-0.0","""event"",""trial"",""time""
""fullscreenenter"",""0"",""10193""
","
","
","""event"",""trial"",""time""
""fullscreenenter"",""0"",""10193""
","
","267.2999999821186","","","","","","","","51","0,0,0","6","blank","353","null","0.31403647487420017","0.5784875887674913","0.12700393434505422","0","","","","","","","","",""
"","html-keyboard-response","269","647863","0.0-142.0-1.0","""event"",""trial"",""time""
""fullscreenenter"",""0"",""10193""
","
","
","""event"",""trial"",""time""
""fullscreenenter"",""0"",""10193""
","
","null","<p></p>","null","","","","","","","","","","","","","","","","","","","","","","","",""
"","do_trial","270","650685","0.0-143.0-0.0","""event"",""trial"",""time""
""fullscreenenter"",""0"",""10193""
","
","
","""event"",""trial"",""time""
""fullscreenenter"",""0"",""10193""
","
","281.7999999821186","","","","","","","","51","0,0,0","6","blank","354","null","0.46725166485569547","0.6377064422665136","0.10471299457853098","0","","","","","","","","",""
"","html-keyboard-response","271","651693","0.0-143.0-1.0","""event"",""trial"",""time""
""fullscreenenter"",""0"",""10193""
","
","
","""event"",""trial"",""time""
""fullscreenenter"",""0"",""10193""
","
","null","<p></p>","null","","","","","","","","","","","","","","","","","","","","","","","",""
"","do_trial","272","654620","0.0-144.0-0.0","""event"",""trial"",""time""
""fullscreenenter"",""0"",""10193""
","
","
","""event"",""trial"",""time""
""fullscreenenter"",""0"",""10193""
","
","353.90000000596046","","","","","","","","50","1,1,0","6","blank","355","null","0.46831429241428973","0.5404195049765449","0.24241774984387846","1","","","","","","","","",""
"","html-keyboard-response","273","655627","0.0-144.0-1.0","""event"",""trial"",""time""
""fullscreenenter"",""0"",""10193""
","
","
","""event"",""trial"",""time""
""fullscreenenter"",""0"",""10193""
","
","null","<p></p>","null","","","","","","","","","","","","","","","","","","","","","","","",""
"","do_recog","274","658627","0.0-145.0-0.0","""event"",""trial"",""time""
""fullscreenenter"",""0"",""10193""
","
","
","""event"",""trial"",""time""
""fullscreenenter"",""0"",""10193""
","
","1485.4000000059605","","","","","","","","54","","","","356","probe-96","","","","","1","[object Object]","71","1","1","","","",""
"","html-keyboard-response","275","659640","0.0-145.0-1.0","""event"",""trial"",""time""
""fullscreenenter"",""0"",""10193""
","
","
","""event"",""trial"",""time""
""fullscreenenter"",""0"",""10193""
","
","null","<p></p>","null","","","","","","","","","","","","","","","","","","","","","","","",""
"","do_trial","276","663165","0.0-146.0-0.0","""event"",""trial"",""time""
""fullscreenenter"",""0"",""10193""
