"success","trial_type","trial_index","time_elapsed","internal_node_id","interactions","blur_events","focus_events","fullscreenenter_events","fullscreenexit_events","rt","stimulus","key_press","subject_id","participant_id","age","gender","prompt","response","choice_outcomes","context_n","context_img_id","trial_n","probe_img_id","pR_red","pR_white","pR_black","outcome","is_valid","image_to_show","probed_trial","probed_context","correct","probe","probed_trial_n","probed_context_n","context_im"
"true","fullscreen","0","4790","0.0-0.0","""event"",""trial"",""time""
""fullscreenenter"",""0"",""3827""
","
","
","""event"",""trial"",""time""
""fullscreenenter"",""0"",""3827""
","
","","","","","","","","","","","","","","","","","","","","","","","","","","",""
"","pavlovia","1","4796","0.0-1.0","""event"",""trial"",""time""
""fullscreenenter"",""0"",""3827""
","
","
","""event"",""trial"",""time""
""fullscreenenter"",""0"",""3827""
","
","","","","","","","","","","","","","","","","","","","","","","","","","","",""
"","welc_back","2","14587","0.0-2.0","""event"",""trial"",""time""
""fullscreenenter"",""0"",""3827""
","
","
","""event"",""trial"",""time""
""fullscreenenter"",""0"",""3827""
","
","null","run_exp/static/audio/clip_29_welcome_back.m4a","null","670","957","14","male","<div class='center'><p>Welcome to day 2!</p><p> Yesterday, you were the head captain of a pirate ship. You asked your fellow pirates to rob other ships of their gold across six different islands.</p></div>","","","","","","","","","","","","","","","","","","",""
"","html-keyboard-response","3","19484","0.0-3.0","""event"",""trial"",""time""
""fullscreenenter"",""0"",""3827""
","
","
","""event"",""trial"",""time""
""fullscreenenter"",""0"",""3827""
","
","4895.5999999940395","<div class='center'><p>Welcome to day 2!</p><p> Yesterday, you were the head captain of a pirate ship. You asked your fellow pirates to rob other ships of their gold across six different islands.</p><p><b>[Press the space bar to continue]</b></p></div>","32","","","","","","","","","","","","","","","","","","","","","","","",""
"","day_1_summary_goal","4","36715","0.0-4.0","""event"",""trial"",""time""
""fullscreenenter"",""0"",""3827""
","
","
","""event"",""trial"",""time""
""fullscreenenter"",""0"",""3827""
","
","null","run_exp/static/audio/clip_30_goal_of_game.m4a","null","","","","","<div class='center'><p>Today, like yesterday, you get to pick which pirate you want to rob the next ship.</p><p>If the pirate is successful in robbing a ship, you get gold coins that look like this: </p><p><img src='run_exp/static/images/tutorial/reward.png' height='150'></p><p> If they were not successful in robbing the ship, then you will get no gold coins and you'll see a big red x like this: </p><p><img src='run_exp/static/images/tutorial/reward_no.png' height='150'></p></div>","","","","","","","","","","","","","","","","","","",""
"","html-keyboard-response","5","39807","0.0-5.0","""event"",""trial"",""time""
""fullscreenenter"",""0"",""3827""
","
","
","""event"",""trial"",""time""
""fullscreenenter"",""0"",""3827""
","
","3090.300000011921","<div class='center'><p>Today, like yesterday, you get to pick which pirate you want to rob the next ship.</p><p>If the pirate is successful in robbing a ship, you get gold coins that look like this: </p><p><img src='run_exp/static/images/tutorial/reward.png' height='150'></p><p> If they were not successful in robbing the ship, then you will get no gold coins and you'll see a big red x like this: </p><p><img src='run_exp/static/images/tutorial/reward_no.png' height='150'></p><p><b>[Press the space bar to continue]</b></p></div>","32","","","","","","","","","","","","","","","","","","","","","","","",""
"","day_1_summary_pick","6","54502","0.0-6.0","""event"",""trial"",""time""
""fullscreenenter"",""0"",""3827""
","
","
","""event"",""trial"",""time""
""fullscreenenter"",""0"",""3827""
","
","null","run_exp/static/audio/clip_31_how_to_pick_a_pirate.m4a","null","","","","","<div class='center'><p>Also, just like yesterday, you will use the 1,2,3 keys on your keyboard to pick a pirate. Press '1' to choose red beard, '2' to choose white beard, and '3' to choose black beard . You only have 3 seconds to pick a pirate, so please make a choice quickly!</p></div>","","","","","","","","","","","","","","","","","","",""
"","html-keyboard-response","7","55299","0.0-7.0","""event"",""trial"",""time""
""fullscreenenter"",""0"",""3827""
","
","
","""event"",""trial"",""time""
""fullscreenenter"",""0"",""3827""
","
","796.6999999880791","<div class='center'><p>Also, just like yesterday, you will use the 1,2,3 keys on your keyboard to pick a pirate. Press '1' to choose red beard, '2' to choose white beard, and '3' to choose black beard . You only have 3 seconds to pick a pirate, so please make a choice quickly!</p><p><b>[Press the space bar to continue]</b></p></div>","32","","","","","","","","","","","","","","","","","","","","","","","",""
"","test_phase_begin","8","85709","0.0-8.0","""event"",""trial"",""time""
""fullscreenenter"",""0"",""3827""
","
","
","""event"",""trial"",""time""
""fullscreenenter"",""0"",""3827""
","
","null","run_exp/static/audio/clip_32_final_place.m4a","null","","","","","<div class='center'><p>You’ve arrived at the final island of your journey! Unfortunately, it’s very foggy out, so you won’t be able to see it in the distance like the other islands you've visited.</p><p>You’ll still be deciding which pirate you want to rob a ship like before. However, because of the fog, you also won’t be able to see the ship.</p><p>This means you do not have to remember the ships you rob on this island.</p><p>Unlike yesterday, you won't be visiting multiple islands today. You will stay on this island for the entire game. This game will last ~30 minutes.</p></div>","","","","","","","","","","","","","","","","","","",""
"","html-keyboard-response","9","86259","0.0-9.0","""event"",""trial"",""time""
""fullscreenenter"",""0"",""3827""
","
","
","""event"",""trial"",""time""
""fullscreenenter"",""0"",""3827""
","
","548.5999999940395","<div class='center'><p>You’ve arrived at the final island of your journey! Unfortunately, it’s very foggy out, so you won’t be able to see it in the distance like the other islands you've visited.</p><p>You’ll still be deciding which pirate you want to rob a ship like before. However, because of the fog, you also won’t be able to see the ship.</p><p>This means you do not have to remember the ships you rob on this island.</p><p>Unlike yesterday, you won't be visiting multiple islands today. You will stay on this island for the entire game. This game will last ~30 minutes.</p><p><b>[Press the space bar to continue]</b></p></div>","32","","","","","","","","","","","","","","","","","","","","","","","",""
"","explain_probe_1","10","93975","0.0-10.0","""event"",""trial"",""time""
""fullscreenenter"",""0"",""3827""
","
","
","""event"",""trial"",""time""
""fullscreenenter"",""0"",""3827""
","
","null","run_exp/static/audio/clip_33_recognition_1.m4a","null","","","","","<div class='center'><p> Sometimes you’ll be shown a ship, and you will be asked if you saw this ship on a past island.</p><p> Here is an example of what you will see.</p><p><img src='run_exp/static/images/tutorial/example_recog_trial.png' height='500'></p></div>","","","","","","","","","","","","","","","","","","",""
"","html-keyboard-response","11","95041","0.0-11.0","""event"",""trial"",""time""
""fullscreenenter"",""0"",""3827""
","
","
","""event"",""trial"",""time""
""fullscreenenter"",""0"",""3827""
","
","1063.5","<div class='center'><p> Sometimes you’ll be shown a ship, and you will be asked if you saw this ship on a past island.</p><p> Here is an example of what you will see.</p><p><img src='run_exp/static/images/tutorial/example_recog_trial.png' height='500'></p><p><b>[Press the space bar to continue]</b></p></div>","32","","","","","","","","","","","","","","","","","","","","","","","",""
"","explain_probe_2","12","116755","0.0-12.0","""event"",""trial"",""time""
""fullscreenenter"",""0"",""3827""
","
","
","""event"",""trial"",""time""
""fullscreenenter"",""0"",""3827""
","
","null","run_exp/static/audio/clip_34_recognition_2.m4a","null","","","","","<div class='center'><p> You will press the 5, 6, 7, 8 keys on your keyboard to respond.</p><p>If you are sure you saw the ship, press <b>5</b> on your keyboard.</p><p> If you think you saw it before but aren't sure, then press <b>6</b>.</p><p> If you think you have <b>not</b> seen it before but aren't sure, then press <b>7</b>.</p><p> If you are sure you did <b>not</b> see the ship before, then press <b>8</b>.</p><p><img src='run_exp/static/images/tutorial/example_recog_trial.png' height='500'></p></div>","","","","","","","","","","","","","","","","","","",""
"","html-keyboard-response","13","117879","0.0-13.0","""event"",""trial"",""time""
""fullscreenenter"",""0"",""3827""
","
","
","""event"",""trial"",""time""
""fullscreenenter"",""0"",""3827""
","
","1122.699999988079","<div class='center'><p> You will press the 5, 6, 7, 8 keys on your keyboard to respond.</p><p>If you are sure you saw the ship, press <b>5</b> on your keyboard.</p><p> If you think you saw it before but aren't sure, then press <b>6</b>.</p><p> If you think you have <b>not</b> seen it before but aren't sure, then press <b>7</b>.</p><p> If you are sure you did <b>not</b> see the ship before, then press <b>8</b>.</p><p><img src='run_exp/static/images/tutorial/example_recog_trial.png' height='500'></p><p><b>[Press the space bar to continue]</b></p></div>","32","","","","","","","","","","","","","","","","","","","","","","","",""
"","explain_outcome","14","135098","0.0-14.0","""event"",""trial"",""time""
""fullscreenenter"",""0"",""3827""
","
","
","""event"",""trial"",""time""
""fullscreenenter"",""0"",""3827""
","
","null","run_exp/static/audio/clip_35_recognition_3.m4a","null","","","","","<div class='center'><p> If you remember correctly, then you’ll get a gold coin like this: </p><p><img src='run_exp/static/images/tutorial/reward_small.png' height='200'></p><p>If you do not remember correctly, then you'll see a red x like this: </p><p><img src='run_exp/static/images/tutorial/reward_no.png' height='200'></p><p>Importantly, when you are shown a ship, take the time to remind yourself which island you saw it on. This will help you in the next part of the study.</p></div>","","","","","","","","","","","","","","","","","","",""
"","html-keyboard-response","15","135365","0.0-15.0","""event"",""trial"",""time""
""fullscreenenter"",""0"",""3827""
","
","
","""event"",""trial"",""time""
""fullscreenenter"",""0"",""3827""
","
","265.10000002384186","<div class='center'><p> If you remember correctly, then you’ll get a gold coin like this: </p><p><img src='run_exp/static/images/tutorial/reward_small.png' height='200'></p><p>If you do not remember correctly, then you'll see a red x like this: </p><p><img src='run_exp/static/images/tutorial/reward_no.png' height='200'></p><p>Importantly, when you are shown a ship, take the time to remind yourself which island you saw it on. This will help you in the next part of the study.</p><p><b>[Press the space bar to continue]</b></p></div>","32","","","","","","","","","","","","","","","","","","","","","","","",""
"","begin_test_phase","16","151190","0.0-16.0","""event"",""trial"",""time""
""fullscreenenter"",""0"",""3827""
","
","
","""event"",""trial"",""time""
""fullscreenenter"",""0"",""3827""
","
","null","run_exp/static/audio/clip_36_begin_final.m4a","null","","","","","<div class='center'><p>Let's go over the important points again. Your job is to: </p><p>1. Pick the pirate who is best at robbing ships and will bring you back gold coins. </p><p>2. Correctly remember whether or not you saw a ship before. If you did see the ship before, remind yourself on which island you saw it. </p></div>","","","","","","","","","","","","","","","","","","",""
"","html-keyboard-response","17","151728","0.0-17.0","""event"",""trial"",""time""
""fullscreenenter"",""0"",""3827""
","
","
","""event"",""trial"",""time""
""fullscreenenter"",""0"",""3827""
","
","491.40000000596046","<div class='center'><p>Let's go over the important points again. Your job is to: </p><p>1. Pick the pirate who is best at robbing ships and will bring you back gold coins. </p><p>2. Correctly remember whether or not you saw a ship before. If you did see the ship before, remind yourself on which island you saw it. </p><p><b>[Press the space bar to continue]</b></p></div>","32","","","","","","","","","","","","","","","","","","","","","","","",""
"","do_welcome","18","155741","0.0-18.0","""event"",""trial"",""time""
""fullscreenenter"",""0"",""3827""
","
","
","""event"",""trial"",""time""
""fullscreenenter"",""0"",""3827""
","
","null","","","","","","","","null","","","","","","","","","","","","","","","","","",""
"","do_trial","19","159967","0.0-19.0-0.0","""event"",""trial"",""time""
""fullscreenenter"",""0"",""3827""
","
","
","""event"",""trial"",""time""
""fullscreenenter"",""0"",""3827""
","
","1677.0999999940395","","","","","","","","51","1,0,0","6","blank","230","null","0.4573319638235257","0.1509266880527453","0.6445662089937386","0","","","","","","","","",""
"","html-keyboard-response","20","160974","0.0-19.0-1.0","""event"",""trial"",""time""
""fullscreenenter"",""0"",""3827""
","
","
","""event"",""trial"",""time""
""fullscreenenter"",""0"",""3827""
","
","null","<p></p>","null","","","","","","","","","","","","","","","","","","","","","","","",""
"","do_trial","21","164669","0.0-20.0-0.0","""event"",""trial"",""time""
""fullscreenenter"",""0"",""3827""
","
","
","""event"",""trial"",""time""
""fullscreenenter"",""0"",""3827""
","
","1151.9000000059605","","","","","","","","49","0,0,0","6","blank","231","null","0.29119520844365293","0.0897544764721333","0.6311905207028111","0","","","","","","","","",""
"","html-keyboard-response","22","165676","0.0-20.0-1.0","""event"",""trial"",""time""
""fullscreenenter"",""0"",""3827""
","
","
","""event"",""trial"",""time""
""fullscreenenter"",""0"",""3827""
","
","null","<p></p>","null","","","","","","","","","","","","","","","","","","","","","","","",""
"","do_trial","23","168607","0.0-21.0-0.0","""event"",""trial"",""time""
""fullscreenenter"",""0"",""3827""
","
","
","""event"",""trial"",""time""
""fullscreenenter"",""0"",""3827""
","
","383.7999999821186","","","","","","","","50","0,0,1","6","blank","232","null","0.29268802830405444","0.11646167509740683","0.6502677863143329","0","","","","","","","","",""
"","html-keyboard-response","24","169611","0.0-21.0-1.0","""event"",""trial"",""time""
""fullscreenenter"",""0"",""3827""
","
","
","""event"",""trial"",""time""
""fullscreenenter"",""0"",""3827""
","
","null","<p></p>","null","","","","","","","","","","","","","","","","","","","","","","","",""
"","do_trial","25","172514","0.0-22.0-0.0","""event"",""trial"",""time""
""fullscreenenter"",""0"",""3827""
","
","
","""event"",""trial"",""time""
""fullscreenenter"",""0"",""3827""
","
","360.90000000596046","","","","","","","","51","0,0,1","6","blank","233","null","0.4803477512241579","0.10646881309257582","0.6177165040270356","1","","","","","","","","",""
"","html-keyboard-response","26","173516","0.0-22.0-1.0","""event"",""trial"",""time""
""fullscreenenter"",""0"",""3827""
","
","
","""event"",""trial"",""time""
""fullscreenenter"",""0"",""3827""
","
","null","<p></p>","null","","","","","","","","","","","","","","","","","","","","","","","",""
"","do_trial","27","176956","0.0-23.0-0.0","""event"",""trial"",""time""
""fullscreenenter"",""0"",""3827""
","
","
","""event"",""trial"",""time""
""fullscreenenter"",""0"",""3827""
","
","892.1999999880791","","","","","","","","51","0,0,1","6","blank","234","null","0.44297776271554085","0.21890373273345826","0.7575841349419206","1","","","","","","","","",""
"","html-keyboard-response","28","177963","0.0-23.0-1.0","""event"",""trial"",""time""
""fullscreenenter"",""0"",""3827""
","
","
","""event"",""trial"",""time""
""fullscreenenter"",""0"",""3827""
","
","null","<p></p>","null","","","","","","","","","","","","","","","","","","","","","","","",""
"","do_trial","29","180604","0.0-24.0-0.0","""event"",""trial"",""time""
""fullscreenenter"",""0"",""3827""
","
","
","""event"",""trial"",""time""
""fullscreenenter"",""0"",""3827""
","
","95.09999999403954","","","","","","","","51","0,0,1","6","blank","235","null","0.4461486130867982","0.28380272761792774","0.6906137785051363","1","","","","","","","","",""
"","html-keyboard-response","30","181611","0.0-24.0-1.0","""event"",""trial"",""time""
""fullscreenenter"",""0"",""3827""
","
","
","""event"",""trial"",""time""
""fullscreenenter"",""0"",""3827""
","
","null","<p></p>","null","","","","","","","","","","","","","","","","","","","","","","","",""
"","do_trial","31","184434","0.0-25.0-0.0","""event"",""trial"",""time""
""fullscreenenter"",""0"",""3827""
","
","
","""event"",""trial"",""time""
""fullscreenenter"",""0"",""3827""
","
","278.80000001192093","","","","","","","","51","0,1,0","6","blank","236","null","0.40051946331630256","0.10125506334315826","0.643991415816971","0","","","","","","","","",""
"","html-keyboard-response","32","185441","0.0-25.0-1.0","""event"",""trial"",""time""
""fullscreenenter"",""0"",""3827""
","
","
","""event"",""trial"",""time""
""fullscreenenter"",""0"",""3827""
","
","null","<p></p>","null","","","","","","","","","","","","","","","","","","","","","","","",""
"","do_trial","33","188240","0.0-26.0-0.0","""event"",""trial"",""time""
""fullscreenenter"",""0"",""3827""
","
","
","""event"",""trial"",""time""
""fullscreenenter"",""0"",""3827""
","
","253.2999999821186","","","","","","","","50","1,0,1","6","blank","237","null","0.46447287376448493","0.10148332117483305","0.7258617271111585","0","","","","","","","","",""
"","html-keyboard-response","34","189241","0.0-26.0-1.0","""event"",""trial"",""time""
""fullscreenenter"",""0"",""3827""
","
","
","""event"",""trial"",""time""
""fullscreenenter"",""0"",""3827""
","
","null","<p></p>","null","","","","","","","","","","","","","","","","","","","","","","","",""
"","do_trial","35","191911","0.0-27.0-0.0","""event"",""trial"",""time""
""fullscreenenter"",""0"",""3827""
","
","
","""event"",""trial"",""time""
""fullscreenenter"",""0"",""3827""
","
","121.5","","","","","","","","50","0,0,0","6","blank","238","null","0.3032915922731278","0.1392112617736746","0.5750611290701274","0","","","","","","","","",""
"","html-keyboard-response","36","192918","0.0-27.0-1.0","""event"",""trial"",""time""
""fullscreenenter"",""0"",""3827""
","
","
","""event"",""trial"",""time""
""fullscreenenter"",""0"",""3827""
","
","null","<p></p>","null","","","","","","","","","","","","","","","","","","","","","","","",""
"","do_trial","37","195495","0.0-28.0-0.0","""event"",""trial"",""time""
""fullscreenenter"",""0"",""3827""
","
","
","""event"",""trial"",""time""
""fullscreenenter"",""0"",""3827""
","
","30.700000017881393","","","","","","","","49","0,0,1","6","blank","239","null","0.29562711418603166","0.18407817265074294","0.5424826017234584","0","","","","","","","","",""
"","html-keyboard-response","38","196502","0.0-28.0-1.0","""event"",""trial"",""time""
""fullscreenenter"",""0"",""3827""
","
","
","""event"",""trial"",""time""
""fullscreenenter"",""0"",""3827""
","
","null","<p></p>","null","","","","","","","","","","","","","","","","","","","","","","","",""
"","do_trial","39","200020","0.0-29.0-0.0","""event"",""trial"",""time""
""fullscreenenter"",""0"",""3827""
","
","
","""event"",""trial"",""time""
""fullscreenenter"",""0"",""3827""
","
","971.8000000119209","","","","","","","","51","1,0,0","6","blank","240","null","0.45894992764019577","0.14638749490463107","0.46972105747220505","0","","","","","","","","",""
"","html-keyboard-response","40","201027","0.0-29.0-1.0","""event"",""trial"",""time""
""fullscreenenter"",""0"",""3827""
","
","
","""event"",""trial"",""time""
""fullscreenenter"",""0"",""3827""
","
","null","<p></p>","null","","","","","","","","","","","","","","","","","","","","","","","",""
"","do_trial","41","203815","0.0-30.0-0.0","""event"",""trial"",""time""
""fullscreenenter"",""0"",""3827""
","
","
","""event"",""trial"",""time""
""fullscreenenter"",""0"",""3827""
","
","240.2999999821186","","","","","","","","49","1,0,0","6","blank","241","null","0.38596965974727965","0.20206371372144624","0.4582098828437707","1","","","","","","","","",""
"","html-keyboard-response","42","204821","0.0-30.0-1.0","""event"",""trial"",""time""
""fullscreenenter"",""0"",""3827""
","
","
","""event"",""trial"",""time""
""fullscreenenter"",""0"",""3827""
","
","null","<p></p>","null","","","","","","","","","","","","","","","","","","","","","","","",""
"","do_trial","43","208198","0.0-31.0-0.0","""event"",""trial"",""time""
""fullscreenenter"",""0"",""3827""
","
","
","""event"",""trial"",""time""
""fullscreenenter"",""0"",""3827""
","
","828.5999999940395","","","","","","","","49","1,0,1","6","blank","242","null","0.45769553866621077","0.07365178760591568","0.3264001470155104","1","","","","","","","","",""
"","html-keyboard-response","44","209204","0.0-31.0-1.0","""event"",""trial"",""time""
""fullscreenenter"",""0"",""3827""
","
","
","""event"",""trial"",""time""
""fullscreenenter"",""0"",""3827""
","
","null","<p></p>","null","","","","","","","","","","","","","","","","","","","","","","","",""
"","do_trial","45","212202","0.0-32.0-0.0","""event"",""trial"",""time""
""fullscreenenter"",""0"",""3827""
","
","
","""event"",""trial"",""time""
""fullscreenenter"",""0"",""3827""
","
","451.2999999821186","","","","","","","","49","1,0,1","6","blank","243","null","0.43445637676107707","0.13142618324145233","0.3877765325876079","1","","","","","","","","",""
"","html-keyboard-response","46","213209","0.0-32.0-1.0","""event"",""trial"",""time""
""fullscreenenter"",""0"",""3827""
","
","
","""event"",""trial"",""time""
""fullscreenenter"",""0"",""3827""
","
","null","<p></p>","null","","","","","","","","","","","","","","","","","","","","","","","",""
"","do_trial","47","215928","0.0-33.0-0.0","""event"",""trial"",""time""
""fullscreenenter"",""0"",""3827""
","
","
","""event"",""trial"",""time""
""fullscreenenter"",""0"",""3827""
","
","174.80000001192093","","","","","","","","49","0,1,0","6","blank","244","null","0.5006770888802197","0.08382591136049872","0.2933220702975809","0","","","","","","","","",""
"","html-keyboard-response","48","216930","0.0-33.0-1.0","""event"",""trial"",""time""
""fullscreenenter"",""0"",""3827""
","
","
","""event"",""trial"",""time""
""fullscreenenter"",""0"",""3827""
","
","null","<p></p>","null","","","","","","","","","","","","","","","","","","","","","","","",""
"","do_trial","49","219800","0.0-34.0-0.0","""event"",""trial"",""time""
""fullscreenenter"",""0"",""3827""
","
","
","""event"",""trial"",""time""
""fullscreenenter"",""0"",""3827""
","
","322.89999997615814","","","","","","","","50","1,0,1","6","blank","245","null","0.5885673691249536","0.09522398872570709","0.46662166161811514","0","","","","","","","","",""
"","html-keyboard-response","50","220802","0.0-34.0-1.0","""event"",""trial"",""time""
""fullscreenenter"",""0"",""3827""
","
","
","""event"",""trial"",""time""
""fullscreenenter"",""0"",""3827""
","
","null","<p></p>","null","","","","","","","","","","","","","","","","","","","","","","","",""
"","do_recog","51","226817","0.0-35.0-0.0","""event"",""trial"",""time""
""fullscreenenter"",""0"",""3827""
","
","
","""event"",""trial"",""time""
""fullscreenenter"",""0"",""3827""
","
","null","","","","","","","","null","","","","246","probe-28","","","","","1","[object Object]","155","3","0","","","",""
"","html-keyboard-response","52","227820","0.0-35.0-1.0","""event"",""trial"",""time""
""fullscreenenter"",""0"",""3827""
","
","
","""event"",""trial"",""time""
""fullscreenenter"",""0"",""3827""
","
","null","<p></p>","null","","","","","","","","","","","","","","","","","","","","","","","",""
"","do_trial","53","231932","0.0-36.0-0.0","""event"",""trial"",""time""
""fullscreenenter"",""0"",""3827""
","
","
","""event"",""trial"",""time""
""fullscreenenter"",""0"",""3827""
","
","1558.2000000178814","","","","","","","","51","0,0,0","6","blank","247","null","0.7033213036127391","0.1085845012388095","0.3196182176320133","0","","","","","","","","",""
"","html-keyboard-response","54","232938","0.0-36.0-1.0","""event"",""trial"",""time""
""fullscreenenter"",""0"",""3827""
","
","
","""event"",""trial"",""time""
""fullscreenenter"",""0"",""3827""
","
","null","<p></p>","null","","","","","","","","","","","","","","","","","","","","","","","",""
"","do_recog","55","236851","0.0-37.0-0.0","""event"",""trial"",""time""
""fullscreenenter"",""0"",""3827""
","
","
","""event"",""trial"",""time""
""fullscreenenter"",""0"",""3827""
","
","2399.399999976158","","","","","","","","56","","","","248","probe-123","","","","","1","[object Object]","199","4","0","","","",""
"","html-keyboard-response","56","237858","0.0-37.0-1.0","""event"",""trial"",""time""
""fullscreenenter"",""0"",""3827""
","
","
","""event"",""trial"",""time""
""fullscreenenter"",""0"",""3827""
","
","null","<p></p>","null","","","","","","","","","","","","","","","","","","","","","","","",""
"","do_trial","57","241555","0.0-38.0-0.0","""event"",""trial"",""time""
""fullscreenenter"",""0"",""3827""
","
","
","""event"",""trial"",""time""
""fullscreenenter"",""0"",""3827""
","
","1151.9000000059605","","","","","","","","50","1,0,0","6","blank","249","null","0.6266726433588654","0.23872316390311837","0.2486385392526917","0","","","","","","","","",""
"","html-keyboard-response","58","242562","0.0-38.0-1.0","""event"",""trial"",""time""
""fullscreenenter"",""0"",""3827""
","
","
","""event"",""trial"",""time""
""fullscreenenter"",""0"",""3827""
","
","null","<p></p>","null","","","","","","","","","","","","","","","","","","","","","","","",""
"","do_trial","59","245303","0.0-39.0-0.0","""event"",""trial"",""time""
""fullscreenenter"",""0"",""3827""
","
","
","""event"",""trial"",""time""
""fullscreenenter"",""0"",""3827""
","
","196.89999997615814","","","","","","","","49","0,0,0","6","blank","250","null","0.6012598091659183","0.1493226977342618","0.2782130828173805","0","","","","","","","","",""
"","html-keyboard-response","60","246309","0.0-39.0-1.0","""event"",""trial"",""time""
""fullscreenenter"",""0"",""3827""
","
","
","""event"",""trial"",""time""
""fullscreenenter"",""0"",""3827""
","
","null","<p></p>","null","","","","","","","","","","","","","","","","","","","","","","","",""
"","do_trial","61","248909","0.0-40.0-0.0","""event"",""trial"",""time""
""fullscreenenter"",""0"",""3827""
","
","
","""event"",""trial"",""time""
""fullscreenenter"",""0"",""3827""
","
","51.19999998807907","","","","","","","","51","1,0,0","6","blank","251","null","0.6085284678794144","0.21215382991787177","0.24905568699552008","0","","","","","","","","",""
"","html-keyboard-response","62","249913","0.0-40.0-1.0","""event"",""trial"",""time""
""fullscreenenter"",""0"",""3827""
","
","
","""event"",""trial"",""time""
""fullscreenenter"",""0"",""3827""
","
","null","<p></p>","null","","","","","","","","","","","","","","","","","","","","","","","",""
"","do_trial","63","253015","0.0-41.0-0.0","""event"",""trial"",""time""
""fullscreenenter"",""0"",""3827""
","
","
","""event"",""trial"",""time""
""fullscreenenter"",""0"",""3827""
","
","554.0999999940395","","","","","","","","49","1,1,0","6","blank","252","null","0.5848654942624382","0.23253580084834258","0.06162519708798758","1","","","","","","","","",""
"","html-keyboard-response","64","254021","0.0-41.0-1.0","""event"",""trial"",""time""
""fullscreenenter"",""0"",""3827""
","
","
","""event"",""trial"",""time""
""fullscreenenter"",""0"",""3827""
","
","null","<p></p>","null","","","","","","","","","","","","","","","","","","","","","","","",""
"","do_trial","65","256889","0.0-42.0-0.0","""event"",""trial"",""time""
""fullscreenenter"",""0"",""3827""
","
","
","""event"",""trial"",""time""
""fullscreenenter"",""0"",""3827""
","
","325.59999999403954","","","","","","","","50","0,0,1","6","blank","253","null","0.5684674244941266","0.15480349300145463","0.24644243384729755","0","","","","","","","","",""
"","html-keyboard-response","66","257890","0.0-42.0-1.0","""event"",""trial"",""time""
""fullscreenenter"",""0"",""3827""
","
","
","""event"",""trial"",""time""
""fullscreenenter"",""0"",""3827""
","
","null","<p></p>","null","","","","","","","","","","","","","","","","","","","","","","","",""
"","do_trial","67","260738","0.0-43.0-0.0","""event"",""trial"",""time""
""fullscreenenter"",""0"",""3827""
","
","
","""event"",""trial"",""time""
""fullscreenenter"",""0"",""3827""
","
","303","","","","","","","","51","0,0,0","6","blank","254","null","0.5781177408599656","0.17725847401893183","0.17700391823856781","0","","","","","","","","",""
"","html-keyboard-response","68","261742","0.0-43.0-1.0","""event"",""trial"",""time""
""fullscreenenter"",""0"",""3827""
","
","
","""event"",""trial"",""time""
""fullscreenenter"",""0"",""3827""
","
","null","<p></p>","null","","","","","","","","","","","","","","","","","","","","","","","",""
"","do_trial","69","264323","0.0-44.0-0.0","""event"",""trial"",""time""
""fullscreenenter"",""0"",""3827""
","
","
","""event"",""trial"",""time""
""fullscreenenter"",""0"",""3827""
","
","40.599999994039536","","","","","","","","50","1,0,0","6","blank","255","null","0.5515374624014104","0.19397689908894894","0.34385771332841464","0","","","","","","","","",""
"","html-keyboard-response","70","265329","0.0-44.0-1.0","""event"",""trial"",""time""
""fullscreenenter"",""0"",""3827""
","
","
","""event"",""trial"",""time""
""fullscreenenter"",""0"",""3827""
","
","null","<p></p>","null","","","","","","","","","","","","","","","","","","","","","","","",""
"","do_recog","71","269469","0.0-45.0-0.0","""event"",""trial"",""time""
""fullscreenenter"",""0"",""3827""
","
","
","""event"",""trial"",""time""
""fullscreenenter"",""0"",""3827""
","
","2626.5","","","","","","","","55","","","","256","probe-149","","","","","1","[object Object]","194","4","0","","","",""
"","html-keyboard-response","72","270474","0.0-45.0-1.0","""event"",""trial"",""time""
""fullscreenenter"",""0"",""3827""
","
","
","""event"",""trial"",""time""
""fullscreenenter"",""0"",""3827""
","
","null","<p></p>","null","","","","","","","","","","","","","","","","","","","","","","","",""
"","do_trial","73","273976","0.0-46.0-0.0","""event"",""trial"",""time""
""fullscreenenter"",""0"",""3827""
","
","
","""event"",""trial"",""time""
""fullscreenenter"",""0"",""3827""
","
","952.2000000178814","","","","","","","","49","1,0,0","6","blank","257","null","0.4757046394514734","0.15503267819036043","0.4118893124187534","1","","","","","","","","",""
"","html-keyboard-response","74","274979","0.0-46.0-1.0","""event"",""trial"",""time""
""fullscreenenter"",""0"",""3827""
","
","
","""event"",""trial"",""time""
""fullscreenenter"",""0"",""3827""
","
","null","<p></p>","null","","","","","","","","","","","","","","","","","","","","","","","",""
"","do_trial","75","277839","0.0-47.0-0.0","""event"",""trial"",""time""
""fullscreenenter"",""0"",""3827""
","
","
","""event"",""trial"",""time""
""fullscreenenter"",""0"",""3827""
","
","313.5","","","","","","","","51","0,0,0","6","blank","258","null","0.44039259558833144","0.21070456226997067","0.42713273616149494","0","","","","","","","","",""
"","html-keyboard-response","76","278844","0.0-47.0-1.0","""event"",""trial"",""time""
""fullscreenenter"",""0"",""3827""
","
","
","""event"",""trial"",""time""
""fullscreenenter"",""0"",""3827""
","
","null","<p></p>","null","","","","","","","","","","","","","","","","","","","","","","","",""
"","do_trial","77","281812","0.0-48.0-0.0","""event"",""trial"",""time""
""fullscreenenter"",""0"",""3827""
","
","
","""event"",""trial"",""time""
""fullscreenenter"",""0"",""3827""
","
","425.5","","","","","","","","50","0,0,0","6","blank","259","null","0.5668557372533811","0.3187300678933003","0.4793719844268318","0","","","","","","","","",""
"","html-keyboard-response","78","282819","0.0-48.0-1.0","""event"",""trial"",""time""
""fullscreenenter"",""0"",""3827""
","
","
","""event"",""trial"",""time""
""fullscreenenter"",""0"",""3827""
","
","null","<p></p>","null","","","","","","","","","","","","","","","","","","","","","","","",""
"","do_recog","79","286829","0.0-49.0-0.0","""event"",""trial"",""time""
""fullscreenenter"",""0"",""3827""
","
","
","""event"",""trial"",""time""
""fullscreenenter"",""0"",""3827""
","
","2497.300000011921","","","","","","","","54","","","","260","probe-76","","","","","1","[object Object]","70","1","1","","","",""
"","html-keyboard-response","80","287835","0.0-49.0-1.0","""event"",""trial"",""time""
""fullscreenenter"",""0"",""3827""
","
","
","""event"",""trial"",""time""
""fullscreenenter"",""0"",""3827""
","
","null","<p></p>","null","","","","","","","","","","","","","","","","","","","","","","","",""
"","do_trial","81","291660","0.0-50.0-0.0","""event"",""trial"",""time""
""fullscreenenter"",""0"",""3827""
","
","
","""event"",""trial"",""time""
""fullscreenenter"",""0"",""3827""
","
","1283.800000011921","","","","","","","","49","0,1,0","6","blank","261","null","0.5164170495342322","0.24312899000890806","0.35078957569138747","0","","","","","","","","",""
"","html-keyboard-response","82","292665","0.0-50.0-1.0","""event"",""trial"",""time""
""fullscreenenter"",""0"",""3827""
","
","
","""event"",""trial"",""time""
""fullscreenenter"",""0"",""3827""
","
","null","<p></p>","null","","","","","","","","","","","","","","","","","","","","","","","",""
"","do_trial","83","296222","0.0-51.0-0.0","""event"",""trial"",""time""
""fullscreenenter"",""0"",""3827""
","
","
","""event"",""trial"",""time""
""fullscreenenter"",""0"",""3827""
","
","998.1999999880791","","","","","","","","51","1,1,0","6","blank","262","null","0.4621026491302021","0.19685277209485932","0.29468660412201103","0","","","","","","","","",""
"","html-keyboard-response","84","297229","0.0-51.0-1.0","""event"",""trial"",""time""
""fullscreenenter"",""0"",""3827""
","
","
","""event"",""trial"",""time""
""fullscreenenter"",""0"",""3827""
","
","null","<p></p>","null","","","","","","","","","","","","","","","","","","","","","","","",""
"","do_trial","85","300574","0.0-52.0-0.0","""event"",""trial"",""time""
""fullscreenenter"",""0"",""3827""
","
","
","""event"",""trial"",""time""
""fullscreenenter"",""0"",""3827""
","
","802.5999999940395","","","","","","","","50","0,1,0","6","blank","263","null","0.4966295654943517","0.335414920650443","0.21244821986670456","1","","","","","","","","",""
"","html-keyboard-response","86","301579","0.0-52.0-1.0","""event"",""trial"",""time""
""fullscreenenter"",""0"",""3827""
","
","
","""event"",""trial"",""time""
""fullscreenenter"",""0"",""3827""
","
","null","<p></p>","null","","","","","","","","","","","","","","","","","","","","","","","",""
"","do_trial","87","304445","0.0-53.0-0.0","""event"",""trial"",""time""
""fullscreenenter"",""0"",""3827""
","
","
","""event"",""trial"",""time""
""fullscreenenter"",""0"",""3827""
","
","321","","","","","","","","50","1,0,0","6","blank","264","null","0.5929788840823315","0.29957190588132554","0.3136170592425394","0","","","","","","","","",""
"","html-keyboard-response","88","305448","0.0-53.0-1.0","""event"",""trial"",""time""
""fullscreenenter"",""0"",""3827""
","
","
","""event"",""trial"",""time""
""fullscreenenter"",""0"",""3827""
","
","null","<p></p>","null","","","","","","","","","","","","","","","","","","","","","","","",""
"","do_recog","89","308760","0.0-54.0-0.0","""event"",""trial"",""time""
""fullscreenenter"",""0"",""3827""
","
","
","""event"",""trial"",""time""
""fullscreenenter"",""0"",""3827""
","
","1798.3999999761581","","","","","","","","55","","","","265","probe-208","","","","","1","[object Object]","119","2","0","","","",""
"","html-keyboard-response","90","309764","0.0-54.0-1.0","""event"",""trial"",""time""
""fullscreenenter"",""0"",""3827""
","
","
","""event"",""trial"",""time""
""fullscreenenter"",""0"",""3827""
","
","null","<p></p>","null","","","","","","","","","","","","","","","","","","","","","","","",""
"","do_trial","91","312702","0.0-55.0-0.0","""event"",""trial"",""time""
""fullscreenenter"",""0"",""3827""
","
","
","""event"",""trial"",""time""
""fullscreenenter"",""0"",""3827""
","
","396","","","","","","","","50","1,0,0","6","blank","266","null","0.6067665024854624","0.4328968471948761","0.2516370882656737","0","","","","","","","","",""
"","html-keyboard-response","92","313708","0.0-55.0-1.0","""event"",""trial"",""time""
""fullscreenenter"",""0"",""3827""
","
","
","""event"",""trial"",""time""
""fullscreenenter"",""0"",""3827""
","
","null","<p></p>","null","","","","","","","","","","","","","","","","","","","","","","","",""
"","do_recog","93","317461","0.0-56.0-0.0","""event"",""trial"",""time""
""fullscreenenter"",""0"",""3827""
","
","
","""event"",""trial"",""time""
""fullscreenenter"",""0"",""3827""
","
","2240.4000000059605","","","","","","","","55","","","","267","probe-175","","","","","1","[object Object]","152","3","0","","","",""
"","html-keyboard-response","94","318467","0.0-56.0-1.0","""event"",""trial"",""time""
""fullscreenenter"",""0"",""3827""
","
","
","""event"",""trial"",""time""
""fullscreenenter"",""0"",""3827""
","
","null","<p></p>","null","","","","","","","","","","","","","","","","","","","","","","","",""
"","do_trial","95","321889","0.0-57.0-0.0","""event"",""trial"",""time""
""fullscreenenter"",""0"",""3827""
","
","
","""event"",""trial"",""time""
""fullscreenenter"",""0"",""3827""
","
","870.9000000059605","","","","","","","","51","1,0,0","6","blank","268","null","0.658418846921875","0.18073458065721731","0.32584217461008214","0","","","","","","","","",""
"","html-keyboard-response","96","322895","0.0-57.0-1.0","""event"",""trial"",""time""
""fullscreenenter"",""0"",""3827""
","
","
","""event"",""trial"",""time""
""fullscreenenter"",""0"",""3827""
","
","null","<p></p>","null","","","","","","","","","","","","","","","","","","","","","","","",""
"","break","97","324609","0.0-58.0-0.0","""event"",""trial"",""time""
""fullscreenenter"",""0"",""3827""
","
","
","""event"",""trial"",""time""
""fullscreenenter"",""0"",""3827""
","
","1712.5999999940395","<div class='center'><p>Time to take a quick break! You have 2 minutes to rest, but you can move on sooner if you'd like.</p><p> Press the <b>space bar</b> to continue.</p></div>","32","","","","","","","","","","","","","","","","","","","","","","","",""
"","do_trial","98","327869","0.0-58.0-1.0","""event"",""trial"",""time""
""fullscreenenter"",""0"",""3827""
","
","
","""event"",""trial"",""time""
""fullscreenenter"",""0"",""3827""
","
","715.7000000178814","","","","","","","","50","0,0,0","6","blank","269","null","0.6449449127379581","0.2133106648257934","0.38688321933305725","0","","","","","","","","",""
"","html-keyboard-response","99","328873","0.0-58.0-2.0","""event"",""trial"",""time""
""fullscreenenter"",""0"",""3827""
","
","
","""event"",""trial"",""time""
""fullscreenenter"",""0"",""3827""
","
","null","<p></p>","null","","","","","","","","","","","","","","","","","","","","","","","",""
"","do_trial","100","331493","0.0-59.0-0.0","""event"",""trial"",""time""
""fullscreenenter"",""0"",""3827""
","
","
","""event"",""trial"",""time""
""fullscreenenter"",""0"",""3827""
","
","76.40000000596046","","","","","","","","49","0,0,1","6","blank","270","null","0.4497550064644925","0.19764873410471787","0.2751487743782507","0","","","","","","","","",""
"","html-keyboard-response","101","332500","0.0-59.0-1.0","""event"",""trial"",""time""
""fullscreenenter"",""0"",""3827""
","
","
","""event"",""trial"",""time""
""fullscreenenter"",""0"",""3827""
","
","null","<p></p>","null","","","","","","","","","","","","","","","","","","","","","","","",""
"","do_recog","102","335614","0.0-60.0-0.0","""event"",""trial"",""time""
""fullscreenenter"",""0"",""3827""
","
","
","""event"",""trial"",""time""
""fullscreenenter"",""0"",""3827""
","
","1601.300000011921","","","","","","","","54","","","","271","probe-50","","","","","1","[object Object]","35","0","1","","","",""
"","html-keyboard-response","103","336621","0.0-60.0-1.0","""event"",""trial"",""time""
""fullscreenenter"",""0"",""3827""
","
","
","""event"",""trial"",""time""
""fullscreenenter"",""0"",""3827""
","
","null","<p></p>","null","","","","","","","","","","","","","","","","","","","","","","","",""
"","do_trial","104","339944","0.0-61.0-0.0","""event"",""trial"",""time""
""fullscreenenter"",""0"",""3827""
","
","
","""event"",""trial"",""time""
""fullscreenenter"",""0"",""3827""
","
","780.8000000119209","","","","","","","","51","1,0,1","6","blank","272","null","0.5881872895346454","0.21924659219119302","0.4241293015894755","1","","","","","","","","",""
"","html-keyboard-response","105","340948","0.0-61.0-1.0","""event"",""trial"",""time""
""fullscreenenter"",""0"",""3827""
","
","
","""event"",""trial"",""time""
""fullscreenenter"",""0"",""3827""
","
","null","<p></p>","null","","","","","","","","","","","","","","","","","","","","","","","",""
"","do_recog","106","344048","0.0-62.0-0.0","""event"",""trial"",""time""
""fullscreenenter"",""0"",""3827""
","
","
","""event"",""trial"",""time""
""fullscreenenter"",""0"",""3827""
","
","1587","","","","","","","","55","","","","273","probe-158","","","","","1","[object Object]","72","1","0","","","",""
"","html-keyboard-response","107","345052","0.0-62.0-1.0","""event"",""trial"",""time""
""fullscreenenter"",""0"",""3827""
","
","
","""event"",""trial"",""time""
""fullscreenenter"",""0"",""3827""
","
","null","<p></p>","null","","","","","","","","","","","","","","","","","","","","","","","",""
"","do_trial","108","348185","0.0-63.0-0.0","""event"",""trial"",""time""
""fullscreenenter"",""0"",""3827""
","
","
","""event"",""trial"",""time""
""fullscreenenter"",""0"",""3827""
","
","590.9000000059605","","","","","","","","50","1,0,1","6","blank","274","null","0.6796608072101067","0.13619400074706714","0.49001809652041195","0","","","","","","","","",""
"","html-keyboard-response","109","349192","0.0-63.0-1.0","""event"",""trial"",""time""
""fullscreenenter"",""0"",""3827""
","
","
","""event"",""trial"",""time""
""fullscreenenter"",""0"",""3827""
","
","null","<p></p>","null","","","","","","","","","","","","","","","","","","","","","","","",""
"","do_trial","110","351809","0.0-64.0-0.0","""event"",""trial"",""time""
""fullscreenenter"",""0"",""3827""
","
","
","""event"",""trial"",""time""
""fullscreenenter"",""0"",""3827""
","
","75.7999999821186","","","","","","","","51","0,0,0","6","blank","275","null","0.5439941095015337","0.14160006385222929","0.3988013576569843","0","","","","","","","","",""
"","html-keyboard-response","111","352811","0.0-64.0-1.0","""event"",""trial"",""time""
""fullscreenenter"",""0"",""3827""
","
","
","""event"",""trial"",""time""
""fullscreenenter"",""0"",""3827""
","
","null","<p></p>","null","","","","","","","","","","","","","","","","","","","","","","","",""
"","do_trial","112","355356","0.0-65.0-0.0","""event"",""trial"",""time""
""fullscreenenter"",""0"",""3827""
","
","
","""event"",""trial"",""time""
""fullscreenenter"",""0"",""3827""
","
","0.19999998807907104","","","","","","","","49","1,0,1","6","blank","276","null","0.5583919371068132","0.07999410854797147","0.44849033617952394","1","","","","","","","","",""
"","html-keyboard-response","113","356363","0.0-65.0-1.0","""event"",""trial"",""time""
""fullscreenenter"",""0"",""3827""
","
","
","""event"",""trial"",""time""
""fullscreenenter"",""0"",""3827""
","
","null","<p></p>","null","","","","","","","","","","","","","","","","","","","","","","","",""
"","do_recog","114","359663","0.0-66.0-0.0","""event"",""trial"",""time""
""fullscreenenter"",""0"",""3827""
","
","
","""event"",""trial"",""time""
""fullscreenenter"",""0"",""3827""
","
","1789.9000000059605","","","","","","","","54","","","","277","probe-100","","","","","1","[object Object]","197","4","1","","","",""
"","html-keyboard-response","115","360667","0.0-66.0-1.0","""event"",""trial"",""time""
""fullscreenenter"",""0"",""3827""
","
","
","""event"",""trial"",""time""
""fullscreenenter"",""0"",""3827""
","
","null","<p></p>","null","","","","","","","","","","","","","","","","","","","","","","","",""
"","do_trial","116","363863","0.0-67.0-0.0","""event"",""trial"",""time""
""fullscreenenter"",""0"",""3827""
","
","
","""event"",""trial"",""time""
""fullscreenenter"",""0"",""3827""
","
","648.6999999880791","","","","","","","","51","1,0,1","6","blank","278","null","0.802580066668726","0.1279358733150612","0.4178002485272208","1","","","","","","","","",""
"","html-keyboard-response","117","364864","0.0-67.0-1.0","""event"",""trial"",""time""
""fullscreenenter"",""0"",""3827""
","
","
","""event"",""trial"",""time""
""fullscreenenter"",""0"",""3827""
","
","null","<p></p>","null","","","","","","","","","","","","","","","","","","","","","","","",""
"","do_trial","118","367888","0.0-68.0-0.0","""event"",""trial"",""time""
""fullscreenenter"",""0"",""3827""
","
","
","""event"",""trial"",""time""
""fullscreenenter"",""0"",""3827""
","
","473.69999998807907","","","","","","","","49","0,0,0","6","blank","279","null","0.7527078639623989","0.13457805486978952","0.3487333292550337","0","","","","","","","","",""
"","html-keyboard-response","119","368893","0.0-68.0-1.0","""event"",""trial"",""time""
""fullscreenenter"",""0"",""3827""
","
","
","""event"",""trial"",""time""
""fullscreenenter"",""0"",""3827""
","
","null","<p></p>","null","","","","","","","","","","","","","","","","","","","","","","","",""
"","do_recog","120","372106","0.0-69.0-0.0","""event"",""trial"",""time""
""fullscreenenter"",""0"",""3827""
","
","
","""event"",""trial"",""time""
""fullscreenenter"",""0"",""3827""
","
","1700.5","","","","","","","","53","","","","280","probe-97","","","","","1","[object Object]","190","4","1","","","",""
"","html-keyboard-response","121","373113","0.0-69.0-1.0","""event"",""trial"",""time""
""fullscreenenter"",""0"",""3827""
","
","
","""event"",""trial"",""time""
""fullscreenenter"",""0"",""3827""
","
","null","<p></p>","null","","","","","","","","","","","","","","","","","","","","","","","",""
"","do_trial","122","376129","0.0-70.0-0.0","""event"",""trial"",""time""
""fullscreenenter"",""0"",""3827""
","
","
","""event"",""trial"",""time""
""fullscreenenter"",""0"",""3827""
","
","475.5","","","","","","","","49","1,0,0","6","blank","281","null","0.7570483925422736","0.07298921907089398","0.47262748770328267","1","","","","","","","","",""
"","html-keyboard-response","123","377135","0.0-70.0-1.0","""event"",""trial"",""time""
""fullscreenenter"",""0"",""3827""
","
","
","""event"",""trial"",""time""
""fullscreenenter"",""0"",""3827""
","
","null","<p></p>","null","","","","","","","","","","","","","","","","","","","","","","","",""
"","do_trial","124","379805","0.0-71.0-0.0","""event"",""trial"",""time""
""fullscreenenter"",""0"",""3827""
","
","
","""event"",""trial"",""time""
""fullscreenenter"",""0"",""3827""
","
","124.2999999821186","","","","","","","","51","1,1,0","6","blank","282","null","0.6505785962409002","0.12064153595034187","0.4383954416929715","0","","","","","","","","",""
"","html-keyboard-response","125","380808","0.0-71.0-1.0","""event"",""trial"",""time""
""fullscreenenter"",""0"",""3827""
","
","
","""event"",""trial"",""time""
""fullscreenenter"",""0"",""3827""
","
","null","<p></p>","null","","","","","","","","","","","","","","","","","","","","","","","",""
"","do_recog","126","383926","0.0-72.0-0.0","""event"",""trial"",""time""
""fullscreenenter"",""0"",""3827""
","
","
","""event"",""trial"",""time""
""fullscreenenter"",""0"",""3827""
","
","1604.8999999761581","","","","","","","","53","","","","283","probe-211","","","","","1","[object Object]","156","3","1","","","",""
"","html-keyboard-response","127","384933","0.0-72.0-1.0","""event"",""trial"",""time""
""fullscreenenter"",""0"",""3827""
","
","
","""event"",""trial"",""time""
""fullscreenenter"",""0"",""3827""
","
","null","<p></p>","null","","","","","","","","","","","","","","","","","","","","","","","",""
"","do_trial","128","388093","0.0-73.0-0.0","""event"",""trial"",""time""
""fullscreenenter"",""0"",""3827""
","
","
","""event"",""trial"",""time""
""fullscreenenter"",""0"",""3827""
","
","612.4000000059605","","","","","","","","49","1,0,1","6","blank","284","null","0.5531204564373878","0.07647055772648714","0.4830431611464912","1","","","","","","","","",""
"","html-keyboard-response","129","389098","0.0-73.0-1.0","""event"",""trial"",""time""
""fullscreenenter"",""0"",""3827""
","
","
","""event"",""trial"",""time""
""fullscreenenter"",""0"",""3827""
","
","null","<p></p>","null","","","","","","","","","","","","","","","","","","","","","","","",""
"","do_recog","130","391717","0.0-74.0-0.0","""event"",""trial"",""time""
""fullscreenenter"",""0"",""3827""
","
","
","""event"",""trial"",""time""
""fullscreenenter"",""0"",""3827""
","
","1106.7000000178814","","","","","","","","53","","","","285","probe-122","","","","","1","[object Object]","158","3","1","","","",""
"","html-keyboard-response","131","392721","0.0-74.0-1.0","""event"",""trial"",""time""
""fullscreenenter"",""0"",""3827""
","
","
","""event"",""trial"",""time""
""fullscreenenter"",""0"",""3827""
","
","null","<p></p>","null","","","","","","","","","","","","","","","","","","","","","","","",""
"","do_trial","132","395740","0.0-75.0-0.0","""event"",""trial"",""time""
""fullscreenenter"",""0"",""3827""
","
","
","""event"",""trial"",""time""
""fullscreenenter"",""0"",""3827""
","
","472.7999999821186","","","","","","","","49","1,0,0","6","blank","286","null","0.44074946543170745","0.10436131904228249","0.4101208956710125","1","","","","","","","","",""
"","html-keyboard-response","133","396747","0.0-75.0-1.0","""event"",""trial"",""time""
""fullscreenenter"",""0"",""3827""
","
","
","""event"",""trial"",""time""
""fullscreenenter"",""0"",""3827""
","
","null","<p></p>","null","","","","","","","","","","","","","","","","","","","","","","","",""
"","do_trial","134","399645","0.0-76.0-0.0","""event"",""trial"",""time""
""fullscreenenter"",""0"",""3827""
","
","
","""event"",""trial"",""time""
""fullscreenenter"",""0"",""3827""
","
","354","","","","","","","","49","0,0,0","6","blank","287","null","0.5020847681179571","0.06701675799446125","0.3040906546091262","0","","","","","","","","",""
"","html-keyboard-response","135","400649","0.0-76.0-1.0","""event"",""trial"",""time""
""fullscreenenter"",""0"",""3827""
","
","
","""event"",""trial"",""time""
""fullscreenenter"",""0"",""3827""
","
","null","<p></p>","null","","","","","","","","","","","","","","","","","","","","","","","",""
"","do_trial","136","403471","0.0-77.0-0.0","""event"",""trial"",""time""
""fullscreenenter"",""0"",""3827""
","
","
","""event"",""trial"",""time""
""fullscreenenter"",""0"",""3827""
","
","274","","","","","","","","50","1,0,1","6","blank","288","null","0.5085666392838989","0.12238353833514914","0.24478702492958745","0","","","","","","","","",""
"","html-keyboard-response","137","404474","0.0-77.0-1.0","""event"",""trial"",""time""
""fullscreenenter"",""0"",""3827""
","
","
","""event"",""trial"",""time""
""fullscreenenter"",""0"",""3827""
","
","null","<p></p>","null","","","","","","","","","","","","","","","","","","","","","","","",""
"","do_trial","138","407295","0.0-78.0-0.0","""event"",""trial"",""time""
""fullscreenenter"",""0"",""3827""
","
","
","""event"",""trial"",""time""
""fullscreenenter"",""0"",""3827""
","
","276.19999998807907","","","","","","","","51","0,0,0","6","blank","289","null","0.5572944282081431","0.19957615828438627","0.3174524321648301","0","","","","","","","","",""
"","html-keyboard-response","139","408301","0.0-78.0-1.0","""event"",""trial"",""time""
""fullscreenenter"",""0"",""3827""
","
","
","""event"",""trial"",""time""
""fullscreenenter"",""0"",""3827""
","
","null","<p></p>","null","","","","","","","","","","","","","","","","","","","","","","","",""
"","do_trial","140","411097","0.0-79.0-0.0","""event"",""trial"",""time""
""fullscreenenter"",""0"",""3827""
","
","
","""event"",""trial"",""time""
""fullscreenenter"",""0"",""3827""
","
","253.09999999403954","","","","","","","","49","0,0,1","6","blank","290","null","0.5006467341064238","0.24805945427856363","0.1800404039819054","0","","","","","","","","",""
"","html-keyboard-response","141","412099","0.0-79.0-1.0","""event"",""trial"",""time""
""fullscreenenter"",""0"",""3827""
","
","
","""event"",""trial"",""time""
""fullscreenenter"",""0"",""3827""
","
","null","<p></p>","null","","","","","","","","","","","","","","","","","","","","","","","",""
"","do_recog","142","415177","0.0-80.0-0.0","""event"",""trial"",""time""
""fullscreenenter"",""0"",""3827""
","
","
","""event"",""trial"",""time""
""fullscreenenter"",""0"",""3827""
","
","1568.699999988079","","","","","","","","53","","","","291","probe-138","","","","","1","[object Object]","77","1","1","","","",""
"","html-keyboard-response","143","416179","0.0-80.0-1.0","""event"",""trial"",""time""
""fullscreenenter"",""0"",""3827""
","
","
","""event"",""trial"",""time""
""fullscreenenter"",""0"",""3827""
","
","null","<p></p>","null","","","","","","","","","","","","","","","","","","","","","","","",""
"","do_trial","144","419373","0.0-81.0-0.0","""event"",""trial"",""time""
""fullscreenenter"",""0"",""3827""
","
","
","""event"",""trial"",""time""
""fullscreenenter"",""0"",""3827""
","
","647.3999999761581","","","","","","","","49","0,0,0","6","blank","292","null","0.5216390192692459","0.14842944911457157","0.21152495972095767","0","","","","","","","","",""
"","html-keyboard-response","145","420380","0.0-81.0-1.0","""event"",""trial"",""time""
""fullscreenenter"",""0"",""3827""
","
","
","""event"",""trial"",""time""
""fullscreenenter"",""0"",""3827""
","
","null","<p></p>","null","","","","","","","","","","","","","","","","","","","","","","","",""
"","do_trial","146","423086","0.0-82.0-0.0","""event"",""trial"",""time""
""fullscreenenter"",""0"",""3827""
","
","
","""event"",""trial"",""time""
""fullscreenenter"",""0"",""3827""
","
","162.7999999821186","","","","","","","","49","1,0,1","6","blank","293","null","0.4225906802430152","0.10507842020080566","0.28209619011314196","1","","","","","","","","",""
"","html-keyboard-response","147","424092","0.0-82.0-1.0","""event"",""trial"",""time""
""fullscreenenter"",""0"",""3827""
","
","
","""event"",""trial"",""time""
""fullscreenenter"",""0"",""3827""
","
","null","<p></p>","null","","","","","","","","","","","","","","","","","","","","","","","",""
"","do_recog","148","426845","0.0-83.0-0.0","""event"",""trial"",""time""
""fullscreenenter"",""0"",""3827""
","
","
","""event"",""trial"",""time""
""fullscreenenter"",""0"",""3827""
","
","1241.5","","","","","","","","53","","","","294","probe-38","","","","","1","[object Object]","115","2","1","","","",""
"","html-keyboard-response","149","427849","0.0-83.0-1.0","""event"",""trial"",""time""
""fullscreenenter"",""0"",""3827""
","
","
","""event"",""trial"",""time""
""fullscreenenter"",""0"",""3827""
","
","null","<p></p>","null","","","","","","","","","","","","","","","","","","","","","","","",""
"","do_trial","150","431027","0.0-84.0-0.0","""event"",""trial"",""time""
""fullscreenenter"",""0"",""3827""
","
","
","""event"",""trial"",""time""
""fullscreenenter"",""0"",""3827""
","
","637.1999999880791","","","","","","","","51","0,0,0","6","blank","295","null","0.4811845678055633","0.2103907195263956","0.21775854990106713","0","","","","","","","","",""
"","html-keyboard-response","151","432031","0.0-84.0-1.0","""event"",""trial"",""time""
""fullscreenenter"",""0"",""3827""
","
","
","""event"",""trial"",""time""
""fullscreenenter"",""0"",""3827""
","
","null","<p></p>","null","","","","","","","","","","","","","","","","","","","","","","","",""
"","do_trial","152","434734","0.0-85.0-0.0","""event"",""trial"",""time""
""fullscreenenter"",""0"",""3827""
","
","
","""event"",""trial"",""time""
""fullscreenenter"",""0"",""3827""
","
","158.30000001192093","","","","","","","","49","1,0,0","6","blank","296","null","0.47400440805969285","0.22053831106789845","0.36192103681204635","1","","","","","","","","",""
"","html-keyboard-response","153","435740","0.0-85.0-1.0","""event"",""trial"",""time""
""fullscreenenter"",""0"",""3827""
","
","
","""event"",""trial"",""time""
""fullscreenenter"",""0"",""3827""
","
","null","<p></p>","null","","","","","","","","","","","","","","","","","","","","","","","",""
"","do_trial","154","438763","0.0-86.0-0.0","""event"",""trial"",""time""
""fullscreenenter"",""0"",""3827""
","
","
","""event"",""trial"",""time""
""fullscreenenter"",""0"",""3827""
","
","482.40000000596046","","","","","","","","50","1,1,1","6","blank","297","null","0.43675073236057116","0.3475275168441523","0.6373805519238886","1","","","","","","","","",""
"","html-keyboard-response","155","439770","0.0-86.0-1.0","""event"",""trial"",""time""
""fullscreenenter"",""0"",""3827""
","
","
","""event"",""trial"",""time""
""fullscreenenter"",""0"",""3827""
","
","null","<p></p>","null","","","","","","","","","","","","","","","","","","","","","","","",""
"","do_recog","156","442259","0.0-87.0-0.0","""event"",""trial"",""time""
""fullscreenenter"",""0"",""3827""
","
","
","""event"",""trial"",""time""
""fullscreenenter"",""0"",""3827""
","
","981","","","","","","","","53","","","","298","probe-245","","","","","0","[object Object]","null","null","0","","","",""
"","html-keyboard-response","157","443266","0.0-87.0-1.0","""event"",""trial"",""time""
""fullscreenenter"",""0"",""3827""
","
","
","""event"",""trial"",""time""
""fullscreenenter"",""0"",""3827""
","
","null","<p></p>","null","","","","","","","","","","","","","","","","","","","","","","","",""
"","do_trial","158","446700","0.0-88.0-0.0","""event"",""trial"",""time""
""fullscreenenter"",""0"",""3827""
","
","
","""event"",""trial"",""time""
""fullscreenenter"",""0"",""3827""
","
","890","","","","","","","","51","1,0,1","6","blank","299","null","0.3845423371084579","0.3877021887701254","0.4136996790529697","1","","","","","","","","",""
"","html-keyboard-response","159","447707","0.0-88.0-1.0","""event"",""trial"",""time""
""fullscreenenter"",""0"",""3827""
","
","
","""event"",""trial"",""time""
""fullscreenenter"",""0"",""3827""
","
","null","<p></p>","null","","","","","","","","","","","","","","","","","","","","","","","",""
"","do_recog","160","451050","0.0-89.0-0.0","""event"",""trial"",""time""
""fullscreenenter"",""0"",""3827""
","
","
","""event"",""trial"",""time""
""fullscreenenter"",""0"",""3827""
","
","1833.3999999761581","","","","","","","","54","","","","300","probe-251","","","","","0","[object Object]","null","null","0","","","",""
"","html-keyboard-response","161","452056","0.0-89.0-1.0","""event"",""trial"",""time""
""fullscreenenter"",""0"",""3827""
","
","
","""event"",""trial"",""time""
""fullscreenenter"",""0"",""3827""
","
","null","<p></p>","null","","","","","","","","","","","","","","","","","","","","","","","",""
"","do_trial","162","455467","0.0-90.0-0.0","""event"",""trial"",""time""
""fullscreenenter"",""0"",""3827""
","
","
","""event"",""trial"",""time""
""fullscreenenter"",""0"",""3827""
","
","864","","","","","","","","51","1,0,0","6","blank","301","null","0.3881709484415221","0.47376641656882557","0.38269851992603754","0","","","","","","","","",""
"","html-keyboard-response","163","456471","0.0-90.0-1.0","""event"",""trial"",""time""
""fullscreenenter"",""0"",""3827""
","
","
","""event"",""trial"",""time""
""fullscreenenter"",""0"",""3827""
","
","null","<p></p>","null","","","","","","","","","","","","","","","","","","","","","","","",""
"","do_recog","164","460088","0.0-91.0-0.0","""event"",""trial"",""time""
""fullscreenenter"",""0"",""3827""
","
","
","""event"",""trial"",""time""
""fullscreenenter"",""0"",""3827""
","
","2108.4000000059605","","","","","","","","54","","","","302","probe-94","","","","","1","[object Object]","37","0","1","","","",""
"","html-keyboard-response","165","461095","0.0-91.0-1.0","""event"",""trial"",""time""
""fullscreenenter"",""0"",""3827""
","
","
","""event"",""trial"",""time""
""fullscreenenter"",""0"",""3827""
","
","null","<p></p>","null","","","","","","","","","","","","","","","","","","","","","","","",""
"","do_trial","166","466338","0.0-92.0-0.0","""event"",""trial"",""time""
""fullscreenenter"",""0"",""3827""
","
","
","""event"",""trial"",""time""
""fullscreenenter"",""0"",""3827""
","
","2692.5999999940395","","","","","","","","49","0,1,1","6","blank","303","null","0.39439128841965704","0.508983922397008","0.4072557911453661","0","","","","","","","","",""
"","html-keyboard-response","167","467345","0.0-92.0-1.0","""event"",""trial"",""time""
""fullscreenenter"",""0"",""3827""
","
","
","""event"",""trial"",""time""
""fullscreenenter"",""0"",""3827""
","
","null","<p></p>","null","","","","","","","","","","","","","","","","","","","","","","","",""
"","do_trial","168","470548","0.0-93.0-0.0","""event"",""trial"",""time""
""fullscreenenter"",""0"",""3827""
","
","
","""event"",""trial"",""time""
""fullscreenenter"",""0"",""3827""
","
","656.8000000119209","","","","","","","","51","0,0,1","6","blank","304","null","0.18721666237655407","0.5115490421027188","0.29461490064166534","1","","","","","","","","",""
"","html-keyboard-response","169","471551","0.0-93.0-1.0","""event"",""trial"",""time""
""fullscreenenter"",""0"",""3827""
","
","
","""event"",""trial"",""time""
""fullscreenenter"",""0"",""3827""
","
","null","<p></p>","null","","","","","","","","","","","","","","","","","","","","","","","",""
"","do_trial","170","474205","0.0-94.0-0.0","""event"",""trial"",""time""
""fullscreenenter"",""0"",""3827""
","
","
","""event"",""trial"",""time""
""fullscreenenter"",""0"",""3827""
","
","107.5","","","","","","","","51","0,0,1","6","blank","305","null","0.21509510761333972","0.513480362819726","0.34248877898107993","1","","","","","","","","",""
"","html-keyboard-response","171","475208","0.0-94.0-1.0","""event"",""trial"",""time""
""fullscreenenter"",""0"",""3827""
","
","
","""event"",""trial"",""time""
""fullscreenenter"",""0"",""3827""
","
","null","<p></p>","null","","","","","","","","","","","","","","","","","","","","","","","",""
"","do_trial","172","477910","0.0-95.0-0.0","""event"",""trial"",""time""
""fullscreenenter"",""0"",""3827""
","
","
","""event"",""trial"",""time""
""fullscreenenter"",""0"",""3827""
","
","161.40000000596046","","","","","","","","51","0,1,1","6","blank","306","null","0.08007453202133327","0.47588379342111425","0.19936820697917385","1","","","","","","","","",""
"","html-keyboard-response","173","478916","0.0-95.0-1.0","""event"",""trial"",""time""
""fullscreenenter"",""0"",""3827""
","
","
","""event"",""trial"",""time""
""fullscreenenter"",""0"",""3827""
","
","null","<p></p>","null","","","","","","","","","","","","","","","","","","","","","","","",""
"","do_recog","174","482322","0.0-96.0-0.0","""event"",""trial"",""time""
""fullscreenenter"",""0"",""3827""
","
","
","""event"",""trial"",""time""
""fullscreenenter"",""0"",""3827""
","
","1894","","","","","","","","55","","","","307","probe-153","","","","","1","[object Object]","150","3","0","","","",""
"","html-keyboard-response","175","483329","0.0-96.0-1.0","""event"",""trial"",""time""
""fullscreenenter"",""0"",""3827""
","
","
","""event"",""trial"",""time""
""fullscreenenter"",""0"",""3827""
","
","null","<p></p>","null","","","","","","","","","","","","","","","","","","","","","","","",""
"","do_trial","176","486863","0.0-97.0-0.0","""event"",""trial"",""time""
""fullscreenenter"",""0"",""3827""
","
","
","""event"",""trial"",""time""
""fullscreenenter"",""0"",""3827""
","
","988.6999999880791","","","","","","","","51","0,0,1","6","blank","308","null","0.14544471793233818","0.5317327228686163","0.3155394396802802","1","","","","","","","","",""
"","html-keyboard-response","177","487870","0.0-97.0-1.0","""event"",""trial"",""time""
""fullscreenenter"",""0"",""3827""
","
","
","""event"",""trial"",""time""
""fullscreenenter"",""0"",""3827""
","
","null","<p></p>","null","","","","","","","","","","","","","","","","","","","","","","","",""
"","break","178","488968","0.0-98.0-0.0","""event"",""trial"",""time""
""fullscreenenter"",""0"",""3827""
","
","
","""event"",""trial"",""time""
""fullscreenenter"",""0"",""3827""
","
","1097.4000000059605","<div class='center'><p>Time to take a quick break! You have 2 minutes to rest, but you can move on sooner if you'd like.</p><p> Press the <b>space bar</b> to continue.</p></div>","32","","","","","","","","","","","","","","","","","","","","","","","",""
"","do_recog","179","492181","0.0-98.0-1.0","""event"",""trial"",""time""
""fullscreenenter"",""0"",""3827""
","
","
","""event"",""trial"",""time""
""fullscreenenter"",""0"",""3827""
","
","1700.3999999761581","","","","","","","","54","","","","309","probe-203","","","","","1","[object Object]","157","3","1","","","",""
"","html-keyboard-response","180","493182","0.0-98.0-2.0","""event"",""trial"",""time""
""fullscreenenter"",""0"",""3827""
","
","
","""event"",""trial"",""time""
""fullscreenenter"",""0"",""3827""
","
","null","<p></p>","null","","","","","","","","","","","","","","","","","","","","","","","",""
"","do_trial","181","495777","0.0-99.0-0.0","""event"",""trial"",""time""
""fullscreenenter"",""0"",""3827""
","
","
","""event"",""trial"",""time""
""fullscreenenter"",""0"",""3827""
","
","52.39999997615814","","","","","","","","49","1,1,1","6","blank","310","null","0.1045598832442694","0.6014115621026325","0.24173316356332716","1","","","","","","","","",""
"","html-keyboard-response","182","496784","0.0-99.0-1.0","""event"",""trial"",""time""
""fullscreenenter"",""0"",""3827""
","
","
","""event"",""trial"",""time""
""fullscreenenter"",""0"",""3827""
","
","null","<p></p>","null","","","","","","","","","","","","","","","","","","","","","","","",""
"","do_trial","183","499848","0.0-100.0-0.0","""event"",""trial"",""time""
""fullscreenenter"",""0"",""3827""
","
","
","""event"",""trial"",""time""
""fullscreenenter"",""0"",""3827""
","
","523.3000000119209","","","","","","","","51","0,1,0","6","blank","311","null","0.12479663669034534","0.6758757400935048","0.32760162121969755","0","","","","","","","","",""
"","html-keyboard-response","184","500853","0.0-100.0-1.0","""event"",""trial"",""time""
""fullscreenenter"",""0"",""3827""
","
","
","""event"",""trial"",""time""
""fullscreenenter"",""0"",""3827""
","
","null","<p></p>","null","","","","","","","","","","","","","","","","","","","","","","","",""
"","do_trial","185","503490","0.0-101.0-0.0","""event"",""trial"",""time""
""fullscreenenter"",""0"",""3827""
","
","
","""event"",""trial"",""time""
""fullscreenenter"",""0"",""3827""
","
","90.19999998807907","","","","","","","","50","0,1,0","6","blank","312","null","0.06777327773197114","0.7628331479875701","0.280534072932578","1","","","","","","","","",""
"","html-keyboard-response","186","504492","0.0-101.0-1.0","""event"",""trial"",""time""
""fullscreenenter"",""0"",""3827""
","
","
","""event"",""trial"",""time""
""fullscreenenter"",""0"",""3827""
","
","null","<p></p>","null","","","","","","","","","","","","","","","","","","","","","","","",""
"","do_trial","187","507038","0.0-102.0-0.0","""event"",""trial"",""time""
""fullscreenenter"",""0"",""3827""
","
","
","""event"",""trial"",""time""
""fullscreenenter"",""0"",""3827""
","
","0.09999999403953552","","","","","","","","49","0,1,0","6","blank","313","null","0.05288895679690251","0.6288674331804119","0.17646097636261143","0","","","","","","","","",""
"","html-keyboard-response","188","508044","0.0-102.0-1.0","""event"",""trial"",""time""
""fullscreenenter"",""0"",""3827""
","
","
","""event"",""trial"",""time""
""fullscreenenter"",""0"",""3827""
","
","null","<p></p>","null","","","","","","","","","","","","","","","","","","","","","","","",""
"","do_trial","189","510636","0.0-103.0-0.0","""event"",""trial"",""time""
""fullscreenenter"",""0"",""3827""
","
","
","""event"",""trial"",""time""
""fullscreenenter"",""0"",""3827""
","
","46.69999998807907","","","","","","","","50","0,1,0","6","blank","314","null","0.11377411782407976","0.696793190408685","0.2423564170770183","1","","","","","","","","",""
"","html-keyboard-response","190","511642","0.0-103.0-1.0","""event"",""trial"",""time""
""fullscreenenter"",""0"",""3827""
","
","
","""event"",""trial"",""time""
""fullscreenenter"",""0"",""3827""
","
","null","<p></p>","null","","","","","","","","","","","","","","","","","","","","","","","",""
"","do_trial","191","514225","0.0-104.0-0.0","""event"",""trial"",""time""
""fullscreenenter"",""0"",""3827""
","
","
","""event"",""trial"",""time""
""fullscreenenter"",""0"",""3827""
","
","36.29999998211861","","","","","","","","50","0,1,0","6","blank","315","null","0.06716882009186798","0.7410244523727008","0.23742606140720804","1","","","","","","","","",""
"","html-keyboard-response","192","515231","0.0-104.0-1.0","""event"",""trial"",""time""
""fullscreenenter"",""0"",""3827""
","
","
","""event"",""trial"",""time""
""fullscreenenter"",""0"",""3827""
","
","null","<p></p>","null","","","","","","","","","","","","","","","","","","","","","","","",""
"","do_recog","193","518549","0.0-105.0-0.0","""event"",""trial"",""time""
""fullscreenenter"",""0"",""3827""
","
","
","""event"",""trial"",""time""
""fullscreenenter"",""0"",""3827""
","
","1802.2999999821186","","","","","","","","53","","","","316","probe-37","","","","","1","[object Object]","153","3","1","","","",""
"","html-keyboard-response","194","519556","0.0-105.0-1.0","""event"",""trial"",""time""
""fullscreenenter"",""0"",""3827""
","
","
","""event"",""trial"",""time""
""fullscreenenter"",""0"",""3827""
","
","null","<p></p>","null","","","","","","","","","","","","","","","","","","","","","","","",""
"","do_trial","195","522923","0.0-106.0-0.0","""event"",""trial"",""time""
""fullscreenenter"",""0"",""3827""
","
","
","""event"",""trial"",""time""
""fullscreenenter"",""0"",""3827""
","
","821.0999999940395","","","","","","","","49","0,0,1","6","blank","317","null","0.21556822188178287","0.7446917923783276","0.1731016530297856","0","","","","","","","","",""
"","html-keyboard-response","196","523927","0.0-106.0-1.0","""event"",""trial"",""time""
""fullscreenenter"",""0"",""3827""
","
","
","""event"",""trial"",""time""
""fullscreenenter"",""0"",""3827""
","
","null","<p></p>","null","","","","","","","","","","","","","","","","","","","","","","","",""
"","do_trial","197","526800","0.0-107.0-0.0","""event"",""trial"",""time""
""fullscreenenter"",""0"",""3827""
","
","
","""event"",""trial"",""time""
""fullscreenenter"",""0"",""3827""
","
","329.89999997615814","","","","","","","","50","0,1,0","6","blank","318","null","0.14783758483206424","0.7486593686030165","0.1664368838197297","1","","","","","","","","",""
"","html-keyboard-response","198","527807","0.0-107.0-1.0","""event"",""trial"",""time""
""fullscreenenter"",""0"",""3827""
","
","
","""event"",""trial"",""time""
""fullscreenenter"",""0"",""3827""
","
","null","<p></p>","null","","","","","","","","","","","","","","","","","","","","","","","",""
"","do_recog","199","530816","0.0-108.0-0.0","""event"",""trial"",""time""
""fullscreenenter"",""0"",""3827""
","
","
","""event"",""trial"",""time""
""fullscreenenter"",""0"",""3827""
","
","1495.7999999821186","","","","","","","","53","","","","319","probe-104","","","","","1","[object Object]","31","0","1","","","",""
"","html-keyboard-response","200","531822","0.0-108.0-1.0","""event"",""trial"",""time""
""fullscreenenter"",""0"",""3827""
","
","
","""event"",""trial"",""time""
""fullscreenenter"",""0"",""3827""
","
","null","<p></p>","null","","","","","","","","","","","","","","","","","","","","","","","",""
"","do_trial","201","534485","0.0-109.0-0.0","""event"",""trial"",""time""
""fullscreenenter"",""0"",""3827""
","
","
","""event"",""trial"",""time""
""fullscreenenter"",""0"",""3827""
","
","120.40000000596046","","","","","","","","50","0,1,0","6","blank","320","null","0.1549718236149534","0.5873696068088305","0.32890570915261363","1","","","","","","","","",""
"","html-keyboard-response","202","535492","0.0-109.0-1.0","""event"",""trial"",""time""
""fullscreenenter"",""0"",""3827""
","
","
","""event"",""trial"",""time""
""fullscreenenter"",""0"",""3827""
","
","null","<p></p>","null","","","","","","","","","","","","","","","","","","","","","","","",""
"","do_recog","203","538457","0.0-110.0-0.0","""event"",""trial"",""time""
""fullscreenenter"",""0"",""3827""
","
","
","""event"",""trial"",""time""
""fullscreenenter"",""0"",""3827""
","
","1458.199999988079","","","","","","","","55","","","","321","probe-34","","","","","1","[object Object]","78","1","0","","","",""
"","html-keyboard-response","204","539464","0.0-110.0-1.0","""event"",""trial"",""time""
""fullscreenenter"",""0"",""3827""
","
","
","""event"",""trial"",""time""
""fullscreenenter"",""0"",""3827""
","
","null","<p></p>","null","","","","","","","","","","","","","","","","","","","","","","","",""
"","do_trial","205","542469","0.0-111.0-0.0","""event"",""trial"",""time""
""fullscreenenter"",""0"",""3827""
","
","
","""event"",""trial"",""time""
""fullscreenenter"",""0"",""3827""
","
","456.09999999403954","","","","","","","","50","0,1,0","6","blank","322","null","0.1495046079124006","0.55201296235051","0.3114049600216723","1","","","","","","","","",""
"","html-keyboard-response","206","543476","0.0-111.0-1.0","""event"",""trial"",""time""
""fullscreenenter"",""0"",""3827""
","
","
","""event"",""trial"",""time""
""fullscreenenter"",""0"",""3827""
","
","null","<p></p>","null","","","","","","","","","","","","","","","","","","","","","","","",""
"","do_trial","207","546375","0.0-112.0-0.0","""event"",""trial"",""time""
""fullscreenenter"",""0"",""3827""
","
","
","""event"",""trial"",""time""
""fullscreenenter"",""0"",""3827""
","
","354.80000001192093","","","","","","","","50","0,1,0","6","blank","323","null","0.05451510911820234","0.8424493143319299","0.2664570052682394","1","","","","","","","","",""
"","html-keyboard-response","208","547377","0.0-112.0-1.0","""event"",""trial"",""time""
""fullscreenenter"",""0"",""3827""
","
","
","""event"",""trial"",""time""
""fullscreenenter"",""0"",""3827""
","
","null","<p></p>","null","","","","","","","","","","","","","","","","","","","","","","","",""
"","do_trial","209","550228","0.0-113.0-0.0","""event"",""trial"",""time""
""fullscreenenter"",""0"",""3827""
","
","
","""event"",""trial"",""time""
""fullscreenenter"",""0"",""3827""
","
","304.40000000596046","","","","","","","","50","0,0,1","6","blank","324","null","0.23905391811715043","0.6408002269827459","0.44487099408034025","0","","","","","","","","",""
"","html-keyboard-response","210","551232","0.0-113.0-1.0","""event"",""trial"",""time""
""fullscreenenter"",""0"",""3827""
","
","
","""event"",""trial"",""time""
""fullscreenenter"",""0"",""3827""
","
","null","<p></p>","null","","","","","","","","","","","","","","","","","","","","","","","",""
"","do_trial","211","554080","0.0-114.0-0.0","""event"",""trial"",""time""
""fullscreenenter"",""0"",""3827""
","
","
","""event"",""trial"",""time""
""fullscreenenter"",""0"",""3827""
","
","303","","","","","","","","51","0,0,0","6","blank","325","null","0.1006693792347706","0.5258428970896221","0.32116672983437616","0","","","","","","","","",""
"","html-keyboard-response","212","555082","0.0-114.0-1.0","""event"",""trial"",""time""
""fullscreenenter"",""0"",""3827""
","
","
","""event"",""trial"",""time""
""fullscreenenter"",""0"",""3827""
","
","null","<p></p>","null","","","","","","","","","","","","","","","","","","","","","","","",""
"","do_recog","213","558438","0.0-115.0-0.0","""event"",""trial"",""time""
""fullscreenenter"",""0"",""3827""
","
","
","""event"",""trial"",""time""
""fullscreenenter"",""0"",""3827""
","
","1848.1000000238419","","","","","","","","55","","","","326","probe-232","","","","","0","[object Object]","null","null","1","","","",""
"","html-keyboard-response","214","559444","0.0-115.0-1.0","""event"",""trial"",""time""
""fullscreenenter"",""0"",""3827""
","
","
","""event"",""trial"",""time""
""fullscreenenter"",""0"",""3827""
","
","null","<p></p>","null","","","","","","","","","","","","","","","","","","","","","","","",""
"","do_trial","215","562617","0.0-116.0-0.0","""event"",""trial"",""time""
""fullscreenenter"",""0"",""3827""
","
","
","""event"",""trial"",""time""
""fullscreenenter"",""0"",""3827""
","
","627.3000000119209","","","","","","","","50","0,1,1","6","blank","327","null","0.1656081933309251","0.5198824925782131","0.3159385484500027","1","","","","","","","","",""
"","html-keyboard-response","216","563623","0.0-116.0-1.0","""event"",""trial"",""time""
""fullscreenenter"",""0"",""3827""
","
","
","""event"",""trial"",""time""
""fullscreenenter"",""0"",""3827""
","
","null","<p></p>","null","","","","","","","","","","","","","","","","","","","","","","","",""
"","do_trial","217","566618","0.0-117.0-0.0","""event"",""trial"",""time""
""fullscreenenter"",""0"",""3827""
","
","
","""event"",""trial"",""time""
""fullscreenenter"",""0"",""3827""
","
","448.59999999403954","","","","","","","","50","1,1,0","6","blank","328","null","0.18923618548612367","0.4233548323936919","0.112598219307446","1","","","","","","","","",""
"","html-keyboard-response","218","567624","0.0-117.0-1.0","""event"",""trial"",""time""
""fullscreenenter"",""0"",""3827""
","
","
","""event"",""trial"",""time""
""fullscreenenter"",""0"",""3827""
","
","null","<p></p>","null","","","","","","","","","","","","","","","","","","","","","","","",""
"","do_trial","219","570697","0.0-118.0-0.0","""event"",""trial"",""time""
""fullscreenenter"",""0"",""3827""
","
","
","""event"",""trial"",""time""
""fullscreenenter"",""0"",""3827""
","
","530","","","","","","","","50","0,0,0","6","blank","329","null","0.4391618741475795","0.3834042128497688","0.15784842765109067","0","","","","","","","","",""
"","html-keyboard-response","220","571704","0.0-118.0-1.0","""event"",""trial"",""time""
""fullscreenenter"",""0"",""3827""
","
","
","""event"",""trial"",""time""
""fullscreenenter"",""0"",""3827""
","
","null","<p></p>","null","","","","","","","","","","","","","","","","","","","","","","","",""
"","do_trial","221","574598","0.0-119.0-0.0","""event"",""trial"",""time""
""fullscreenenter"",""0"",""3827""
","
","
","""event"",""trial"",""time""
""fullscreenenter"",""0"",""3827""
","
","348.90000000596046","","","","","","","","49","1,1,0","6","blank","330","null","0.3168996933320233","0.5274295486217209","0.13822751991182444","1","","","","","","","","",""
"","html-keyboard-response","222","575604","0.0-119.0-1.0","""event"",""trial"",""time""
""fullscreenenter"",""0"",""3827""
","
","
","""event"",""trial"",""time""
""fullscreenenter"",""0"",""3827""
","
","null","<p></p>","null","","","","","","","","","","","","","","","","","","","","","","","",""
"","do_trial","223","578534","0.0-120.0-0.0","""event"",""trial"",""time""
""fullscreenenter"",""0"",""3827""
","
","
","""event"",""trial"",""time""
""fullscreenenter"",""0"",""3827""
","
","383.30000001192093","","","","","","","","51","0,1,0","6","blank","331","null","0.34921162995325694","0.4978868397521275","0.14965398143822772","0","","","","","","","","",""
"","html-keyboard-response","224","579541","0.0-120.0-1.0","""event"",""trial"",""time""
""fullscreenenter"",""0"",""3827""
","
","
","""event"",""trial"",""time""
""fullscreenenter"",""0"",""3827""
","
","null","<p></p>","null","","","","","","","","","","","","","","","","","","","","","","","",""
"","do_recog","225","582620","0.0-121.0-0.0","""event"",""trial"",""time""
""fullscreenenter"",""0"",""3827""
","
","
","""event"",""trial"",""time""
""fullscreenenter"",""0"",""3827""
","
","1566.7000000178814","","","","","","","","53","","","","332","probe-45","","","","","1","[object Object]","196","4","1","","","",""
"","html-keyboard-response","226","583627","0.0-121.0-1.0","""event"",""trial"",""time""
""fullscreenenter"",""0"",""3827""
","
","
","""event"",""trial"",""time""
""fullscreenenter"",""0"",""3827""
","
","null","<p></p>","null","","","","","","","","","","","","","","","","","","","","","","","",""
"","do_trial","227","586671","0.0-122.0-0.0","""event"",""trial"",""time""
""fullscreenenter"",""0"",""3827""
","
","
","""event"",""trial"",""time""
""fullscreenenter"",""0"",""3827""
","
","502.30000001192093","","","","","","","","49","1,0,1","6","blank","333","null","0.290885261876082","0.4560175152619081","0.29103394863706117","1","","","","","","","","",""
"","html-keyboard-response","228","587677","0.0-122.0-1.0","""event"",""trial"",""time""
""fullscreenenter"",""0"",""3827""
","
","
","""event"",""trial"",""time""
""fullscreenenter"",""0"",""3827""
","
","null","<p></p>","null","","","","","","","","","","","","","","","","","","","","","","","",""
"","do_recog","229","590844","0.0-123.0-0.0","""event"",""trial"",""time""
""fullscreenenter"",""0"",""3827""
","
","
","""event"",""trial"",""time""
""fullscreenenter"",""0"",""3827""
","
","1656.2000000178814","","","","","","","","54","","","","334","probe-167","","","","","1","[object Object]","71","1","1","","","",""
"","html-keyboard-response","230","591850","0.0-123.0-1.0","""event"",""trial"",""time""
""fullscreenenter"",""0"",""3827""
","
","
","""event"",""trial"",""time""
""fullscreenenter"",""0"",""3827""
","
","null","<p></p>","null","","","","","","","","","","","","","","","","","","","","","","","",""
"","do_trial","231","594987","0.0-124.0-0.0","""event"",""trial"",""time""
""fullscreenenter"",""0"",""3827""
","
","
","""event"",""trial"",""time""
""fullscreenenter"",""0"",""3827""
","
","585.0999999940395","","","","","","","","49","0,1,0","6","blank","335","null","0.21911994458606265","0.5199028238231486","0.2914574625863565","0","","","","","","","","",""
"","html-keyboard-response","232","595992","0.0-124.0-1.0","""event"",""trial"",""time""
""fullscreenenter"",""0"",""3827""
","
","
","""event"",""trial"",""time""
""fullscreenenter"",""0"",""3827""
","
","null","<p></p>","null","","","","","","","","","","","","","","","","","","","","","","","",""
"","do_recog","233","599186","0.0-125.0-0.0","""event"",""trial"",""time""
""fullscreenenter"",""0"",""3827""
","
","
","""event"",""trial"",""time""
""fullscreenenter"",""0"",""3827""
","
","1681.300000011921","","","","","","","","53","","","","336","probe-178","","","","","1","[object Object]","74","1","1","","","",""
"","html-keyboard-response","234","600193","0.0-125.0-1.0","""event"",""trial"",""time""
""fullscreenenter"",""0"",""3827""
","
","
","""event"",""trial"",""time""
""fullscreenenter"",""0"",""3827""
","
","null","<p></p>","null","","","","","","","","","","","","","","","","","","","","","","","",""
"","do_trial","235","603107","0.0-126.0-0.0","""event"",""trial"",""time""
""fullscreenenter"",""0"",""3827""
","
","
","""event"",""trial"",""time""
""fullscreenenter"",""0"",""3827""
","
","372.2999999821186","","","","","","","","50","1,1,1","6","blank","337","null","0.28402454865346116","0.5011477642319805","0.4080551298703604","1","","","","","","","","",""
"","html-keyboard-response","236","604113","0.0-126.0-1.0","""event"",""trial"",""time""
""fullscreenenter"",""0"",""3827""
","
","
","""event"",""trial"",""time""
""fullscreenenter"",""0"",""3827""
","
","null","<p></p>","null","","","","","","","","","","","","","","","","","","","","","","","",""
"","do_trial","237","606988","0.0-127.0-0.0","""event"",""trial"",""time""
""fullscreenenter"",""0"",""3827""
","
","
","""event"",""trial"",""time""
""fullscreenenter"",""0"",""3827""
","
","328.59999999403954","","","","","","","","50","1,1,0","6","blank","338","null","0.2110538760472059","0.4641627515182274","0.4125172261119699","1","","","","","","","","",""
"","html-keyboard-response","238","607995","0.0-127.0-1.0","""event"",""trial"",""time""
""fullscreenenter"",""0"",""3827""
","
","
","""event"",""trial"",""time""
""fullscreenenter"",""0"",""3827""
","
","null","<p></p>","null","","","","","","","","","","","","","","","","","","","","","","","",""
"","do_recog","239","610895","0.0-128.0-0.0","""event"",""trial"",""time""
""fullscreenenter"",""0"",""3827""
","
","
","""event"",""trial"",""time""
""fullscreenenter"",""0"",""3827""
","
","1387.1000000238419","","","","","","","","53","","","","339","probe-173","","","","","1","[object Object]","39","0","1","","","",""
"","html-keyboard-response","240","611901","0.0-128.0-1.0","""event"",""trial"",""time""
""fullscreenenter"",""0"",""3827""
","
","
","""event"",""trial"",""time""
""fullscreenenter"",""0"",""3827""
","
","null","<p></p>","null","","","","","","","","","","","","","","","","","","","","","","","",""
"","do_trial","241","614994","0.0-129.0-0.0","""event"",""trial"",""time""
""fullscreenenter"",""0"",""3827""
","
","
","""event"",""trial"",""time""
""fullscreenenter"",""0"",""3827""
","
","545.8000000119209","","","","","","","","50","0,0,1","6","blank","340","null","0.170398483143734","0.5777321841801076","0.3837514293960691","0","","","","","","","","",""
"","html-keyboard-response","242","615998","0.0-129.0-1.0","""event"",""trial"",""time""
""fullscreenenter"",""0"",""3827""
","
","
","""event"",""trial"",""time""
""fullscreenenter"",""0"",""3827""
","
","null","<p></p>","null","","","","","","","","","","","","","","","","","","","","","","","",""
"","do_recog","243","619088","0.0-130.0-0.0","""event"",""trial"",""time""
""fullscreenenter"",""0"",""3827""
","
","
","""event"",""trial"",""time""
""fullscreenenter"",""0"",""3827""
","
","1577.5999999940395","","","","","","","","55","","","","341","probe-239","","","","","0","[object Object]","null","null","1","","","",""
"","html-keyboard-response","244","620095","0.0-130.0-1.0","""event"",""trial"",""time""
""fullscreenenter"",""0"",""3827""
","
","
","""event"",""trial"",""time""
""fullscreenenter"",""0"",""3827""
","
","null","<p></p>","null","","","","","","","","","","","","","","","","","","","","","","","",""
"","do_trial","245","623016","0.0-131.0-0.0","""event"",""trial"",""time""
""fullscreenenter"",""0"",""3827""
","
","
","""event"",""trial"",""time""
""fullscreenenter"",""0"",""3827""
","
","377","","","","","","","","49","0,1,0","6","blank","342","null","0.22304056050187185","0.667950538826485","0.28773767890922175","0","","","","","","","","",""
"","html-keyboard-response","246","624021","0.0-131.0-1.0","""event"",""trial"",""time""
""fullscreenenter"",""0"",""3827""
","
","
","""event"",""trial"",""time""
""fullscreenenter"",""0"",""3827""
","
","null","<p></p>","null","","","","","","","","","","","","","","","","","","","","","","","",""
"","do_trial","247","626850","0.0-132.0-0.0","""event"",""trial"",""time""
""fullscreenenter"",""0"",""3827""
","
","
","""event"",""trial"",""time""
""fullscreenenter"",""0"",""3827""
","
","282.19999998807907","","","","","","","","50","0,0,0","6","blank","343","null","0.0954181157804041","0.4664401927557021","0.20604403786013314","0","","","","","","","","",""
"","html-keyboard-response","248","627851","0.0-132.0-1.0","""event"",""trial"",""time""
""fullscreenenter"",""0"",""3827""
","
","
","""event"",""trial"",""time""
""fullscreenenter"",""0"",""3827""
","
","null","<p></p>","null","","","","","","","","","","","","","","","","","","","","","","","",""
"","do_trial","249","630469","0.0-133.0-0.0","""event"",""trial"",""time""
""fullscreenenter"",""0"",""3827""
","
","
","""event"",""trial"",""time""
""fullscreenenter"",""0"",""3827""
","
","71.89999997615814","","","","","","","","51","0,0,0","6","blank","344","null","0.10682406821680107","0.5237924412685407","0.31561255083941714","0","","","","","","","","",""
"","html-keyboard-response","250","631472","0.0-133.0-1.0","""event"",""trial"",""time""
""fullscreenenter"",""0"",""3827""
","
","
","""event"",""trial"",""time""
""fullscreenenter"",""0"",""3827""
","
","null","<p></p>","null","","","","","","","","","","","","","","","","","","","","","","","",""
"","do_trial","251","634227","0.0-134.0-0.0","""event"",""trial"",""time""
""fullscreenenter"",""0"",""3827""
","
","
","""event"",""trial"",""time""
""fullscreenenter"",""0"",""3827""
","
","203.90000000596046","","","","","","","","50","0,1,1","6","blank","345","null","0.0790760860885147","0.724790476802197","0.3578765345491096","1","","","","","","","","",""
"","html-keyboard-response","252","635228","0.0-134.0-1.0","""event"",""trial"",""time""
""fullscreenenter"",""0"",""3827""
","
","
","""event"",""trial"",""time""
""fullscreenenter"",""0"",""3827""
","
","null","<p></p>","null","","","","","","","","","","","","","","","","","","","","","","","",""
"","do_recog","253","638055","0.0-135.0-0.0","""event"",""trial"",""time""
""fullscreenenter"",""0"",""3827""
","
","
","""event"",""trial"",""time""
""fullscreenenter"",""0"",""3827""
","
","1313.1000000238419","","","","","","","","53","","","","346","probe-96","","","","","1","[object Object]","75","1","1","","","",""
"","html-keyboard-response","254","639061","0.0-135.0-1.0","""event"",""trial"",""time""
""fullscreenenter"",""0"",""3827""
","
","
","""event"",""trial"",""time""
""fullscreenenter"",""0"",""3827""
","
","null","<p></p>","null","","","","","","","","","","","","","","","","","","","","","","","",""
"","do_trial","255","641739","0.0-136.0-0.0","""event"",""trial"",""time""
""fullscreenenter"",""0"",""3827""
","
","
","""event"",""trial"",""time""
""fullscreenenter"",""0"",""3827""
","
","131","","","","","","","","50","0,0,1","6","blank","347","null","0.13523190632366405","0.7133029234857261","0.43575297165437904","0","","","","","","","","",""
"","html-keyboard-response","256","642740","0.0-136.0-1.0","""event"",""trial"",""time""
""fullscreenenter"",""0"",""3827""
","
","
","""event"",""trial"",""time""
""fullscreenenter"",""0"",""3827""
","
","null","<p></p>","null","","","","","","","","","","","","","","","","","","","","","","","",""
"","do_trial","257","645687","0.0-137.0-0.0","""event"",""trial"",""time""
""fullscreenenter"",""0"",""3827""
","
","
","""event"",""trial"",""time""
""fullscreenenter"",""0"",""3827""
","
","400","","","","","","","","49","0,0,0","6","blank","348","null","0.14886388288870883","0.7276093388089118","0.3042974448847935","0","","","","","","","","",""
"","html-keyboard-response","258","646688","0.0-137.0-1.0","""event"",""trial"",""time""
""fullscreenenter"",""0"",""3827""
","
","
","""event"",""trial"",""time""
""fullscreenenter"",""0"",""3827""
","
","null","<p></p>","null","","","","","","","","","","","","","","","","","","","","","","","",""
"","break","259","647957","0.0-138.0-0.0","""event"",""trial"",""time""
""fullscreenenter"",""0"",""3827""
","
","
","""event"",""trial"",""time""
""fullscreenenter"",""0"",""3827""
","
","1266.5999999940395","<div class='center'><p>Time to take a quick break! You have 2 minutes to rest, but you can move on sooner if you'd like.</p><p> Press the <b>space bar</b> to continue.</p></div>","32","","","","","","","","","","","","","","","","","","","","","","","",""
"","do_recog","260","651264","0.0-138.0-1.0","""event"",""trial"",""time""
""fullscreenenter"",""0"",""3827""
","
","
","""event"",""trial"",""time""
""fullscreenenter"",""0"",""3827""
","
","1797.199999988079","","","","","","","","53","","","","349","probe-08","","","","","1","[object Object]","33","0","1","","","",""
"","html-keyboard-response","261","652271","0.0-138.0-2.0","""event"",""trial"",""time""
""fullscreenenter"",""0"",""3827""
","
","
","""event"",""trial"",""time""
""fullscreenenter"",""0"",""3827""
","
","null","<p></p>","null","","","","","","","","","","","","","","","","","","","","","","","",""
"","do_trial","262","655502","0.0-139.0-0.0","""event"",""trial"",""time""
""fullscreenenter"",""0"",""3827""
","
","
","""event"",""trial"",""time""
""fullscreenenter"",""0"",""3827""
","
","689.0999999940395","","","","","","","","49","0,1,0","6","blank","350","null","0.10275129217822095","0.7062999533249298","0.14381731249747604","0","","","","","","","","",""
"","html-keyboard-response","263","656503","0.0-139.0-1.0","""event"",""trial"",""time""
""fullscreenenter"",""0"",""3827""
","
","
","""event"",""trial"",""time""
""fullscreenenter"",""0"",""3827""
","
","null","<p></p>","null","","","","","","","","","","","","","","","","","","","","","","","",""
"","do_trial","264","659413","0.0-140.0-0.0","""event"",""trial"",""time""
""fullscreenenter"",""0"",""3827""
","
","
","""event"",""trial"",""time""
""fullscreenenter"",""0"",""3827""
","
","367.40000000596046","","","","","","","","51","0,1,1","6","blank","351","null","0.12372520447386107","0.5018745053033955","0.09964285440024596","1","","","","","","","","",""
"","html-keyboard-response","265","660421","0.0-140.0-1.0","""event"",""trial"",""time""
""fullscreenenter"",""0"",""3827""
","
","
","""event"",""trial"",""time""
""fullscreenenter"",""0"",""3827""
","
","null","<p></p>","null","","","","","","","","","","","","","","","","","","","","","","","",""
"","do_trial","266","663302","0.0-141.0-0.0","""event"",""trial"",""time""
""fullscreenenter"",""0"",""3827""
","
","
","""event"",""trial"",""time""
""fullscreenenter"",""0"",""3827""
","
","333.90000000596046","","","","","","","","51","0,0,0","6","blank","352","null","0.15461436059818554","0.3647808011642748","0.3549348491990466","0","","","","","","","","",""
"","html-keyboard-response","267","664308","0.0-141.0-1.0","""event"",""trial"",""time""
""fullscreenenter"",""0"",""3827""
","
","
","""event"",""trial"",""time""
""fullscreenenter"",""0"",""3827""
","
","null","<p></p>","null","","","","","","","","","","","","","","","","","","","","","","","",""
"","do_recog","268","667029","0.0-142.0-0.0","""event"",""trial"",""time""
""fullscreenenter"",""0"",""3827""
","
","
","""event"",""trial"",""time""
""fullscreenenter"",""0"",""3827""
","
","1207.300000011921","","","","","","","","53","","","","353","probe-177","","","","","1","[object Object]","36","0","1","","","",""
"","html-keyboard-response","269","668035","0.0-142.0-1.0","""event"",""trial"",""time""
""fullscreenenter"",""0"",""3827""
","
","
","""event"",""trial"",""time""
""fullscreenenter"",""0"",""3827""
","
","null","<p></p>","null","","","","","","","","","","","","","","","","","","","","","","","",""
"","do_trial","270","670595","0.0-143.0-0.0","""event"",""trial"",""time""
""fullscreenenter"",""0"",""3827""
","
","
","""event"",""trial"",""time""
""fullscreenenter"",""0"",""3827""
","
","18.400000005960464","","","","","","","","50","1,0,0","6","blank","354","null","0.20059744600361115","0.2668240182433468","0.41783152840223137","0","","","","","","","","",""
"","html-keyboard-response","271","671601","0.0-143.0-1.0","""event"",""trial"",""time""
""fullscreenenter"",""0"",""3827""
","
","
","""event"",""trial"",""time""
""fullscreenenter"",""0"",""3827""
","
","null","<p></p>","null","","","","","","","","","","","","","","","","","","","","","","","",""
"","do_trial","272","674526","0.0-144.0-0.0","""event"",""trial"",""time""
""fullscreenenter"",""0"",""3827""
","
","
","""event"",""trial"",""time""
""fullscreenenter"",""0"",""3827""
","
","377.5","","","","","","","","49","1,0,0","6","blank","355","null","0.46182500036099955","0.1857501629585263","0.4565650191299451","1","","","","","","","","",""
"","html-keyboard-response","273","675532","0.0-144.0-1.0","""event"",""trial"",""time""
""fullscreenenter"",""0"",""3827""
","
","
","""event"",""trial"",""time""
""fullscreenenter"",""0"",""3827""
","
","null","<p></p>","null","","","","","","","","","","","","","","","","","","","","","","","",""
"","do_trial","274","679576","0.0-145.0-0.0","""event"",""trial"",""time""
""fullscreenenter"",""0"",""3827""
","
","
","""event"",""trial"",""time""
""fullscreenenter"",""0"",""3827""
","
","1502.7999999821186","","","","","","","","51","0,0,1","6","blank","356","null","0.43383070349428354","0.10207612584970513","0.6172290356234078","1","","","","","","","","",""
"","html-keyboard-response","275","680582","0.0-145.0-1.0","""event"",""trial"",""time""
""fullscreenenter"",""0"",""3827""
","
","
","""event"",""trial"",""time""
""fullscreenenter"",""0"",""3827""
","
","null","<p></p>","null","","","","","","","","","","","","","","","","","","","","","","","",""
"","do_trial","276","683565","0.0-146.0-0.0","""event"",""trial"",""time""
""fullscreenenter"",""0"",""3827""
","
","
","""event"",""trial"",""time""
""fullscreenenter"",""0"",""3827""
","
","434.90000000596046","","","","","","","","49","0,1,1","6","blank","357","null","0.45068776618481216","0.09355311100675313","0.4613137298277441","0","","","","","","","","",""
"","html-keyboard-response","277","684567","0.0-146.0-1.0","""event"",""trial"",""time""
""fullscreenenter"",""0"",""3827""
","
","
","""event"",""trial"",""time""
""fullscreenenter"",""0"",""3827""
","
