"success","trial_type","trial_index","time_elapsed","internal_node_id","interactions","blur_events","focus_events","fullscreenenter_events","fullscreenexit_events","rt","stimulus","key_press","subject_id","participant_id","age","gender","prompt","response","choice_outcomes","context_n","context_img_id","trial_n","probe_img_id","pR_red","pR_white","pR_black","outcome","is_valid","image_to_show","probed_trial","probed_context","correct","probe","probed_trial_n","probed_context_n","context_im"
"true","fullscreen","0","4663","0.0-0.0","""event"",""trial"",""time""
""fullscreenenter"",""0"",""3707""
","
","
","""event"",""trial"",""time""
""fullscreenenter"",""0"",""3707""
","
","","","","","","","","","","","","","","","","","","","","","","","","","","",""
"","pavlovia","1","4668","0.0-1.0","""event"",""trial"",""time""
""fullscreenenter"",""0"",""3707""
","
","
","""event"",""trial"",""time""
""fullscreenenter"",""0"",""3707""
","
","","","","","","","","","","","","","","","","","","","","","","","","","","",""
"","welc_back","2","14576","0.0-2.0","""event"",""trial"",""time""
""fullscreenenter"",""0"",""3707""
","
","
","""event"",""trial"",""time""
""fullscreenenter"",""0"",""3707""
","
","null","run_exp/static/audio/clip_29_welcome_back.m4a","null","672","386","25","Female","<div class='center'><p>Welcome to day 2!</p><p> Yesterday, you were the head captain of a pirate ship. You asked your fellow pirates to rob other ships of their gold across six different islands.</p></div>","","","","","","","","","","","","","","","","","","",""
"","html-keyboard-response","3","18539","0.0-3.0","""event"",""trial"",""time""
""fullscreenenter"",""0"",""3707""
","
","
","""event"",""trial"",""time""
""fullscreenenter"",""0"",""3707""
","
","3960.89999999851","<div class='center'><p>Welcome to day 2!</p><p> Yesterday, you were the head captain of a pirate ship. You asked your fellow pirates to rob other ships of their gold across six different islands.</p><p><b>[Press the space bar to continue]</b></p></div>","32","","","","","","","","","","","","","","","","","","","","","","","",""
"","day_1_summary_goal","4","35752","0.0-4.0","""event"",""trial"",""time""
""fullscreenenter"",""0"",""3707""
","
","
","""event"",""trial"",""time""
""fullscreenenter"",""0"",""3707""
","
","null","run_exp/static/audio/clip_30_goal_of_game.m4a","null","","","","","<div class='center'><p>Today, like yesterday, you get to pick which pirate you want to rob the next ship.</p><p>If the pirate is successful in robbing a ship, you get gold coins that look like this: </p><p><img src='run_exp/static/images/tutorial/reward.png' height='150'></p><p> If they were not successful in robbing the ship, then you will get no gold coins and you'll see a big red x like this: </p><p><img src='run_exp/static/images/tutorial/reward_no.png' height='150'></p></div>","","","","","","","","","","","","","","","","","","",""
"","html-keyboard-response","5","36401","0.0-5.0","""event"",""trial"",""time""
""fullscreenenter"",""0"",""3707""
","
","
","""event"",""trial"",""time""
""fullscreenenter"",""0"",""3707""
","
","646.6999999992549","<div class='center'><p>Today, like yesterday, you get to pick which pirate you want to rob the next ship.</p><p>If the pirate is successful in robbing a ship, you get gold coins that look like this: </p><p><img src='run_exp/static/images/tutorial/reward.png' height='150'></p><p> If they were not successful in robbing the ship, then you will get no gold coins and you'll see a big red x like this: </p><p><img src='run_exp/static/images/tutorial/reward_no.png' height='150'></p><p><b>[Press the space bar to continue]</b></p></div>","32","","","","","","","","","","","","","","","","","","","","","","","",""
"","day_1_summary_pick","6","51100","0.0-6.0","""event"",""trial"",""time""
""fullscreenenter"",""0"",""3707""
","
","
","""event"",""trial"",""time""
""fullscreenenter"",""0"",""3707""
","
","null","run_exp/static/audio/clip_31_how_to_pick_a_pirate.m4a","null","","","","","<div class='center'><p>Also, just like yesterday, you will use the 1,2,3 keys on your keyboard to pick a pirate. Press '1' to choose red beard, '2' to choose white beard, and '3' to choose black beard . You only have 3 seconds to pick a pirate, so please make a choice quickly!</p></div>","","","","","","","","","","","","","","","","","","",""
"","html-keyboard-response","7","52447","0.0-7.0","""event"",""trial"",""time""
""fullscreenenter"",""0"",""3707""
","
","
","""event"",""trial"",""time""
""fullscreenenter"",""0"",""3707""
","
","1346.3999999985099","<div class='center'><p>Also, just like yesterday, you will use the 1,2,3 keys on your keyboard to pick a pirate. Press '1' to choose red beard, '2' to choose white beard, and '3' to choose black beard . You only have 3 seconds to pick a pirate, so please make a choice quickly!</p><p><b>[Press the space bar to continue]</b></p></div>","32","","","","","","","","","","","","","","","","","","","","","","","",""
"","test_phase_begin","8","82843","0.0-8.0","""event"",""trial"",""time""
""fullscreenenter"",""0"",""3707""
","
","
","""event"",""trial"",""time""
""fullscreenenter"",""0"",""3707""
","
","null","run_exp/static/audio/clip_32_final_place.m4a","null","","","","","<div class='center'><p>You’ve arrived at the final island of your journey! Unfortunately, it’s very foggy out, so you won’t be able to see it in the distance like the other islands you've visited.</p><p>You’ll still be deciding which pirate you want to rob a ship like before. However, because of the fog, you also won’t be able to see the ship.</p><p>This means you do not have to remember the ships you rob on this island.</p><p>Unlike yesterday, you won't be visiting multiple islands today. You will stay on this island for the entire game. This game will last ~30 minutes.</p></div>","","","","","","","","","","","","","","","","","","",""
"","html-keyboard-response","9","83644","0.0-9.0","""event"",""trial"",""time""
""fullscreenenter"",""0"",""3707""
","
","
","""event"",""trial"",""time""
""fullscreenenter"",""0"",""3707""
","
","800.6000000014901","<div class='center'><p>You’ve arrived at the final island of your journey! Unfortunately, it’s very foggy out, so you won’t be able to see it in the distance like the other islands you've visited.</p><p>You’ll still be deciding which pirate you want to rob a ship like before. However, because of the fog, you also won’t be able to see the ship.</p><p>This means you do not have to remember the ships you rob on this island.</p><p>Unlike yesterday, you won't be visiting multiple islands today. You will stay on this island for the entire game. This game will last ~30 minutes.</p><p><b>[Press the space bar to continue]</b></p></div>","32","","","","","","","","","","","","","","","","","","","","","","","",""
"","explain_probe_1","10","91342","0.0-10.0","""event"",""trial"",""time""
""fullscreenenter"",""0"",""3707""
","
","
","""event"",""trial"",""time""
""fullscreenenter"",""0"",""3707""
","
","null","run_exp/static/audio/clip_33_recognition_1.m4a","null","","","","","<div class='center'><p> Sometimes you’ll be shown a ship, and you will be asked if you saw this ship on a past island.</p><p> Here is an example of what you will see.</p><p><img src='run_exp/static/images/tutorial/example_recog_trial.png' height='500'></p></div>","","","","","","","","","","","","","","","","","","",""
"","html-keyboard-response","11","94177","0.0-11.0","""event"",""trial"",""time""
""fullscreenenter"",""0"",""3707""
","
","
","""event"",""trial"",""time""
""fullscreenenter"",""0"",""3707""
","
","2834.199999999255","<div class='center'><p> Sometimes you’ll be shown a ship, and you will be asked if you saw this ship on a past island.</p><p> Here is an example of what you will see.</p><p><img src='run_exp/static/images/tutorial/example_recog_trial.png' height='500'></p><p><b>[Press the space bar to continue]</b></p></div>","32","","","","","","","","","","","","","","","","","","","","","","","",""
"","explain_probe_2","12","115885","0.0-12.0","""event"",""trial"",""time""
""fullscreenenter"",""0"",""3707""
","
","
","""event"",""trial"",""time""
""fullscreenenter"",""0"",""3707""
","
","null","run_exp/static/audio/clip_34_recognition_2.m4a","null","","","","","<div class='center'><p> You will press the 5, 6, 7, 8 keys on your keyboard to respond.</p><p>If you are sure you saw the ship, press <b>5</b> on your keyboard.</p><p> If you think you saw it before but aren't sure, then press <b>6</b>.</p><p> If you think you have <b>not</b> seen it before but aren't sure, then press <b>7</b>.</p><p> If you are sure you did <b>not</b> see the ship before, then press <b>8</b>.</p><p><img src='run_exp/static/images/tutorial/example_recog_trial.png' height='500'></p></div>","","","","","","","","","","","","","","","","","","",""
"","html-keyboard-response","13","118024","0.0-13.0","""event"",""trial"",""time""
""fullscreenenter"",""0"",""3707""
","
","
","""event"",""trial"",""time""
""fullscreenenter"",""0"",""3707""
","
","2137.5","<div class='center'><p> You will press the 5, 6, 7, 8 keys on your keyboard to respond.</p><p>If you are sure you saw the ship, press <b>5</b> on your keyboard.</p><p> If you think you saw it before but aren't sure, then press <b>6</b>.</p><p> If you think you have <b>not</b> seen it before but aren't sure, then press <b>7</b>.</p><p> If you are sure you did <b>not</b> see the ship before, then press <b>8</b>.</p><p><img src='run_exp/static/images/tutorial/example_recog_trial.png' height='500'></p><p><b>[Press the space bar to continue]</b></p></div>","32","","","","","","","","","","","","","","","","","","","","","","","",""
"","explain_outcome","14","135227","0.0-14.0","""event"",""trial"",""time""
""fullscreenenter"",""0"",""3707""
","
","
","""event"",""trial"",""time""
""fullscreenenter"",""0"",""3707""
","
","null","run_exp/static/audio/clip_35_recognition_3.m4a","null","","","","","<div class='center'><p> If you remember correctly, then you’ll get a gold coin like this: </p><p><img src='run_exp/static/images/tutorial/reward_small.png' height='200'></p><p>If you do not remember correctly, then you'll see a red x like this: </p><p><img src='run_exp/static/images/tutorial/reward_no.png' height='200'></p><p>Importantly, when you are shown a ship, take the time to remind yourself which island you saw it on. This will help you in the next part of the study.</p></div>","","","","","","","","","","","","","","","","","","",""
"","html-keyboard-response","15","136461","0.0-15.0","""event"",""trial"",""time""
""fullscreenenter"",""0"",""3707""
","
","
","""event"",""trial"",""time""
""fullscreenenter"",""0"",""3707""
","
","1232.4000000022352","<div class='center'><p> If you remember correctly, then you’ll get a gold coin like this: </p><p><img src='run_exp/static/images/tutorial/reward_small.png' height='200'></p><p>If you do not remember correctly, then you'll see a red x like this: </p><p><img src='run_exp/static/images/tutorial/reward_no.png' height='200'></p><p>Importantly, when you are shown a ship, take the time to remind yourself which island you saw it on. This will help you in the next part of the study.</p><p><b>[Press the space bar to continue]</b></p></div>","32","","","","","","","","","","","","","","","","","","","","","","","",""
"","begin_test_phase","16","152271","0.0-16.0","""event"",""trial"",""time""
""fullscreenenter"",""0"",""3707""
","
","
","""event"",""trial"",""time""
""fullscreenenter"",""0"",""3707""
","
","null","run_exp/static/audio/clip_36_begin_final.m4a","null","","","","","<div class='center'><p>Let's go over the important points again. Your job is to: </p><p>1. Pick the pirate who is best at robbing ships and will bring you back gold coins. </p><p>2. Correctly remember whether or not you saw a ship before. If you did see the ship before, remind yourself on which island you saw it. </p></div>","","","","","","","","","","","","","","","","","","",""
"","html-keyboard-response","17","154362","0.0-17.0","""event"",""trial"",""time""
""fullscreenenter"",""0"",""3707""
","
","
","""event"",""trial"",""time""
""fullscreenenter"",""0"",""3707""
","
","2052.60000000149","<div class='center'><p>Let's go over the important points again. Your job is to: </p><p>1. Pick the pirate who is best at robbing ships and will bring you back gold coins. </p><p>2. Correctly remember whether or not you saw a ship before. If you did see the ship before, remind yourself on which island you saw it. </p><p><b>[Press the space bar to continue]</b></p></div>","32","","","","","","","","","","","","","","","","","","","","","","","",""
"","do_welcome","18","158369","0.0-18.0","""event"",""trial"",""time""
""fullscreenenter"",""0"",""3707""
","
","
","""event"",""trial"",""time""
""fullscreenenter"",""0"",""3707""
","
","null","","","","","","","","null","","","","","","","","","","","","","","","","","",""
"","do_trial","19","164414","0.0-19.0-0.0","""event"",""trial"",""time""
""fullscreenenter"",""0"",""3707""
","
","
","""event"",""trial"",""time""
""fullscreenenter"",""0"",""3707""
","
","null","","","","","","","","null","0,1,0","6","blank","230","null","0.2981351504204464","0.7052499495467128","0.10393329954514932","","","","","","","","","",""
"","html-keyboard-response","20","165420","0.0-19.0-1.0","""event"",""trial"",""time""
""fullscreenenter"",""0"",""3707""
","
","
","""event"",""trial"",""time""
""fullscreenenter"",""0"",""3707""
","
","null","<p></p>","null","","","","","","","","","","","","","","","","","","","","","","","",""
"","do_trial","21","168416","0.0-20.0-0.0","""event"",""trial"",""time""
""fullscreenenter"",""0"",""3707""
","
","
","""event"",""trial"",""time""
""fullscreenenter"",""0"",""3707""
","
","456.30000000074506","","","","","","","","49","1,1,0","6","blank","231","null","0.30907155111225687","0.5953603520454425","0.07870090390870468","1","","","","","","","","",""
"","html-keyboard-response","22","169422","0.0-20.0-1.0","""event"",""trial"",""time""
""fullscreenenter"",""0"",""3707""
","
","
","""event"",""trial"",""time""
""fullscreenenter"",""0"",""3707""
","
","null","<p></p>","null","","","","","","","","","","","","","","","","","","","","","","","",""
"","do_trial","23","172797","0.0-21.0-0.0","""event"",""trial"",""time""
""fullscreenenter"",""0"",""3707""
","
","
","""event"",""trial"",""time""
""fullscreenenter"",""0"",""3707""
","
","838.3999999985099","","","","","","","","50","0,0,0","6","blank","232","null","0.24928776822939683","0.5718856159182202","0.05778870005915653","0","","","","","","","","",""
"","html-keyboard-response","24","173802","0.0-21.0-1.0","""event"",""trial"",""time""
""fullscreenenter"",""0"",""3707""
","
","
","""event"",""trial"",""time""
""fullscreenenter"",""0"",""3707""
","
","null","<p></p>","null","","","","","","","","","","","","","","","","","","","","","","","",""
"","do_trial","25","176974","0.0-22.0-0.0","""event"",""trial"",""time""
""fullscreenenter"",""0"",""3707""
","
","
","""event"",""trial"",""time""
""fullscreenenter"",""0"",""3707""
","
","633.0999999977648","","","","","","","","51","1,0,0","6","blank","233","null","0.19585062373745893","0.5537267871207","0.09584324410449092","0","","","","","","","","",""
"","html-keyboard-response","26","177981","0.0-22.0-1.0","""event"",""trial"",""time""
""fullscreenenter"",""0"",""3707""
","
","
","""event"",""trial"",""time""
""fullscreenenter"",""0"",""3707""
","
","null","<p></p>","null","","","","","","","","","","","","","","","","","","","","","","","",""
"","do_trial","27","180787","0.0-23.0-0.0","""event"",""trial"",""time""
""fullscreenenter"",""0"",""3707""
","
","
","""event"",""trial"",""time""
""fullscreenenter"",""0"",""3707""
","
","264.69999999925494","","","","","","","","49","0,0,0","6","blank","234","null","0.2095354631934063","0.589860528070493","0.22645619029170477","0","","","","","","","","",""
"","html-keyboard-response","28","181791","0.0-23.0-1.0","""event"",""trial"",""time""
""fullscreenenter"",""0"",""3707""
","
","
","""event"",""trial"",""time""
""fullscreenenter"",""0"",""3707""
","
","null","<p></p>","null","","","","","","","","","","","","","","","","","","","","","","","",""
"","do_trial","29","184578","0.0-24.0-0.0","""event"",""trial"",""time""
""fullscreenenter"",""0"",""3707""
","
","
","""event"",""trial"",""time""
""fullscreenenter"",""0"",""3707""
","
","245.40000000223517","","","","","","","","49","0,1,0","6","blank","235","null","0.19381781766620657","0.44382912726685897","0.17515600813536997","0","","","","","","","","",""
"","html-keyboard-response","30","185582","0.0-24.0-1.0","""event"",""trial"",""time""
""fullscreenenter"",""0"",""3707""
","
","
","""event"",""trial"",""time""
""fullscreenenter"",""0"",""3707""
","
","null","<p></p>","null","","","","","","","","","","","","","","","","","","","","","","","",""
"","do_trial","31","188374","0.0-25.0-0.0","""event"",""trial"",""time""
""fullscreenenter"",""0"",""3707""
","
","
","""event"",""trial"",""time""
""fullscreenenter"",""0"",""3707""
","
","252.69999999925494","","","","","","","","50","0,0,0","6","blank","236","null","0.25339840205103853","0.32453562683492093","0.18851054974148793","0","","","","","","","","",""
"","html-keyboard-response","32","189378","0.0-25.0-1.0","""event"",""trial"",""time""
""fullscreenenter"",""0"",""3707""
","
","
","""event"",""trial"",""time""
""fullscreenenter"",""0"",""3707""
","
","null","<p></p>","null","","","","","","","","","","","","","","","","","","","","","","","",""
"","do_trial","33","192158","0.0-26.0-0.0","""event"",""trial"",""time""
""fullscreenenter"",""0"",""3707""
","
","
","""event"",""trial"",""time""
""fullscreenenter"",""0"",""3707""
","
","237.09999999776483","","","","","","","","51","0,1,0","6","blank","237","null","0.1423775093174771","0.3749365319523445","0.10244045007217882","0","","","","","","","","",""
"","html-keyboard-response","34","193162","0.0-26.0-1.0","""event"",""trial"",""time""
""fullscreenenter"",""0"",""3707""
","
","
","""event"",""trial"",""time""
""fullscreenenter"",""0"",""3707""
","
","null","<p></p>","null","","","","","","","","","","","","","","","","","","","","","","","",""
"","do_trial","35","195973","0.0-27.0-0.0","""event"",""trial"",""time""
""fullscreenenter"",""0"",""3707""
","
","
","""event"",""trial"",""time""
""fullscreenenter"",""0"",""3707""
","
","270","","","","","","","","49","0,0,0","6","blank","238","null","0.1776712596389069","0.6965353883862511","0.1924168801901947","0","","","","","","","","",""
"","html-keyboard-response","36","196978","0.0-27.0-1.0","""event"",""trial"",""time""
""fullscreenenter"",""0"",""3707""
","
","
","""event"",""trial"",""time""
""fullscreenenter"",""0"",""3707""
","
","null","<p></p>","null","","","","","","","","","","","","","","","","","","","","","","","",""
"","do_trial","37","199754","0.0-28.0-0.0","""event"",""trial"",""time""
""fullscreenenter"",""0"",""3707""
","
","
","""event"",""trial"",""time""
""fullscreenenter"",""0"",""3707""
","
","234.90000000223517","","","","","","","","50","0,1,0","6","blank","239","null","0.22222106674247738","0.6338966364887427","0.2011736100019188","1","","","","","","","","",""
"","html-keyboard-response","38","200759","0.0-28.0-1.0","""event"",""trial"",""time""
""fullscreenenter"",""0"",""3707""
","
","
","""event"",""trial"",""time""
""fullscreenenter"",""0"",""3707""
","
","null","<p></p>","null","","","","","","","","","","","","","","","","","","","","","","","",""
"","do_trial","39","203780","0.0-29.0-0.0","""event"",""trial"",""time""
""fullscreenenter"",""0"",""3707""
","
","
","""event"",""trial"",""time""
""fullscreenenter"",""0"",""3707""
","
","478.0999999977648","","","","","","","","51","0,1,0","6","blank","240","null","0.31326643218798744","0.6943020080189837","0.33163892757456886","0","","","","","","","","",""
"","html-keyboard-response","40","204784","0.0-29.0-1.0","""event"",""trial"",""time""
""fullscreenenter"",""0"",""3707""
","
","
","""event"",""trial"",""time""
""fullscreenenter"",""0"",""3707""
","
","null","<p></p>","null","","","","","","","","","","","","","","","","","","","","","","","",""
"","do_recog","41","210797","0.0-30.0-0.0","""event"",""trial"",""time""
""fullscreenenter"",""0"",""3707""
","
","
","""event"",""trial"",""time""
""fullscreenenter"",""0"",""3707""
","
","null","","","","","","","","null","","","","241","probe-121","","","","","1","[object Object]","193","4","0","","","",""
"","html-keyboard-response","42","211801","0.0-30.0-1.0","""event"",""trial"",""time""
""fullscreenenter"",""0"",""3707""
","
","
","""event"",""trial"",""time""
""fullscreenenter"",""0"",""3707""
","
","null","<p></p>","null","","","","","","","","","","","","","","","","","","","","","","","",""
"","do_trial","43","215447","0.0-31.0-0.0","""event"",""trial"",""time""
""fullscreenenter"",""0"",""3707""
","
","
","""event"",""trial"",""time""
""fullscreenenter"",""0"",""3707""
","
","1104.300000000745","","","","","","","","49","1,0,0","6","blank","242","null","0.47283348204374187","0.574304409318194","0.24763393104291057","1","","","","","","","","",""
"","html-keyboard-response","44","216451","0.0-31.0-1.0","""event"",""trial"",""time""
""fullscreenenter"",""0"",""3707""
","
","
","""event"",""trial"",""time""
""fullscreenenter"",""0"",""3707""
","
","null","<p></p>","null","","","","","","","","","","","","","","","","","","","","","","","",""
"","do_recog","45","219859","0.0-32.0-0.0","""event"",""trial"",""time""
""fullscreenenter"",""0"",""3707""
","
","
","""event"",""trial"",""time""
""fullscreenenter"",""0"",""3707""
","
","1897","","","","","","","","55","","","","243","probe-206","","","","","1","[object Object]","34","0","0","","","",""
"","html-keyboard-response","46","220863","0.0-32.0-1.0","""event"",""trial"",""time""
""fullscreenenter"",""0"",""3707""
","
","
","""event"",""trial"",""time""
""fullscreenenter"",""0"",""3707""
","
","null","<p></p>","null","","","","","","","","","","","","","","","","","","","","","","","",""
"","do_trial","47","225162","0.0-33.0-0.0","""event"",""trial"",""time""
""fullscreenenter"",""0"",""3707""
","
","
","""event"",""trial"",""time""
""fullscreenenter"",""0"",""3707""
","
","1757.300000000745","","","","","","","","49","0,1,1","6","blank","244","null","0.3909110540749338","0.4462647199821587","0.3673373479658678","0","","","","","","","","",""
"","html-keyboard-response","48","226167","0.0-33.0-1.0","""event"",""trial"",""time""
""fullscreenenter"",""0"",""3707""
","
","
","""event"",""trial"",""time""
""fullscreenenter"",""0"",""3707""
","
","null","<p></p>","null","","","","","","","","","","","","","","","","","","","","","","","",""
"","do_trial","49","229323","0.0-34.0-0.0","""event"",""trial"",""time""
""fullscreenenter"",""0"",""3707""
","
","
","""event"",""trial"",""time""
""fullscreenenter"",""0"",""3707""
","
","614","","","","","","","","50","1,0,0","6","blank","245","null","0.6289760239704448","0.3118829111351322","0.3924780247487458","0","","","","","","","","",""
"","html-keyboard-response","50","230327","0.0-34.0-1.0","""event"",""trial"",""time""
""fullscreenenter"",""0"",""3707""
","
","
","""event"",""trial"",""time""
""fullscreenenter"",""0"",""3707""
","
","null","<p></p>","null","","","","","","","","","","","","","","","","","","","","","","","",""
"","do_trial","51","233166","0.0-35.0-0.0","""event"",""trial"",""time""
""fullscreenenter"",""0"",""3707""
","
","
","""event"",""trial"",""time""
""fullscreenenter"",""0"",""3707""
","
","296.30000000074506","","","","","","","","51","0,1,1","6","blank","246","null","0.6862002496869012","0.24080374364859328","0.2291962159638872","1","","","","","","","","",""
"","html-keyboard-response","52","234170","0.0-35.0-1.0","""event"",""trial"",""time""
""fullscreenenter"",""0"",""3707""
","
","
","""event"",""trial"",""time""
""fullscreenenter"",""0"",""3707""
","
","null","<p></p>","null","","","","","","","","","","","","","","","","","","","","","","","",""
"","do_recog","53","237811","0.0-36.0-0.0","""event"",""trial"",""time""
""fullscreenenter"",""0"",""3707""
","
","
","""event"",""trial"",""time""
""fullscreenenter"",""0"",""3707""
","
","2130.300000000745","","","","","","","","56","","","","247","probe-55","","","","","1","[object Object]","71","1","0","","","",""
"","html-keyboard-response","54","238815","0.0-36.0-1.0","""event"",""trial"",""time""
""fullscreenenter"",""0"",""3707""
","
","
","""event"",""trial"",""time""
""fullscreenenter"",""0"",""3707""
","
","null","<p></p>","null","","","","","","","","","","","","","","","","","","","","","","","",""
"","do_trial","55","242507","0.0-37.0-0.0","""event"",""trial"",""time""
""fullscreenenter"",""0"",""3707""
","
","
","""event"",""trial"",""time""
""fullscreenenter"",""0"",""3707""
","
","1149.8999999985099","","","","","","","","49","0,0,0","6","blank","248","null","0.6564343776681291","0.29318396795698076","0.18974614720082048","0","","","","","","","","",""
"","html-keyboard-response","56","243511","0.0-37.0-1.0","""event"",""trial"",""time""
""fullscreenenter"",""0"",""3707""
","
","
","""event"",""trial"",""time""
""fullscreenenter"",""0"",""3707""
","
","null","<p></p>","null","","","","","","","","","","","","","","","","","","","","","","","",""
"","do_trial","57","246619","0.0-38.0-0.0","""event"",""trial"",""time""
""fullscreenenter"",""0"",""3707""
","
","
","""event"",""trial"",""time""
""fullscreenenter"",""0"",""3707""
","
","565.6999999992549","","","","","","","","50","0,0,0","6","blank","249","null","0.42408482220483057","0.31524156792969893","0.33149410137322405","0","","","","","","","","",""
"","html-keyboard-response","58","247623","0.0-38.0-1.0","""event"",""trial"",""time""
""fullscreenenter"",""0"",""3707""
","
","
","""event"",""trial"",""time""
""fullscreenenter"",""0"",""3707""
","
","null","<p></p>","null","","","","","","","","","","","","","","","","","","","","","","","",""
"","do_trial","59","250699","0.0-39.0-0.0","""event"",""trial"",""time""
""fullscreenenter"",""0"",""3707""
","
","
","""event"",""trial"",""time""
""fullscreenenter"",""0"",""3707""
","
","534.1000000014901","","","","","","","","51","1,0,1","6","blank","250","null","0.49556879144989574","0.3950547280172952","0.23594113345161716","1","","","","","","","","",""
"","html-keyboard-response","60","251702","0.0-39.0-1.0","""event"",""trial"",""time""
""fullscreenenter"",""0"",""3707""
","
","
","""event"",""trial"",""time""
""fullscreenenter"",""0"",""3707""
","
","null","<p></p>","null","","","","","","","","","","","","","","","","","","","","","","","",""
"","do_recog","61","254857","0.0-40.0-0.0","""event"",""trial"",""time""
""fullscreenenter"",""0"",""3707""
","
","
","""event"",""trial"",""time""
""fullscreenenter"",""0"",""3707""
","
","1647.9000000022352","","","","","","","","54","","","","251","probe-112","","","","","1","[object Object]","74","1","1","","","",""
"","html-keyboard-response","62","255861","0.0-40.0-1.0","""event"",""trial"",""time""
""fullscreenenter"",""0"",""3707""
","
","
","""event"",""trial"",""time""
""fullscreenenter"",""0"",""3707""
","
","null","<p></p>","null","","","","","","","","","","","","","","","","","","","","","","","",""
"","do_trial","63","259859","0.0-41.0-0.0","""event"",""trial"",""time""
""fullscreenenter"",""0"",""3707""
","
","
","""event"",""trial"",""time""
""fullscreenenter"",""0"",""3707""
","
","1456.0999999977648","","","","","","","","49","1,1,1","6","blank","252","null","0.5337243851957656","0.3114527182206231","0.3108560582138311","1","","","","","","","","",""
"","html-keyboard-response","64","260863","0.0-41.0-1.0","""event"",""trial"",""time""
""fullscreenenter"",""0"",""3707""
","
","
","""event"",""trial"",""time""
""fullscreenenter"",""0"",""3707""
","
","null","<p></p>","null","","","","","","","","","","","","","","","","","","","","","","","",""
"","do_trial","65","263801","0.0-42.0-0.0","""event"",""trial"",""time""
""fullscreenenter"",""0"",""3707""
","
","
","""event"",""trial"",""time""
""fullscreenenter"",""0"",""3707""
","
","397.9000000022352","","","","","","","","50","1,0,1","6","blank","253","null","0.6149970601390089","0.11295071703128703","0.21853317113857412","0","","","","","","","","",""
"","html-keyboard-response","66","264805","0.0-42.0-1.0","""event"",""trial"",""time""
""fullscreenenter"",""0"",""3707""
","
","
","""event"",""trial"",""time""
""fullscreenenter"",""0"",""3707""
","
","null","<p></p>","null","","","","","","","","","","","","","","","","","","","","","","","",""
"","do_recog","67","268307","0.0-43.0-0.0","""event"",""trial"",""time""
""fullscreenenter"",""0"",""3707""
","
","
","""event"",""trial"",""time""
""fullscreenenter"",""0"",""3707""
","
","1991.7000000029802","","","","","","","","56","","","","254","probe-239","","","","","0","[object Object]","null","null","1","","","",""
"","html-keyboard-response","68","269311","0.0-43.0-1.0","""event"",""trial"",""time""
""fullscreenenter"",""0"",""3707""
","
","
","""event"",""trial"",""time""
""fullscreenenter"",""0"",""3707""
","
","null","<p></p>","null","","","","","","","","","","","","","","","","","","","","","","","",""
"","do_trial","69","272915","0.0-44.0-0.0","""event"",""trial"",""time""
""fullscreenenter"",""0"",""3707""
","
","
","""event"",""trial"",""time""
""fullscreenenter"",""0"",""3707""
","
","1061.5","","","","","","","","49","1,1,0","6","blank","255","null","0.4854454804256358","0.20076222446200553","0.3979846589593716","1","","","","","","","","",""
"","html-keyboard-response","70","273919","0.0-44.0-1.0","""event"",""trial"",""time""
""fullscreenenter"",""0"",""3707""
","
","
","""event"",""trial"",""time""
""fullscreenenter"",""0"",""3707""
","
","null","<p></p>","null","","","","","","","","","","","","","","","","","","","","","","","",""
"","do_trial","71","277187","0.0-45.0-0.0","""event"",""trial"",""time""
""fullscreenenter"",""0"",""3707""
","
","
","""event"",""trial"",""time""
""fullscreenenter"",""0"",""3707""
","
","726.7999999970198","","","","","","","","50","1,0,1","6","blank","256","null","0.5633393751408908","0.09164656055120617","0.3801332360941895","0","","","","","","","","",""
"","html-keyboard-response","72","278191","0.0-45.0-1.0","""event"",""trial"",""time""
""fullscreenenter"",""0"",""3707""
","
","
","""event"",""trial"",""time""
""fullscreenenter"",""0"",""3707""
","
","null","<p></p>","null","","","","","","","","","","","","","","","","","","","","","","","",""
"","do_trial","73","281119","0.0-46.0-0.0","""event"",""trial"",""time""
""fullscreenenter"",""0"",""3707""
","
","
","""event"",""trial"",""time""
""fullscreenenter"",""0"",""3707""
","
","381.8999999985099","","","","","","","","51","1,0,0","6","blank","257","null","0.6455475849677995","0.0703048338528801","0.29380529837086633","0","","","","","","","","",""
"","html-keyboard-response","74","282121","0.0-46.0-1.0","""event"",""trial"",""time""
""fullscreenenter"",""0"",""3707""
","
","
","""event"",""trial"",""time""
""fullscreenenter"",""0"",""3707""
","
","null","<p></p>","null","","","","","","","","","","","","","","","","","","","","","","","",""
"","do_recog","75","285683","0.0-47.0-0.0","""event"",""trial"",""time""
""fullscreenenter"",""0"",""3707""
","
","
","""event"",""trial"",""time""
""fullscreenenter"",""0"",""3707""
","
","2051.7000000029802","","","","","","","","55","","","","258","probe-140","","","","","1","[object Object]","159","3","0","","","",""
"","html-keyboard-response","76","286687","0.0-47.0-1.0","""event"",""trial"",""time""
""fullscreenenter"",""0"",""3707""
","
","
","""event"",""trial"",""time""
""fullscreenenter"",""0"",""3707""
","
","null","<p></p>","null","","","","","","","","","","","","","","","","","","","","","","","",""
"","do_trial","77","289891","0.0-48.0-0.0","""event"",""trial"",""time""
""fullscreenenter"",""0"",""3707""
","
","
","""event"",""trial"",""time""
""fullscreenenter"",""0"",""3707""
","
","662","","","","","","","","49","0,0,0","6","blank","259","null","0.5944801098121978","0.1298232843146841","0.31086608900748164","0","","","","","","","","",""
"","html-keyboard-response","78","290897","0.0-48.0-1.0","""event"",""trial"",""time""
""fullscreenenter"",""0"",""3707""
","
","
","""event"",""trial"",""time""
""fullscreenenter"",""0"",""3707""
","
","null","<p></p>","null","","","","","","","","","","","","","","","","","","","","","","","",""
"","do_trial","79","294039","0.0-49.0-0.0","""event"",""trial"",""time""
""fullscreenenter"",""0"",""3707""
","
","
","""event"",""trial"",""time""
""fullscreenenter"",""0"",""3707""
","
","604.7999999970198","","","","","","","","51","1,0,1","6","blank","260","null","0.6496052924914255","0.20471433254995053","0.3782309085136408","1","","","","","","","","",""
"","html-keyboard-response","80","295043","0.0-49.0-1.0","""event"",""trial"",""time""
""fullscreenenter"",""0"",""3707""
","
","
","""event"",""trial"",""time""
""fullscreenenter"",""0"",""3707""
","
","null","<p></p>","null","","","","","","","","","","","","","","","","","","","","","","","",""
"","do_trial","81","298340","0.0-50.0-0.0","""event"",""trial"",""time""
""fullscreenenter"",""0"",""3707""
","
","
","""event"",""trial"",""time""
""fullscreenenter"",""0"",""3707""
","
","757.3999999985099","","","","","","","","51","0,0,1","6","blank","261","null","0.7255254069256344","0.08787773032911197","0.28912256918206825","1","","","","","","","","",""
"","html-keyboard-response","82","299345","0.0-50.0-1.0","""event"",""trial"",""time""
""fullscreenenter"",""0"",""3707""
","
","
","""event"",""trial"",""time""
""fullscreenenter"",""0"",""3707""
","
","null","<p></p>","null","","","","","","","","","","","","","","","","","","","","","","","",""
"","do_trial","83","302455","0.0-51.0-0.0","""event"",""trial"",""time""
""fullscreenenter"",""0"",""3707""
","
","
","""event"",""trial"",""time""
""fullscreenenter"",""0"",""3707""
","
","572.5","","","","","","","","51","1,0,0","6","blank","262","null","0.5410421907897928","0.23895686534838348","0.4459406228885011","0","","","","","","","","",""
"","html-keyboard-response","84","303459","0.0-51.0-1.0","""event"",""trial"",""time""
""fullscreenenter"",""0"",""3707""
","
","
","""event"",""trial"",""time""
""fullscreenenter"",""0"",""3707""
","
","null","<p></p>","null","","","","","","","","","","","","","","","","","","","","","","","",""
"","do_recog","85","307117","0.0-52.0-0.0","""event"",""trial"",""time""
""fullscreenenter"",""0"",""3707""
","
","
","""event"",""trial"",""time""
""fullscreenenter"",""0"",""3707""
","
","2147.099999997765","","","","","","","","53","","","","263","probe-217","","","","","1","[object Object]","31","0","1","","","",""
"","html-keyboard-response","86","308121","0.0-52.0-1.0","""event"",""trial"",""time""
""fullscreenenter"",""0"",""3707""
","
","
","""event"",""trial"",""time""
""fullscreenenter"",""0"",""3707""
","
","null","<p></p>","null","","","","","","","","","","","","","","","","","","","","","","","",""
"","do_trial","87","312130","0.0-53.0-0.0","""event"",""trial"",""time""
""fullscreenenter"",""0"",""3707""
","
","
","""event"",""trial"",""time""
""fullscreenenter"",""0"",""3707""
","
","1468.6000000014901","","","","","","","","51","0,1,1","6","blank","264","null","0.658079249277101","0.193627674022554","0.43596917397547996","1","","","","","","","","",""
"","html-keyboard-response","88","313135","0.0-53.0-1.0","""event"",""trial"",""time""
""fullscreenenter"",""0"",""3707""
","
","
","""event"",""trial"",""time""
""fullscreenenter"",""0"",""3707""
","
","null","<p></p>","null","","","","","","","","","","","","","","","","","","","","","","","",""
"","do_trial","89","316247","0.0-54.0-0.0","""event"",""trial"",""time""
""fullscreenenter"",""0"",""3707""
","
","
","""event"",""trial"",""time""
""fullscreenenter"",""0"",""3707""
","
","570.2999999970198","","","","","","","","51","0,0,1","6","blank","265","null","0.7744792954405268","0.11248605789810136","0.4594006407983457","1","","","","","","","","",""
"","html-keyboard-response","90","317251","0.0-54.0-1.0","""event"",""trial"",""time""
""fullscreenenter"",""0"",""3707""
","
","
","""event"",""trial"",""time""
""fullscreenenter"",""0"",""3707""
","
","null","<p></p>","null","","","","","","","","","","","","","","","","","","","","","","","",""
"","do_trial","91","320268","0.0-55.0-0.0","""event"",""trial"",""time""
""fullscreenenter"",""0"",""3707""
","
","
","""event"",""trial"",""time""
""fullscreenenter"",""0"",""3707""
","
","475","","","","","","","","51","1,0,0","6","blank","266","null","0.7724024073444945","0.06373313988666923","0.23788395215438585","0","","","","","","","","",""
"","html-keyboard-response","92","321272","0.0-55.0-1.0","""event"",""trial"",""time""
""fullscreenenter"",""0"",""3707""
","
","
","""event"",""trial"",""time""
""fullscreenenter"",""0"",""3707""
","
","null","<p></p>","null","","","","","","","","","","","","","","","","","","","","","","","",""
"","do_recog","93","324588","0.0-56.0-0.0","""event"",""trial"",""time""
""fullscreenenter"",""0"",""3707""
","
","
","""event"",""trial"",""time""
""fullscreenenter"",""0"",""3707""
","
","1805.4000000022352","","","","","","","","53","","","","267","probe-45","","","","","1","[object Object]","30","0","1","","","",""
"","html-keyboard-response","94","325592","0.0-56.0-1.0","""event"",""trial"",""time""
""fullscreenenter"",""0"",""3707""
","
","
","""event"",""trial"",""time""
""fullscreenenter"",""0"",""3707""
","
","null","<p></p>","null","","","","","","","","","","","","","","","","","","","","","","","",""
"","do_trial","95","328873","0.0-57.0-0.0","""event"",""trial"",""time""
""fullscreenenter"",""0"",""3707""
","
","
","""event"",""trial"",""time""
""fullscreenenter"",""0"",""3707""
","
","741.6000000014901","","","","","","","","51","1,0,0","6","blank","268","null","0.8234813119378638","0.1043124544624087","0.23256409362026303","0","","","","","","","","",""
"","html-keyboard-response","96","329878","0.0-57.0-1.0","""event"",""trial"",""time""
""fullscreenenter"",""0"",""3707""
","
","
","""event"",""trial"",""time""
""fullscreenenter"",""0"",""3707""
","
","null","<p></p>","null","","","","","","","","","","","","","","","","","","","","","","","",""
"","break","97","331891","0.0-58.0-0.0","""event"",""trial"",""time""
""fullscreenenter"",""0"",""3707""
","
","
","""event"",""trial"",""time""
""fullscreenenter"",""0"",""3707""
","
","2012.5","<div class='center'><p>Time to take a quick break! You have 2 minutes to rest, but you can move on sooner if you'd like.</p><p> Press the <b>space bar</b> to continue.</p></div>","32","","","","","","","","","","","","","","","","","","","","","","","",""
"","do_trial","98","335236","0.0-58.0-1.0","""event"",""trial"",""time""
""fullscreenenter"",""0"",""3707""
","
","
","""event"",""trial"",""time""
""fullscreenenter"",""0"",""3707""
","
","803.8000000007451","","","","","","","","51","1,0,0","6","blank","269","null","0.8330768911800494","0.06298271750744686","0.16733858769539806","0","","","","","","","","",""
"","html-keyboard-response","99","336240","0.0-58.0-2.0","""event"",""trial"",""time""
""fullscreenenter"",""0"",""3707""
","
","
","""event"",""trial"",""time""
""fullscreenenter"",""0"",""3707""
","
","null","<p></p>","null","","","","","","","","","","","","","","","","","","","","","","","",""
"","do_trial","100","339171","0.0-59.0-0.0","""event"",""trial"",""time""
""fullscreenenter"",""0"",""3707""
","
","
","""event"",""trial"",""time""
""fullscreenenter"",""0"",""3707""
","
","389.4000000022352","","","","","","","","50","1,0,1","6","blank","270","null","0.683705213612829","0.05482733513608956","0.22201361567902156","0","","","","","","","","",""
"","html-keyboard-response","101","340175","0.0-59.0-1.0","""event"",""trial"",""time""
""fullscreenenter"",""0"",""3707""
","
","
","""event"",""trial"",""time""
""fullscreenenter"",""0"",""3707""
","
","null","<p></p>","null","","","","","","","","","","","","","","","","","","","","","","","",""
"","do_trial","102","342991","0.0-60.0-0.0","""event"",""trial"",""time""
""fullscreenenter"",""0"",""3707""
","
","
","""event"",""trial"",""time""
""fullscreenenter"",""0"",""3707""
","
","278.1000000014901","","","","","","","","49","0,0,1","6","blank","271","null","0.6705867952822167","0.12148393422830885","0.17710625990685583","0","","","","","","","","",""
"","html-keyboard-response","103","343995","0.0-60.0-1.0","""event"",""trial"",""time""
""fullscreenenter"",""0"",""3707""
","
","
","""event"",""trial"",""time""
""fullscreenenter"",""0"",""3707""
","
","null","<p></p>","null","","","","","","","","","","","","","","","","","","","","","","","",""
"","do_trial","104","346920","0.0-61.0-0.0","""event"",""trial"",""time""
""fullscreenenter"",""0"",""3707""
","
","
","""event"",""trial"",""time""
""fullscreenenter"",""0"",""3707""
","
","382.8999999985099","","","","","","","","49","1,0,1","6","blank","272","null","0.6866882020845367","0.10226410755482945","0.27181738392802685","1","","","","","","","","",""
"","html-keyboard-response","105","347924","0.0-61.0-1.0","""event"",""trial"",""time""
""fullscreenenter"",""0"",""3707""
","
","
","""event"",""trial"",""time""
""fullscreenenter"",""0"",""3707""
","
","null","<p></p>","null","","","","","","","","","","","","","","","","","","","","","","","",""
"","do_trial","106","350892","0.0-62.0-0.0","""event"",""trial"",""time""
""fullscreenenter"",""0"",""3707""
","
","
","""event"",""trial"",""time""
""fullscreenenter"",""0"",""3707""
","
","425.5999999977648","","","","","","","","49","0,0,1","6","blank","273","null","0.6311983831710809","0.34420538636632036","0.29432311114108467","0","","","","","","","","",""
"","html-keyboard-response","107","351896","0.0-62.0-1.0","""event"",""trial"",""time""
""fullscreenenter"",""0"",""3707""
","
","
","""event"",""trial"",""time""
""fullscreenenter"",""0"",""3707""
","
","null","<p></p>","null","","","","","","","","","","","","","","","","","","","","","","","",""
"","do_trial","108","354871","0.0-63.0-0.0","""event"",""trial"",""time""
""fullscreenenter"",""0"",""3707""
","
","
","""event"",""trial"",""time""
""fullscreenenter"",""0"",""3707""
","
","432.69999999925494","","","","","","","","49","1,1,0","6","blank","274","null","0.5184195614063648","0.29236919163071134","0.31576793984419527","1","","","","","","","","",""
"","html-keyboard-response","109","355876","0.0-63.0-1.0","""event"",""trial"",""time""
""fullscreenenter"",""0"",""3707""
","
","
","""event"",""trial"",""time""
""fullscreenenter"",""0"",""3707""
","
","null","<p></p>","null","","","","","","","","","","","","","","","","","","","","","","","",""
"","do_recog","110","359586","0.0-64.0-0.0","""event"",""trial"",""time""
""fullscreenenter"",""0"",""3707""
","
","
","""event"",""trial"",""time""
""fullscreenenter"",""0"",""3707""
","
","2202.300000000745","","","","","","","","55","","","","275","probe-54","","","","","1","[object Object]","36","0","0","","","",""
"","html-keyboard-response","111","360592","0.0-64.0-1.0","""event"",""trial"",""time""
""fullscreenenter"",""0"",""3707""
","
","
","""event"",""trial"",""time""
""fullscreenenter"",""0"",""3707""
","
","null","<p></p>","null","","","","","","","","","","","","","","","","","","","","","","","",""
"","do_trial","112","364016","0.0-65.0-0.0","""event"",""trial"",""time""
""fullscreenenter"",""0"",""3707""
","
","
","""event"",""trial"",""time""
""fullscreenenter"",""0"",""3707""
","
","886.1999999992549","","","","","","","","49","1,0,1","6","blank","276","null","0.4986910968535448","0.28490305541758537","0.30492786347997064","1","","","","","","","","",""
"","html-keyboard-response","113","365021","0.0-65.0-1.0","""event"",""trial"",""time""
""fullscreenenter"",""0"",""3707""
","
","
","""event"",""trial"",""time""
""fullscreenenter"",""0"",""3707""
","
","null","<p></p>","null","","","","","","","","","","","","","","","","","","","","","","","",""
"","do_trial","114","368015","0.0-66.0-0.0","""event"",""trial"",""time""
""fullscreenenter"",""0"",""3707""
","
","
","""event"",""trial"",""time""
""fullscreenenter"",""0"",""3707""
","
","452.4000000022352","","","","","","","","49","0,0,0","6","blank","277","null","0.44994652348408326","0.23835643190125141","0.21643731588496998","0","","","","","","","","",""
"","html-keyboard-response","115","369020","0.0-66.0-1.0","""event"",""trial"",""time""
""fullscreenenter"",""0"",""3707""
","
","
","""event"",""trial"",""time""
""fullscreenenter"",""0"",""3707""
","
","null","<p></p>","null","","","","","","","","","","","","","","","","","","","","","","","",""
"","do_recog","116","372541","0.0-67.0-0.0","""event"",""trial"",""time""
""fullscreenenter"",""0"",""3707""
","
","
","""event"",""trial"",""time""
""fullscreenenter"",""0"",""3707""
","
","2011","","","","","","","","56","","","","278","probe-77","","","","","1","[object Object]","198","4","0","","","",""
"","html-keyboard-response","117","373545","0.0-67.0-1.0","""event"",""trial"",""time""
""fullscreenenter"",""0"",""3707""
","
","
","""event"",""trial"",""time""
""fullscreenenter"",""0"",""3707""
","
","null","<p></p>","null","","","","","","","","","","","","","","","","","","","","","","","",""
"","do_trial","118","376787","0.0-68.0-0.0","""event"",""trial"",""time""
""fullscreenenter"",""0"",""3707""
","
","
","""event"",""trial"",""time""
""fullscreenenter"",""0"",""3707""
","
","700.3999999985099","","","","","","","","49","1,1,0","6","blank","279","null","0.5297639377161658","0.19139003759787837","0.2320358191525693","1","","","","","","","","",""
"","html-keyboard-response","119","377791","0.0-68.0-1.0","""event"",""trial"",""time""
""fullscreenenter"",""0"",""3707""
","
","
","""event"",""trial"",""time""
""fullscreenenter"",""0"",""3707""
","
","null","<p></p>","null","","","","","","","","","","","","","","","","","","","","","","","",""
"","do_trial","120","380704","0.0-69.0-0.0","""event"",""trial"",""time""
""fullscreenenter"",""0"",""3707""
","
","
","""event"",""trial"",""time""
""fullscreenenter"",""0"",""3707""
","
","371","","","","","","","","49","0,0,0","6","blank","280","null","0.3835881045787935","0.13272122336883613","0.2485792643022472","0","","","","","","","","",""
"","html-keyboard-response","121","381708","0.0-69.0-1.0","""event"",""trial"",""time""
""fullscreenenter"",""0"",""3707""
","
","
","""event"",""trial"",""time""
""fullscreenenter"",""0"",""3707""
","
","null","<p></p>","null","","","","","","","","","","","","","","","","","","","","","","","",""
"","do_trial","122","384661","0.0-70.0-0.0","""event"",""trial"",""time""
""fullscreenenter"",""0"",""3707""
","
","
","""event"",""trial"",""time""
""fullscreenenter"",""0"",""3707""
","
","412.69999999925494","","","","","","","","49","0,1,0","6","blank","281","null","0.38978661637839135","0.11801524954476962","0.20467354114756767","0","","","","","","","","",""
"","html-keyboard-response","123","385665","0.0-70.0-1.0","""event"",""trial"",""time""
""fullscreenenter"",""0"",""3707""
","
","
","""event"",""trial"",""time""
""fullscreenenter"",""0"",""3707""
","
","null","<p></p>","null","","","","","","","","","","","","","","","","","","","","","","","",""
"","do_trial","124","388584","0.0-71.0-0.0","""event"",""trial"",""time""
""fullscreenenter"",""0"",""3707""
","
","
","""event"",""trial"",""time""
""fullscreenenter"",""0"",""3707""
","
","376.0999999977648","","","","","","","","49","1,0,0","6","blank","282","null","0.5422228344848294","0.18855257618342125","0.20241180579532583","1","","","","","","","","",""
"","html-keyboard-response","125","389588","0.0-71.0-1.0","""event"",""trial"",""time""
""fullscreenenter"",""0"",""3707""
","
","
","""event"",""trial"",""time""
""fullscreenenter"",""0"",""3707""
","
","null","<p></p>","null","","","","","","","","","","","","","","","","","","","","","","","",""
"","do_trial","126","392540","0.0-72.0-0.0","""event"",""trial"",""time""
""fullscreenenter"",""0"",""3707""
","
","
","""event"",""trial"",""time""
""fullscreenenter"",""0"",""3707""
","
","410.5","","","","","","","","49","0,0,1","6","blank","283","null","0.7180854270196321","0.09672817355945537","0.2574020557135608","0","","","","","","","","",""
"","html-keyboard-response","127","393543","0.0-72.0-1.0","""event"",""trial"",""time""
""fullscreenenter"",""0"",""3707""
","
","
","""event"",""trial"",""time""
""fullscreenenter"",""0"",""3707""
","
","null","<p></p>","null","","","","","","","","","","","","","","","","","","","","","","","",""
"","do_recog","128","397029","0.0-73.0-0.0","""event"",""trial"",""time""
""fullscreenenter"",""0"",""3707""
","
","
","""event"",""trial"",""time""
""fullscreenenter"",""0"",""3707""
","
","1975.800000000745","","","","","","","","53","","","","284","probe-57","","","","","1","[object Object]","70","1","1","","","",""
"","html-keyboard-response","129","398033","0.0-73.0-1.0","""event"",""trial"",""time""
""fullscreenenter"",""0"",""3707""
","
","
","""event"",""trial"",""time""
""fullscreenenter"",""0"",""3707""
","
","null","<p></p>","null","","","","","","","","","","","","","","","","","","","","","","","",""
"","do_trial","130","401300","0.0-74.0-0.0","""event"",""trial"",""time""
""fullscreenenter"",""0"",""3707""
","
","
","""event"",""trial"",""time""
""fullscreenenter"",""0"",""3707""
","
","724.5","","","","","","","","49","0,0,1","6","blank","285","null","0.6615985150291105","0.1078673624216303","0.3044714093605834","0","","","","","","","","",""
"","html-keyboard-response","131","402304","0.0-74.0-1.0","""event"",""trial"",""time""
""fullscreenenter"",""0"",""3707""
","
","
","""event"",""trial"",""time""
""fullscreenenter"",""0"",""3707""
","
","null","<p></p>","null","","","","","","","","","","","","","","","","","","","","","","","",""
"","do_trial","132","405345","0.0-75.0-0.0","""event"",""trial"",""time""
""fullscreenenter"",""0"",""3707""
","
","
","""event"",""trial"",""time""
""fullscreenenter"",""0"",""3707""
","
","504.8999999985099","","","","","","","","49","1,0,0","6","blank","286","null","0.5190303142968634","0.21437430174533276","0.25814016177651306","1","","","","","","","","",""
"","html-keyboard-response","133","406350","0.0-75.0-1.0","""event"",""trial"",""time""
""fullscreenenter"",""0"",""3707""
","
","
","""event"",""trial"",""time""
""fullscreenenter"",""0"",""3707""
","
","null","<p></p>","null","","","","","","","","","","","","","","","","","","","","","","","",""
"","do_trial","134","409301","0.0-76.0-0.0","""event"",""trial"",""time""
""fullscreenenter"",""0"",""3707""
","
","
","""event"",""trial"",""time""
""fullscreenenter"",""0"",""3707""
","
","409.5999999977648","","","","","","","","49","1,0,0","6","blank","287","null","0.6421582753418374","0.14508519373292023","0.16393011321605336","1","","","","","","","","",""
"","html-keyboard-response","135","410306","0.0-76.0-1.0","""event"",""trial"",""time""
""fullscreenenter"",""0"",""3707""
","
","
","""event"",""trial"",""time""
""fullscreenenter"",""0"",""3707""
","
","null","<p></p>","null","","","","","","","","","","","","","","","","","","","","","","","",""
"","do_trial","136","413312","0.0-77.0-0.0","""event"",""trial"",""time""
""fullscreenenter"",""0"",""3707""
","
","
","""event"",""trial"",""time""
""fullscreenenter"",""0"",""3707""
","
","464.30000000074506","","","","","","","","49","0,0,0","6","blank","288","null","0.5305088393661863","0.09903168332188031","0.3188290684126866","0","","","","","","","","",""
"","html-keyboard-response","137","414316","0.0-77.0-1.0","""event"",""trial"",""time""
""fullscreenenter"",""0"",""3707""
","
","
","""event"",""trial"",""time""
""fullscreenenter"",""0"",""3707""
","
","null","<p></p>","null","","","","","","","","","","","","","","","","","","","","","","","",""
"","do_trial","138","417196","0.0-78.0-0.0","""event"",""trial"",""time""
""fullscreenenter"",""0"",""3707""
","
","
","""event"",""trial"",""time""
""fullscreenenter"",""0"",""3707""
","
","339.6000000014901","","","","","","","","49","1,0,0","6","blank","289","null","0.5997403928766551","0.09469467829461405","0.2621641969474486","1","","","","","","","","",""
"","html-keyboard-response","139","418200","0.0-78.0-1.0","""event"",""trial"",""time""
""fullscreenenter"",""0"",""3707""
","
","
","""event"",""trial"",""time""
""fullscreenenter"",""0"",""3707""
","
","null","<p></p>","null","","","","","","","","","","","","","","","","","","","","","","","",""
"","do_trial","140","421113","0.0-79.0-0.0","""event"",""trial"",""time""
""fullscreenenter"",""0"",""3707""
","
","
","""event"",""trial"",""time""
""fullscreenenter"",""0"",""3707""
","
","370.8999999985099","","","","","","","","49","1,0,0","6","blank","290","null","0.6776640028637406","0.09845527366427062","0.30443888151192494","1","","","","","","","","",""
"","html-keyboard-response","141","422117","0.0-79.0-1.0","""event"",""trial"",""time""
""fullscreenenter"",""0"",""3707""
","
","
","""event"",""trial"",""time""
""fullscreenenter"",""0"",""3707""
","
","null","<p></p>","null","","","","","","","","","","","","","","","","","","","","","","","",""
"","do_recog","142","425487","0.0-80.0-0.0","""event"",""trial"",""time""
""fullscreenenter"",""0"",""3707""
","
","
","""event"",""trial"",""time""
""fullscreenenter"",""0"",""3707""
","
","1864.800000000745","","","","","","","","53","","","","291","probe-204","","","","","1","[object Object]","191","4","1","","","",""
"","html-keyboard-response","143","426489","0.0-80.0-1.0","""event"",""trial"",""time""
""fullscreenenter"",""0"",""3707""
","
","
","""event"",""trial"",""time""
""fullscreenenter"",""0"",""3707""
","
","null","<p></p>","null","","","","","","","","","","","","","","","","","","","","","","","",""
"","do_trial","144","429527","0.0-81.0-0.0","""event"",""trial"",""time""
""fullscreenenter"",""0"",""3707""
","
","
","""event"",""trial"",""time""
""fullscreenenter"",""0"",""3707""
","
","501.9000000022352","","","","","","","","49","1,0,0","6","blank","292","null","0.724689405713904","0.0795918638201958","0.3647807201275593","1","","","","","","","","",""
"","html-keyboard-response","145","430532","0.0-81.0-1.0","""event"",""trial"",""time""
""fullscreenenter"",""0"",""3707""
","
","
","""event"",""trial"",""time""
""fullscreenenter"",""0"",""3707""
","
","null","<p></p>","null","","","","","","","","","","","","","","","","","","","","","","","",""
"","do_trial","146","433461","0.0-82.0-0.0","""event"",""trial"",""time""
""fullscreenenter"",""0"",""3707""
","
","
","""event"",""trial"",""time""
""fullscreenenter"",""0"",""3707""
","
","391","","","","","","","","49","1,0,1","6","blank","293","null","0.6436998964779173","0.1590448521753669","0.3959488197743305","1","","","","","","","","",""
"","html-keyboard-response","147","434465","0.0-82.0-1.0","""event"",""trial"",""time""
""fullscreenenter"",""0"",""3707""
","
","
","""event"",""trial"",""time""
""fullscreenenter"",""0"",""3707""
","
","null","<p></p>","null","","","","","","","","","","","","","","","","","","","","","","","",""
"","do_trial","148","437356","0.0-83.0-0.0","""event"",""trial"",""time""
""fullscreenenter"",""0"",""3707""
","
","
","""event"",""trial"",""time""
""fullscreenenter"",""0"",""3707""
","
","349.19999999925494","","","","","","","","49","0,0,0","6","blank","294","null","0.5162806036019789","0.21454904459938495","0.4639154409029834","0","","","","","","","","",""
"","html-keyboard-response","149","438361","0.0-83.0-1.0","""event"",""trial"",""time""
""fullscreenenter"",""0"",""3707""
","
","
","""event"",""trial"",""time""
""fullscreenenter"",""0"",""3707""
","
","null","<p></p>","null","","","","","","","","","","","","","","","","","","","","","","","",""
"","do_trial","150","441440","0.0-84.0-0.0","""event"",""trial"",""time""
""fullscreenenter"",""0"",""3707""
","
","
","""event"",""trial"",""time""
""fullscreenenter"",""0"",""3707""
","
","537.2000000029802","","","","","","","","49","0,0,1","6","blank","295","null","0.3325207895709423","0.12431831423624318","0.5158443147557622","0","","","","","","","","",""
"","html-keyboard-response","151","442443","0.0-84.0-1.0","""event"",""trial"",""time""
""fullscreenenter"",""0"",""3707""
","
","
","""event"",""trial"",""time""
""fullscreenenter"",""0"",""3707""
","
","null","<p></p>","null","","","","","","","","","","","","","","","","","","","","","","","",""
"","do_trial","152","445461","0.0-85.0-0.0","""event"",""trial"",""time""
""fullscreenenter"",""0"",""3707""
","
","
","""event"",""trial"",""time""
""fullscreenenter"",""0"",""3707""
","
","475.9000000022352","","","","","","","","49","0,0,0","6","blank","296","null","0.3562778030230726","0.0883870251988439","0.48020376688555866","0","","","","","","","","",""
"","html-keyboard-response","153","446466","0.0-85.0-1.0","""event"",""trial"",""time""
""fullscreenenter"",""0"",""3707""
","
","
","""event"",""trial"",""time""
""fullscreenenter"",""0"",""3707""
","
","null","<p></p>","null","","","","","","","","","","","","","","","","","","","","","","","",""
"","do_trial","154","449440","0.0-86.0-0.0","""event"",""trial"",""time""
""fullscreenenter"",""0"",""3707""
","
","
","""event"",""trial"",""time""
""fullscreenenter"",""0"",""3707""
","
","432.1000000014901","","","","","","","","49","0,0,0","6","blank","297","null","0.2522132093196589","0.15982038806593882","0.48532259387503446","0","","","","","","","","",""
"","html-keyboard-response","155","450444","0.0-86.0-1.0","""event"",""trial"",""time""
""fullscreenenter"",""0"",""3707""
","
","
","""event"",""trial"",""time""
""fullscreenenter"",""0"",""3707""
","
","null","<p></p>","null","","","","","","","","","","","","","","","","","","","","","","","",""
"","do_trial","156","453317","0.0-87.0-0.0","""event"",""trial"",""time""
""fullscreenenter"",""0"",""3707""
","
","
","""event"",""trial"",""time""
""fullscreenenter"",""0"",""3707""
","
","330.30000000074506","","","","","","","","49","1,0,0","6","blank","298","null","0.3302565500156748","0.057761247207466324","0.4476219716085892","1","","","","","","","","",""
"","html-keyboard-response","157","454320","0.0-87.0-1.0","""event"",""trial"",""time""
""fullscreenenter"",""0"",""3707""
","
","
","""event"",""trial"",""time""
""fullscreenenter"",""0"",""3707""
","
","null","<p></p>","null","","","","","","","","","","","","","","","","","","","","","","","",""
"","do_recog","158","457297","0.0-88.0-0.0","""event"",""trial"",""time""
""fullscreenenter"",""0"",""3707""
","
","
","""event"",""trial"",""time""
""fullscreenenter"",""0"",""3707""
","
","1470.6000000014901","","","","","","","","53","","","","299","probe-147","","","","","1","[object Object]","79","1","1","","","",""
"","html-keyboard-response","159","458301","0.0-88.0-1.0","""event"",""trial"",""time""
""fullscreenenter"",""0"",""3707""
","
","
","""event"",""trial"",""time""
""fullscreenenter"",""0"",""3707""
","
","null","<p></p>","null","","","","","","","","","","","","","","","","","","","","","","","",""
"","do_trial","160","461989","0.0-89.0-0.0","""event"",""trial"",""time""
""fullscreenenter"",""0"",""3707""
","
","
","""event"",""trial"",""time""
""fullscreenenter"",""0"",""3707""
","
","1145.5","","","","","","","","49","0,0,1","6","blank","300","null","0.3205646391682864","0.08381670017522508","0.4808678069678563","0","","","","","","","","",""
"","html-keyboard-response","161","462993","0.0-89.0-1.0","""event"",""trial"",""time""
""fullscreenenter"",""0"",""3707""
","
","
","""event"",""trial"",""time""
""fullscreenenter"",""0"",""3707""
","
","null","<p></p>","null","","","","","","","","","","","","","","","","","","","","","","","",""
"","do_recog","162","466324","0.0-90.0-0.0","""event"",""trial"",""time""
""fullscreenenter"",""0"",""3707""
","
","
","""event"",""trial"",""time""
""fullscreenenter"",""0"",""3707""
","
","1820.4000000022352","","","","","","","","55","","","","301","probe-118","","","","","1","[object Object]","196","4","0","","","",""
"","html-keyboard-response","163","467328","0.0-90.0-1.0","""event"",""trial"",""time""
""fullscreenenter"",""0"",""3707""
","
","
","""event"",""trial"",""time""
""fullscreenenter"",""0"",""3707""
","
","null","<p></p>","null","","","","","","","","","","","","","","","","","","","","","","","",""
"","do_trial","164","470438","0.0-91.0-0.0","""event"",""trial"",""time""
""fullscreenenter"",""0"",""3707""
","
","
","""event"",""trial"",""time""
""fullscreenenter"",""0"",""3707""
","
","567.7999999970198","","","","","","","","49","0,0,1","6","blank","302","null","0.2947113528388511","0.17790268653121907","0.5989682502934207","0","","","","","","","","",""
"","html-keyboard-response","165","471441","0.0-91.0-1.0","""event"",""trial"",""time""
""fullscreenenter"",""0"",""3707""
","
","
","""event"",""trial"",""time""
""fullscreenenter"",""0"",""3707""
","
","null","<p></p>","null","","","","","","","","","","","","","","","","","","","","","","","",""
"","do_recog","166","474298","0.0-92.0-0.0","""event"",""trial"",""time""
""fullscreenenter"",""0"",""3707""
","
","
","""event"",""trial"",""time""
""fullscreenenter"",""0"",""3707""
","
","1350.0999999977648","","","","","","","","53","","","","303","probe-248","","","","","0","[object Object]","null","null","0","","","",""
"","html-keyboard-response","167","475302","0.0-92.0-1.0","""event"",""trial"",""time""
""fullscreenenter"",""0"",""3707""
","
","
","""event"",""trial"",""time""
""fullscreenenter"",""0"",""3707""
","
","null","<p></p>","null","","","","","","","","","","","","","","","","","","","","","","","",""
"","do_trial","168","478385","0.0-93.0-0.0","""event"",""trial"",""time""
""fullscreenenter"",""0"",""3707""
","
","
","""event"",""trial"",""time""
""fullscreenenter"",""0"",""3707""
","
","545","","","","","","","","49","0,0,0","6","blank","304","null","0.23478970411661806","0.14287250071949506","0.7122183536233415","0","","","","","","","","",""
"","html-keyboard-response","169","479391","0.0-93.0-1.0","""event"",""trial"",""time""
""fullscreenenter"",""0"",""3707""
","
","
","""event"",""trial"",""time""
""fullscreenenter"",""0"",""3707""
","
","null","<p></p>","null","","","","","","","","","","","","","","","","","","","","","","","",""
"","do_trial","170","482369","0.0-94.0-0.0","""event"",""trial"",""time""
""fullscreenenter"",""0"",""3707""
","
","
","""event"",""trial"",""time""
""fullscreenenter"",""0"",""3707""
","
","436","","","","","","","","49","0,0,1","6","blank","305","null","0.09544646270771132","0.2884552673543725","0.6369980742411984","0","","","","","","","","",""
"","html-keyboard-response","171","483374","0.0-94.0-1.0","""event"",""trial"",""time""
""fullscreenenter"",""0"",""3707""
","
","
","""event"",""trial"",""time""
""fullscreenenter"",""0"",""3707""
","
","null","<p></p>","null","","","","","","","","","","","","","","","","","","","","","","","",""
"","do_trial","172","486245","0.0-95.0-0.0","""event"",""trial"",""time""
""fullscreenenter"",""0"",""3707""
","
","
","""event"",""trial"",""time""
""fullscreenenter"",""0"",""3707""
","
","328.30000000074506","","","","","","","","49","0,0,0","6","blank","306","null","0.23004866154860246","0.1401429909885499","0.6131922388787555","0","","","","","","","","",""
"","html-keyboard-response","173","487249","0.0-95.0-1.0","""event"",""trial"",""time""
""fullscreenenter"",""0"",""3707""
","
","
","""event"",""trial"",""time""
""fullscreenenter"",""0"",""3707""
","
","null","<p></p>","null","","","","","","","","","","","","","","","","","","","","","","","",""
"","do_trial","174","490131","0.0-96.0-0.0","""event"",""trial"",""time""
""fullscreenenter"",""0"",""3707""
","
","
","""event"",""trial"",""time""
""fullscreenenter"",""0"",""3707""
","
","345.0999999977648","","","","","","","","49","0,0,1","6","blank","307","null","0.22086765802808636","0.24975109680805077","0.6946452340523314","0","","","","","","","","",""
"","html-keyboard-response","175","491136","0.0-96.0-1.0","""event"",""trial"",""time""
""fullscreenenter"",""0"",""3707""
","
","
","""event"",""trial"",""time""
""fullscreenenter"",""0"",""3707""
","
","null","<p></p>","null","","","","","","","","","","","","","","","","","","","","","","","",""
"","do_recog","176","494358","0.0-97.0-0.0","""event"",""trial"",""time""
""fullscreenenter"",""0"",""3707""
","
","
","""event"",""trial"",""time""
""fullscreenenter"",""0"",""3707""
","
","1712","","","","","","","","53","","","","308","probe-250","","","","","0","[object Object]","null","null","0","","","",""
"","html-keyboard-response","177","495362","0.0-97.0-1.0","""event"",""trial"",""time""
""fullscreenenter"",""0"",""3707""
","
","
","""event"",""trial"",""time""
""fullscreenenter"",""0"",""3707""
","
","null","<p></p>","null","","","","","","","","","","","","","","","","","","","","","","","",""
"","break","178","496747","0.0-98.0-0.0","""event"",""trial"",""time""
""fullscreenenter"",""0"",""3707""
","
","
","""event"",""trial"",""time""
""fullscreenenter"",""0"",""3707""
","
","1384.1000000014901","<div class='center'><p>Time to take a quick break! You have 2 minutes to rest, but you can move on sooner if you'd like.</p><p> Press the <b>space bar</b> to continue.</p></div>","32","","","","","","","","","","","","","","","","","","","","","","","",""
"","do_trial","179","500477","0.0-98.0-1.0","""event"",""trial"",""time""
""fullscreenenter"",""0"",""3707""
","
","
","""event"",""trial"",""time""
""fullscreenenter"",""0"",""3707""
","
","1190.199999999255","","","","","","","","49","1,0,1","6","blank","309","null","0.2704569203881579","0.16687914377439064","0.7046588780841185","1","","","","","","","","",""
"","html-keyboard-response","180","501481","0.0-98.0-2.0","""event"",""trial"",""time""
""fullscreenenter"",""0"",""3707""
","
","
","""event"",""trial"",""time""
""fullscreenenter"",""0"",""3707""
","
","null","<p></p>","null","","","","","","","","","","","","","","","","","","","","","","","",""
"","do_trial","181","504333","0.0-99.0-0.0","""event"",""trial"",""time""
""fullscreenenter"",""0"",""3707""
","
","
","""event"",""trial"",""time""
""fullscreenenter"",""0"",""3707""
","
","312.69999999925494","","","","","","","","49","0,0,1","6","blank","310","null","0.16745716230178062","0.057303454304171046","0.7169787146104271","0","","","","","","","","",""
"","html-keyboard-response","182","505334","0.0-99.0-1.0","""event"",""trial"",""time""
""fullscreenenter"",""0"",""3707""
","
","
","""event"",""trial"",""time""
""fullscreenenter"",""0"",""3707""
","
","null","<p></p>","null","","","","","","","","","","","","","","","","","","","","","","","",""
"","do_trial","183","508249","0.0-100.0-0.0","""event"",""trial"",""time""
""fullscreenenter"",""0"",""3707""
","
","
","""event"",""trial"",""time""
""fullscreenenter"",""0"",""3707""
","
","372.80000000074506","","","","","","","","50","0,0,1","6","blank","311","null","0.1300467537941133","0.11835393170271076","0.757963874838664","0","","","","","","","","",""
"","html-keyboard-response","184","509253","0.0-100.0-1.0","""event"",""trial"",""time""
""fullscreenenter"",""0"",""3707""
","
","
","""event"",""trial"",""time""
""fullscreenenter"",""0"",""3707""
","
","null","<p></p>","null","","","","","","","","","","","","","","","","","","","","","","","",""
"","do_recog","185","512320","0.0-101.0-0.0","""event"",""trial"",""time""
""fullscreenenter"",""0"",""3707""
","
","
","""event"",""trial"",""time""
""fullscreenenter"",""0"",""3707""
","
","1562.199999999255","","","","","","","","53","","","","312","probe-98","","","","","1","[object Object]","37","0","1","","","",""
"","html-keyboard-response","186","513324","0.0-101.0-1.0","""event"",""trial"",""time""
""fullscreenenter"",""0"",""3707""
","
","
","""event"",""trial"",""time""
""fullscreenenter"",""0"",""3707""
","
","null","<p></p>","null","","","","","","","","","","","","","","","","","","","","","","","",""
"","do_trial","187","516933","0.0-102.0-0.0","""event"",""trial"",""time""
""fullscreenenter"",""0"",""3707""
","
","
","""event"",""trial"",""time""
""fullscreenenter"",""0"",""3707""
","
","1067.1000000014901","","","","","","","","49","0,0,1","6","blank","313","null","0.09737331215134798","0.12212801747446694","0.6116757512910038","0","","","","","","","","",""
"","html-keyboard-response","188","517937","0.0-102.0-1.0","""event"",""trial"",""time""
""fullscreenenter"",""0"",""3707""
","
","
","""event"",""trial"",""time""
""fullscreenenter"",""0"",""3707""
","
","null","<p></p>","null","","","","","","","","","","","","","","","","","","","","","","","",""
"","do_recog","189","520820","0.0-103.0-0.0","""event"",""trial"",""time""
""fullscreenenter"",""0"",""3707""
","
","
","""event"",""trial"",""time""
""fullscreenenter"",""0"",""3707""
","
","1374.1000000014901","","","","","","","","53","","","","314","probe-133","","","","","1","[object Object]","190","4","1","","","",""
"","html-keyboard-response","190","521824","0.0-103.0-1.0","""event"",""trial"",""time""
""fullscreenenter"",""0"",""3707""
","
","
","""event"",""trial"",""time""
""fullscreenenter"",""0"",""3707""
","
","null","<p></p>","null","","","","","","","","","","","","","","","","","","","","","","","",""
"","do_trial","191","525125","0.0-104.0-0.0","""event"",""trial"",""time""
""fullscreenenter"",""0"",""3707""
","
","
","""event"",""trial"",""time""
""fullscreenenter"",""0"",""3707""
","
","759.0999999977648","","","","","","","","51","0,0,1","6","blank","315","null","0.20051251017229743","0.16351511980481612","0.4640042616945021","1","","","","","","","","",""
"","html-keyboard-response","192","526130","0.0-104.0-1.0","""event"",""trial"",""time""
""fullscreenenter"",""0"",""3707""
","
","
","""event"",""trial"",""time""
""fullscreenenter"",""0"",""3707""
","
","null","<p></p>","null","","","","","","","","","","","","","","","","","","","","","","","",""
"","do_trial","193","529023","0.0-105.0-0.0","""event"",""trial"",""time""
""fullscreenenter"",""0"",""3707""
","
","
","""event"",""trial"",""time""
""fullscreenenter"",""0"",""3707""
","
","351.6000000014901","","","","","","","","51","0,0,1","6","blank","316","null","0.26312173111307496","0.15439146420302544","0.5699208449016205","1","","","","","","","","",""
"","html-keyboard-response","194","530027","0.0-105.0-1.0","""event"",""trial"",""time""
""fullscreenenter"",""0"",""3707""
","
","
","""event"",""trial"",""time""
""fullscreenenter"",""0"",""3707""
","
","null","<p></p>","null","","","","","","","","","","","","","","","","","","","","","","","",""
"","do_trial","195","533094","0.0-106.0-0.0","""event"",""trial"",""time""
""fullscreenenter"",""0"",""3707""
","
","
","""event"",""trial"",""time""
""fullscreenenter"",""0"",""3707""
","
","522.5","","","","","","","","51","0,0,1","6","blank","317","null","0.29667016532355406","0.09821163328932003","0.5978940952058741","1","","","","","","","","",""
"","html-keyboard-response","196","534098","0.0-106.0-1.0","""event"",""trial"",""time""
""fullscreenenter"",""0"",""3707""
","
","
","""event"",""trial"",""time""
""fullscreenenter"",""0"",""3707""
","
","null","<p></p>","null","","","","","","","","","","","","","","","","","","","","","","","",""
"","do_trial","197","536966","0.0-107.0-0.0","""event"",""trial"",""time""
""fullscreenenter"",""0"",""3707""
","
","
","""event"",""trial"",""time""
""fullscreenenter"",""0"",""3707""
","
","328.5","","","","","","","","51","0,0,0","6","blank","318","null","0.4333138073794812","0.28343142077286104","0.710888952542484","0","","","","","","","","",""
"","html-keyboard-response","198","537970","0.0-107.0-1.0","""event"",""trial"",""time""
""fullscreenenter"",""0"",""3707""
","
","
","""event"",""trial"",""time""
""fullscreenenter"",""0"",""3707""
","
","null","<p></p>","null","","","","","","","","","","","","","","","","","","","","","","","",""
"","do_trial","199","540781","0.0-108.0-0.0","""event"",""trial"",""time""
""fullscreenenter"",""0"",""3707""
","
","
","""event"",""trial"",""time""
""fullscreenenter"",""0"",""3707""
","
","270.19999999925494","","","","","","","","51","0,1,1","6","blank","319","null","0.4550348783612592","0.236917437042553","0.743094696332379","1","","","","","","","","",""
"","html-keyboard-response","200","541785","0.0-108.0-1.0","""event"",""trial"",""time""
""fullscreenenter"",""0"",""3707""
","
","
","""event"",""trial"",""time""
""fullscreenenter"",""0"",""3707""
","
","null","<p></p>","null","","","","","","","","","","","","","","","","","","","","","","","",""
"","do_trial","201","544640","0.0-109.0-0.0","""event"",""trial"",""time""
""fullscreenenter"",""0"",""3707""
","
","
","""event"",""trial"",""time""
""fullscreenenter"",""0"",""3707""
","
","314.5","","","","","","","","51","0,0,1","6","blank","320","null","0.4887064404538451","0.06651347562238985","0.7499953567422155","1","","","","","","","","",""
"","html-keyboard-response","202","545642","0.0-109.0-1.0","""event"",""trial"",""time""
""fullscreenenter"",""0"",""3707""
","
","
","""event"",""trial"",""time""
""fullscreenenter"",""0"",""3707""
","
","null","<p></p>","null","","","","","","","","","","","","","","","","","","","","","","","",""
"","do_recog","203","548366","0.0-110.0-0.0","""event"",""trial"",""time""
""fullscreenenter"",""0"",""3707""
","
","
","""event"",""trial"",""time""
""fullscreenenter"",""0"",""3707""
","
","1212.800000000745","","","","","","","","53","","","","321","probe-81","","","","","1","[object Object]","157","3","1","","","",""
"","html-keyboard-response","204","549370","0.0-110.0-1.0","""event"",""trial"",""time""
""fullscreenenter"",""0"",""3707""
","
","
","""event"",""trial"",""time""
""fullscreenenter"",""0"",""3707""
","
","null","<p></p>","null","","","","","","","","","","","","","","","","","","","","","","","",""
"","do_trial","205","552521","0.0-111.0-0.0","""event"",""trial"",""time""
""fullscreenenter"",""0"",""3707""
","
","
","""event"",""trial"",""time""
""fullscreenenter"",""0"",""3707""
","
","613.8000000007451","","","","","","","","51","0,0,1","6","blank","322","null","0.5565960080613208","0.12198358942659183","0.658378895839571","1","","","","","","","","",""
"","html-keyboard-response","206","553525","0.0-111.0-1.0","""event"",""trial"",""time""
""fullscreenenter"",""0"",""3707""
","
","
","""event"",""trial"",""time""
""fullscreenenter"",""0"",""3707""
","
","null","<p></p>","null","","","","","","","","","","","","","","","","","","","","","","","",""
"","do_recog","207","556172","0.0-112.0-0.0","""event"",""trial"",""time""
""fullscreenenter"",""0"",""3707""
","
","
","""event"",""trial"",""time""
""fullscreenenter"",""0"",""3707""
","
","1138","","","","","","","","53","","","","323","probe-79","","","","","1","[object Object]","33","0","1","","","",""
"","html-keyboard-response","208","557178","0.0-112.0-1.0","""event"",""trial"",""time""
""fullscreenenter"",""0"",""3707""
","
","
","""event"",""trial"",""time""
""fullscreenenter"",""0"",""3707""
","
","null","<p></p>","null","","","","","","","","","","","","","","","","","","","","","","","",""
"","do_trial","209","560221","0.0-113.0-0.0","""event"",""trial"",""time""
""fullscreenenter"",""0"",""3707""
","
","
","""event"",""trial"",""time""
""fullscreenenter"",""0"",""3707""
","
","499.80000000074506","","","","","","","","51","0,0,0","6","blank","324","null","0.3949384291500592","0.22109750802645206","0.635547425433787","0","","","","","","","","",""
"","html-keyboard-response","210","561225","0.0-113.0-1.0","""event"",""trial"",""time""
""fullscreenenter"",""0"",""3707""
","
","
","""event"",""trial"",""time""
""fullscreenenter"",""0"",""3707""
","
","null","<p></p>","null","","","","","","","","","","","","","","","","","","","","","","","",""
"","do_recog","211","563676","0.0-114.0-0.0","""event"",""trial"",""time""
""fullscreenenter"",""0"",""3707""
","
","
","""event"",""trial"",""time""
""fullscreenenter"",""0"",""3707""
","
","942","","","","","","","","53","","","","325","probe-100","","","","","1","[object Object]","199","4","1","","","",""
"","html-keyboard-response","212","564680","0.0-114.0-1.0","""event"",""trial"",""time""
""fullscreenenter"",""0"",""3707""
","
","
","""event"",""trial"",""time""
""fullscreenenter"",""0"",""3707""
","
","null","<p></p>","null","","","","","","","","","","","","","","","","","","","","","","","",""
"","do_trial","213","567790","0.0-115.0-0.0","""event"",""trial"",""time""
""fullscreenenter"",""0"",""3707""
","
","
","""event"",""trial"",""time""
""fullscreenenter"",""0"",""3707""
","
","568.0999999977648","","","","","","","","51","0,0,1","6","blank","326","null","0.34246911909655764","0.19391730746864536","0.6969140460276014","1","","","","","","","","",""
"","html-keyboard-response","214","568795","0.0-115.0-1.0","""event"",""trial"",""time""
""fullscreenenter"",""0"",""3707""
","
","
","""event"",""trial"",""time""
""fullscreenenter"",""0"",""3707""
","
","null","<p></p>","null","","","","","","","","","","","","","","","","","","","","","","","",""
"","do_recog","215","572158","0.0-116.0-0.0","""event"",""trial"",""time""
""fullscreenenter"",""0"",""3707""
","
","
","""event"",""trial"",""time""
""fullscreenenter"",""0"",""3707""
","
","1852.699999999255","","","","","","","","54","","","","327","probe-125","","","","","1","[object Object]","112","2","1","","","",""
"","html-keyboard-response","216","573162","0.0-116.0-1.0","""event"",""trial"",""time""
""fullscreenenter"",""0"",""3707""
","
","
","""event"",""trial"",""time""
""fullscreenenter"",""0"",""3707""
","
","null","<p></p>","null","","","","","","","","","","","","","","","","","","","","","","","",""
"","do_trial","217","576293","0.0-117.0-0.0","""event"",""trial"",""time""
""fullscreenenter"",""0"",""3707""
","
","
","""event"",""trial"",""time""
""fullscreenenter"",""0"",""3707""
","
","589.1000000014901","","","","","","","","51","1,0,1","6","blank","328","null","0.4550850172869956","0.0851836066645111","0.7072093579167706","1","","","","","","","","",""
"","html-keyboard-response","218","577296","0.0-117.0-1.0","""event"",""trial"",""time""
""fullscreenenter"",""0"",""3707""
","
","
","""event"",""trial"",""time""
""fullscreenenter"",""0"",""3707""
","
","null","<p></p>","null","","","","","","","","","","","","","","","","","","","","","","","",""
"","do_trial","219","580234","0.0-118.0-0.0","""event"",""trial"",""time""
""fullscreenenter"",""0"",""3707""
","
","
","""event"",""trial"",""time""
""fullscreenenter"",""0"",""3707""
","
","395.70000000298023","","","","","","","","51","1,0,0","6","blank","329","null","0.37170577216908507","0.16369204889528316","0.7438698110284858","0","","","","","","","","",""
"","html-keyboard-response","220","581241","0.0-118.0-1.0","""event"",""trial"",""time""
""fullscreenenter"",""0"",""3707""
","
","
","""event"",""trial"",""time""
""fullscreenenter"",""0"",""3707""
","
","null","<p></p>","null","","","","","","","","","","","","","","","","","","","","","","","",""
"","do_trial","221","584158","0.0-119.0-0.0","""event"",""trial"",""time""
""fullscreenenter"",""0"",""3707""
","
","
","""event"",""trial"",""time""
""fullscreenenter"",""0"",""3707""
","
","374.19999999925494","","","","","","","","51","1,0,1","6","blank","330","null","0.3773686461999653","0.054004837748941235","0.8286709402487054","1","","","","","","","","",""
"","html-keyboard-response","222","585162","0.0-119.0-1.0","""event"",""trial"",""time""
""fullscreenenter"",""0"",""3707""
","
","
","""event"",""trial"",""time""
""fullscreenenter"",""0"",""3707""
","
","null","<p></p>","null","","","","","","","","","","","","","","","","","","","","","","","",""
"","do_recog","223","588094","0.0-120.0-0.0","""event"",""trial"",""time""
""fullscreenenter"",""0"",""3707""
","
","
","""event"",""trial"",""time""
""fullscreenenter"",""0"",""3707""
","
","1421.300000000745","","","","","","","","53","","","","331","probe-165","","","","","1","[object Object]","151","3","1","","","",""
"","html-keyboard-response","224","589098","0.0-120.0-1.0","""event"",""trial"",""time""
""fullscreenenter"",""0"",""3707""
","
","
","""event"",""trial"",""time""
""fullscreenenter"",""0"",""3707""
","
","null","<p></p>","null","","","","","","","","","","","","","","","","","","","","","","","",""
"","do_trial","225","592116","0.0-121.0-0.0","""event"",""trial"",""time""
""fullscreenenter"",""0"",""3707""
","
","
","""event"",""trial"",""time""
""fullscreenenter"",""0"",""3707""
","
","479.5","","","","","","","","51","0,0,1","6","blank","332","null","0.38039484155987296","0.1258878554629293","0.6883116028680607","1","","","","","","","","",""
"","html-keyboard-response","226","593118","0.0-121.0-1.0","""event"",""trial"",""time""
""fullscreenenter"",""0"",""3707""
","
","
","""event"",""trial"",""time""
""fullscreenenter"",""0"",""3707""
","
","null","<p></p>","null","","","","","","","","","","","","","","","","","","","","","","","",""
"","do_recog","227","596409","0.0-122.0-0.0","""event"",""trial"",""time""
""fullscreenenter"",""0"",""3707""
","
","
","""event"",""trial"",""time""
""fullscreenenter"",""0"",""3707""
","
","1784.800000000745","","","","","","","","54","","","","333","probe-173","","","","","1","[object Object]","194","4","1","","","",""
"","html-keyboard-response","228","597412","0.0-122.0-1.0","""event"",""trial"",""time""
""fullscreenenter"",""0"",""3707""
","
","
","""event"",""trial"",""time""
""fullscreenenter"",""0"",""3707""
","
","null","<p></p>","null","","","","","","","","","","","","","","","","","","","","","","","",""
"","do_trial","229","600934","0.0-123.0-0.0","""event"",""trial"",""time""
""fullscreenenter"",""0"",""3707""
","
","
","""event"",""trial"",""time""
""fullscreenenter"",""0"",""3707""
","
","980.3000000007451","","","","","","","","51","0,0,1","6","blank","334","null","0.30821142540676455","0.07964027901416784","0.7206220701971973","1","","","","","","","","",""
"","html-keyboard-response","230","601938","0.0-123.0-1.0","""event"",""trial"",""time""
""fullscreenenter"",""0"",""3707""
","
","
","""event"",""trial"",""time""
""fullscreenenter"",""0"",""3707""
","
","null","<p></p>","null","","","","","","","","","","","","","","","","","","","","","","","",""
"","do_trial","231","605266","0.0-124.0-0.0","""event"",""trial"",""time""
""fullscreenenter"",""0"",""3707""
","
","
","""event"",""trial"",""time""
""fullscreenenter"",""0"",""3707""
","
","786.5","","","","","","","","51","0,0,1","6","blank","335","null","0.3792164014131204","0.15870064808250267","0.608919853054055","1","","","","","","","","",""
"","html-keyboard-response","232","606268","0.0-124.0-1.0","""event"",""trial"",""time""
""fullscreenenter"",""0"",""3707""
","
","
","""event"",""trial"",""time""
""fullscreenenter"",""0"",""3707""
","
","null","<p></p>","null","","","","","","","","","","","","","","","","","","","","","","","",""
"","do_trial","233","609374","0.0-125.0-0.0","""event"",""trial"",""time""
""fullscreenenter"",""0"",""3707""
","
","
","""event"",""trial"",""time""
""fullscreenenter"",""0"",""3707""
","
","563.4000000022352","","","","","","","","51","0,1,1","6","blank","336","null","0.34910234346435937","0.19633744349339194","0.675851337745003","1","","","","","","","","",""
"","html-keyboard-response","234","610377","0.0-125.0-1.0","""event"",""trial"",""time""
""fullscreenenter"",""0"",""3707""
","
","
","""event"",""trial"",""time""
""fullscreenenter"",""0"",""3707""
","
","null","<p></p>","null","","","","","","","","","","","","","","","","","","","","","","","",""
"","do_trial","235","613473","0.0-126.0-0.0","""event"",""trial"",""time""
""fullscreenenter"",""0"",""3707""
","
","
","""event"",""trial"",""time""
""fullscreenenter"",""0"",""3707""
","
","553.3999999985099","","","","","","","","51","0,1,0","6","blank","337","null","0.3248643671866835","0.09935571472524309","0.7559946607058816","0","","","","","","","","",""
"","html-keyboard-response","236","614476","0.0-126.0-1.0","""event"",""trial"",""time""
""fullscreenenter"",""0"",""3707""
","
","
","""event"",""trial"",""time""
""fullscreenenter"",""0"",""3707""
","
","null","<p></p>","null","","","","","","","","","","","","","","","","","","","","","","","",""
"","do_trial","237","617359","0.0-127.0-0.0","""event"",""trial"",""time""
""fullscreenenter"",""0"",""3707""
","
","
","""event"",""trial"",""time""
""fullscreenenter"",""0"",""3707""
","
","340.70000000298023","","","","","","","","51","0,1,1","6","blank","338","null","0.26289085027517733","0.15326654056013733","0.7914558424900099","1","","","","","","","","",""
"","html-keyboard-response","238","618363","0.0-127.0-1.0","""event"",""trial"",""time""
""fullscreenenter"",""0"",""3707""
","
","
","""event"",""trial"",""time""
""fullscreenenter"",""0"",""3707""
","
","null","<p></p>","null","","","","","","","","","","","","","","","","","","","","","","","",""
"","do_trial","239","621393","0.0-128.0-0.0","""event"",""trial"",""time""
""fullscreenenter"",""0"",""3707""
","
","
","""event"",""trial"",""time""
""fullscreenenter"",""0"",""3707""
","
","488.30000000074506","","","","","","","","51","0,0,0","6","blank","339","null","0.2741852626778019","0.2424951254497323","0.7255045335448811","0","","","","","","","","",""
"","html-keyboard-response","240","622398","0.0-128.0-1.0","""event"",""trial"",""time""
""fullscreenenter"",""0"",""3707""
","
","
","""event"",""trial"",""time""
""fullscreenenter"",""0"",""3707""
","
","null","<p></p>","null","","","","","","","","","","","","","","","","","","","","","","","",""
"","do_recog","241","625078","0.0-129.0-0.0","""event"",""trial"",""time""
""fullscreenenter"",""0"",""3707""
","
","
","""event"",""trial"",""time""
""fullscreenenter"",""0"",""3707""
","
","1169.5","","","","","","","","53","","","","340","probe-197","","","","","1","[object Object]","115","2","1","","","",""
"","html-keyboard-response","242","626082","0.0-129.0-1.0","""event"",""trial"",""time""
""fullscreenenter"",""0"",""3707""
","
","
","""event"",""trial"",""time""
""fullscreenenter"",""0"",""3707""
","
","null","<p></p>","null","","","","","","","","","","","","","","","","","","","","","","","",""
"","do_trial","243","629218","0.0-130.0-0.0","""event"",""trial"",""time""
""fullscreenenter"",""0"",""3707""
","
","
","""event"",""trial"",""time""
""fullscreenenter"",""0"",""3707""
","
","599.2999999970198","","","","","","","","51","1,0,1","6","blank","341","null","0.29778563404229236","0.2657874770934865","0.7019664846662098","1","","","","","","","","",""
"","html-keyboard-response","244","630223","0.0-130.0-1.0","""event"",""trial"",""time""
""fullscreenenter"",""0"",""3707""
","
","
","""event"",""trial"",""time""
""fullscreenenter"",""0"",""3707""
","
","null","<p></p>","null","","","","","","","","","","","","","","","","","","","","","","","",""
"","do_recog","245","632890","0.0-131.0-0.0","""event"",""trial"",""time""
""fullscreenenter"",""0"",""3707""
","
","
","""event"",""trial"",""time""
""fullscreenenter"",""0"",""3707""
","
","1161.199999999255","","","","","","","","53","","","","342","probe-212","","","","","1","[object Object]","192","4","1","","","",""
"","html-keyboard-response","246","633893","0.0-131.0-1.0","""event"",""trial"",""time""
""fullscreenenter"",""0"",""3707""
","
","
","""event"",""trial"",""time""
""fullscreenenter"",""0"",""3707""
","
","null","<p></p>","null","","","","","","","","","","","","","","","","","","","","","","","",""
"","do_trial","247","636998","0.0-132.0-0.0","""event"",""trial"",""time""
""fullscreenenter"",""0"",""3707""
","
","
","""event"",""trial"",""time""
""fullscreenenter"",""0"",""3707""
","
","562.5","","","","","","","","51","0,1,0","6","blank","343","null","0.19657912835337663","0.17264343714569094","0.7567429308676643","0","","","","","","","","",""
"","html-keyboard-response","248","638001","0.0-132.0-1.0","""event"",""trial"",""time""
""fullscreenenter"",""0"",""3707""
","
","
","""event"",""trial"",""time""
""fullscreenenter"",""0"",""3707""
","
","null","<p></p>","null","","","","","","","","","","","","","","","","","","","","","","","",""
"","do_recog","249","641723","0.0-133.0-0.0","""event"",""trial"",""time""
""fullscreenenter"",""0"",""3707""
","
","
","""event"",""trial"",""time""
""fullscreenenter"",""0"",""3707""
","
","2215.599999997765","","","","","","","","55","","","","344","probe-30","","","","","1","[object Object]","154","3","0","","","",""
"","html-keyboard-response","250","642729","0.0-133.0-1.0","""event"",""trial"",""time""
""fullscreenenter"",""0"",""3707""
","
","
","""event"",""trial"",""time""
""fullscreenenter"",""0"",""3707""
","
","null","<p></p>","null","","","","","","","","","","","","","","","","","","","","","","","",""
"","do_trial","251","646122","0.0-134.0-0.0","""event"",""trial"",""time""
""fullscreenenter"",""0"",""3707""
","
","
","""event"",""trial"",""time""
""fullscreenenter"",""0"",""3707""
","
","855.6000000014901","","","","","","","","51","0,0,1","6","blank","345","null","0.08782203681533161","0.14632716760727887","0.7329570237749082","1","","","","","","","","",""
"","html-keyboard-response","252","647126","0.0-134.0-1.0","""event"",""trial"",""time""
""fullscreenenter"",""0"",""3707""
","
","
","""event"",""trial"",""time""
""fullscreenenter"",""0"",""3707""
","
","null","<p></p>","null","","","","","","","","","","","","","","","","","","","","","","","",""
"","do_trial","253","650085","0.0-135.0-0.0","""event"",""trial"",""time""
""fullscreenenter"",""0"",""3707""
","
","
","""event"",""trial"",""time""
""fullscreenenter"",""0"",""3707""
","
","420.80000000074506","","","","","","","","51","0,0,1","6","blank","346","null","0.21107391849659768","0.12617262952395777","0.6085272816512306","1","","","","","","","","",""
"","html-keyboard-response","254","651090","0.0-135.0-1.0","""event"",""trial"",""time""
""fullscreenenter"",""0"",""3707""
","
","
","""event"",""trial"",""time""
""fullscreenenter"",""0"",""3707""
","
","null","<p></p>","null","","","","","","","","","","","","","","","","","","","","","","","",""
"","do_trial","255","654016","0.0-136.0-0.0","""event"",""trial"",""time""
""fullscreenenter"",""0"",""3707""
","
","
","""event"",""trial"",""time""
""fullscreenenter"",""0"",""3707""
","
","384","","","","","","","","51","0,0,0","6","blank","347","null","0.32515655962105317","0.06127758524246717","0.5487890904069993","0","","","","","","","","",""
"","html-keyboard-response","256","655020","0.0-136.0-1.0","""event"",""trial"",""time""
""fullscreenenter"",""0"",""3707""
","
","
","""event"",""trial"",""time""
""fullscreenenter"",""0"",""3707""
","
","null","<p></p>","null","","","","","","","","","","","","","","","","","","","","","","","",""
"","do_trial","257","658096","0.0-137.0-0.0","""event"",""trial"",""time""
""fullscreenenter"",""0"",""3707""
","
","
","""event"",""trial"",""time""
""fullscreenenter"",""0"",""3707""
","
","536","","","","","","","","51","0,1,0","6","blank","348","null","0.12737626076883374","0.21062660721408688","0.45292049508999477","0","","","","","","","","",""
"","html-keyboard-response","258","659101","0.0-137.0-1.0","""event"",""trial"",""time""
""fullscreenenter"",""0"",""3707""
","
","
","""event"",""trial"",""time""
""fullscreenenter"",""0"",""3707""
","
","null","<p></p>","null","","","","","","","","","","","","","","","","","","","","","","","",""
"","break","259","701238","0.0-138.0-0.0","""event"",""trial"",""time""
""fullscreenenter"",""0"",""3707""
","
","
","""event"",""trial"",""time""
""fullscreenenter"",""0"",""3707""
","
","42136.599999997765","<div class='center'><p>Time to take a quick break! You have 2 minutes to rest, but you can move on sooner if you'd like.</p><p> Press the <b>space bar</b> to continue.</p></div>","32","","","","","","","","","","","","","","","","","","","","","","","",""
"","do_trial","260","705031","0.0-138.0-1.0","""event"",""trial"",""time""
""fullscreenenter"",""0"",""3707""
","
","
","""event"",""trial"",""time""
""fullscreenenter"",""0"",""3707""
","
","1248.800000000745","","","","","","","","49","1,0,1","6","blank","349","null","0.2860702086950967","0.14757544986685836","0.4848118258797749","1","","","","","","","","",""
"","html-keyboard-response","261","706035","0.0-138.0-2.0","""event"",""trial"",""time""
""fullscreenenter"",""0"",""3707""
","
","
","""event"",""trial"",""time""
""fullscreenenter"",""0"",""3707""
","
","null","<p></p>","null","","","","","","","","","","","","","","","","","","","","","","","",""
"","do_trial","262","708864","0.0-139.0-0.0","""event"",""trial"",""time""
""fullscreenenter"",""0"",""3707""
","
","
","""event"",""trial"",""time""
""fullscreenenter"",""0"",""3707""
","
","286","","","","","","","","49","1,0,1","6","blank","350","null","0.5418442549451585","0.08757287663703607","0.5136315123865226","1","","","","","","","","",""
"","html-keyboard-response","263","709868","0.0-139.0-1.0","""event"",""trial"",""time""
""fullscreenenter"",""0"",""3707""
","
","
","""event"",""trial"",""time""
""fullscreenenter"",""0"",""3707""
","
","null","<p></p>","null","","","","","","","","","","","","","","","","","","","","","","","",""
"","do_recog","264","712975","0.0-140.0-0.0","""event"",""trial"",""time""
""fullscreenenter"",""0"",""3707""
","
","
","""event"",""trial"",""time""
""fullscreenenter"",""0"",""3707""
","
","1597.699999999255","","","","","","","","53","","","","351","probe-196","","","","","1","[object Object]","78","1","1","","","",""
"","html-keyboard-response","265","713981","0.0-140.0-1.0","""event"",""trial"",""time""
""fullscreenenter"",""0"",""3707""
","
","
","""event"",""trial"",""time""
""fullscreenenter"",""0"",""3707""
","
","null","<p></p>","null","","","","","","","","","","","","","","","","","","","","","","","",""
"","do_trial","266","717215","0.0-141.0-0.0","""event"",""trial"",""time""
""fullscreenenter"",""0"",""3707""
","
","
","""event"",""trial"",""time""
""fullscreenenter"",""0"",""3707""
","
","690.8999999985099","","","","","","","","49","0,0,0","6","blank","352","null","0.5799948152867055","0.12720933840006096","0.571504152603255","0","","","","","","","","",""
"","html-keyboard-response","267","718219","0.0-141.0-1.0","""event"",""trial"",""time""
""fullscreenenter"",""0"",""3707""
","
","
","""event"",""trial"",""time""
""fullscreenenter"",""0"",""3707""
","
","null","<p></p>","null","","","","","","","","","","","","","","","","","","","","","","","",""
"","do_recog","268","720839","0.0-142.0-0.0","""event"",""trial"",""time""
""fullscreenenter"",""0"",""3707""
","
","
","""event"",""trial"",""time""
""fullscreenenter"",""0"",""3707""
","
","1109.2000000029802","","","","","","","","53","","","","353","probe-185","","","","","1","[object Object]","155","3","1","","","",""
"","html-keyboard-response","269","721844","0.0-142.0-1.0","""event"",""trial"",""time""
""fullscreenenter"",""0"",""3707""
","
","
","""event"",""trial"",""time""
""fullscreenenter"",""0"",""3707""
","
","null","<p></p>","null","","","","","","","","","","","","","","","","","","","","","","","",""
"","do_trial","270","724851","0.0-143.0-0.0","""event"",""trial"",""time""
""fullscreenenter"",""0"",""3707""
","
","
","""event"",""trial"",""time""
""fullscreenenter"",""0"",""3707""
","
","468.80000000074506","","","","","","","","49","1,0,0","6","blank","354","null","0.5402067045667047","0.1665340553609094","0.4146584939450773","1","","","","","","","","",""
"","html-keyboard-response","271","725855","0.0-143.0-1.0","""event"",""trial"",""time""
""fullscreenenter"",""0"",""3707""
","
","
","""event"",""trial"",""time""
""fullscreenenter"",""0"",""3707""
","
","null","<p></p>","null","","","","","","","","","","","","","","","","","","","","","","","",""
"","do_trial","272","728786","0.0-144.0-0.0","""event"",""trial"",""time""
""fullscreenenter"",""0"",""3707""
","
","
","""event"",""trial"",""time""
""fullscreenenter"",""0"",""3707""
","
","388.30000000074506","","","","","","","","49","0,0,0","6","blank","355","null","0.578866105711265","0.24887677648021544","0.38831571100792595","0","","","","","","","","",""
"","html-keyboard-response","273","729790","0.0-144.0-1.0","""event"",""trial"",""time""
""fullscreenenter"",""0"",""3707""
","
","
","""event"",""trial"",""time""
""fullscreenenter"",""0"",""3707""
","
","null","<p></p>","null","","","","","","","","","","","","","","","","","","","","","","","",""
"","do_recog","274","732439","0.0-145.0-0.0","""event"",""trial"",""time""
""fullscreenenter"",""0"",""3707""
","
","
","""event"",""trial"",""time""
""fullscreenenter"",""0"",""3707""
","
","1139.2000000029802","","","","","","","","53","","","","356","probe-104","","","","","1","[object Object]","118","2","1","","","",""
"","html-keyboard-response","275","733445","0.0-145.0-1.0","""event"",""trial"",""time""
""fullscreenenter"",""0"",""3707""
","
","
","""event"",""trial"",""time""
""fullscreenenter"",""0"",""3707""
","
","null","<p></p>","null","","","","","","","","","","","","","","","","","","","","","","","",""
"","do_trial","276","736440","0.0-146.0-0.0","""event"",""trial"",""time""
""fullscreenenter"",""0"",""3707""
","
","
","""event"",""trial"",""time""
""fullscreenenter"",""0"",""3707""
","
","454","","","","","","","","49","0,0,1","6","blank","357","null","0.5979517458048345","0.19820302818125293","0.2939164576224853","0","","","","","","","","",""
"","html-keyboard-response","277","737445","0.0-146.0-1.0","""event"",""trial"",""time""
""fullscreenenter"",""0"",""3707""
","
","
","""event"",""trial"",""time""
""fullscreenenter"",""0"",""3707""
","
