"success","trial_type","trial_index","time_elapsed","internal_node_id","interactions","blur_events","focus_events","fullscreenenter_events","fullscreenexit_events","rt","stimulus","key_press","subject_id","participant_id","age","gender","prompt","response","choice_outcomes","context_n","context_img_id","trial_n","probe_img_id","pR_red","pR_white","pR_black","outcome","is_valid","image_to_show","probed_trial","probed_context","correct","probe","probed_trial_n","probed_context_n","context_im"
"true","fullscreen","0","3393","0.0-0.0","""event"",""trial"",""time""
""fullscreenenter"",""0"",""2419""
","
","
","""event"",""trial"",""time""
""fullscreenenter"",""0"",""2419""
","
","","","","","","","","","","","","","","","","","","","","","","","","","","",""
"","pavlovia","1","3398","0.0-1.0","""event"",""trial"",""time""
""fullscreenenter"",""0"",""2419""
","
","
","""event"",""trial"",""time""
""fullscreenenter"",""0"",""2419""
","
","","","","","","","","","","","","","","","","","","","","","","","","","","",""
"","welc_back","2","13167","0.0-2.0","""event"",""trial"",""time""
""fullscreenenter"",""0"",""2419""
","
","
","""event"",""trial"",""time""
""fullscreenenter"",""0"",""2419""
","
","null","run_exp/static/audio/clip_29_welcome_back.m4a","null","410","754","20","Male","<div class='center'><p>Welcome to day 2!</p><p> Yesterday, you were the head captain of a pirate ship. You asked your fellow pirates to rob other ships of their gold across six different islands.</p></div>","","","","","","","","","","","","","","","","","","",""
"","html-keyboard-response","3","14746","0.0-3.0","""event"",""trial"",""time""
""fullscreenenter"",""0"",""2419""
","
","
","""event"",""trial"",""time""
""fullscreenenter"",""0"",""2419""
","
","1575.7000000476837","<div class='center'><p>Welcome to day 2!</p><p> Yesterday, you were the head captain of a pirate ship. You asked your fellow pirates to rob other ships of their gold across six different islands.</p><p><b>[Press the space bar to continue]</b></p></div>","32","","","","","","","","","","","","","","","","","","","","","","","",""
"","day_1_summary_goal","4","31927","0.0-4.0","""event"",""trial"",""time""
""fullscreenenter"",""0"",""2419""
","
","
","""event"",""trial"",""time""
""fullscreenenter"",""0"",""2419""
","
","null","run_exp/static/audio/clip_30_goal_of_game.m4a","null","","","","","<div class='center'><p>Today, like yesterday, you get to pick which pirate you want to rob the next ship.</p><p>If the pirate is successful in robbing a ship, you get gold coins that look like this: </p><p><img src='run_exp/static/images/tutorial/reward.png' height='150'></p><p> If they were not successful in robbing the ship, then you will get no gold coins and you'll see a big red x like this: </p><p><img src='run_exp/static/images/tutorial/reward_no.png' height='150'></p></div>","","","","","","","","","","","","","","","","","","",""
"","html-keyboard-response","5","32500","0.0-5.0","""event"",""trial"",""time""
""fullscreenenter"",""0"",""2419""
","
","
","""event"",""trial"",""time""
""fullscreenenter"",""0"",""2419""
","
","572.5","<div class='center'><p>Today, like yesterday, you get to pick which pirate you want to rob the next ship.</p><p>If the pirate is successful in robbing a ship, you get gold coins that look like this: </p><p><img src='run_exp/static/images/tutorial/reward.png' height='150'></p><p> If they were not successful in robbing the ship, then you will get no gold coins and you'll see a big red x like this: </p><p><img src='run_exp/static/images/tutorial/reward_no.png' height='150'></p><p><b>[Press the space bar to continue]</b></p></div>","32","","","","","","","","","","","","","","","","","","","","","","","",""
"","day_1_summary_pick","6","47187","0.0-6.0","""event"",""trial"",""time""
""fullscreenenter"",""0"",""2419""
","
","
","""event"",""trial"",""time""
""fullscreenenter"",""0"",""2419""
","
","null","run_exp/static/audio/clip_31_how_to_pick_a_pirate.m4a","null","","","","","<div class='center'><p>Also, just like yesterday, you will use the 1,2,3 keys on your keyboard to pick a pirate. Press '1' to choose red beard, '2' to choose white beard, and '3' to choose black beard . You only have 3 seconds to pick a pirate, so please make a choice quickly!</p></div>","","","","","","","","","","","","","","","","","","",""
"","html-keyboard-response","7","47761","0.0-7.0","""event"",""trial"",""time""
""fullscreenenter"",""0"",""2419""
","
","
","""event"",""trial"",""time""
""fullscreenenter"",""0"",""2419""
","
","572.0999999642372","<div class='center'><p>Also, just like yesterday, you will use the 1,2,3 keys on your keyboard to pick a pirate. Press '1' to choose red beard, '2' to choose white beard, and '3' to choose black beard . You only have 3 seconds to pick a pirate, so please make a choice quickly!</p><p><b>[Press the space bar to continue]</b></p></div>","32","","","","","","","","","","","","","","","","","","","","","","","",""
"","test_phase_begin","8","78166","0.0-8.0","""event"",""trial"",""time""
""fullscreenenter"",""0"",""2419""
","
","
","""event"",""trial"",""time""
""fullscreenenter"",""0"",""2419""
","
","null","run_exp/static/audio/clip_32_final_place.m4a","null","","","","","<div class='center'><p>You’ve arrived at the final island of your journey! Unfortunately, it’s very foggy out, so you won’t be able to see it in the distance like the other islands you've visited.</p><p>You’ll still be deciding which pirate you want to rob a ship like before. However, because of the fog, you also won’t be able to see the ship.</p><p>This means you do not have to remember the ships you rob on this island.</p><p>Unlike yesterday, you won't be visiting multiple islands today. You will stay on this island for the entire game. This game will last ~30 minutes.</p></div>","","","","","","","","","","","","","","","","","","",""
"","html-keyboard-response","9","78898","0.0-9.0","""event"",""trial"",""time""
""fullscreenenter"",""0"",""2419""
","
","
","""event"",""trial"",""time""
""fullscreenenter"",""0"",""2419""
","
","731.2999999523163","<div class='center'><p>You’ve arrived at the final island of your journey! Unfortunately, it’s very foggy out, so you won’t be able to see it in the distance like the other islands you've visited.</p><p>You’ll still be deciding which pirate you want to rob a ship like before. However, because of the fog, you also won’t be able to see the ship.</p><p>This means you do not have to remember the ships you rob on this island.</p><p>Unlike yesterday, you won't be visiting multiple islands today. You will stay on this island for the entire game. This game will last ~30 minutes.</p><p><b>[Press the space bar to continue]</b></p></div>","32","","","","","","","","","","","","","","","","","","","","","","","",""
"","explain_probe_1","10","86607","0.0-10.0","""event"",""trial"",""time""
""fullscreenenter"",""0"",""2419""
","
","
","""event"",""trial"",""time""
""fullscreenenter"",""0"",""2419""
","
","null","run_exp/static/audio/clip_33_recognition_1.m4a","null","","","","","<div class='center'><p> Sometimes you’ll be shown a ship, and you will be asked if you saw this ship on a past island.</p><p> Here is an example of what you will see.</p><p><img src='run_exp/static/images/tutorial/example_recog_trial.png' height='500'></p></div>","","","","","","","","","","","","","","","","","","",""
"","html-keyboard-response","11","88213","0.0-11.0","""event"",""trial"",""time""
""fullscreenenter"",""0"",""2419""
","
","
","""event"",""trial"",""time""
""fullscreenenter"",""0"",""2419""
","
","1603.5","<div class='center'><p> Sometimes you’ll be shown a ship, and you will be asked if you saw this ship on a past island.</p><p> Here is an example of what you will see.</p><p><img src='run_exp/static/images/tutorial/example_recog_trial.png' height='500'></p><p><b>[Press the space bar to continue]</b></p></div>","32","","","","","","","","","","","","","","","","","","","","","","","",""
"","explain_probe_2","12","109926","0.0-12.0","""event"",""trial"",""time""
""fullscreenenter"",""0"",""2419""
","
","
","""event"",""trial"",""time""
""fullscreenenter"",""0"",""2419""
","
","null","run_exp/static/audio/clip_34_recognition_2.m4a","null","","","","","<div class='center'><p> You will press the 5, 6, 7, 8 keys on your keyboard to respond.</p><p>If you are sure you saw the ship, press <b>5</b> on your keyboard.</p><p> If you think you saw it before but aren't sure, then press <b>6</b>.</p><p> If you think you have <b>not</b> seen it before but aren't sure, then press <b>7</b>.</p><p> If you are sure you did <b>not</b> see the ship before, then press <b>8</b>.</p><p><img src='run_exp/static/images/tutorial/example_recog_trial.png' height='500'></p></div>","","","","","","","","","","","","","","","","","","",""
"","html-keyboard-response","13","112389","0.0-13.0","""event"",""trial"",""time""
""fullscreenenter"",""0"",""2419""
","
","
","""event"",""trial"",""time""
""fullscreenenter"",""0"",""2419""
","
","2462.5","<div class='center'><p> You will press the 5, 6, 7, 8 keys on your keyboard to respond.</p><p>If you are sure you saw the ship, press <b>5</b> on your keyboard.</p><p> If you think you saw it before but aren't sure, then press <b>6</b>.</p><p> If you think you have <b>not</b> seen it before but aren't sure, then press <b>7</b>.</p><p> If you are sure you did <b>not</b> see the ship before, then press <b>8</b>.</p><p><img src='run_exp/static/images/tutorial/example_recog_trial.png' height='500'></p><p><b>[Press the space bar to continue]</b></p></div>","32","","","","","","","","","","","","","","","","","","","","","","","",""
"","explain_outcome","14","129567","0.0-14.0","""event"",""trial"",""time""
""fullscreenenter"",""0"",""2419""
","
","
","""event"",""trial"",""time""
""fullscreenenter"",""0"",""2419""
","
","null","run_exp/static/audio/clip_35_recognition_3.m4a","null","","","","","<div class='center'><p> If you remember correctly, then you’ll get a gold coin like this: </p><p><img src='run_exp/static/images/tutorial/reward_small.png' height='200'></p><p>If you do not remember correctly, then you'll see a red x like this: </p><p><img src='run_exp/static/images/tutorial/reward_no.png' height='200'></p><p>Importantly, when you are shown a ship, take the time to remind yourself which island you saw it on. This will help you in the next part of the study.</p></div>","","","","","","","","","","","","","","","","","","",""
"","html-keyboard-response","15","130038","0.0-15.0","""event"",""trial"",""time""
""fullscreenenter"",""0"",""2419""
","
","
","""event"",""trial"",""time""
""fullscreenenter"",""0"",""2419""
","
","468.10000002384186","<div class='center'><p> If you remember correctly, then you’ll get a gold coin like this: </p><p><img src='run_exp/static/images/tutorial/reward_small.png' height='200'></p><p>If you do not remember correctly, then you'll see a red x like this: </p><p><img src='run_exp/static/images/tutorial/reward_no.png' height='200'></p><p>Importantly, when you are shown a ship, take the time to remind yourself which island you saw it on. This will help you in the next part of the study.</p><p><b>[Press the space bar to continue]</b></p></div>","32","","","","","","","","","","","","","","","","","","","","","","","",""
"","begin_test_phase","16","145867","0.0-16.0","""event"",""trial"",""time""
""fullscreenenter"",""0"",""2419""
","
","
","""event"",""trial"",""time""
""fullscreenenter"",""0"",""2419""
","
","null","run_exp/static/audio/clip_36_begin_final.m4a","null","","","","","<div class='center'><p>Let's go over the important points again. Your job is to: </p><p>1. Pick the pirate who is best at robbing ships and will bring you back gold coins. </p><p>2. Correctly remember whether or not you saw a ship before. If you did see the ship before, remind yourself on which island you saw it. </p></div>","","","","","","","","","","","","","","","","","","",""
"","html-keyboard-response","17","147779","0.0-17.0","""event"",""trial"",""time""
""fullscreenenter"",""0"",""2419""
","
","
","""event"",""trial"",""time""
""fullscreenenter"",""0"",""2419""
","
","1873.300000011921","<div class='center'><p>Let's go over the important points again. Your job is to: </p><p>1. Pick the pirate who is best at robbing ships and will bring you back gold coins. </p><p>2. Correctly remember whether or not you saw a ship before. If you did see the ship before, remind yourself on which island you saw it. </p><p><b>[Press the space bar to continue]</b></p></div>","32","","","","","","","","","","","","","","","","","","","","","","","",""
"","do_welcome","18","151797","0.0-18.0","""event"",""trial"",""time""
""fullscreenenter"",""0"",""2419""
","
","
","""event"",""trial"",""time""
""fullscreenenter"",""0"",""2419""
","
","null","","","","","","","","null","","","","","","","","","","","","","","","","","",""
"","do_trial","19","156474","0.0-19.0-0.0","""event"",""trial"",""time""
""fullscreenenter"",""0"",""2419""
","
","
","""event"",""trial"",""time""
""fullscreenenter"",""0"",""2419""
","
","2117.599999964237","","","","","","","","49","0,0,0","6","blank","230","null","0.509311281279753","0.2289133260835978","0.15335122223877753","0","","","","","","","","",""
"","html-keyboard-response","20","157476","0.0-19.0-1.0","""event"",""trial"",""time""
""fullscreenenter"",""0"",""2419""
","
","
","""event"",""trial"",""time""
""fullscreenenter"",""0"",""2419""
","
","null","<p></p>","null","","","","","","","","","","","","","","","","","","","","","","","",""
"","do_trial","21","160348","0.0-20.0-0.0","""event"",""trial"",""time""
""fullscreenenter"",""0"",""2419""
","
","
","""event"",""trial"",""time""
""fullscreenenter"",""0"",""2419""
","
","333.5999999642372","","","","","","","","49","0,1,0","6","blank","231","null","0.41939055117004514","0.248599423888079","0.05799853544519646","0","","","","","","","","",""
"","html-keyboard-response","22","161351","0.0-20.0-1.0","""event"",""trial"",""time""
""fullscreenenter"",""0"",""2419""
","
","
","""event"",""trial"",""time""
""fullscreenenter"",""0"",""2419""
","
","null","<p></p>","null","","","","","","","","","","","","","","","","","","","","","","","",""
"","do_trial","23","164183","0.0-21.0-0.0","""event"",""trial"",""time""
""fullscreenenter"",""0"",""2419""
","
","
","""event"",""trial"",""time""
""fullscreenenter"",""0"",""2419""
","
","268","","","","","","","","49","0,1,1","6","blank","232","null","0.6174116781766419","0.2773079668807332","0.1964112178118613","0","","","","","","","","",""
"","html-keyboard-response","24","165185","0.0-21.0-1.0","""event"",""trial"",""time""
""fullscreenenter"",""0"",""2419""
","
","
","""event"",""trial"",""time""
""fullscreenenter"",""0"",""2419""
","
","null","<p></p>","null","","","","","","","","","","","","","","","","","","","","","","","",""
"","do_trial","25","168054","0.0-22.0-0.0","""event"",""trial"",""time""
""fullscreenenter"",""0"",""2419""
","
","
","""event"",""trial"",""time""
""fullscreenenter"",""0"",""2419""
","
","334","","","","","","","","50","1,1,0","6","blank","233","null","0.6553683500153651","0.26179345488870603","0.11635325079799437","1","","","","","","","","",""
"","html-keyboard-response","26","169058","0.0-22.0-1.0","""event"",""trial"",""time""
""fullscreenenter"",""0"",""2419""
","
","
","""event"",""trial"",""time""
""fullscreenenter"",""0"",""2419""
","
","null","<p></p>","null","","","","","","","","","","","","","","","","","","","","","","","",""
"","do_trial","27","171919","0.0-23.0-0.0","""event"",""trial"",""time""
""fullscreenenter"",""0"",""2419""
","
","
","""event"",""trial"",""time""
""fullscreenenter"",""0"",""2419""
","
","275.39999997615814","","","","","","","","50","1,0,0","6","blank","234","null","0.5469194916360194","0.28915778307407175","0.08714704677627756","0","","","","","","","","",""
"","html-keyboard-response","28","172922","0.0-23.0-1.0","""event"",""trial"",""time""
""fullscreenenter"",""0"",""2419""
","
","
","""event"",""trial"",""time""
""fullscreenenter"",""0"",""2419""
","
","null","<p></p>","null","","","","","","","","","","","","","","","","","","","","","","","",""
"","do_trial","29","175777","0.0-24.0-0.0","""event"",""trial"",""time""
""fullscreenenter"",""0"",""2419""
","
","
","""event"",""trial"",""time""
""fullscreenenter"",""0"",""2419""
","
","288.5","","","","","","","","50","0,1,0","6","blank","235","null","0.6552725529069965","0.25522544784137496","0.07819141039252096","1","","","","","","","","",""
"","html-keyboard-response","30","176779","0.0-24.0-1.0","""event"",""trial"",""time""
""fullscreenenter"",""0"",""2419""
","
","
","""event"",""trial"",""time""
""fullscreenenter"",""0"",""2419""
","
","null","<p></p>","null","","","","","","","","","","","","","","","","","","","","","","","",""
"","do_trial","31","179605","0.0-25.0-0.0","""event"",""trial"",""time""
""fullscreenenter"",""0"",""2419""
","
","
","""event"",""trial"",""time""
""fullscreenenter"",""0"",""2419""
","
","278.30000001192093","","","","","","","","50","0,0,0","6","blank","236","null","0.7165288553465089","0.23129915320902292","0.08611146537388759","0","","","","","","","","",""
"","html-keyboard-response","32","180608","0.0-25.0-1.0","""event"",""trial"",""time""
""fullscreenenter"",""0"",""2419""
","
","
","""event"",""trial"",""time""
""fullscreenenter"",""0"",""2419""
","
","null","<p></p>","null","","","","","","","","","","","","","","","","","","","","","","","",""
"","do_trial","33","183408","0.0-26.0-0.0","""event"",""trial"",""time""
""fullscreenenter"",""0"",""2419""
","
","
","""event"",""trial"",""time""
""fullscreenenter"",""0"",""2419""
","
","240.89999997615814","","","","","","","","50","1,0,0","6","blank","237","null","0.5901373876031838","0.258993410387791","0.21982984620483823","0","","","","","","","","",""
"","html-keyboard-response","34","184412","0.0-26.0-1.0","""event"",""trial"",""time""
""fullscreenenter"",""0"",""2419""
","
","
","""event"",""trial"",""time""
""fullscreenenter"",""0"",""2419""
","
","null","<p></p>","null","","","","","","","","","","","","","","","","","","","","","","","",""
"","do_trial","35","187218","0.0-27.0-0.0","""event"",""trial"",""time""
""fullscreenenter"",""0"",""2419""
","
","
","""event"",""trial"",""time""
""fullscreenenter"",""0"",""2419""
","
","246","","","","","","","","50","1,0,0","6","blank","238","null","0.4808570590079752","0.19175555031512356","0.1386948629259567","0","","","","","","","","",""
"","html-keyboard-response","36","188221","0.0-27.0-1.0","""event"",""trial"",""time""
""fullscreenenter"",""0"",""2419""
","
","
","""event"",""trial"",""time""
""fullscreenenter"",""0"",""2419""
","
","null","<p></p>","null","","","","","","","","","","","","","","","","","","","","","","","",""
"","do_trial","37","191044","0.0-28.0-0.0","""event"",""trial"",""time""
""fullscreenenter"",""0"",""2419""
","
","
","""event"",""trial"",""time""
""fullscreenenter"",""0"",""2419""
","
","261.5","","","","","","","","51","1,0,0","6","blank","239","null","0.6493328896836629","0.20291401377015664","0.1877614620440864","0","","","","","","","","",""
"","html-keyboard-response","38","192048","0.0-28.0-1.0","""event"",""trial"",""time""
""fullscreenenter"",""0"",""2419""
","
","
","""event"",""trial"",""time""
""fullscreenenter"",""0"",""2419""
","
","null","<p></p>","null","","","","","","","","","","","","","","","","","","","","","","","",""
"","do_trial","39","194878","0.0-29.0-0.0","""event"",""trial"",""time""
""fullscreenenter"",""0"",""2419""
","
","
","""event"",""trial"",""time""
""fullscreenenter"",""0"",""2419""
","
","272.39999997615814","","","","","","","","51","1,0,0","6","blank","240","null","0.6606915139640858","0.1401058618612938","0.16363344940075691","0","","","","","","","","",""
"","html-keyboard-response","40","195880","0.0-29.0-1.0","""event"",""trial"",""time""
""fullscreenenter"",""0"",""2419""
","
","
","""event"",""trial"",""time""
""fullscreenenter"",""0"",""2419""
","
","null","<p></p>","null","","","","","","","","","","","","","","","","","","","","","","","",""
"","do_trial","41","198665","0.0-30.0-0.0","""event"",""trial"",""time""
""fullscreenenter"",""0"",""2419""
","
","
","""event"",""trial"",""time""
""fullscreenenter"",""0"",""2419""
","
","245.29999995231628","","","","","","","","51","1,0,0","6","blank","241","null","0.6981679462871405","0.12116135184845085","0.08944511596316275","0","","","","","","","","",""
"","html-keyboard-response","42","199668","0.0-30.0-1.0","""event"",""trial"",""time""
""fullscreenenter"",""0"",""2419""
","
","
","""event"",""trial"",""time""
""fullscreenenter"",""0"",""2419""
","
","null","<p></p>","null","","","","","","","","","","","","","","","","","","","","","","","",""
"","do_trial","43","202478","0.0-31.0-0.0","""event"",""trial"",""time""
""fullscreenenter"",""0"",""2419""
","
","
","""event"",""trial"",""time""
""fullscreenenter"",""0"",""2419""
","
","251.30000001192093","","","","","","","","50","0,0,0","6","blank","242","null","0.42764721888666735","0.5071182235119258","0.2656085786165408","0","","","","","","","","",""
"","html-keyboard-response","44","203482","0.0-31.0-1.0","""event"",""trial"",""time""
""fullscreenenter"",""0"",""2419""
","
","
","""event"",""trial"",""time""
""fullscreenenter"",""0"",""2419""
","
","null","<p></p>","null","","","","","","","","","","","","","","","","","","","","","","","",""
"","do_trial","45","206349","0.0-32.0-0.0","""event"",""trial"",""time""
""fullscreenenter"",""0"",""2419""
","
","
","""event"",""trial"",""time""
""fullscreenenter"",""0"",""2419""
","
","306.80000001192093","","","","","","","","50","1,1,1","6","blank","243","null","0.17978781423570683","0.5469161765321546","0.47326512797706755","1","","","","","","","","",""
"","html-keyboard-response","46","207354","0.0-32.0-1.0","""event"",""trial"",""time""
""fullscreenenter"",""0"",""2419""
","
","
","""event"",""trial"",""time""
""fullscreenenter"",""0"",""2419""
","
","null","<p></p>","null","","","","","","","","","","","","","","","","","","","","","","","",""
"","do_trial","47","210162","0.0-33.0-0.0","""event"",""trial"",""time""
""fullscreenenter"",""0"",""2419""
","
","
","""event"",""trial"",""time""
""fullscreenenter"",""0"",""2419""
","
","267.69999998807907","","","","","","","","50","0,1,0","6","blank","244","null","0.1548421071544889","0.6422215710785107","0.27811235417763197","1","","","","","","","","",""
"","html-keyboard-response","48","211165","0.0-33.0-1.0","""event"",""trial"",""time""
""fullscreenenter"",""0"",""2419""
","
","
","""event"",""trial"",""time""
""fullscreenenter"",""0"",""2419""
","
","null","<p></p>","null","","","","","","","","","","","","","","","","","","","","","","","",""
"","do_recog","49","215436","0.0-34.0-0.0","""event"",""trial"",""time""
""fullscreenenter"",""0"",""2419""
","
","
","""event"",""trial"",""time""
""fullscreenenter"",""0"",""2419""
","
","2756.399999976158","","","","","","","","56","","","","245","probe-124","","","","","1","[object Object]","199","4","0","","","",""
"","html-keyboard-response","50","216440","0.0-34.0-1.0","""event"",""trial"",""time""
""fullscreenenter"",""0"",""2419""
","
","
","""event"",""trial"",""time""
""fullscreenenter"",""0"",""2419""
","
","null","<p></p>","null","","","","","","","","","","","","","","","","","","","","","","","",""
"","do_trial","51","219647","0.0-35.0-0.0","""event"",""trial"",""time""
""fullscreenenter"",""0"",""2419""
","
","
","""event"",""trial"",""time""
""fullscreenenter"",""0"",""2419""
","
","645.7999999523163","","","","","","","","50","0,0,0","6","blank","246","null","0.23004871328174895","0.7827342863555977","0.3525147343594627","0","","","","","","","","",""
"","html-keyboard-response","52","220649","0.0-35.0-1.0","""event"",""trial"",""time""
""fullscreenenter"",""0"",""2419""
","
","
","""event"",""trial"",""time""
""fullscreenenter"",""0"",""2419""
","
","null","<p></p>","null","","","","","","","","","","","","","","","","","","","","","","","",""
"","do_trial","53","223598","0.0-36.0-0.0","""event"",""trial"",""time""
""fullscreenenter"",""0"",""2419""
","
","
","""event"",""trial"",""time""
""fullscreenenter"",""0"",""2419""
","
","406.7999999523163","","","","","","","","50","0,1,0","6","blank","247","null","0.10769092774152043","0.8711495781527093","0.23839484201656447","1","","","","","","","","",""
"","html-keyboard-response","54","224601","0.0-36.0-1.0","""event"",""trial"",""time""
""fullscreenenter"",""0"",""2419""
","
","
","""event"",""trial"",""time""
""fullscreenenter"",""0"",""2419""
","
","null","<p></p>","null","","","","","","","","","","","","","","","","","","","","","","","",""
"","do_recog","55","230615","0.0-37.0-0.0","""event"",""trial"",""time""
""fullscreenenter"",""0"",""2419""
","
","
","""event"",""trial"",""time""
""fullscreenenter"",""0"",""2419""
","
","null","","","","","","","","null","","","","248","probe-19","","","","","1","[object Object]","76","1","0","","","",""
"","html-keyboard-response","56","231617","0.0-37.0-1.0","""event"",""trial"",""time""
""fullscreenenter"",""0"",""2419""
","
","
","""event"",""trial"",""time""
""fullscreenenter"",""0"",""2419""
","
","null","<p></p>","null","","","","","","","","","","","","","","","","","","","","","","","",""
"","do_trial","57","234595","0.0-38.0-0.0","""event"",""trial"",""time""
""fullscreenenter"",""0"",""2419""
","
","
","""event"",""trial"",""time""
""fullscreenenter"",""0"",""2419""
","
","419.89999997615814","","","","","","","","50","0,1,1","6","blank","249","null","0.21497973954137894","0.696623478565206","0.23785463919983002","1","","","","","","","","",""
"","html-keyboard-response","58","235599","0.0-38.0-1.0","""event"",""trial"",""time""
""fullscreenenter"",""0"",""2419""
","
","
","""event"",""trial"",""time""
""fullscreenenter"",""0"",""2419""
","
","null","<p></p>","null","","","","","","","","","","","","","","","","","","","","","","","",""
"","do_trial","59","238522","0.0-39.0-0.0","""event"",""trial"",""time""
""fullscreenenter"",""0"",""2419""
","
","
","""event"",""trial"",""time""
""fullscreenenter"",""0"",""2419""
","
","369.9000000357628","","","","","","","","50","0,0,1","6","blank","250","null","0.22603786250652314","0.5822240208290397","0.20419819548349857","0","","","","","","","","",""
"","html-keyboard-response","60","239538","0.0-39.0-1.0","""event"",""trial"",""time""
""fullscreenenter"",""0"",""2419""
","
","
","""event"",""trial"",""time""
""fullscreenenter"",""0"",""2419""
","
","null","<p></p>","null","","","","","","","","","","","","","","","","","","","","","","","",""
"","do_trial","61","242396","0.0-40.0-0.0","""event"",""trial"",""time""
""fullscreenenter"",""0"",""2419""
","
","
","""event"",""trial"",""time""
""fullscreenenter"",""0"",""2419""
","
","324.39999997615814","","","","","","","","50","0,0,0","6","blank","251","null","0.2570675551676129","0.48041390549579127","0.21019479057737292","0","","","","","","","","",""
"","html-keyboard-response","62","243399","0.0-40.0-1.0","""event"",""trial"",""time""
""fullscreenenter"",""0"",""2419""
","
","
","""event"",""trial"",""time""
""fullscreenenter"",""0"",""2419""
","
","null","<p></p>","null","","","","","","","","","","","","","","","","","","","","","","","",""
"","do_trial","63","246305","0.0-41.0-0.0","""event"",""trial"",""time""
""fullscreenenter"",""0"",""2419""
","
","
","""event"",""trial"",""time""
""fullscreenenter"",""0"",""2419""
","
","367","","","","","","","","50","0,1,0","6","blank","252","null","0.07937624034924382","0.5962997788012282","0.24637231193451248","1","","","","","","","","",""
"","html-keyboard-response","64","247308","0.0-41.0-1.0","""event"",""trial"",""time""
""fullscreenenter"",""0"",""2419""
","
","
","""event"",""trial"",""time""
""fullscreenenter"",""0"",""2419""
","
","null","<p></p>","null","","","","","","","","","","","","","","","","","","","","","","","",""
"","do_trial","65","250145","0.0-42.0-0.0","""event"",""trial"",""time""
""fullscreenenter"",""0"",""2419""
","
","
","""event"",""trial"",""time""
""fullscreenenter"",""0"",""2419""
","
","279.80000001192093","","","","","","","","50","0,0,0","6","blank","253","null","0.054691927716192724","0.715088712457208","0.3889855268308229","0","","","","","","","","",""
"","html-keyboard-response","66","251148","0.0-42.0-1.0","""event"",""trial"",""time""
""fullscreenenter"",""0"",""2419""
","
","
","""event"",""trial"",""time""
""fullscreenenter"",""0"",""2419""
","
","null","<p></p>","null","","","","","","","","","","","","","","","","","","","","","","","",""
"","do_trial","67","253969","0.0-43.0-0.0","""event"",""trial"",""time""
""fullscreenenter"",""0"",""2419""
","
","
","""event"",""trial"",""time""
""fullscreenenter"",""0"",""2419""
","
","258.5","","","","","","","","50","0,1,1","6","blank","254","null","0.1228697484899132","0.7784613721315627","0.39494863419659954","1","","","","","","","","",""
"","html-keyboard-response","68","254972","0.0-43.0-1.0","""event"",""trial"",""time""
""fullscreenenter"",""0"",""2419""
","
","
","""event"",""trial"",""time""
""fullscreenenter"",""0"",""2419""
","
","null","<p></p>","null","","","","","","","","","","","","","","","","","","","","","","","",""
"","do_recog","69","259237","0.0-44.0-0.0","""event"",""trial"",""time""
""fullscreenenter"",""0"",""2419""
","
","
","""event"",""trial"",""time""
""fullscreenenter"",""0"",""2419""
","
","2757.300000011921","","","","","","","","55","","","","255","probe-94","","","","","1","[object Object]","113","2","0","","","",""
"","html-keyboard-response","70","260241","0.0-44.0-1.0","""event"",""trial"",""time""
""fullscreenenter"",""0"",""2419""
","
","
","""event"",""trial"",""time""
""fullscreenenter"",""0"",""2419""
","
","null","<p></p>","null","","","","","","","","","","","","","","","","","","","","","","","",""
"","do_trial","71","263379","0.0-45.0-0.0","""event"",""trial"",""time""
""fullscreenenter"",""0"",""2419""
","
","
","""event"",""trial"",""time""
""fullscreenenter"",""0"",""2419""
","
","575.5","","","","","","","","50","0,1,0","6","blank","256","null","0.07447109377092243","0.7046632367648397","0.30629073697589604","1","","","","","","","","",""
"","html-keyboard-response","72","264382","0.0-45.0-1.0","""event"",""trial"",""time""
""fullscreenenter"",""0"",""2419""
","
","
","""event"",""trial"",""time""
""fullscreenenter"",""0"",""2419""
","
","null","<p></p>","null","","","","","","","","","","","","","","","","","","","","","","","",""
"","do_recog","73","268030","0.0-46.0-0.0","""event"",""trial"",""time""
""fullscreenenter"",""0"",""2419""
","
","
","""event"",""trial"",""time""
""fullscreenenter"",""0"",""2419""
","
","2133.400000035763","","","","","","","","53","","","","257","probe-36","","","","","1","[object Object]","198","4","1","","","",""
"","html-keyboard-response","74","269033","0.0-46.0-1.0","""event"",""trial"",""time""
""fullscreenenter"",""0"",""2419""
","
","
","""event"",""trial"",""time""
""fullscreenenter"",""0"",""2419""
","
","null","<p></p>","null","","","","","","","","","","","","","","","","","","","","","","","",""
"","do_trial","75","272231","0.0-47.0-0.0","""event"",""trial"",""time""
""fullscreenenter"",""0"",""2419""
","
","
","""event"",""trial"",""time""
""fullscreenenter"",""0"",""2419""
","
","658.0999999642372","","","","","","","","50","0,1,0","6","blank","258","null","0.18051679903266582","0.7508890103152035","0.2326746567385642","1","","","","","","","","",""
"","html-keyboard-response","76","273234","0.0-47.0-1.0","""event"",""trial"",""time""
""fullscreenenter"",""0"",""2419""
","
","
","""event"",""trial"",""time""
""fullscreenenter"",""0"",""2419""
","
","null","<p></p>","null","","","","","","","","","","","","","","","","","","","","","","","",""
"","do_trial","77","276143","0.0-48.0-0.0","""event"",""trial"",""time""
""fullscreenenter"",""0"",""2419""
","
","
","""event"",""trial"",""time""
""fullscreenenter"",""0"",""2419""
","
","340.19999998807907","","","","","","","","50","0,1,1","6","blank","259","null","0.2030712846112833","0.636088950909948","0.2890985369259983","1","","","","","","","","",""
"","html-keyboard-response","78","277145","0.0-48.0-1.0","""event"",""trial"",""time""
""fullscreenenter"",""0"",""2419""
","
","
","""event"",""trial"",""time""
""fullscreenenter"",""0"",""2419""
","
","null","<p></p>","null","","","","","","","","","","","","","","","","","","","","","","","",""
"","do_trial","79","280008","0.0-49.0-0.0","""event"",""trial"",""time""
""fullscreenenter"",""0"",""2419""
","
","
","""event"",""trial"",""time""
""fullscreenenter"",""0"",""2419""
","
","301.69999998807907","","","","","","","","50","0,0,0","6","blank","260","null","0.2857619492840942","0.5303574092294876","0.3454429178629914","0","","","","","","","","",""
"","html-keyboard-response","80","281010","0.0-49.0-1.0","""event"",""trial"",""time""
""fullscreenenter"",""0"",""2419""
","
","
","""event"",""trial"",""time""
""fullscreenenter"",""0"",""2419""
","
","null","<p></p>","null","","","","","","","","","","","","","","","","","","","","","","","",""
"","do_recog","81","284475","0.0-50.0-0.0","""event"",""trial"",""time""
""fullscreenenter"",""0"",""2419""
","
","
","""event"",""trial"",""time""
""fullscreenenter"",""0"",""2419""
","
","1959.2999999523163","","","","","","","","56","","","","261","probe-50","","","","","1","[object Object]","34","0","0","","","",""
"","html-keyboard-response","82","285479","0.0-50.0-1.0","""event"",""trial"",""time""
""fullscreenenter"",""0"",""2419""
","
","
","""event"",""trial"",""time""
""fullscreenenter"",""0"",""2419""
","
","null","<p></p>","null","","","","","","","","","","","","","","","","","","","","","","","",""
"","do_trial","83","288458","0.0-51.0-0.0","""event"",""trial"",""time""
""fullscreenenter"",""0"",""2419""
","
","
","""event"",""trial"",""time""
""fullscreenenter"",""0"",""2419""
","
","437.7000000476837","","","","","","","","50","0,0,1","6","blank","262","null","0.22543669480923828","0.5132280991249375","0.4402266980944907","0","","","","","","","","",""
"","html-keyboard-response","84","289461","0.0-51.0-1.0","""event"",""trial"",""time""
""fullscreenenter"",""0"",""2419""
","
","
","""event"",""trial"",""time""
""fullscreenenter"",""0"",""2419""
","
","null","<p></p>","null","","","","","","","","","","","","","","","","","","","","","","","",""
"","do_trial","85","292425","0.0-52.0-0.0","""event"",""trial"",""time""
""fullscreenenter"",""0"",""2419""
","
","
","""event"",""trial"",""time""
""fullscreenenter"",""0"",""2419""
","
","407.39999997615814","","","","","","","","50","0,0,0","6","blank","263","null","0.2280571428928526","0.6300905507131321","0.4565539144586239","0","","","","","","","","",""
"","html-keyboard-response","86","293428","0.0-52.0-1.0","""event"",""trial"",""time""
""fullscreenenter"",""0"",""2419""
","
","
","""event"",""trial"",""time""
""fullscreenenter"",""0"",""2419""
","
","null","<p></p>","null","","","","","","","","","","","","","","","","","","","","","","","",""
"","do_trial","87","296463","0.0-53.0-0.0","""event"",""trial"",""time""
""fullscreenenter"",""0"",""2419""
","
","
","""event"",""trial"",""time""
""fullscreenenter"",""0"",""2419""
","
","476.30000001192093","","","","","","","","50","0,1,1","6","blank","264","null","0.2287678007914214","0.5486066939265645","0.5619048032855344","1","","","","","","","","",""
"","html-keyboard-response","88","297466","0.0-53.0-1.0","""event"",""trial"",""time""
""fullscreenenter"",""0"",""2419""
","
","
","""event"",""trial"",""time""
""fullscreenenter"",""0"",""2419""
","
","null","<p></p>","null","","","","","","","","","","","","","","","","","","","","","","","",""
"","do_trial","89","300389","0.0-54.0-0.0","""event"",""trial"",""time""
""fullscreenenter"",""0"",""2419""
","
","
","""event"",""trial"",""time""
""fullscreenenter"",""0"",""2419""
","
","363.39999997615814","","","","","","","","50","0,1,0","6","blank","265","null","0.13339301375371462","0.6317647191525964","0.28833548224526856","1","","","","","","","","",""
"","html-keyboard-response","90","301391","0.0-54.0-1.0","""event"",""trial"",""time""
""fullscreenenter"",""0"",""2419""
","
","
","""event"",""trial"",""time""
""fullscreenenter"",""0"",""2419""
","
","null","<p></p>","null","","","","","","","","","","","","","","","","","","","","","","","",""
"","do_trial","91","304249","0.0-55.0-0.0","""event"",""trial"",""time""
""fullscreenenter"",""0"",""2419""
","
","
","""event"",""trial"",""time""
""fullscreenenter"",""0"",""2419""
","
","306.69999998807907","","","","","","","","50","0,0,0","6","blank","266","null","0.05946064321903036","0.6103380576383833","0.32169374100054554","0","","","","","","","","",""
"","html-keyboard-response","92","305253","0.0-55.0-1.0","""event"",""trial"",""time""
""fullscreenenter"",""0"",""2419""
","
","
","""event"",""trial"",""time""
""fullscreenenter"",""0"",""2419""
","
","null","<p></p>","null","","","","","","","","","","","","","","","","","","","","","","","",""
"","do_trial","93","308082","0.0-56.0-0.0","""event"",""trial"",""time""
""fullscreenenter"",""0"",""2419""
","
","
","""event"",""trial"",""time""
""fullscreenenter"",""0"",""2419""
","
","268.80000001192093","","","","","","","","50","0,0,0","6","blank","267","null","0.11302938694036564","0.5885551424214323","0.3021943322498479","0","","","","","","","","",""
"","html-keyboard-response","94","309085","0.0-56.0-1.0","""event"",""trial"",""time""
""fullscreenenter"",""0"",""2419""
","
","
","""event"",""trial"",""time""
""fullscreenenter"",""0"",""2419""
","
","null","<p></p>","null","","","","","","","","","","","","","","","","","","","","","","","",""
"","do_recog","95","312552","0.0-57.0-0.0","""event"",""trial"",""time""
""fullscreenenter"",""0"",""2419""
","
","
","""event"",""trial"",""time""
""fullscreenenter"",""0"",""2419""
","
","1947.3999999761581","","","","","","","","53","","","","268","probe-166","","","","","1","[object Object]","112","2","1","","","",""
"","html-keyboard-response","96","313555","0.0-57.0-1.0","""event"",""trial"",""time""
""fullscreenenter"",""0"",""2419""
","
","
","""event"",""trial"",""time""
""fullscreenenter"",""0"",""2419""
","
","null","<p></p>","null","","","","","","","","","","","","","","","","","","","","","","","",""
"","break","97","326265","0.0-58.0-0.0","""event"",""trial"",""time""
""fullscreenenter"",""0"",""2419""
","
","
","""event"",""trial"",""time""
""fullscreenenter"",""0"",""2419""
","
","12708.100000023842","<div class='center'><p>Time to take a quick break! You have 2 minutes to rest, but you can move on sooner if you'd like.</p><p> Press the <b>space bar</b> to continue.</p></div>","32","","","","","","","","","","","","","","","","","","","","","","","",""
"","do_trial","98","329760","0.0-58.0-1.0","""event"",""trial"",""time""
""fullscreenenter"",""0"",""2419""
","
","
","""event"",""trial"",""time""
""fullscreenenter"",""0"",""2419""
","
","959.6000000238419","","","","","","","","50","1,1,1","6","blank","269","null","0.14853115663910293","0.47072592195117824","0.36668171307335434","1","","","","","","","","",""
"","html-keyboard-response","99","330763","0.0-58.0-2.0","""event"",""trial"",""time""
""fullscreenenter"",""0"",""2419""
","
","
","""event"",""trial"",""time""
""fullscreenenter"",""0"",""2419""
","
","null","<p></p>","null","","","","","","","","","","","","","","","","","","","","","","","",""
"","do_recog","100","334302","0.0-59.0-0.0","""event"",""trial"",""time""
""fullscreenenter"",""0"",""2419""
","
","
","""event"",""trial"",""time""
""fullscreenenter"",""0"",""2419""
","
","2011.199999988079","","","","","","","","55","","","","270","probe-249","","","","","0","[object Object]","null","null","1","","","",""
"","html-keyboard-response","101","335304","0.0-59.0-1.0","""event"",""trial"",""time""
""fullscreenenter"",""0"",""2419""
","
","
","""event"",""trial"",""time""
""fullscreenenter"",""0"",""2419""
","
","null","<p></p>","null","","","","","","","","","","","","","","","","","","","","","","","",""
"","do_trial","102","338343","0.0-60.0-0.0","""event"",""trial"",""time""
""fullscreenenter"",""0"",""2419""
","
","
","""event"",""trial"",""time""
""fullscreenenter"",""0"",""2419""
","
","480.0999999642372","","","","","","","","50","0,1,0","6","blank","271","null","0.13931532054427698","0.6222976828869582","0.26664848423525384","1","","","","","","","","",""
"","html-keyboard-response","103","339357","0.0-60.0-1.0","""event"",""trial"",""time""
""fullscreenenter"",""0"",""2419""
","
","
","""event"",""trial"",""time""
""fullscreenenter"",""0"",""2419""
","
","null","<p></p>","null","","","","","","","","","","","","","","","","","","","","","","","",""
"","do_trial","104","342242","0.0-61.0-0.0","""event"",""trial"",""time""
""fullscreenenter"",""0"",""2419""
","
","
","""event"",""trial"",""time""
""fullscreenenter"",""0"",""2419""
","
","327.80000001192093","","","","","","","","50","0,0,0","6","blank","272","null","0.07095349858790362","0.5398345261861732","0.103183849009984","0","","","","","","","","",""
"","html-keyboard-response","105","343244","0.0-61.0-1.0","""event"",""trial"",""time""
""fullscreenenter"",""0"",""2419""
","
","
","""event"",""trial"",""time""
""fullscreenenter"",""0"",""2419""
","
","null","<p></p>","null","","","","","","","","","","","","","","","","","","","","","","","",""
"","do_trial","106","346092","0.0-62.0-0.0","""event"",""trial"",""time""
""fullscreenenter"",""0"",""2419""
","
","
","""event"",""trial"",""time""
""fullscreenenter"",""0"",""2419""
","
","310.80000001192093","","","","","","","","50","0,1,0","6","blank","273","null","0.11542301667727571","0.621907138990083","0.11331709989945665","1","","","","","","","","",""
"","html-keyboard-response","107","347095","0.0-62.0-1.0","""event"",""trial"",""time""
""fullscreenenter"",""0"",""2419""
","
","
","""event"",""trial"",""time""
""fullscreenenter"",""0"",""2419""
","
","null","<p></p>","null","","","","","","","","","","","","","","","","","","","","","","","",""
"","do_trial","108","349982","0.0-63.0-0.0","""event"",""trial"",""time""
""fullscreenenter"",""0"",""2419""
","
","
","""event"",""trial"",""time""
""fullscreenenter"",""0"",""2419""
","
","318.69999998807907","","","","","","","","50","0,0,0","6","blank","274","null","0.06660218916280979","0.5601928502275346","0.20329533370929273","0","","","","","","","","",""
"","html-keyboard-response","109","350986","0.0-63.0-1.0","""event"",""trial"",""time""
""fullscreenenter"",""0"",""2419""
","
","
","""event"",""trial"",""time""
""fullscreenenter"",""0"",""2419""
","
","null","<p></p>","null","","","","","","","","","","","","","","","","","","","","","","","",""
"","do_recog","110","354372","0.0-64.0-0.0","""event"",""trial"",""time""
""fullscreenenter"",""0"",""2419""
","
","
","""event"",""trial"",""time""
""fullscreenenter"",""0"",""2419""
","
","1880.1000000238419","","","","","","","","55","","","","275","probe-234","","","","","0","[object Object]","null","null","1","","","",""
"","html-keyboard-response","111","355375","0.0-64.0-1.0","""event"",""trial"",""time""
""fullscreenenter"",""0"",""2419""
","
","
","""event"",""trial"",""time""
""fullscreenenter"",""0"",""2419""
","
","null","<p></p>","null","","","","","","","","","","","","","","","","","","","","","","","",""
"","do_trial","112","358343","0.0-65.0-0.0","""event"",""trial"",""time""
""fullscreenenter"",""0"",""2419""
","
","
","""event"",""trial"",""time""
""fullscreenenter"",""0"",""2419""
","
","416.5999999642372","","","","","","","","50","0,1,0","6","blank","276","null","0.08654447922341206","0.4852576302685413","0.3384360716330875","1","","","","","","","","",""
"","html-keyboard-response","113","359347","0.0-65.0-1.0","""event"",""trial"",""time""
""fullscreenenter"",""0"",""2419""
","
","
","""event"",""trial"",""time""
""fullscreenenter"",""0"",""2419""
","
","null","<p></p>","null","","","","","","","","","","","","","","","","","","","","","","","",""
"","do_trial","114","362200","0.0-66.0-0.0","""event"",""trial"",""time""
""fullscreenenter"",""0"",""2419""
","
","
","""event"",""trial"",""time""
""fullscreenenter"",""0"",""2419""
","
","290.10000002384186","","","","","","","","50","0,1,0","6","blank","277","null","0.13705162849597552","0.6680678596093336","0.2571452552490661","1","","","","","","","","",""
"","html-keyboard-response","115","363204","0.0-66.0-1.0","""event"",""trial"",""time""
""fullscreenenter"",""0"",""2419""
","
","
","""event"",""trial"",""time""
""fullscreenenter"",""0"",""2419""
","
","null","<p></p>","null","","","","","","","","","","","","","","","","","","","","","","","",""
"","do_trial","116","366155","0.0-67.0-0.0","""event"",""trial"",""time""
""fullscreenenter"",""0"",""2419""
","
","
","""event"",""trial"",""time""
""fullscreenenter"",""0"",""2419""
","
","392.19999998807907","","","","","","","","50","1,1,0","6","blank","278","null","0.06587471607747847","0.636161756245773","0.3153514884813079","1","","","","","","","","",""
"","html-keyboard-response","117","367158","0.0-67.0-1.0","""event"",""trial"",""time""
""fullscreenenter"",""0"",""2419""
","
","
","""event"",""trial"",""time""
""fullscreenenter"",""0"",""2419""
","
","null","<p></p>","null","","","","","","","","","","","","","","","","","","","","","","","",""
"","do_trial","118","370027","0.0-68.0-0.0","""event"",""trial"",""time""
""fullscreenenter"",""0"",""2419""
","
","
","""event"",""trial"",""time""
""fullscreenenter"",""0"",""2419""
","
","309.60000002384186","","","","","","","","50","0,1,0","6","blank","279","null","0.11684839142464631","0.7073890521949646","0.26580847389061796","1","","","","","","","","",""
"","html-keyboard-response","119","371030","0.0-68.0-1.0","""event"",""trial"",""time""
""fullscreenenter"",""0"",""2419""
","
","
","""event"",""trial"",""time""
""fullscreenenter"",""0"",""2419""
","
","null","<p></p>","null","","","","","","","","","","","","","","","","","","","","","","","",""
"","do_trial","120","373950","0.0-69.0-0.0","""event"",""trial"",""time""
""fullscreenenter"",""0"",""2419""
","
","
","""event"",""trial"",""time""
""fullscreenenter"",""0"",""2419""
","
","355.2000000476837","","","","","","","","50","0,1,0","6","blank","280","null","0.16096702436881585","0.6978584788339263","0.2034978455021448","1","","","","","","","","",""
"","html-keyboard-response","121","374953","0.0-69.0-1.0","""event"",""trial"",""time""
""fullscreenenter"",""0"",""2419""
","
","
","""event"",""trial"",""time""
""fullscreenenter"",""0"",""2419""
","
","null","<p></p>","null","","","","","","","","","","","","","","","","","","","","","","","",""
"","do_recog","122","377797","0.0-70.0-0.0","""event"",""trial"",""time""
""fullscreenenter"",""0"",""2419""
","
","
","""event"",""trial"",""time""
""fullscreenenter"",""0"",""2419""
","
","1328.9000000357628","","","","","","","","55","","","","281","probe-125","","","","","1","[object Object]","118","2","0","","","",""
"","html-keyboard-response","123","378800","0.0-70.0-1.0","""event"",""trial"",""time""
""fullscreenenter"",""0"",""2419""
","
","
","""event"",""trial"",""time""
""fullscreenenter"",""0"",""2419""
","
","null","<p></p>","null","","","","","","","","","","","","","","","","","","","","","","","",""
"","do_trial","124","381771","0.0-71.0-0.0","""event"",""trial"",""time""
""fullscreenenter"",""0"",""2419""
","
","
","""event"",""trial"",""time""
""fullscreenenter"",""0"",""2419""
","
","415.5","","","","","","","","50","0,1,0","6","blank","282","null","0.140684796724189","0.4759746594738285","0.1548244950613493","1","","","","","","","","",""
"","html-keyboard-response","125","382775","0.0-71.0-1.0","""event"",""trial"",""time""
""fullscreenenter"",""0"",""2419""
","
","
","""event"",""trial"",""time""
""fullscreenenter"",""0"",""2419""
","
","null","<p></p>","null","","","","","","","","","","","","","","","","","","","","","","","",""
"","do_recog","126","385782","0.0-72.0-0.0","""event"",""trial"",""time""
""fullscreenenter"",""0"",""2419""
","
","
","""event"",""trial"",""time""
""fullscreenenter"",""0"",""2419""
","
","1492.1000000238419","","","","","","","","55","","","","283","probe-255","","","","","0","[object Object]","null","null","1","","","",""
"","html-keyboard-response","127","386785","0.0-72.0-1.0","""event"",""trial"",""time""
""fullscreenenter"",""0"",""2419""
","
","
","""event"",""trial"",""time""
""fullscreenenter"",""0"",""2419""
","
","null","<p></p>","null","","","","","","","","","","","","","","","","","","","","","","","",""
"","do_trial","128","389710","0.0-73.0-0.0","""event"",""trial"",""time""
""fullscreenenter"",""0"",""2419""
","
","
","""event"",""trial"",""time""
""fullscreenenter"",""0"",""2419""
","
","363.5","","","","","","","","50","1,0,0","6","blank","284","null","0.2186690213137874","0.637308816592147","0.24205208869106581","0","","","","","","","","",""
"","html-keyboard-response","129","390713","0.0-73.0-1.0","""event"",""trial"",""time""
""fullscreenenter"",""0"",""2419""
","
","
","""event"",""trial"",""time""
""fullscreenenter"",""0"",""2419""
","
","null","<p></p>","null","","","","","","","","","","","","","","","","","","","","","","","",""
"","do_trial","130","393567","0.0-74.0-0.0","""event"",""trial"",""time""
""fullscreenenter"",""0"",""2419""
","
","
","""event"",""trial"",""time""
""fullscreenenter"",""0"",""2419""
","
","295.19999998807907","","","","","","","","50","0,1,0","6","blank","285","null","0.061215856910911734","0.6166244332079323","0.3485782560254713","1","","","","","","","","",""
"","html-keyboard-response","131","394571","0.0-74.0-1.0","""event"",""trial"",""time""
""fullscreenenter"",""0"",""2419""
","
","
","""event"",""trial"",""time""
""fullscreenenter"",""0"",""2419""
","
","null","<p></p>","null","","","","","","","","","","","","","","","","","","","","","","","",""
"","do_trial","132","397419","0.0-75.0-0.0","""event"",""trial"",""time""
""fullscreenenter"",""0"",""2419""
","
","
","""event"",""trial"",""time""
""fullscreenenter"",""0"",""2419""
","
","284.80000001192093","","","","","","","","50","0,1,0","6","blank","286","null","0.09667420880423633","0.6097846167247731","0.3704578418281338","1","","","","","","","","",""
"","html-keyboard-response","133","398423","0.0-75.0-1.0","""event"",""trial"",""time""
""fullscreenenter"",""0"",""2419""
","
","
","""event"",""trial"",""time""
""fullscreenenter"",""0"",""2419""
","
","null","<p></p>","null","","","","","","","","","","","","","","","","","","","","","","","",""
"","do_trial","134","401243","0.0-76.0-0.0","""event"",""trial"",""time""
""fullscreenenter"",""0"",""2419""
","
","
","""event"",""trial"",""time""
""fullscreenenter"",""0"",""2419""
","
","260.9000000357628","","","","","","","","50","0,1,0","6","blank","287","null","0.10249686244297081","0.6029075781802284","0.33063185097533376","1","","","","","","","","",""
"","html-keyboard-response","135","402245","0.0-76.0-1.0","""event"",""trial"",""time""
""fullscreenenter"",""0"",""2419""
","
","
","""event"",""trial"",""time""
""fullscreenenter"",""0"",""2419""
","
","null","<p></p>","null","","","","","","","","","","","","","","","","","","","","","","","",""
"","do_trial","136","405107","0.0-77.0-0.0","""event"",""trial"",""time""
""fullscreenenter"",""0"",""2419""
","
","
","""event"",""trial"",""time""
""fullscreenenter"",""0"",""2419""
","
","322.4000000357628","","","","","","","","50","0,0,0","6","blank","288","null","0.05083342329014527","0.43996348370792804","0.3851493104591519","0","","","","","","","","",""
"","html-keyboard-response","137","406110","0.0-77.0-1.0","""event"",""trial"",""time""
""fullscreenenter"",""0"",""2419""
","
","
","""event"",""trial"",""time""
""fullscreenenter"",""0"",""2419""
","
","null","<p></p>","null","","","","","","","","","","","","","","","","","","","","","","","",""
"","do_trial","138","408949","0.0-78.0-0.0","""event"",""trial"",""time""
""fullscreenenter"",""0"",""2419""
","
","
","""event"",""trial"",""time""
""fullscreenenter"",""0"",""2419""
","
","283.0999999642372","","","","","","","","50","0,0,1","6","blank","289","null","0.27908125059895406","0.5037241573598882","0.384485546817523","0","","","","","","","","",""
"","html-keyboard-response","139","409952","0.0-78.0-1.0","""event"",""trial"",""time""
""fullscreenenter"",""0"",""2419""
","
","
","""event"",""trial"",""time""
""fullscreenenter"",""0"",""2419""
","
","null","<p></p>","null","","","","","","","","","","","","","","","","","","","","","","","",""
"","do_recog","140","413309","0.0-79.0-0.0","""event"",""trial"",""time""
""fullscreenenter"",""0"",""2419""
","
","
","""event"",""trial"",""time""
""fullscreenenter"",""0"",""2419""
","
","1849.9000000357628","","","","","","","","54","","","","290","probe-67","","","","","1","[object Object]","156","3","1","","","",""
"","html-keyboard-response","141","414312","0.0-79.0-1.0","""event"",""trial"",""time""
""fullscreenenter"",""0"",""2419""
","
","
","""event"",""trial"",""time""
""fullscreenenter"",""0"",""2419""
","
","null","<p></p>","null","","","","","","","","","","","","","","","","","","","","","","","",""
"","do_trial","142","417264","0.0-80.0-0.0","""event"",""trial"",""time""
""fullscreenenter"",""0"",""2419""
","
","
","""event"",""trial"",""time""
""fullscreenenter"",""0"",""2419""
","
","394.10000002384186","","","","","","","","50","0,0,0","6","blank","291","null","0.29583555929081273","0.4059318542971271","0.47372705153777867","0","","","","","","","","",""
"","html-keyboard-response","143","418267","0.0-80.0-1.0","""event"",""trial"",""time""
""fullscreenenter"",""0"",""2419""
","
","
","""event"",""trial"",""time""
""fullscreenenter"",""0"",""2419""
","
","null","<p></p>","null","","","","","","","","","","","","","","","","","","","","","","","",""
"","do_trial","144","421043","0.0-81.0-0.0","""event"",""trial"",""time""
""fullscreenenter"",""0"",""2419""
","
","
","""event"",""trial"",""time""
""fullscreenenter"",""0"",""2419""
","
","219.5","","","","","","","","50","0,0,0","6","blank","292","null","0.1871853457406097","0.46255354553619327","0.5220638060554781","0","","","","","","","","",""
"","html-keyboard-response","145","422046","0.0-81.0-1.0","""event"",""trial"",""time""
""fullscreenenter"",""0"",""2419""
","
","
","""event"",""trial"",""time""
""fullscreenenter"",""0"",""2419""
","
","null","<p></p>","null","","","","","","","","","","","","","","","","","","","","","","","",""
"","do_trial","146","424945","0.0-82.0-0.0","""event"",""trial"",""time""
""fullscreenenter"",""0"",""2419""
","
","
","""event"",""trial"",""time""
""fullscreenenter"",""0"",""2419""
","
","342.89999997615814","","","","","","","","50","0,0,1","6","blank","293","null","0.30638225203756875","0.4000148437375883","0.5183558244363862","0","","","","","","","","",""
"","html-keyboard-response","147","425948","0.0-82.0-1.0","""event"",""trial"",""time""
""fullscreenenter"",""0"",""2419""
","
","
","""event"",""trial"",""time""
""fullscreenenter"",""0"",""2419""
","
","null","<p></p>","null","","","","","","","","","","","","","","","","","","","","","","","",""
"","do_trial","148","428727","0.0-83.0-0.0","""event"",""trial"",""time""
""fullscreenenter"",""0"",""2419""
","
","
","""event"",""trial"",""time""
""fullscreenenter"",""0"",""2419""
","
","238.69999998807907","","","","","","","","50","0,0,1","6","blank","294","null","0.270874573743951","0.3480339164786084","0.6117035274519473","0","","","","","","","","",""
"","html-keyboard-response","149","429730","0.0-83.0-1.0","""event"",""trial"",""time""
""fullscreenenter"",""0"",""2419""
","
","
","""event"",""trial"",""time""
""fullscreenenter"",""0"",""2419""
","
","null","<p></p>","null","","","","","","","","","","","","","","","","","","","","","","","",""
"","do_recog","150","432912","0.0-84.0-0.0","""event"",""trial"",""time""
""fullscreenenter"",""0"",""2419""
","
","
","""event"",""trial"",""time""
""fullscreenenter"",""0"",""2419""
","
","1669","","","","","","","","54","","","","295","probe-180","","","","","1","[object Object]","196","4","1","","","",""
"","html-keyboard-response","151","433916","0.0-84.0-1.0","""event"",""trial"",""time""
""fullscreenenter"",""0"",""2419""
","
","
","""event"",""trial"",""time""
""fullscreenenter"",""0"",""2419""
","
","null","<p></p>","null","","","","","","","","","","","","","","","","","","","","","","","",""
"","do_trial","152","437152","0.0-85.0-0.0","""event"",""trial"",""time""
""fullscreenenter"",""0"",""2419""
","
","
","""event"",""trial"",""time""
""fullscreenenter"",""0"",""2419""
","
","675.6999999880791","","","","","","","","50","0,0,0","6","blank","296","null","0.19203862784568088","0.29025668825697587","0.648262430266892","0","","","","","","","","",""
"","html-keyboard-response","153","438154","0.0-85.0-1.0","""event"",""trial"",""time""
""fullscreenenter"",""0"",""2419""
","
","
","""event"",""trial"",""time""
""fullscreenenter"",""0"",""2419""
","
","null","<p></p>","null","","","","","","","","","","","","","","","","","","","","","","","",""
"","do_recog","154","441461","0.0-86.0-0.0","""event"",""trial"",""time""
""fullscreenenter"",""0"",""2419""
","
","
","""event"",""trial"",""time""
""fullscreenenter"",""0"",""2419""
","
","1793.199999988079","","","","","","","","55","","","","297","probe-218","","","","","1","[object Object]","151","3","0","","","",""
"","html-keyboard-response","155","442464","0.0-86.0-1.0","""event"",""trial"",""time""
""fullscreenenter"",""0"",""2419""
","
","
","""event"",""trial"",""time""
""fullscreenenter"",""0"",""2419""
","
","null","<p></p>","null","","","","","","","","","","","","","","","","","","","","","","","",""
"","do_trial","156","445969","0.0-87.0-0.0","""event"",""trial"",""time""
""fullscreenenter"",""0"",""2419""
","
","
","""event"",""trial"",""time""
""fullscreenenter"",""0"",""2419""
","
","945.3999999761581","","","","","","","","49","0,0,0","6","blank","298","null","0.1506002023333403","0.279623046940161","0.5791841020455945","0","","","","","","","","",""
"","html-keyboard-response","157","446971","0.0-87.0-1.0","""event"",""trial"",""time""
""fullscreenenter"",""0"",""2419""
","
","
","""event"",""trial"",""time""
""fullscreenenter"",""0"",""2419""
","
","null","<p></p>","null","","","","","","","","","","","","","","","","","","","","","","","",""
"","do_recog","158","450129","0.0-88.0-0.0","""event"",""trial"",""time""
""fullscreenenter"",""0"",""2419""
","
","
","""event"",""trial"",""time""
""fullscreenenter"",""0"",""2419""
","
","1643.9000000357628","","","","","","","","54","","","","299","probe-111","","","","","1","[object Object]","35","0","1","","","",""
"","html-keyboard-response","159","451133","0.0-88.0-1.0","""event"",""trial"",""time""
""fullscreenenter"",""0"",""2419""
","
","
","""event"",""trial"",""time""
""fullscreenenter"",""0"",""2419""
","
","null","<p></p>","null","","","","","","","","","","","","","","","","","","","","","","","",""
"","do_trial","160","454144","0.0-89.0-0.0","""event"",""trial"",""time""
""fullscreenenter"",""0"",""2419""
","
","
","""event"",""trial"",""time""
""fullscreenenter"",""0"",""2419""
","
","452.69999998807907","","","","","","","","49","0,0,1","6","blank","300","null","0.11717304993807767","0.30526267979637256","0.6479982474956354","0","","","","","","","","",""
"","html-keyboard-response","161","455147","0.0-89.0-1.0","""event"",""trial"",""time""
""fullscreenenter"",""0"",""2419""
","
","
","""event"",""trial"",""time""
""fullscreenenter"",""0"",""2419""
","
","null","<p></p>","null","","","","","","","","","","","","","","","","","","","","","","","",""
"","do_recog","162","458422","0.0-90.0-0.0","""event"",""trial"",""time""
""fullscreenenter"",""0"",""2419""
","
","
","""event"",""trial"",""time""
""fullscreenenter"",""0"",""2419""
","
","1764.699999988079","","","","","","","","53","","","","301","probe-108","","","","","1","[object Object]","119","2","1","","","",""
"","html-keyboard-response","163","459425","0.0-90.0-1.0","""event"",""trial"",""time""
""fullscreenenter"",""0"",""2419""
","
","
","""event"",""trial"",""time""
""fullscreenenter"",""0"",""2419""
","
","null","<p></p>","null","","","","","","","","","","","","","","","","","","","","","","","",""
"","do_trial","164","462716","0.0-91.0-0.0","""event"",""trial"",""time""
""fullscreenenter"",""0"",""2419""
","
","
","""event"",""trial"",""time""
""fullscreenenter"",""0"",""2419""
","
","725.3999999761581","","","","","","","","49","0,0,1","6","blank","302","null","0.07595155109367319","0.25796048327502114","0.6826416625875112","0","","","","","","","","",""
"","html-keyboard-response","165","463725","0.0-91.0-1.0","""event"",""trial"",""time""
""fullscreenenter"",""0"",""2419""
","
","
","""event"",""trial"",""time""
""fullscreenenter"",""0"",""2419""
","
","null","<p></p>","null","","","","","","","","","","","","","","","","","","","","","","","",""
"","do_trial","166","467228","0.0-92.0-0.0","""event"",""trial"",""time""
""fullscreenenter"",""0"",""2419""
","
","
","""event"",""trial"",""time""
""fullscreenenter"",""0"",""2419""
","
","943.8000000119209","","","","","","","","51","0,0,0","6","blank","303","null","0.21030456775697218","0.12657843529748616","0.6823502085372501","0","","","","","","","","",""
"","html-keyboard-response","167","468231","0.0-92.0-1.0","""event"",""trial"",""time""
""fullscreenenter"",""0"",""2419""
","
","
","""event"",""trial"",""time""
""fullscreenenter"",""0"",""2419""
","
","null","<p></p>","null","","","","","","","","","","","","","","","","","","","","","","","",""
"","do_trial","168","471251","0.0-93.0-0.0","""event"",""trial"",""time""
""fullscreenenter"",""0"",""2419""
","
","
","""event"",""trial"",""time""
""fullscreenenter"",""0"",""2419""
","
","481.9000000357628","","","","","","","","51","0,1,0","6","blank","304","null","0.06943395663500068","0.27733816155922864","0.6392454115211786","0","","","","","","","","",""
"","html-keyboard-response","169","472257","0.0-93.0-1.0","""event"",""trial"",""time""
""fullscreenenter"",""0"",""2419""
","
","
","""event"",""trial"",""time""
""fullscreenenter"",""0"",""2419""
","
","null","<p></p>","null","","","","","","","","","","","","","","","","","","","","","","","",""
"","do_trial","170","475074","0.0-94.0-0.0","""event"",""trial"",""time""
""fullscreenenter"",""0"",""2419""
","
","
","""event"",""trial"",""time""
""fullscreenenter"",""0"",""2419""
","
","262.19999998807907","","","","","","","","50","0,0,0","6","blank","305","null","0.23260357726318276","0.3271089871040303","0.7469515671300593","0","","","","","","","","",""
"","html-keyboard-response","171","476076","0.0-94.0-1.0","""event"",""trial"",""time""
""fullscreenenter"",""0"",""2419""
","
","
","""event"",""trial"",""time""
""fullscreenenter"",""0"",""2419""
","
","null","<p></p>","null","","","","","","","","","","","","","","","","","","","","","","","",""
"","do_trial","172","478922","0.0-95.0-0.0","""event"",""trial"",""time""
""fullscreenenter"",""0"",""2419""
","
","
","""event"",""trial"",""time""
""fullscreenenter"",""0"",""2419""
","
","307.60000002384186","","","","","","","","50","0,1,0","6","blank","306","null","0.20220359379586617","0.31796823324296514","0.7005692493206557","1","","","","","","","","",""
"","html-keyboard-response","173","479925","0.0-95.0-1.0","""event"",""trial"",""time""
""fullscreenenter"",""0"",""2419""
","
","
","""event"",""trial"",""time""
""fullscreenenter"",""0"",""2419""
","
","null","<p></p>","null","","","","","","","","","","","","","","","","","","","","","","","",""
"","do_recog","174","483154","0.0-96.0-0.0","""event"",""trial"",""time""
""fullscreenenter"",""0"",""2419""
","
","
","""event"",""trial"",""time""
""fullscreenenter"",""0"",""2419""
","
","1700.6000000238419","","","","","","","","53","","","","307","probe-65","","","","","1","[object Object]","190","4","1","","","",""
"","html-keyboard-response","175","484157","0.0-96.0-1.0","""event"",""trial"",""time""
""fullscreenenter"",""0"",""2419""
","
","
","""event"",""trial"",""time""
""fullscreenenter"",""0"",""2419""
","
","null","<p></p>","null","","","","","","","","","","","","","","","","","","","","","","","",""
"","do_trial","176","487134","0.0-97.0-0.0","""event"",""trial"",""time""
""fullscreenenter"",""0"",""2419""
","
","
","""event"",""trial"",""time""
""fullscreenenter"",""0"",""2419""
","
","419.30000001192093","","","","","","","","50","0,0,1","6","blank","308","null","0.11085113245893322","0.19051956416239793","0.886560190549064","0","","","","","","","","",""
"","html-keyboard-response","177","488136","0.0-97.0-1.0","""event"",""trial"",""time""
""fullscreenenter"",""0"",""2419""
","
","
","""event"",""trial"",""time""
""fullscreenenter"",""0"",""2419""
","
","null","<p></p>","null","","","","","","","","","","","","","","","","","","","","","","","",""
"","break","178","497427","0.0-98.0-0.0","""event"",""trial"",""time""
""fullscreenenter"",""0"",""2419""
","
","
","""event"",""trial"",""time""
""fullscreenenter"",""0"",""2419""
","
","9288.400000035763","<div class='center'><p>Time to take a quick break! You have 2 minutes to rest, but you can move on sooner if you'd like.</p><p> Press the <b>space bar</b> to continue.</p></div>","32","","","","","","","","","","","","","","","","","","","","","","","",""
"","do_trial","179","500845","0.0-98.0-1.0","""event"",""trial"",""time""
""fullscreenenter"",""0"",""2419""
","
","
","""event"",""trial"",""time""
""fullscreenenter"",""0"",""2419""
","
","859","","","","","","","","50","1,0,1","6","blank","309","null","0.06479441558033183","0.2742491830510625","0.8111560928377142","0","","","","","","","","",""
"","html-keyboard-response","180","501848","0.0-98.0-2.0","""event"",""trial"",""time""
""fullscreenenter"",""0"",""2419""
","
","
","""event"",""trial"",""time""
""fullscreenenter"",""0"",""2419""
","
","null","<p></p>","null","","","","","","","","","","","","","","","","","","","","","","","",""
"","do_trial","181","504731","0.0-99.0-0.0","""event"",""trial"",""time""
""fullscreenenter"",""0"",""2419""
","
","
","""event"",""trial"",""time""
""fullscreenenter"",""0"",""2419""
","
","299.89999997615814","","","","","","","","50","0,0,1","6","blank","310","null","0.10411918581931932","0.2949220806977418","0.7495910607437262","0","","","","","","","","",""
"","html-keyboard-response","182","505737","0.0-99.0-1.0","""event"",""trial"",""time""
""fullscreenenter"",""0"",""2419""
","
","
","""event"",""trial"",""time""
""fullscreenenter"",""0"",""2419""
","
","null","<p></p>","null","","","","","","","","","","","","","","","","","","","","","","","",""
"","do_recog","183","508925","0.0-100.0-0.0","""event"",""trial"",""time""
""fullscreenenter"",""0"",""2419""
","
","
","""event"",""trial"",""time""
""fullscreenenter"",""0"",""2419""
","
","1675.3999999761581","","","","","","","","55","","","","311","probe-37","","","","","1","[object Object]","79","1","0","","","",""
"","html-keyboard-response","184","509926","0.0-100.0-1.0","""event"",""trial"",""time""
""fullscreenenter"",""0"",""2419""
","
","
","""event"",""trial"",""time""
""fullscreenenter"",""0"",""2419""
","
","null","<p></p>","null","","","","","","","","","","","","","","","","","","","","","","","",""
"","do_trial","185","512790","0.0-101.0-0.0","""event"",""trial"",""time""
""fullscreenenter"",""0"",""2419""
","
","
","""event"",""trial"",""time""
""fullscreenenter"",""0"",""2419""
","
","309","","","","","","","","50","0,0,1","6","blank","312","null","0.06770508954201387","0.22408680592238422","0.6926020328953636","0","","","","","","","","",""
"","html-keyboard-response","186","513794","0.0-101.0-1.0","""event"",""trial"",""time""
""fullscreenenter"",""0"",""2419""
","
","
","""event"",""trial"",""time""
""fullscreenenter"",""0"",""2419""
","
","null","<p></p>","null","","","","","","","","","","","","","","","","","","","","","","","",""
"","do_trial","187","516703","0.0-102.0-0.0","""event"",""trial"",""time""
""fullscreenenter"",""0"",""2419""
","
","
","""event"",""trial"",""time""
""fullscreenenter"",""0"",""2419""
","
","370.80000001192093","","","","","","","","50","0,0,1","6","blank","313","null","0.11266307737260255","0.10005325187771996","0.5551701690894787","0","","","","","","","","",""
"","html-keyboard-response","188","517707","0.0-102.0-1.0","""event"",""trial"",""time""
""fullscreenenter"",""0"",""2419""
","
","
","""event"",""trial"",""time""
""fullscreenenter"",""0"",""2419""
","
","null","<p></p>","null","","","","","","","","","","","","","","","","","","","","","","","",""
"","do_trial","189","520558","0.0-103.0-0.0","""event"",""trial"",""time""
""fullscreenenter"",""0"",""2419""
","
","
","""event"",""trial"",""time""
""fullscreenenter"",""0"",""2419""
","
","293.69999998807907","","","","","","","","50","0,0,1","6","blank","314","null","0.1000489319515812","0.05164708125199752","0.5953318238016693","0","","","","","","","","",""
"","html-keyboard-response","190","521561","0.0-103.0-1.0","""event"",""trial"",""time""
""fullscreenenter"",""0"",""2419""
","
","
","""event"",""trial"",""time""
""fullscreenenter"",""0"",""2419""
","
","null","<p></p>","null","","","","","","","","","","","","","","","","","","","","","","","",""
"","do_trial","191","524394","0.0-104.0-0.0","""event"",""trial"",""time""
""fullscreenenter"",""0"",""2419""
","
","
","""event"",""trial"",""time""
""fullscreenenter"",""0"",""2419""
","
","267.80000001192093","","","","","","","","50","0,0,1","6","blank","315","null","0.08818828034146423","0.256768093299873","0.677649221196459","0","","","","","","","","",""
"","html-keyboard-response","192","525398","0.0-104.0-1.0","""event"",""trial"",""time""
""fullscreenenter"",""0"",""2419""
","
","
","""event"",""trial"",""time""
""fullscreenenter"",""0"",""2419""
","
","null","<p></p>","null","","","","","","","","","","","","","","","","","","","","","","","",""
"","do_recog","193","528791","0.0-105.0-0.0","""event"",""trial"",""time""
""fullscreenenter"",""0"",""2419""
","
","
","""event"",""trial"",""time""
""fullscreenenter"",""0"",""2419""
","
","1885.3999999761581","","","","","","","","54","","","","316","probe-202","","","","","1","[object Object]","31","0","1","","","",""
"","html-keyboard-response","194","529795","0.0-105.0-1.0","""event"",""trial"",""time""
""fullscreenenter"",""0"",""2419""
","
","
","""event"",""trial"",""time""
""fullscreenenter"",""0"",""2419""
","
","null","<p></p>","null","","","","","","","","","","","","","","","","","","","","","","","",""
"","do_trial","195","532754","0.0-106.0-0.0","""event"",""trial"",""time""
""fullscreenenter"",""0"",""2419""
","
","
","""event"",""trial"",""time""
""fullscreenenter"",""0"",""2419""
","
","393.60000002384186","","","","","","","","51","0,0,1","6","blank","317","null","0.09447836383869328","0.26826073650388255","0.6039081716786435","1","","","","","","","","",""
"","html-keyboard-response","196","533755","0.0-106.0-1.0","""event"",""trial"",""time""
""fullscreenenter"",""0"",""2419""
","
","
","""event"",""trial"",""time""
""fullscreenenter"",""0"",""2419""
","
","null","<p></p>","null","","","","","","","","","","","","","","","","","","","","","","","",""
"","do_recog","197","536990","0.0-107.0-0.0","""event"",""trial"",""time""
""fullscreenenter"",""0"",""2419""
","
","
","""event"",""trial"",""time""
""fullscreenenter"",""0"",""2419""
","
","1729.8999999761581","","","","","","","","53","","","","318","probe-164","","","","","1","[object Object]","193","4","1","","","",""
"","html-keyboard-response","198","537995","0.0-107.0-1.0","""event"",""trial"",""time""
""fullscreenenter"",""0"",""2419""
","
","
","""event"",""trial"",""time""
""fullscreenenter"",""0"",""2419""
","
","null","<p></p>","null","","","","","","","","","","","","","","","","","","","","","","","",""
"","do_trial","199","540974","0.0-108.0-0.0","""event"",""trial"",""time""
""fullscreenenter"",""0"",""2419""
","
","
","""event"",""trial"",""time""
""fullscreenenter"",""0"",""2419""
","
","405.69999998807907","","","","","","","","51","0,0,1","6","blank","319","null","0.1974672836364603","0.2406389403501337","0.6128916886847552","1","","","","","","","","",""
"","html-keyboard-response","200","541976","0.0-108.0-1.0","""event"",""trial"",""time""
""fullscreenenter"",""0"",""2419""
","
","
","""event"",""trial"",""time""
""fullscreenenter"",""0"",""2419""
","
","null","<p></p>","null","","","","","","","","","","","","","","","","","","","","","","","",""
"","do_recog","201","544784","0.0-109.0-0.0","""event"",""trial"",""time""
""fullscreenenter"",""0"",""2419""
","
","
","""event"",""trial"",""time""
""fullscreenenter"",""0"",""2419""
","
","1293.4000000357628","","","","","","","","53","","","","320","probe-89","","","","","1","[object Object]","197","4","1","","","",""
"","html-keyboard-response","202","545786","0.0-109.0-1.0","""event"",""trial"",""time""
""fullscreenenter"",""0"",""2419""
","
","
","""event"",""trial"",""time""
""fullscreenenter"",""0"",""2419""
","
","null","<p></p>","null","","","","","","","","","","","","","","","","","","","","","","","",""
"","do_trial","203","548913","0.0-110.0-0.0","""event"",""trial"",""time""
""fullscreenenter"",""0"",""2419""
","
","
","""event"",""trial"",""time""
""fullscreenenter"",""0"",""2419""
","
","595.2999999523163","","","","","","","","51","0,1,1","6","blank","321","null","0.0862356275027531","0.26394553858075687","0.5379651727784996","1","","","","","","","","",""
"","html-keyboard-response","204","549915","0.0-110.0-1.0","""event"",""trial"",""time""
""fullscreenenter"",""0"",""2419""
","
","
","""event"",""trial"",""time""
""fullscreenenter"",""0"",""2419""
","
","null","<p></p>","null","","","","","","","","","","","","","","","","","","","","","","","",""
"","do_trial","205","552864","0.0-111.0-0.0","""event"",""trial"",""time""
""fullscreenenter"",""0"",""2419""
","
","
","""event"",""trial"",""time""
""fullscreenenter"",""0"",""2419""
","
","400.9000000357628","","","","","","","","51","0,0,0","6","blank","322","null","0.14806971770681293","0.2887678204333519","0.48290704718747074","0","","","","","","","","",""
"","html-keyboard-response","206","553879","0.0-111.0-1.0","""event"",""trial"",""time""
""fullscreenenter"",""0"",""2419""
","
","
","""event"",""trial"",""time""
""fullscreenenter"",""0"",""2419""
","
","null","<p></p>","null","","","","","","","","","","","","","","","","","","","","","","","",""
"","do_trial","207","556728","0.0-112.0-0.0","""event"",""trial"",""time""
""fullscreenenter"",""0"",""2419""
","
","
","""event"",""trial"",""time""
""fullscreenenter"",""0"",""2419""
","
","310.10000002384186","","","","","","","","51","1,0,0","6","blank","323","null","0.17421265217839413","0.3127464733429704","0.43187977280505574","0","","","","","","","","",""
"","html-keyboard-response","208","557730","0.0-112.0-1.0","""event"",""trial"",""time""
""fullscreenenter"",""0"",""2419""
","
","
","""event"",""trial"",""time""
""fullscreenenter"",""0"",""2419""
","
","null","<p></p>","null","","","","","","","","","","","","","","","","","","","","","","","",""
"","do_trial","209","560702","0.0-113.0-0.0","""event"",""trial"",""time""
""fullscreenenter"",""0"",""2419""
","
","
","""event"",""trial"",""time""
""fullscreenenter"",""0"",""2419""
","
","403","","","","","","","","51","0,0,0","6","blank","324","null","0.07941974850053647","0.35518685964777574","0.5689695638226331","0","","","","","","","","",""
"","html-keyboard-response","210","561705","0.0-113.0-1.0","""event"",""trial"",""time""
""fullscreenenter"",""0"",""2419""
","
","
","""event"",""trial"",""time""
""fullscreenenter"",""0"",""2419""
","
","null","<p></p>","null","","","","","","","","","","","","","","","","","","","","","","","",""
"","do_trial","211","564529","0.0-114.0-0.0","""event"",""trial"",""time""
""fullscreenenter"",""0"",""2419""
","
","
","""event"",""trial"",""time""
""fullscreenenter"",""0"",""2419""
","
","286.80000001192093","","","","","","","","50","0,0,0","6","blank","325","null","0.0667552860010163","0.21471229788352963","0.5094666009413445","0","","","","","","","","",""
"","html-keyboard-response","212","565533","0.0-114.0-1.0","""event"",""trial"",""time""
""fullscreenenter"",""0"",""2419""
","
","
","""event"",""trial"",""time""
""fullscreenenter"",""0"",""2419""
","
","null","<p></p>","null","","","","","","","","","","","","","","","","","","","","","","","",""
"","do_recog","213","568548","0.0-115.0-0.0","""event"",""trial"",""time""
""fullscreenenter"",""0"",""2419""
","
","
","""event"",""trial"",""time""
""fullscreenenter"",""0"",""2419""
","
","1492.800000011921","","","","","","","","54","","","","326","probe-114","","","","","1","[object Object]","38","0","1","","","",""
"","html-keyboard-response","214","569551","0.0-115.0-1.0","""event"",""trial"",""time""
""fullscreenenter"",""0"",""2419""
","
","
","""event"",""trial"",""time""
""fullscreenenter"",""0"",""2419""
","
","null","<p></p>","null","","","","","","","","","","","","","","","","","","","","","","","",""
"","do_trial","215","572473","0.0-116.0-0.0","""event"",""trial"",""time""
""fullscreenenter"",""0"",""2419""
","
","
","""event"",""trial"",""time""
""fullscreenenter"",""0"",""2419""
","
","386","","","","","","","","50","0,0,0","6","blank","327","null","0.07927412891670227","0.19351750744043877","0.5479588416899204","0","","","","","","","","",""
"","html-keyboard-response","216","573474","0.0-116.0-1.0","""event"",""trial"",""time""
""fullscreenenter"",""0"",""2419""
","
","
","""event"",""trial"",""time""
""fullscreenenter"",""0"",""2419""
","
","null","<p></p>","null","","","","","","","","","","","","","","","","","","","","","","","",""
"","do_trial","217","576327","0.0-117.0-0.0","""event"",""trial"",""time""
""fullscreenenter"",""0"",""2419""
","
","
","""event"",""trial"",""time""
""fullscreenenter"",""0"",""2419""
","
","315","","","","","","","","50","0,0,0","6","blank","328","null","0.10536844480019175","0.28194401778619943","0.5161792164570033","0","","","","","","","","",""
"","html-keyboard-response","218","577330","0.0-117.0-1.0","""event"",""trial"",""time""
""fullscreenenter"",""0"",""2419""
","
","
","""event"",""trial"",""time""
""fullscreenenter"",""0"",""2419""
","
","null","<p></p>","null","","","","","","","","","","","","","","","","","","","","","","","",""
"","do_trial","219","580189","0.0-118.0-0.0","""event"",""trial"",""time""
""fullscreenenter"",""0"",""2419""
","
","
","""event"",""trial"",""time""
""fullscreenenter"",""0"",""2419""
","
","292.80000001192093","","","","","","","","51","0,0,0","6","blank","329","null","0.1673236391348174","0.20319692816276153","0.579178292360526","0","","","","","","","","",""
"","html-keyboard-response","220","581192","0.0-118.0-1.0","""event"",""trial"",""time""
""fullscreenenter"",""0"",""2419""
","
","
","""event"",""trial"",""time""
""fullscreenenter"",""0"",""2419""
","
","null","<p></p>","null","","","","","","","","","","","","","","","","","","","","","","","",""
"","do_trial","221","584257","0.0-119.0-0.0","""event"",""trial"",""time""
""fullscreenenter"",""0"",""2419""
","
","
","""event"",""trial"",""time""
""fullscreenenter"",""0"",""2419""
","
","507","","","","","","","","49","0,0,0","6","blank","330","null","0.16532005244872075","0.2418086862612991","0.38109204633982374","0","","","","","","","","",""
"","html-keyboard-response","222","585260","0.0-119.0-1.0","""event"",""trial"",""time""
""fullscreenenter"",""0"",""2419""
","
","
","""event"",""trial"",""time""
""fullscreenenter"",""0"",""2419""
","
","null","<p></p>","null","","","","","","","","","","","","","","","","","","","","","","","",""
"","do_trial","223","588141","0.0-120.0-0.0","""event"",""trial"",""time""
""fullscreenenter"",""0"",""2419""
","
","
","""event"",""trial"",""time""
""fullscreenenter"",""0"",""2419""
","
","319.89999997615814","","","","","","","","49","0,1,1","6","blank","331","null","0.2454006524863054","0.18457121146338207","0.5950347624640641","0","","","","","","","","",""
"","html-keyboard-response","224","589144","0.0-120.0-1.0","""event"",""trial"",""time""
""fullscreenenter"",""0"",""2419""
","
","
","""event"",""trial"",""time""
""fullscreenenter"",""0"",""2419""
","
","null","<p></p>","null","","","","","","","","","","","","","","","","","","","","","","","",""
"","do_recog","225","592452","0.0-121.0-0.0","""event"",""trial"",""time""
""fullscreenenter"",""0"",""2419""
","
","
","""event"",""trial"",""time""
""fullscreenenter"",""0"",""2419""
","
","1795.3999999761581","","","","","","","","54","","","","332","probe-176","","","","","1","[object Object]","30","0","1","","","",""
"","html-keyboard-response","226","593455","0.0-121.0-1.0","""event"",""trial"",""time""
""fullscreenenter"",""0"",""2419""
","
","
","""event"",""trial"",""time""
""fullscreenenter"",""0"",""2419""
","
","null","<p></p>","null","","","","","","","","","","","","","","","","","","","","","","","",""
"","do_trial","227","596373","0.0-122.0-0.0","""event"",""trial"",""time""
""fullscreenenter"",""0"",""2419""
","
","
","""event"",""trial"",""time""
""fullscreenenter"",""0"",""2419""
","
","382.80000001192093","","","","","","","","49","0,0,0","6","blank","333","null","0.2300001877603608","0.23022885940117005","0.4444916752955021","0","","","","","","","","",""
"","html-keyboard-response","228","597376","0.0-122.0-1.0","""event"",""trial"",""time""
""fullscreenenter"",""0"",""2419""
","
","
","""event"",""trial"",""time""
""fullscreenenter"",""0"",""2419""
","
","null","<p></p>","null","","","","","","","","","","","","","","","","","","","","","","","",""
"","do_trial","229","600204","0.0-123.0-0.0","""event"",""trial"",""time""
""fullscreenenter"",""0"",""2419""
","
","
","""event"",""trial"",""time""
""fullscreenenter"",""0"",""2419""
","
","290","","","","","","","","50","0,0,0","6","blank","334","null","0.15870348350289007","0.25679298293448066","0.4353012793119632","0","","","","","","","","",""
"","html-keyboard-response","230","601208","0.0-123.0-1.0","""event"",""trial"",""time""
""fullscreenenter"",""0"",""2419""
","
","
","""event"",""trial"",""time""
""fullscreenenter"",""0"",""2419""
","
","null","<p></p>","null","","","","","","","","","","","","","","","","","","","","","","","",""
"","do_recog","231","604243","0.0-124.0-0.0","""event"",""trial"",""time""
""fullscreenenter"",""0"",""2419""
","
","
","""event"",""trial"",""time""
""fullscreenenter"",""0"",""2419""
","
","1521.199999988079","","","","","","","","53","","","","335","probe-55","","","","","1","[object Object]","191","4","1","","","",""
"","html-keyboard-response","232","605246","0.0-124.0-1.0","""event"",""trial"",""time""
""fullscreenenter"",""0"",""2419""
","
","
","""event"",""trial"",""time""
""fullscreenenter"",""0"",""2419""
","
","null","<p></p>","null","","","","","","","","","","","","","","","","","","","","","","","",""
"","do_trial","233","608165","0.0-125.0-0.0","""event"",""trial"",""time""
""fullscreenenter"",""0"",""2419""
","
","
","""event"",""trial"",""time""
""fullscreenenter"",""0"",""2419""
","
","362.2000000476837","","","","","","","","50","0,1,0","6","blank","336","null","0.08572467461769843","0.25815898503165785","0.5093140253705775","1","","","","","","","","",""
"","html-keyboard-response","234","609168","0.0-125.0-1.0","""event"",""trial"",""time""
""fullscreenenter"",""0"",""2419""
","
","
","""event"",""trial"",""time""
""fullscreenenter"",""0"",""2419""
","
","null","<p></p>","null","","","","","","","","","","","","","","","","","","","","","","","",""
"","do_trial","235","612116","0.0-126.0-0.0","""event"",""trial"",""time""
""fullscreenenter"",""0"",""2419""
","
","
","""event"",""trial"",""time""
""fullscreenenter"",""0"",""2419""
","
","390","","","","","","","","50","0,0,1","6","blank","337","null","0.15348913251600058","0.2595586231180815","0.48007308522983266","0","","","","","","","","",""
"","html-keyboard-response","236","613120","0.0-126.0-1.0","""event"",""trial"",""time""
""fullscreenenter"",""0"",""2419""
","
","
","""event"",""trial"",""time""
""fullscreenenter"",""0"",""2419""
","
","null","<p></p>","null","","","","","","","","","","","","","","","","","","","","","","","",""
"","do_trial","237","616014","0.0-127.0-0.0","""event"",""trial"",""time""
""fullscreenenter"",""0"",""2419""
","
","
","""event"",""trial"",""time""
""fullscreenenter"",""0"",""2419""
","
","335","","","","","","","","50","0,1,0","6","blank","338","null","0.18846701179911565","0.39625782432189127","0.6148955010378795","1","","","","","","","","",""
"","html-keyboard-response","238","617017","0.0-127.0-1.0","""event"",""trial"",""time""
""fullscreenenter"",""0"",""2419""
","
","
","""event"",""trial"",""time""
""fullscreenenter"",""0"",""2419""
","
","null","<p></p>","null","","","","","","","","","","","","","","","","","","","","","","","",""
"","do_trial","239","619917","0.0-128.0-0.0","""event"",""trial"",""time""
""fullscreenenter"",""0"",""2419""
","
","
","""event"",""trial"",""time""
""fullscreenenter"",""0"",""2419""
","
","360.7000000476837","","","","","","","","50","0,0,0","6","blank","339","null","0.15569647770717107","0.22650601737586723","0.5630685917284396","0","","","","","","","","",""
"","html-keyboard-response","240","620921","0.0-128.0-1.0","""event"",""trial"",""time""
""fullscreenenter"",""0"",""2419""
","
","
","""event"",""trial"",""time""
""fullscreenenter"",""0"",""2419""
","
","null","<p></p>","null","","","","","","","","","","","","","","","","","","","","","","","",""
"","do_trial","241","623791","0.0-129.0-0.0","""event"",""trial"",""time""
""fullscreenenter"",""0"",""2419""
","
","
","""event"",""trial"",""time""
""fullscreenenter"",""0"",""2419""
","
","307","","","","","","","","50","0,0,0","6","blank","340","null","0.13945004259258167","0.1397219562726085","0.5519154515199761","0","","","","","","","","",""
"","html-keyboard-response","242","624794","0.0-129.0-1.0","""event"",""trial"",""time""
""fullscreenenter"",""0"",""2419""
","
","
","""event"",""trial"",""time""
""fullscreenenter"",""0"",""2419""
","
","null","<p></p>","null","","","","","","","","","","","","","","","","","","","","","","","",""
"","do_recog","243","627984","0.0-130.0-0.0","""event"",""trial"",""time""
""fullscreenenter"",""0"",""2419""
","
","
","""event"",""trial"",""time""
""fullscreenenter"",""0"",""2419""
","
","1674.3999999761581","","","","","","","","54","","","","341","probe-30","","","","","1","[object Object]","159","3","1","","","",""
"","html-keyboard-response","244","628987","0.0-130.0-1.0","""event"",""trial"",""time""
""fullscreenenter"",""0"",""2419""
","
","
","""event"",""trial"",""time""
""fullscreenenter"",""0"",""2419""
","
","null","<p></p>","null","","","","","","","","","","","","","","","","","","","","","","","",""
"","do_trial","245","631823","0.0-131.0-0.0","""event"",""trial"",""time""
""fullscreenenter"",""0"",""2419""
","
","
","""event"",""trial"",""time""
""fullscreenenter"",""0"",""2419""
","
","296.5","","","","","","","","50","0,0,0","6","blank","342","null","0.06552701086330459","0.1755144973741396","0.484684217789781","0","","","","","","","","",""
"","html-keyboard-response","246","632826","0.0-131.0-1.0","""event"",""trial"",""time""
""fullscreenenter"",""0"",""2419""
","
","
","""event"",""trial"",""time""
""fullscreenenter"",""0"",""2419""
","
","null","<p></p>","null","","","","","","","","","","","","","","","","","","","","","","","",""
"","do_trial","247","635781","0.0-132.0-0.0","""event"",""trial"",""time""
""fullscreenenter"",""0"",""2419""
","
","
","""event"",""trial"",""time""
""fullscreenenter"",""0"",""2419""
","
","395.4000000357628","","","","","","","","50","0,0,1","6","blank","343","null","0.0864181608011103","0.15596218741200218","0.604313604967594","0","","","","","","","","",""
"","html-keyboard-response","248","636783","0.0-132.0-1.0","""event"",""trial"",""time""
""fullscreenenter"",""0"",""2419""
","
","
","""event"",""trial"",""time""
""fullscreenenter"",""0"",""2419""
","
","null","<p></p>","null","","","","","","","","","","","","","","","","","","","","","","","",""
"","do_trial","249","639646","0.0-133.0-0.0","""event"",""trial"",""time""
""fullscreenenter"",""0"",""2419""
","
","
","""event"",""trial"",""time""
""fullscreenenter"",""0"",""2419""
","
","306.19999998807907","","","","","","","","50","0,1,0","6","blank","344","null","0.21498458394096162","0.14833427797321044","0.6429058475222601","1","","","","","","","","",""
"","html-keyboard-response","250","640650","0.0-133.0-1.0","""event"",""trial"",""time""
""fullscreenenter"",""0"",""2419""
","
","
","""event"",""trial"",""time""
""fullscreenenter"",""0"",""2419""
","
","null","<p></p>","null","","","","","","","","","","","","","","","","","","","","","","","",""
"","do_trial","251","643464","0.0-134.0-0.0","""event"",""trial"",""time""
""fullscreenenter"",""0"",""2419""
","
","
","""event"",""trial"",""time""
""fullscreenenter"",""0"",""2419""
","
","271.39999997615814","","","","","","","","50","0,1,1","6","blank","345","null","0.14393587917973769","0.14343547601368425","0.5964743862266094","1","","","","","","","","",""
"","html-keyboard-response","252","644468","0.0-134.0-1.0","""event"",""trial"",""time""
""fullscreenenter"",""0"",""2419""
","
","
","""event"",""trial"",""time""
""fullscreenenter"",""0"",""2419""
","
","null","<p></p>","null","","","","","","","","","","","","","","","","","","","","","","","",""
"","do_trial","253","647383","0.0-135.0-0.0","""event"",""trial"",""time""
""fullscreenenter"",""0"",""2419""
","
","
","""event"",""trial"",""time""
""fullscreenenter"",""0"",""2419""
","
","365.2999999523163","","","","","","","","50","1,0,1","6","blank","346","null","0.2627801284431589","0.07872638947693687","0.4843122337536074","0","","","","","","","","",""
"","html-keyboard-response","254","648386","0.0-135.0-1.0","""event"",""trial"",""time""
""fullscreenenter"",""0"",""2419""
","
","
","""event"",""trial"",""time""
""fullscreenenter"",""0"",""2419""
","
","null","<p></p>","null","","","","","","","","","","","","","","","","","","","","","","","",""
"","do_trial","255","651280","0.0-136.0-0.0","""event"",""trial"",""time""
""fullscreenenter"",""0"",""2419""
","
","
","""event"",""trial"",""time""
""fullscreenenter"",""0"",""2419""
","
","342.5","","","","","","","","50","1,0,0","6","blank","347","null","0.46690930752756815","0.08708285734471131","0.23795568671866502","0","","","","","","","","",""
"","html-keyboard-response","256","652284","0.0-136.0-1.0","""event"",""trial"",""time""
""fullscreenenter"",""0"",""2419""
","
","
","""event"",""trial"",""time""
""fullscreenenter"",""0"",""2419""
","
","null","<p></p>","null","","","","","","","","","","","","","","","","","","","","","","","",""
"","do_recog","257","655310","0.0-137.0-0.0","""event"",""trial"",""time""
""fullscreenenter"",""0"",""2419""
","
","
","""event"",""trial"",""time""
""fullscreenenter"",""0"",""2419""
","
","1513.3999999761581","","","","","","","","53","","","","348","probe-93","","","","","1","[object Object]","77","1","1","","","",""
"","html-keyboard-response","258","656312","0.0-137.0-1.0","""event"",""trial"",""time""
""fullscreenenter"",""0"",""2419""
","
","
","""event"",""trial"",""time""
""fullscreenenter"",""0"",""2419""
","
","null","<p></p>","null","","","","","","","","","","","","","","","","","","","","","","","",""
"","break","259","683125","0.0-138.0-0.0","""event"",""trial"",""time""
""fullscreenenter"",""0"",""2419""
","
","
","""event"",""trial"",""time""
""fullscreenenter"",""0"",""2419""
","
","26811","<div class='center'><p>Time to take a quick break! You have 2 minutes to rest, but you can move on sooner if you'd like.</p><p> Press the <b>space bar</b> to continue.</p></div>","32","","","","","","","","","","","","","","","","","","","","","","","",""
"","do_trial","260","687041","0.0-138.0-1.0","""event"",""trial"",""time""
""fullscreenenter"",""0"",""2419""
","
","
","""event"",""trial"",""time""
""fullscreenenter"",""0"",""2419""
","
","1369.199999988079","","","","","","","","50","0,0,1","6","blank","349","null","0.5337767202647473","0.0553480951080473","0.317639075560809","0","","","","","","","","",""
"","html-keyboard-response","261","688044","0.0-138.0-2.0","""event"",""trial"",""time""
""fullscreenenter"",""0"",""2419""
","
","
","""event"",""trial"",""time""
""fullscreenenter"",""0"",""2419""
","
","null","<p></p>","null","","","","","","","","","","","","","","","","","","","","","","","",""
"","do_recog","262","691577","0.0-139.0-0.0","""event"",""trial"",""time""
""fullscreenenter"",""0"",""2419""
","
","
","""event"",""trial"",""time""
""fullscreenenter"",""0"",""2419""
","
","2019.6000000238419","","","","","","","","54","","","","350","probe-235","","","","","0","[object Object]","null","null","0","","","",""
"","html-keyboard-response","263","692581","0.0-139.0-1.0","""event"",""trial"",""time""
""fullscreenenter"",""0"",""2419""
","
","
","""event"",""trial"",""time""
""fullscreenenter"",""0"",""2419""
","
","null","<p></p>","null","","","","","","","","","","","","","","","","","","","","","","","",""
"","do_trial","264","695519","0.0-140.0-0.0","""event"",""trial"",""time""
""fullscreenenter"",""0"",""2419""
","
","
","""event"",""trial"",""time""
""fullscreenenter"",""0"",""2419""
","
","393.5","","","","","","","","50","0,0,0","6","blank","351","null","0.4978893095792424","0.13677780543147283","0.22955025561276932","0","","","","","","","","",""
"","html-keyboard-response","265","696522","0.0-140.0-1.0","""event"",""trial"",""time""
""fullscreenenter"",""0"",""2419""
","
","
","""event"",""trial"",""time""
""fullscreenenter"",""0"",""2419""
","
","null","<p></p>","null","","","","","","","","","","","","","","","","","","","","","","","",""
"","do_recog","266","699682","0.0-141.0-0.0","""event"",""trial"",""time""
""fullscreenenter"",""0"",""2419""
","
","
","""event"",""trial"",""time""
""fullscreenenter"",""0"",""2419""
","
","1652.7999999523163","","","","","","","","53","","","","352","probe-11","","","","","1","[object Object]","37","0","1","","","",""
"","html-keyboard-response","267","700683","0.0-141.0-1.0","""event"",""trial"",""time""
""fullscreenenter"",""0"",""2419""
","
","
","""event"",""trial"",""time""
""fullscreenenter"",""0"",""2419""
","
","null","<p></p>","null","","","","","","","","","","","","","","","","","","","","","","","",""
"","do_trial","268","703560","0.0-142.0-0.0","""event"",""trial"",""time""
""fullscreenenter"",""0"",""2419""
","
","
","""event"",""trial"",""time""
""fullscreenenter"",""0"",""2419""
","
","342.0999999642372","","","","","","","","50","0,0,0","6","blank","353","null","0.4265533702245843","0.1938770851246664","0.21695202254103246","0","","","","","","","","",""
"","html-keyboard-response","269","704563","0.0-142.0-1.0","""event"",""trial"",""time""
""fullscreenenter"",""0"",""2419""
","
","
","""event"",""trial"",""time""
""fullscreenenter"",""0"",""2419""
","
","null","<p></p>","null","","","","","","","","","","","","","","","","","","","","","","","",""
"","do_recog","270","707789","0.0-143.0-0.0","""event"",""trial"",""time""
""fullscreenenter"",""0"",""2419""
","
","
","""event"",""trial"",""time""
""fullscreenenter"",""0"",""2419""
","
","1711.300000011921","","","","","","","","55","","","","354","probe-101","","","","","1","[object Object]","70","1","0","","","",""
"","html-keyboard-response","271","708793","0.0-143.0-1.0","""event"",""trial"",""time""
""fullscreenenter"",""0"",""2419""
","
","
","""event"",""trial"",""time""
""fullscreenenter"",""0"",""2419""
","
","null","<p></p>","null","","","","","","","","","","","","","","","","","","","","","","","",""
"","do_trial","272","711722","0.0-144.0-0.0","""event"",""trial"",""time""
""fullscreenenter"",""0"",""2419""
","
","
","""event"",""trial"",""time""
""fullscreenenter"",""0"",""2419""
","
","380","","","","","","","","50","1,0,0","6","blank","355","null","0.5044991608579844","0.14598920152219738","0.21205934985722927","0","","","","","","","","",""
"","html-keyboard-response","273","712724","0.0-144.0-1.0","""event"",""trial"",""time""
""fullscreenenter"",""0"",""2419""
","
","
","""event"",""trial"",""time""
""fullscreenenter"",""0"",""2419""
","
","null","<p></p>","null","","","","","","","","","","","","","","","","","","","","","","","",""
"","do_trial","274","715590","0.0-145.0-0.0","""event"",""trial"",""time""
""fullscreenenter"",""0"",""2419""
","
","
","""event"",""trial"",""time""
""fullscreenenter"",""0"",""2419""
","
","309.80000001192093","","","","","","","","50","0,0,0","6","blank","356","null","0.46131937578212673","0.0638373260350993","0.25776046067491165","0","","","","","","","","",""
"","html-keyboard-response","275","716593","0.0-145.0-1.0","""event"",""trial"",""time""
""fullscreenenter"",""0"",""2419""
","
","
","""event"",""trial"",""time""
""fullscreenenter"",""0"",""2419""
","
","null","<p></p>","null","","","","","","","","","","","","","","","","","","","","","","","",""
"","do_trial","276","719399","0.0-146.0-0.0","""event"",""trial"",""time""
""fullscreenenter"",""0"",""2419""
","
","
","""event"",""trial"",""time""
""fullscreenenter"",""0"",""2419""
","
","267.10000002384186","","","","","","","","49","1,0,1","6","blank","357","null","0.5085857489226728","0.11919006152059587","0.36328288759295135","1","","","","","","","","",""
"","html-keyboard-response","277","720401","0.0-146.0-1.0","""event"",""trial"",""time""
""fullscreenenter"",""0"",""2419""
","
","
","""event"",""trial"",""time""
