"success","trial_type","trial_index","time_elapsed","internal_node_id","interactions","blur_events","focus_events","fullscreenenter_events","fullscreenexit_events","rt","stimulus","key_press","subject_id","participant_id","age","gender","prompt","response","choice_outcomes","context_n","context_img_id","trial_n","probe_img_id","pR_red","pR_white","pR_black","outcome","is_valid","image_to_show","probed_trial","probed_context","correct","probe","probed_trial_n","probed_context_n","context_im"
"true","fullscreen","0","3647","0.0-0.0","""event"",""trial"",""time""
""fullscreenenter"",""0"",""2680""
","
","
","""event"",""trial"",""time""
""fullscreenenter"",""0"",""2680""
","
","","","","","","","","","","","","","","","","","","","","","","","","","","",""
"","pavlovia","1","3651","0.0-1.0","""event"",""trial"",""time""
""fullscreenenter"",""0"",""2680""
","
","
","""event"",""trial"",""time""
""fullscreenenter"",""0"",""2680""
","
","","","","","","","","","","","","","","","","","","","","","","","","","","",""
"","welc_back","2","13581","0.0-2.0","""event"",""trial"",""time""
""fullscreenenter"",""0"",""2680""
","
","
","""event"",""trial"",""time""
""fullscreenenter"",""0"",""2680""
","
","null","run_exp/static/audio/clip_29_welcome_back.m4a","null","1196","1059","22","Male","<div class='center'><p>Welcome to day 2!</p><p> Yesterday, you were the head captain of a pirate ship. You asked your fellow pirates to rob other ships of their gold across six different islands.</p></div>","","","","","","","","","","","","","","","","","","",""
"","html-keyboard-response","3","18015","0.0-3.0","""event"",""trial"",""time""
""fullscreenenter"",""0"",""2680""
","
","
","""event"",""trial"",""time""
""fullscreenenter"",""0"",""2680""
","
","4432.299999999814","<div class='center'><p>Welcome to day 2!</p><p> Yesterday, you were the head captain of a pirate ship. You asked your fellow pirates to rob other ships of their gold across six different islands.</p><p><b>[Press the space bar to continue]</b></p></div>","32","","","","","","","","","","","","","","","","","","","","","","","",""
"","day_1_summary_goal","4","35221","0.0-4.0","""event"",""trial"",""time""
""fullscreenenter"",""0"",""2680""
","
","
","""event"",""trial"",""time""
""fullscreenenter"",""0"",""2680""
","
","null","run_exp/static/audio/clip_30_goal_of_game.m4a","null","","","","","<div class='center'><p>Today, like yesterday, you get to pick which pirate you want to rob the next ship.</p><p>If the pirate is successful in robbing a ship, you get gold coins that look like this: </p><p><img src='run_exp/static/images/tutorial/reward.png' height='150'></p><p> If they were not successful in robbing the ship, then you will get no gold coins and you'll see a big red x like this: </p><p><img src='run_exp/static/images/tutorial/reward_no.png' height='150'></p></div>","","","","","","","","","","","","","","","","","","",""
"","html-keyboard-response","5","37742","0.0-5.0","""event"",""trial"",""time""
""fullscreenenter"",""0"",""2680""
","
","
","""event"",""trial"",""time""
""fullscreenenter"",""0"",""2680""
","
","2520.1999999997206","<div class='center'><p>Today, like yesterday, you get to pick which pirate you want to rob the next ship.</p><p>If the pirate is successful in robbing a ship, you get gold coins that look like this: </p><p><img src='run_exp/static/images/tutorial/reward.png' height='150'></p><p> If they were not successful in robbing the ship, then you will get no gold coins and you'll see a big red x like this: </p><p><img src='run_exp/static/images/tutorial/reward_no.png' height='150'></p><p><b>[Press the space bar to continue]</b></p></div>","32","","","","","","","","","","","","","","","","","","","","","","","",""
"","day_1_summary_pick","6","52450","0.0-6.0","""event"",""trial"",""time""
""fullscreenenter"",""0"",""2680""
","
","
","""event"",""trial"",""time""
""fullscreenenter"",""0"",""2680""
","
","null","run_exp/static/audio/clip_31_how_to_pick_a_pirate.m4a","null","","","","","<div class='center'><p>Also, just like yesterday, you will use the 1,2,3 keys on your keyboard to pick a pirate. Press '1' to choose red beard, '2' to choose white beard, and '3' to choose black beard . You only have 3 seconds to pick a pirate, so please make a choice quickly!</p></div>","","","","","","","","","","","","","","","","","","",""
"","html-keyboard-response","7","53600","0.0-7.0","""event"",""trial"",""time""
""fullscreenenter"",""0"",""2680""
","
","
","""event"",""trial"",""time""
""fullscreenenter"",""0"",""2680""
","
","1149.3999999999069","<div class='center'><p>Also, just like yesterday, you will use the 1,2,3 keys on your keyboard to pick a pirate. Press '1' to choose red beard, '2' to choose white beard, and '3' to choose black beard . You only have 3 seconds to pick a pirate, so please make a choice quickly!</p><p><b>[Press the space bar to continue]</b></p></div>","32","","","","","","","","","","","","","","","","","","","","","","","",""
"","test_phase_begin","8","84007","0.0-8.0","""event"",""trial"",""time""
""fullscreenenter"",""0"",""2680""
","
","
","""event"",""trial"",""time""
""fullscreenenter"",""0"",""2680""
","
","null","run_exp/static/audio/clip_32_final_place.m4a","null","","","","","<div class='center'><p>You’ve arrived at the final island of your journey! Unfortunately, it’s very foggy out, so you won’t be able to see it in the distance like the other islands you've visited.</p><p>You’ll still be deciding which pirate you want to rob a ship like before. However, because of the fog, you also won’t be able to see the ship.</p><p>This means you do not have to remember the ships you rob on this island.</p><p>Unlike yesterday, you won't be visiting multiple islands today. You will stay on this island for the entire game. This game will last ~30 minutes.</p></div>","","","","","","","","","","","","","","","","","","",""
"","html-keyboard-response","9","89401","0.0-9.0","""event"",""trial"",""time""
""fullscreenenter"",""0"",""2680""
","
","
","""event"",""trial"",""time""
""fullscreenenter"",""0"",""2680""
","
","5393.5","<div class='center'><p>You’ve arrived at the final island of your journey! Unfortunately, it’s very foggy out, so you won’t be able to see it in the distance like the other islands you've visited.</p><p>You’ll still be deciding which pirate you want to rob a ship like before. However, because of the fog, you also won’t be able to see the ship.</p><p>This means you do not have to remember the ships you rob on this island.</p><p>Unlike yesterday, you won't be visiting multiple islands today. You will stay on this island for the entire game. This game will last ~30 minutes.</p><p><b>[Press the space bar to continue]</b></p></div>","32","","","","","","","","","","","","","","","","","","","","","","","",""
"","explain_probe_1","10","97103","0.0-10.0","""event"",""trial"",""time""
""fullscreenenter"",""0"",""2680""
","
","
","""event"",""trial"",""time""
""fullscreenenter"",""0"",""2680""
","
","null","run_exp/static/audio/clip_33_recognition_1.m4a","null","","","","","<div class='center'><p> Sometimes you’ll be shown a ship, and you will be asked if you saw this ship on a past island.</p><p> Here is an example of what you will see.</p><p><img src='run_exp/static/images/tutorial/example_recog_trial.png' height='500'></p></div>","","","","","","","","","","","","","","","","","","",""
"","html-keyboard-response","11","98417","0.0-11.0","""event"",""trial"",""time""
""fullscreenenter"",""0"",""2680""
","
","
","""event"",""trial"",""time""
""fullscreenenter"",""0"",""2680""
","
","1312.8000000002794","<div class='center'><p> Sometimes you’ll be shown a ship, and you will be asked if you saw this ship on a past island.</p><p> Here is an example of what you will see.</p><p><img src='run_exp/static/images/tutorial/example_recog_trial.png' height='500'></p><p><b>[Press the space bar to continue]</b></p></div>","32","","","","","","","","","","","","","","","","","","","","","","","",""
"","explain_probe_2","12","120137","0.0-12.0","""event"",""trial"",""time""
""fullscreenenter"",""0"",""2680""
","
","
","""event"",""trial"",""time""
""fullscreenenter"",""0"",""2680""
","
","null","run_exp/static/audio/clip_34_recognition_2.m4a","null","","","","","<div class='center'><p> You will press the 5, 6, 7, 8 keys on your keyboard to respond.</p><p>If you are sure you saw the ship, press <b>5</b> on your keyboard.</p><p> If you think you saw it before but aren't sure, then press <b>6</b>.</p><p> If you think you have <b>not</b> seen it before but aren't sure, then press <b>7</b>.</p><p> If you are sure you did <b>not</b> see the ship before, then press <b>8</b>.</p><p><img src='run_exp/static/images/tutorial/example_recog_trial.png' height='500'></p></div>","","","","","","","","","","","","","","","","","","",""
"","html-keyboard-response","13","122457","0.0-13.0","""event"",""trial"",""time""
""fullscreenenter"",""0"",""2680""
","
","
","""event"",""trial"",""time""
""fullscreenenter"",""0"",""2680""
","
","2318.899999999907","<div class='center'><p> You will press the 5, 6, 7, 8 keys on your keyboard to respond.</p><p>If you are sure you saw the ship, press <b>5</b> on your keyboard.</p><p> If you think you saw it before but aren't sure, then press <b>6</b>.</p><p> If you think you have <b>not</b> seen it before but aren't sure, then press <b>7</b>.</p><p> If you are sure you did <b>not</b> see the ship before, then press <b>8</b>.</p><p><img src='run_exp/static/images/tutorial/example_recog_trial.png' height='500'></p><p><b>[Press the space bar to continue]</b></p></div>","32","","","","","","","","","","","","","","","","","","","","","","","",""
"","explain_outcome","14","139665","0.0-14.0","""event"",""trial"",""time""
""fullscreenenter"",""0"",""2680""
","
","
","""event"",""trial"",""time""
""fullscreenenter"",""0"",""2680""
","
","null","run_exp/static/audio/clip_35_recognition_3.m4a","null","","","","","<div class='center'><p> If you remember correctly, then you’ll get a gold coin like this: </p><p><img src='run_exp/static/images/tutorial/reward_small.png' height='200'></p><p>If you do not remember correctly, then you'll see a red x like this: </p><p><img src='run_exp/static/images/tutorial/reward_no.png' height='200'></p><p>Importantly, when you are shown a ship, take the time to remind yourself which island you saw it on. This will help you in the next part of the study.</p></div>","","","","","","","","","","","","","","","","","","",""
"","html-keyboard-response","15","140793","0.0-15.0","""event"",""trial"",""time""
""fullscreenenter"",""0"",""2680""
","
","
","""event"",""trial"",""time""
""fullscreenenter"",""0"",""2680""
","
","1127.0999999996275","<div class='center'><p> If you remember correctly, then you’ll get a gold coin like this: </p><p><img src='run_exp/static/images/tutorial/reward_small.png' height='200'></p><p>If you do not remember correctly, then you'll see a red x like this: </p><p><img src='run_exp/static/images/tutorial/reward_no.png' height='200'></p><p>Importantly, when you are shown a ship, take the time to remind yourself which island you saw it on. This will help you in the next part of the study.</p><p><b>[Press the space bar to continue]</b></p></div>","32","","","","","","","","","","","","","","","","","","","","","","","",""
"","begin_test_phase","16","156616","0.0-16.0","""event"",""trial"",""time""
""fullscreenenter"",""0"",""2680""
","
","
","""event"",""trial"",""time""
""fullscreenenter"",""0"",""2680""
","
","null","run_exp/static/audio/clip_36_begin_final.m4a","null","","","","","<div class='center'><p>Let's go over the important points again. Your job is to: </p><p>1. Pick the pirate who is best at robbing ships and will bring you back gold coins. </p><p>2. Correctly remember whether or not you saw a ship before. If you did see the ship before, remind yourself on which island you saw it. </p></div>","","","","","","","","","","","","","","","","","","",""
"","html-keyboard-response","17","157866","0.0-17.0","""event"",""trial"",""time""
""fullscreenenter"",""0"",""2680""
","
","
","""event"",""trial"",""time""
""fullscreenenter"",""0"",""2680""
","
","1211","<div class='center'><p>Let's go over the important points again. Your job is to: </p><p>1. Pick the pirate who is best at robbing ships and will bring you back gold coins. </p><p>2. Correctly remember whether or not you saw a ship before. If you did see the ship before, remind yourself on which island you saw it. </p><p><b>[Press the space bar to continue]</b></p></div>","32","","","","","","","","","","","","","","","","","","","","","","","",""
"","do_welcome","18","161875","0.0-18.0","""event"",""trial"",""time""
""fullscreenenter"",""0"",""2680""
","
","
","""event"",""trial"",""time""
""fullscreenenter"",""0"",""2680""
","
","null","","","","","","","","null","","","","","","","","","","","","","","","","","",""
"","do_trial","19","165739","0.0-19.0-0.0","""event"",""trial"",""time""
""fullscreenenter"",""0"",""2680""
","
","
","""event"",""trial"",""time""
""fullscreenenter"",""0"",""2680""
","
","1320.6000000000931","","","","","","","","49","0,0,1","6","blank","230","null","0.15732933796914833","0.14666812569610127","0.6221751539728548","0","","","","","","","","",""
"","html-keyboard-response","20","166745","0.0-19.0-1.0","""event"",""trial"",""time""
""fullscreenenter"",""0"",""2680""
","
","
","""event"",""trial"",""time""
""fullscreenenter"",""0"",""2680""
","
","null","<p></p>","null","","","","","","","","","","","","","","","","","","","","","","","",""
"","do_trial","21","169863","0.0-20.0-0.0","""event"",""trial"",""time""
""fullscreenenter"",""0"",""2680""
","
","
","""event"",""trial"",""time""
""fullscreenenter"",""0"",""2680""
","
","578.4000000003725","","","","","","","","50","1,0,1","6","blank","231","null","0.14333340159704577","0.14017255556052935","0.5615946699870302","0","","","","","","","","",""
"","html-keyboard-response","22","170869","0.0-20.0-1.0","""event"",""trial"",""time""
""fullscreenenter"",""0"",""2680""
","
","
","""event"",""trial"",""time""
""fullscreenenter"",""0"",""2680""
","
","null","<p></p>","null","","","","","","","","","","","","","","","","","","","","","","","",""
"","do_trial","23","173819","0.0-21.0-0.0","""event"",""trial"",""time""
""fullscreenenter"",""0"",""2680""
","
","
","""event"",""trial"",""time""
""fullscreenenter"",""0"",""2680""
","
","406.70000000018626","","","","","","","","51","0,0,0","6","blank","232","null","0.33908368987759835","0.21479576050400526","0.6813283476239105","0","","","","","","","","",""
"","html-keyboard-response","24","174824","0.0-21.0-1.0","""event"",""trial"",""time""
""fullscreenenter"",""0"",""2680""
","
","
","""event"",""trial"",""time""
""fullscreenenter"",""0"",""2680""
","
","null","<p></p>","null","","","","","","","","","","","","","","","","","","","","","","","",""
"","do_trial","25","177753","0.0-22.0-0.0","""event"",""trial"",""time""
""fullscreenenter"",""0"",""2680""
","
","
","""event"",""trial"",""time""
""fullscreenenter"",""0"",""2680""
","
","387.79999999981374","","","","","","","","50","0,0,0","6","blank","233","null","0.3240334121342223","0.27084082086350003","0.6812792623853718","0","","","","","","","","",""
"","html-keyboard-response","26","178759","0.0-22.0-1.0","""event"",""trial"",""time""
""fullscreenenter"",""0"",""2680""
","
","
","""event"",""trial"",""time""
""fullscreenenter"",""0"",""2680""
","
","null","<p></p>","null","","","","","","","","","","","","","","","","","","","","","","","",""
"","do_trial","27","181491","0.0-23.0-0.0","""event"",""trial"",""time""
""fullscreenenter"",""0"",""2680""
","
","
","""event"",""trial"",""time""
""fullscreenenter"",""0"",""2680""
","
","189.60000000009313","","","","","","","","49","0,0,1","6","blank","234","null","0.363071055414547","0.2842763684796545","0.7274560112433176","0","","","","","","","","",""
"","html-keyboard-response","28","182497","0.0-23.0-1.0","""event"",""trial"",""time""
""fullscreenenter"",""0"",""2680""
","
","
","""event"",""trial"",""time""
""fullscreenenter"",""0"",""2680""
","
","null","<p></p>","null","","","","","","","","","","","","","","","","","","","","","","","",""
"","do_trial","29","185538","0.0-24.0-0.0","""event"",""trial"",""time""
""fullscreenenter"",""0"",""2680""
","
","
","""event"",""trial"",""time""
""fullscreenenter"",""0"",""2680""
","
","500.29999999981374","","","","","","","","50","0,1,1","6","blank","235","null","0.4398371392622953","0.31523552651256515","0.6029515929546434","1","","","","","","","","",""
"","html-keyboard-response","30","186544","0.0-24.0-1.0","""event"",""trial"",""time""
""fullscreenenter"",""0"",""2680""
","
","
","""event"",""trial"",""time""
""fullscreenenter"",""0"",""2680""
","
","null","<p></p>","null","","","","","","","","","","","","","","","","","","","","","","","",""
"","do_trial","31","189411","0.0-25.0-0.0","""event"",""trial"",""time""
""fullscreenenter"",""0"",""2680""
","
","
","""event"",""trial"",""time""
""fullscreenenter"",""0"",""2680""
","
","324.70000000018626","","","","","","","","50","0,0,0","6","blank","236","null","0.3434491498677598","0.16802944183579385","0.6178833273923586","0","","","","","","","","",""
"","html-keyboard-response","32","190417","0.0-25.0-1.0","""event"",""trial"",""time""
""fullscreenenter"",""0"",""2680""
","
","
","""event"",""trial"",""time""
""fullscreenenter"",""0"",""2680""
","
","null","<p></p>","null","","","","","","","","","","","","","","","","","","","","","","","",""
"","do_trial","33","193329","0.0-26.0-0.0","""event"",""trial"",""time""
""fullscreenenter"",""0"",""2680""
","
","
","""event"",""trial"",""time""
""fullscreenenter"",""0"",""2680""
","
","371.90000000037253","","","","","","","","49","0,0,0","6","blank","237","null","0.2857430604443841","0.0734171987403762","0.7730475746753416","0","","","","","","","","",""
"","html-keyboard-response","34","194334","0.0-26.0-1.0","""event"",""trial"",""time""
""fullscreenenter"",""0"",""2680""
","
","
","""event"",""trial"",""time""
""fullscreenenter"",""0"",""2680""
","
","null","<p></p>","null","","","","","","","","","","","","","","","","","","","","","","","",""
"","do_trial","35","197171","0.0-27.0-0.0","""event"",""trial"",""time""
""fullscreenenter"",""0"",""2680""
","
","
","""event"",""trial"",""time""
""fullscreenenter"",""0"",""2680""
","
","294.90000000037253","","","","","","","","49","0,0,0","6","blank","238","null","0.412471942544713","0.12017781072665086","0.6496231940459114","0","","","","","","","","",""
"","html-keyboard-response","36","198172","0.0-27.0-1.0","""event"",""trial"",""time""
""fullscreenenter"",""0"",""2680""
","
","
","""event"",""trial"",""time""
""fullscreenenter"",""0"",""2680""
","
","null","<p></p>","null","","","","","","","","","","","","","","","","","","","","","","","",""
"","do_trial","37","201115","0.0-28.0-0.0","""event"",""trial"",""time""
""fullscreenenter"",""0"",""2680""
","
","
","""event"",""trial"",""time""
""fullscreenenter"",""0"",""2680""
","
","399.60000000009313","","","","","","","","50","1,0,0","6","blank","239","null","0.2183136890563003","0.12856822734186868","0.577472590035948","0","","","","","","","","",""
"","html-keyboard-response","38","202116","0.0-28.0-1.0","""event"",""trial"",""time""
""fullscreenenter"",""0"",""2680""
","
","
","""event"",""trial"",""time""
""fullscreenenter"",""0"",""2680""
","
","null","<p></p>","null","","","","","","","","","","","","","","","","","","","","","","","",""
"","do_trial","39","205168","0.0-29.0-0.0","""event"",""trial"",""time""
""fullscreenenter"",""0"",""2680""
","
","
","""event"",""trial"",""time""
""fullscreenenter"",""0"",""2680""
","
","512.5","","","","","","","","49","0,0,1","6","blank","240","null","0.3397056130976918","0.15600426129159684","0.6805315843143268","0","","","","","","","","",""
"","html-keyboard-response","40","206173","0.0-29.0-1.0","""event"",""trial"",""time""
""fullscreenenter"",""0"",""2680""
","
","
","""event"",""trial"",""time""
""fullscreenenter"",""0"",""2680""
","
","null","<p></p>","null","","","","","","","","","","","","","","","","","","","","","","","",""
"","do_trial","41","209043","0.0-30.0-0.0","""event"",""trial"",""time""
""fullscreenenter"",""0"",""2680""
","
","
","""event"",""trial"",""time""
""fullscreenenter"",""0"",""2680""
","
","327.3000000002794","","","","","","","","51","0,0,1","6","blank","241","null","0.25890060951642946","0.11405605795618395","0.5928583190184555","1","","","","","","","","",""
"","html-keyboard-response","42","210049","0.0-30.0-1.0","""event"",""trial"",""time""
""fullscreenenter"",""0"",""2680""
","
","
","""event"",""trial"",""time""
""fullscreenenter"",""0"",""2680""
","
","null","<p></p>","null","","","","","","","","","","","","","","","","","","","","","","","",""
"","do_trial","43","212891","0.0-31.0-0.0","""event"",""trial"",""time""
""fullscreenenter"",""0"",""2680""
","
","
","""event"",""trial"",""time""
""fullscreenenter"",""0"",""2680""
","
","300.39999999990687","","","","","","","","50","1,0,0","6","blank","242","null","0.37302604038671866","0.27419156213081336","0.3637440156014784","0","","","","","","","","",""
"","html-keyboard-response","44","213897","0.0-31.0-1.0","""event"",""trial"",""time""
""fullscreenenter"",""0"",""2680""
","
","
","""event"",""trial"",""time""
""fullscreenenter"",""0"",""2680""
","
","null","<p></p>","null","","","","","","","","","","","","","","","","","","","","","","","",""
"","do_trial","45","216686","0.0-32.0-0.0","""event"",""trial"",""time""
""fullscreenenter"",""0"",""2680""
","
","
","""event"",""trial"",""time""
""fullscreenenter"",""0"",""2680""
","
","251.40000000037253","","","","","","","","49","1,0,1","6","blank","243","null","0.5039067883874535","0.34425450590253337","0.29597836428077956","1","","","","","","","","",""
"","html-keyboard-response","46","217690","0.0-32.0-1.0","""event"",""trial"",""time""
""fullscreenenter"",""0"",""2680""
","
","
","""event"",""trial"",""time""
""fullscreenenter"",""0"",""2680""
","
","null","<p></p>","null","","","","","","","","","","","","","","","","","","","","","","","",""
"","do_trial","47","220587","0.0-33.0-0.0","""event"",""trial"",""time""
""fullscreenenter"",""0"",""2680""
","
","
","""event"",""trial"",""time""
""fullscreenenter"",""0"",""2680""
","
","355","","","","","","","","51","0,0,0","6","blank","244","null","0.5294596826774391","0.1904205672349859","0.06427520477295627","0","","","","","","","","",""
"","html-keyboard-response","48","221593","0.0-33.0-1.0","""event"",""trial"",""time""
""fullscreenenter"",""0"",""2680""
","
","
","""event"",""trial"",""time""
""fullscreenenter"",""0"",""2680""
","
","null","<p></p>","null","","","","","","","","","","","","","","","","","","","","","","","",""
"","do_trial","49","224427","0.0-34.0-0.0","""event"",""trial"",""time""
""fullscreenenter"",""0"",""2680""
","
","
","""event"",""trial"",""time""
""fullscreenenter"",""0"",""2680""
","
","292.39999999990687","","","","","","","","51","1,0,0","6","blank","245","null","0.4656428334962881","0.174322147418382","0.0894013732568986","0","","","","","","","","",""
"","html-keyboard-response","50","225431","0.0-34.0-1.0","""event"",""trial"",""time""
""fullscreenenter"",""0"",""2680""
","
","
","""event"",""trial"",""time""
""fullscreenenter"",""0"",""2680""
","
","null","<p></p>","null","","","","","","","","","","","","","","","","","","","","","","","",""
"","do_recog","51","231448","0.0-35.0-0.0","""event"",""trial"",""time""
""fullscreenenter"",""0"",""2680""
","
","
","""event"",""trial"",""time""
""fullscreenenter"",""0"",""2680""
","
","null","","","","","","","","null","","","","246","probe-120","","","","","1","[object Object]","39","0","0","","","",""
"","html-keyboard-response","52","232452","0.0-35.0-1.0","""event"",""trial"",""time""
""fullscreenenter"",""0"",""2680""
","
","
","""event"",""trial"",""time""
""fullscreenenter"",""0"",""2680""
","
","null","<p></p>","null","","","","","","","","","","","","","","","","","","","","","","","",""
"","do_trial","53","236307","0.0-36.0-0.0","""event"",""trial"",""time""
""fullscreenenter"",""0"",""2680""
","
","
","""event"",""trial"",""time""
""fullscreenenter"",""0"",""2680""
","
","1314.1999999997206","","","","","","","","51","1,0,0","6","blank","247","null","0.5561284390682911","0.20838238939067533","0.07108972002768221","0","","","","","","","","",""
"","html-keyboard-response","54","237313","0.0-36.0-1.0","""event"",""trial"",""time""
""fullscreenenter"",""0"",""2680""
","
","
","""event"",""trial"",""time""
""fullscreenenter"",""0"",""2680""
","
","null","<p></p>","null","","","","","","","","","","","","","","","","","","","","","","","",""
"","do_trial","55","240843","0.0-37.0-0.0","""event"",""trial"",""time""
""fullscreenenter"",""0"",""2680""
","
","
","""event"",""trial"",""time""
""fullscreenenter"",""0"",""2680""
","
","987.7000000001863","","","","","","","","50","1,0,0","6","blank","248","null","0.5507649173211242","0.20819321735428198","0.10883348848549478","0","","","","","","","","",""
"","html-keyboard-response","56","241849","0.0-37.0-1.0","""event"",""trial"",""time""
""fullscreenenter"",""0"",""2680""
","
","
","""event"",""trial"",""time""
""fullscreenenter"",""0"",""2680""
","
","null","<p></p>","null","","","","","","","","","","","","","","","","","","","","","","","",""
"","do_trial","57","245123","0.0-38.0-0.0","""event"",""trial"",""time""
""fullscreenenter"",""0"",""2680""
","
","
","""event"",""trial"",""time""
""fullscreenenter"",""0"",""2680""
","
","731.6000000000931","","","","","","","","50","1,0,0","6","blank","249","null","0.49490333744553916","0.326702294197713","0.26956623623461723","0","","","","","","","","",""
"","html-keyboard-response","58","246127","0.0-38.0-1.0","""event"",""trial"",""time""
""fullscreenenter"",""0"",""2680""
","
","
","""event"",""trial"",""time""
""fullscreenenter"",""0"",""2680""
","
","null","<p></p>","null","","","","","","","","","","","","","","","","","","","","","","","",""
"","do_trial","59","249169","0.0-39.0-0.0","""event"",""trial"",""time""
""fullscreenenter"",""0"",""2680""
","
","
","""event"",""trial"",""time""
""fullscreenenter"",""0"",""2680""
","
","502.29999999981374","","","","","","","","49","0,0,0","6","blank","250","null","0.5717216948002966","0.34286816611185855","0.32683773101703817","0","","","","","","","","",""
"","html-keyboard-response","60","250175","0.0-39.0-1.0","""event"",""trial"",""time""
""fullscreenenter"",""0"",""2680""
","
","
","""event"",""trial"",""time""
""fullscreenenter"",""0"",""2680""
","
","null","<p></p>","null","","","","","","","","","","","","","","","","","","","","","","","",""
"","do_recog","61","252562","0.0-40.0-0.0","""event"",""trial"",""time""
""fullscreenenter"",""0"",""2680""
","
","
","""event"",""trial"",""time""
""fullscreenenter"",""0"",""2680""
","
","878","","","","","","","","56","","","","251","probe-173","","","","","1","[object Object]","199","4","0","","","",""
"","html-keyboard-response","62","253565","0.0-40.0-1.0","""event"",""trial"",""time""
""fullscreenenter"",""0"",""2680""
","
","
","""event"",""trial"",""time""
""fullscreenenter"",""0"",""2680""
","
","null","<p></p>","null","","","","","","","","","","","","","","","","","","","","","","","",""
"","do_trial","63","257017","0.0-41.0-0.0","""event"",""trial"",""time""
""fullscreenenter"",""0"",""2680""
","
","
","""event"",""trial"",""time""
""fullscreenenter"",""0"",""2680""
","
","911.8999999999069","","","","","","","","50","0,1,0","6","blank","252","null","0.48959253928981783","0.4026095372694823","0.25093132309932575","1","","","","","","","","",""
"","html-keyboard-response","64","258021","0.0-41.0-1.0","""event"",""trial"",""time""
""fullscreenenter"",""0"",""2680""
","
","
","""event"",""trial"",""time""
""fullscreenenter"",""0"",""2680""
","
","null","<p></p>","null","","","","","","","","","","","","","","","","","","","","","","","",""
"","do_trial","65","260916","0.0-42.0-0.0","""event"",""trial"",""time""
""fullscreenenter"",""0"",""2680""
","
","
","""event"",""trial"",""time""
""fullscreenenter"",""0"",""2680""
","
","352.1999999997206","","","","","","","","50","0,0,0","6","blank","253","null","0.6394148696472918","0.406174163840681","0.16238908846832126","0","","","","","","","","",""
"","html-keyboard-response","66","261918","0.0-42.0-1.0","""event"",""trial"",""time""
""fullscreenenter"",""0"",""2680""
","
","
","""event"",""trial"",""time""
""fullscreenenter"",""0"",""2680""
","
","null","<p></p>","null","","","","","","","","","","","","","","","","","","","","","","","",""
"","do_trial","67","265257","0.0-43.0-0.0","""event"",""trial"",""time""
""fullscreenenter"",""0"",""2680""
","
","
","""event"",""trial"",""time""
""fullscreenenter"",""0"",""2680""
","
","799.2000000001863","","","","","","","","49","0,1,0","6","blank","254","null","0.6661625564804531","0.3253368041787887","0.10961897367300347","0","","","","","","","","",""
"","html-keyboard-response","68","266263","0.0-43.0-1.0","""event"",""trial"",""time""
""fullscreenenter"",""0"",""2680""
","
","
","""event"",""trial"",""time""
""fullscreenenter"",""0"",""2680""
","
","null","<p></p>","null","","","","","","","","","","","","","","","","","","","","","","","",""
"","do_trial","69","269123","0.0-44.0-0.0","""event"",""trial"",""time""
""fullscreenenter"",""0"",""2680""
","
","
","""event"",""trial"",""time""
""fullscreenenter"",""0"",""2680""
","
","318.70000000018626","","","","","","","","51","0,1,0","6","blank","255","null","0.7715304283421547","0.3371698856344022","0.07469459248047754","0","","","","","","","","",""
"","html-keyboard-response","70","270129","0.0-44.0-1.0","""event"",""trial"",""time""
""fullscreenenter"",""0"",""2680""
","
","
","""event"",""trial"",""time""
""fullscreenenter"",""0"",""2680""
","
","null","<p></p>","null","","","","","","","","","","","","","","","","","","","","","","","",""
"","do_recog","71","273099","0.0-45.0-0.0","""event"",""trial"",""time""
""fullscreenenter"",""0"",""2680""
","
","
","""event"",""trial"",""time""
""fullscreenenter"",""0"",""2680""
","
","1461","","","","","","","","54","","","","256","probe-205","","","","","1","[object Object]","77","1","1","","","",""
"","html-keyboard-response","72","274103","0.0-45.0-1.0","""event"",""trial"",""time""
""fullscreenenter"",""0"",""2680""
","
","
","""event"",""trial"",""time""
""fullscreenenter"",""0"",""2680""
","
","null","<p></p>","null","","","","","","","","","","","","","","","","","","","","","","","",""
"","do_trial","73","277447","0.0-46.0-0.0","""event"",""trial"",""time""
""fullscreenenter"",""0"",""2680""
","
","
","""event"",""trial"",""time""
""fullscreenenter"",""0"",""2680""
","
","805.8000000002794","","","","","","","","50","1,1,0","6","blank","257","null","0.6532403857658368","0.3374611542889457","0.14509692187476966","1","","","","","","","","",""
"","html-keyboard-response","74","278452","0.0-46.0-1.0","""event"",""trial"",""time""
""fullscreenenter"",""0"",""2680""
","
","
","""event"",""trial"",""time""
""fullscreenenter"",""0"",""2680""
","
","null","<p></p>","null","","","","","","","","","","","","","","","","","","","","","","","",""
"","do_recog","75","280707","0.0-47.0-0.0","""event"",""trial"",""time""
""fullscreenenter"",""0"",""2680""
","
","
","""event"",""trial"",""time""
""fullscreenenter"",""0"",""2680""
","
","744.7000000001863","","","","","","","","53","","","","258","probe-117","","","","","1","[object Object]","119","2","1","","","",""
"","html-keyboard-response","76","281711","0.0-47.0-1.0","""event"",""trial"",""time""
""fullscreenenter"",""0"",""2680""
","
","
","""event"",""trial"",""time""
""fullscreenenter"",""0"",""2680""
","
","null","<p></p>","null","","","","","","","","","","","","","","","","","","","","","","","",""
"","do_trial","77","285044","0.0-48.0-0.0","""event"",""trial"",""time""
""fullscreenenter"",""0"",""2680""
","
","
","""event"",""trial"",""time""
""fullscreenenter"",""0"",""2680""
","
","790.2999999998137","","","","","","","","50","0,0,0","6","blank","259","null","0.6208462034732068","0.2507624414092562","0.07474667513019741","0","","","","","","","","",""
"","html-keyboard-response","78","286048","0.0-48.0-1.0","""event"",""trial"",""time""
""fullscreenenter"",""0"",""2680""
","
","
","""event"",""trial"",""time""
""fullscreenenter"",""0"",""2680""
","
","null","<p></p>","null","","","","","","","","","","","","","","","","","","","","","","","",""
"","do_trial","79","289122","0.0-49.0-0.0","""event"",""trial"",""time""
""fullscreenenter"",""0"",""2680""
","
","
","""event"",""trial"",""time""
""fullscreenenter"",""0"",""2680""
","
","533","","","","","","","","49","1,0,0","6","blank","260","null","0.5715421767615045","0.4519058115881922","0.10441807563067874","1","","","","","","","","",""
"","html-keyboard-response","80","290128","0.0-49.0-1.0","""event"",""trial"",""time""
""fullscreenenter"",""0"",""2680""
","
","
","""event"",""trial"",""time""
""fullscreenenter"",""0"",""2680""
","
","null","<p></p>","null","","","","","","","","","","","","","","","","","","","","","","","",""
"","do_trial","81","294179","0.0-50.0-0.0","""event"",""trial"",""time""
""fullscreenenter"",""0"",""2680""
","
","
","""event"",""trial"",""time""
""fullscreenenter"",""0"",""2680""
","
","1509.1000000000931","","","","","","","","51","0,0,0","6","blank","261","null","0.5673966376956731","0.22953751950693488","0.18371775969218937","0","","","","","","","","",""
"","html-keyboard-response","82","295182","0.0-50.0-1.0","""event"",""trial"",""time""
""fullscreenenter"",""0"",""2680""
","
","
","""event"",""trial"",""time""
""fullscreenenter"",""0"",""2680""
","
","null","<p></p>","null","","","","","","","","","","","","","","","","","","","","","","","",""
"","do_trial","83","298530","0.0-51.0-0.0","""event"",""trial"",""time""
""fullscreenenter"",""0"",""2680""
","
","
","""event"",""trial"",""time""
""fullscreenenter"",""0"",""2680""
","
","807.2999999998137","","","","","","","","51","0,0,0","6","blank","262","null","0.7280491062069776","0.22802352680947685","0.07524442836791298","0","","","","","","","","",""
"","html-keyboard-response","84","299536","0.0-51.0-1.0","""event"",""trial"",""time""
""fullscreenenter"",""0"",""2680""
","
","
","""event"",""trial"",""time""
""fullscreenenter"",""0"",""2680""
","
","null","<p></p>","null","","","","","","","","","","","","","","","","","","","","","","","",""
"","do_trial","85","302594","0.0-52.0-0.0","""event"",""trial"",""time""
""fullscreenenter"",""0"",""2680""
","
","
","""event"",""trial"",""time""
""fullscreenenter"",""0"",""2680""
","
","517.5","","","","","","","","50","0,0,0","6","blank","263","null","0.5419611769006899","0.23044196542124087","0.11413192339834045","0","","","","","","","","",""
"","html-keyboard-response","86","303599","0.0-52.0-1.0","""event"",""trial"",""time""
""fullscreenenter"",""0"",""2680""
","
","
","""event"",""trial"",""time""
""fullscreenenter"",""0"",""2680""
","
","null","<p></p>","null","","","","","","","","","","","","","","","","","","","","","","","",""
"","do_trial","87","306580","0.0-53.0-0.0","""event"",""trial"",""time""
""fullscreenenter"",""0"",""2680""
","
","
","""event"",""trial"",""time""
""fullscreenenter"",""0"",""2680""
","
","437.89999999990687","","","","","","","","49","0,0,1","6","blank","264","null","0.5715915006517419","0.18561531838596262","0.13352727585517832","0","","","","","","","","",""
"","html-keyboard-response","88","307585","0.0-53.0-1.0","""event"",""trial"",""time""
""fullscreenenter"",""0"",""2680""
","
","
","""event"",""trial"",""time""
""fullscreenenter"",""0"",""2680""
","
","null","<p></p>","null","","","","","","","","","","","","","","","","","","","","","","","",""
"","do_recog","89","310340","0.0-54.0-0.0","""event"",""trial"",""time""
""fullscreenenter"",""0"",""2680""
","
","
","""event"",""trial"",""time""
""fullscreenenter"",""0"",""2680""
","
","1244.3999999999069","","","","","","","","55","","","","265","probe-247","","","","","0","[object Object]","null","null","1","","","",""
"","html-keyboard-response","90","311344","0.0-54.0-1.0","""event"",""trial"",""time""
""fullscreenenter"",""0"",""2680""
","
","
","""event"",""trial"",""time""
""fullscreenenter"",""0"",""2680""
","
","null","<p></p>","null","","","","","","","","","","","","","","","","","","","","","","","",""
"","do_trial","91","314556","0.0-55.0-0.0","""event"",""trial"",""time""
""fullscreenenter"",""0"",""2680""
","
","
","""event"",""trial"",""time""
""fullscreenenter"",""0"",""2680""
","
","669.7000000001863","","","","","","","","50","0,0,1","6","blank","266","null","0.6708827367788489","0.2896322619574457","0.2574264712509092","0","","","","","","","","",""
"","html-keyboard-response","92","315561","0.0-55.0-1.0","""event"",""trial"",""time""
""fullscreenenter"",""0"",""2680""
","
","
","""event"",""trial"",""time""
""fullscreenenter"",""0"",""2680""
","
","null","<p></p>","null","","","","","","","","","","","","","","","","","","","","","","","",""
"","do_recog","93","317658","0.0-56.0-0.0","""event"",""trial"",""time""
""fullscreenenter"",""0"",""2680""
","
","
","""event"",""trial"",""time""
""fullscreenenter"",""0"",""2680""
","
","589.8000000002794","","","","","","","","56","","","","267","probe-179","","","","","1","[object Object]","34","0","0","","","",""
"","html-keyboard-response","94","318662","0.0-56.0-1.0","""event"",""trial"",""time""
""fullscreenenter"",""0"",""2680""
","
","
","""event"",""trial"",""time""
""fullscreenenter"",""0"",""2680""
","
","null","<p></p>","null","","","","","","","","","","","","","","","","","","","","","","","",""
"","do_trial","95","321895","0.0-57.0-0.0","""event"",""trial"",""time""
""fullscreenenter"",""0"",""2680""
","
","
","""event"",""trial"",""time""
""fullscreenenter"",""0"",""2680""
","
","696.2999999998137","","","","","","","","50","1,0,0","6","blank","268","null","0.6082245185616748","0.24600957178364646","0.23485255574109526","0","","","","","","","","",""
"","html-keyboard-response","96","322901","0.0-57.0-1.0","""event"",""trial"",""time""
""fullscreenenter"",""0"",""2680""
","
","
","""event"",""trial"",""time""
""fullscreenenter"",""0"",""2680""
","
","null","<p></p>","null","","","","","","","","","","","","","","","","","","","","","","","",""
"","break","97","346475","0.0-58.0-0.0","""event"",""trial"",""time""
""fullscreenenter"",""0"",""2680""
","
","
","""event"",""trial"",""time""
""fullscreenenter"",""0"",""2680""
","
","23573.30000000028","<div class='center'><p>Time to take a quick break! You have 2 minutes to rest, but you can move on sooner if you'd like.</p><p> Press the <b>space bar</b> to continue.</p></div>","32","","","","","","","","","","","","","","","","","","","","","","","",""
"","do_trial","98","350162","0.0-58.0-1.0","""event"",""trial"",""time""
""fullscreenenter"",""0"",""2680""
","
","
","""event"",""trial"",""time""
""fullscreenenter"",""0"",""2680""
","
","1148.1000000000931","","","","","","","","50","0,0,1","6","blank","269","null","0.6339429217968129","0.21922154634137897","0.2194796238437948","0","","","","","","","","",""
"","html-keyboard-response","99","351166","0.0-58.0-2.0","""event"",""trial"",""time""
""fullscreenenter"",""0"",""2680""
","
","
","""event"",""trial"",""time""
""fullscreenenter"",""0"",""2680""
","
","null","<p></p>","null","","","","","","","","","","","","","","","","","","","","","","","",""
"","do_recog","100","354096","0.0-59.0-0.0","""event"",""trial"",""time""
""fullscreenenter"",""0"",""2680""
","
","
","""event"",""trial"",""time""
""fullscreenenter"",""0"",""2680""
","
","1424.2000000001863","","","","","","","","53","","","","270","probe-09","","","","","1","[object Object]","30","0","1","","","",""
"","html-keyboard-response","101","355101","0.0-59.0-1.0","""event"",""trial"",""time""
""fullscreenenter"",""0"",""2680""
","
","
","""event"",""trial"",""time""
""fullscreenenter"",""0"",""2680""
","
","null","<p></p>","null","","","","","","","","","","","","","","","","","","","","","","","",""
"","do_trial","102","358492","0.0-60.0-0.0","""event"",""trial"",""time""
""fullscreenenter"",""0"",""2680""
","
","
","""event"",""trial"",""time""
""fullscreenenter"",""0"",""2680""
","
","848.7000000001863","","","","","","","","50","1,0,0","6","blank","271","null","0.572175380342039","0.2776966030614119","0.32316129417513834","0","","","","","","","","",""
"","html-keyboard-response","103","359497","0.0-60.0-1.0","""event"",""trial"",""time""
""fullscreenenter"",""0"",""2680""
","
","
","""event"",""trial"",""time""
""fullscreenenter"",""0"",""2680""
","
","null","<p></p>","null","","","","","","","","","","","","","","","","","","","","","","","",""
"","do_trial","104","362451","0.0-61.0-0.0","""event"",""trial"",""time""
""fullscreenenter"",""0"",""2680""
","
","
","""event"",""trial"",""time""
""fullscreenenter"",""0"",""2680""
","
","412.6999999997206","","","","","","","","51","0,0,1","6","blank","272","null","0.34963189737952977","0.19023411096159185","0.24482944531981887","1","","","","","","","","",""
"","html-keyboard-response","105","363457","0.0-61.0-1.0","""event"",""trial"",""time""
""fullscreenenter"",""0"",""2680""
","
","
","""event"",""trial"",""time""
""fullscreenenter"",""0"",""2680""
","
","null","<p></p>","null","","","","","","","","","","","","","","","","","","","","","","","",""
"","do_trial","106","366668","0.0-62.0-0.0","""event"",""trial"",""time""
""fullscreenenter"",""0"",""2680""
","
","
","""event"",""trial"",""time""
""fullscreenenter"",""0"",""2680""
","
","668.2000000001863","","","","","","","","51","0,1,1","6","blank","273","null","0.3571595860352729","0.27516585422889445","0.19711852912455946","1","","","","","","","","",""
"","html-keyboard-response","107","367674","0.0-62.0-1.0","""event"",""trial"",""time""
""fullscreenenter"",""0"",""2680""
","
","
","""event"",""trial"",""time""
""fullscreenenter"",""0"",""2680""
","
","null","<p></p>","null","","","","","","","","","","","","","","","","","","","","","","","",""
"","do_trial","108","371200","0.0-63.0-0.0","""event"",""trial"",""time""
""fullscreenenter"",""0"",""2680""
","
","
","""event"",""trial"",""time""
""fullscreenenter"",""0"",""2680""
","
","987.5","","","","","","","","49","0,1,0","6","blank","274","null","0.5164977727211535","0.33962401479131965","0.15524473214525455","0","","","","","","","","",""
"","html-keyboard-response","109","372206","0.0-63.0-1.0","""event"",""trial"",""time""
""fullscreenenter"",""0"",""2680""
","
","
","""event"",""trial"",""time""
""fullscreenenter"",""0"",""2680""
","
","null","<p></p>","null","","","","","","","","","","","","","","","","","","","","","","","",""
"","do_trial","110","375369","0.0-64.0-0.0","""event"",""trial"",""time""
""fullscreenenter"",""0"",""2680""
","
","
","""event"",""trial"",""time""
""fullscreenenter"",""0"",""2680""
","
","624.1000000000931","","","","","","","","50","0,0,0","6","blank","275","null","0.5404683753730972","0.3322922056674335","0.15380525603236744","0","","","","","","","","",""
"","html-keyboard-response","111","376374","0.0-64.0-1.0","""event"",""trial"",""time""
""fullscreenenter"",""0"",""2680""
","
","
","""event"",""trial"",""time""
""fullscreenenter"",""0"",""2680""
","
","null","<p></p>","null","","","","","","","","","","","","","","","","","","","","","","","",""
"","do_recog","112","378977","0.0-65.0-0.0","""event"",""trial"",""time""
""fullscreenenter"",""0"",""2680""
","
","
","""event"",""trial"",""time""
""fullscreenenter"",""0"",""2680""
","
","1095.6000000000931","","","","","","","","54","","","","276","probe-184","","","","","1","[object Object]","71","1","1","","","",""
"","html-keyboard-response","113","379981","0.0-65.0-1.0","""event"",""trial"",""time""
""fullscreenenter"",""0"",""2680""
","
","
","""event"",""trial"",""time""
""fullscreenenter"",""0"",""2680""
","
","null","<p></p>","null","","","","","","","","","","","","","","","","","","","","","","","",""
"","do_trial","114","383660","0.0-66.0-0.0","""event"",""trial"",""time""
""fullscreenenter"",""0"",""2680""
","
","
","""event"",""trial"",""time""
""fullscreenenter"",""0"",""2680""
","
","1137.6000000000931","","","","","","","","50","0,0,0","6","blank","277","null","0.6249925648056849","0.3519191321533859","0.11212108602767354","0","","","","","","","","",""
"","html-keyboard-response","115","384666","0.0-66.0-1.0","""event"",""trial"",""time""
""fullscreenenter"",""0"",""2680""
","
","
","""event"",""trial"",""time""
""fullscreenenter"",""0"",""2680""
","
","null","<p></p>","null","","","","","","","","","","","","","","","","","","","","","","","",""
"","do_trial","116","387868","0.0-67.0-0.0","""event"",""trial"",""time""
""fullscreenenter"",""0"",""2680""
","
","
","""event"",""trial"",""time""
""fullscreenenter"",""0"",""2680""
","
","660.2999999998137","","","","","","","","51","1,0,0","6","blank","278","null","0.6068684262725623","0.2815855774999438","0.19322794937640175","0","","","","","","","","",""
"","html-keyboard-response","117","388874","0.0-67.0-1.0","""event"",""trial"",""time""
""fullscreenenter"",""0"",""2680""
","
","
","""event"",""trial"",""time""
""fullscreenenter"",""0"",""2680""
","
","null","<p></p>","null","","","","","","","","","","","","","","","","","","","","","","","",""
"","do_trial","118","391866","0.0-68.0-0.0","""event"",""trial"",""time""
""fullscreenenter"",""0"",""2680""
","
","
","""event"",""trial"",""time""
""fullscreenenter"",""0"",""2680""
","
","451.20000000018626","","","","","","","","49","0,0,0","6","blank","279","null","0.715061488021773","0.22015803905921824","0.23374188767441723","0","","","","","","","","",""
"","html-keyboard-response","119","392872","0.0-68.0-1.0","""event"",""trial"",""time""
""fullscreenenter"",""0"",""2680""
","
","
","""event"",""trial"",""time""
""fullscreenenter"",""0"",""2680""
","
","null","<p></p>","null","","","","","","","","","","","","","","","","","","","","","","","",""
"","do_trial","120","396740","0.0-69.0-0.0","""event"",""trial"",""time""
""fullscreenenter"",""0"",""2680""
","
","
","""event"",""trial"",""time""
""fullscreenenter"",""0"",""2680""
","
","1326.3000000002794","","","","","","","","50","1,0,0","6","blank","280","null","0.597494809550021","0.2882592386876541","0.29114533460872943","0","","","","","","","","",""
"","html-keyboard-response","121","397746","0.0-69.0-1.0","""event"",""trial"",""time""
""fullscreenenter"",""0"",""2680""
","
","
","""event"",""trial"",""time""
""fullscreenenter"",""0"",""2680""
","
","null","<p></p>","null","","","","","","","","","","","","","","","","","","","","","","","",""
"","do_trial","122","400829","0.0-70.0-0.0","""event"",""trial"",""time""
""fullscreenenter"",""0"",""2680""
","
","
","""event"",""trial"",""time""
""fullscreenenter"",""0"",""2680""
","
","540.5","","","","","","","","51","1,0,0","6","blank","281","null","0.5380336439623674","0.2454635840216868","0.2603315280355488","0","","","","","","","","",""
"","html-keyboard-response","123","401834","0.0-70.0-1.0","""event"",""trial"",""time""
""fullscreenenter"",""0"",""2680""
","
","
","""event"",""trial"",""time""
""fullscreenenter"",""0"",""2680""
","
","null","<p></p>","null","","","","","","","","","","","","","","","","","","","","","","","",""
"","do_recog","124","404996","0.0-71.0-0.0","""event"",""trial"",""time""
""fullscreenenter"",""0"",""2680""
","
","
","""event"",""trial"",""time""
""fullscreenenter"",""0"",""2680""
","
","1651.7000000001863","","","","","","","","53","","","","282","probe-218","","","","","1","[object Object]","116","2","1","","","",""
"","html-keyboard-response","125","406000","0.0-71.0-1.0","""event"",""trial"",""time""
""fullscreenenter"",""0"",""2680""
","
","
","""event"",""trial"",""time""
""fullscreenenter"",""0"",""2680""
","
","null","<p></p>","null","","","","","","","","","","","","","","","","","","","","","","","",""
"","do_trial","126","410380","0.0-72.0-0.0","""event"",""trial"",""time""
""fullscreenenter"",""0"",""2680""
","
","
","""event"",""trial"",""time""
""fullscreenenter"",""0"",""2680""
","
","1838.5","","","","","","","","51","1,0,0","6","blank","283","null","0.617844513609168","0.2806828888699188","0.07979829882906271","0","","","","","","","","",""
"","html-keyboard-response","127","411384","0.0-72.0-1.0","""event"",""trial"",""time""
""fullscreenenter"",""0"",""2680""
","
","
","""event"",""trial"",""time""
""fullscreenenter"",""0"",""2680""
","
","null","<p></p>","null","","","","","","","","","","","","","","","","","","","","","","","",""
"","do_trial","128","414963","0.0-73.0-0.0","""event"",""trial"",""time""
""fullscreenenter"",""0"",""2680""
","
","
","""event"",""trial"",""time""
""fullscreenenter"",""0"",""2680""
","
","1037.3999999999069","","","","","","","","50","1,0,0","6","blank","284","null","0.7901716116023602","0.2794214851582928","0.09002416185226964","0","","","","","","","","",""
"","html-keyboard-response","129","415968","0.0-73.0-1.0","""event"",""trial"",""time""
""fullscreenenter"",""0"",""2680""
","
","
","""event"",""trial"",""time""
""fullscreenenter"",""0"",""2680""
","
","null","<p></p>","null","","","","","","","","","","","","","","","","","","","","","","","",""
"","do_recog","130","418085","0.0-74.0-0.0","""event"",""trial"",""time""
""fullscreenenter"",""0"",""2680""
","
","
","""event"",""trial"",""time""
""fullscreenenter"",""0"",""2680""
","
","605.7000000001863","","","","","","","","55","","","","285","probe-240","","","","","0","[object Object]","null","null","1","","","",""
"","html-keyboard-response","131","419088","0.0-74.0-1.0","""event"",""trial"",""time""
""fullscreenenter"",""0"",""2680""
","
","
","""event"",""trial"",""time""
""fullscreenenter"",""0"",""2680""
","
","null","<p></p>","null","","","","","","","","","","","","","","","","","","","","","","","",""
"","do_trial","132","422204","0.0-75.0-0.0","""event"",""trial"",""time""
""fullscreenenter"",""0"",""2680""
","
","
","""event"",""trial"",""time""
""fullscreenenter"",""0"",""2680""
","
","572.8999999999069","","","","","","","","49","0,0,0","6","blank","286","null","0.7222551272873078","0.24668886047014119","0.1637111303687482","0","","","","","","","","",""
"","html-keyboard-response","133","423210","0.0-75.0-1.0","""event"",""trial"",""time""
""fullscreenenter"",""0"",""2680""
","
","
","""event"",""trial"",""time""
""fullscreenenter"",""0"",""2680""
","
","null","<p></p>","null","","","","","","","","","","","","","","","","","","","","","","","",""
"","do_trial","134","426309","0.0-76.0-0.0","""event"",""trial"",""time""
""fullscreenenter"",""0"",""2680""
","
","
","""event"",""trial"",""time""
""fullscreenenter"",""0"",""2680""
","
","555.8999999999069","","","","","","","","50","1,0,1","6","blank","287","null","0.5961220088719263","0.1949971747411123","0.06234686244085099","0","","","","","","","","",""
"","html-keyboard-response","135","427315","0.0-76.0-1.0","""event"",""trial"",""time""
""fullscreenenter"",""0"",""2680""
","
","
","""event"",""trial"",""time""
""fullscreenenter"",""0"",""2680""
","
","null","<p></p>","null","","","","","","","","","","","","","","","","","","","","","","","",""
"","do_trial","136","430149","0.0-77.0-0.0","""event"",""trial"",""time""
""fullscreenenter"",""0"",""2680""
","
","
","""event"",""trial"",""time""
""fullscreenenter"",""0"",""2680""
","
","291.40000000037253","","","","","","","","50","0,0,0","6","blank","288","null","0.5070813442078808","0.19798111445965139","0.06650694762589986","0","","","","","","","","",""
"","html-keyboard-response","137","431154","0.0-77.0-1.0","""event"",""trial"",""time""
""fullscreenenter"",""0"",""2680""
","
","
","""event"",""trial"",""time""
""fullscreenenter"",""0"",""2680""
","
","null","<p></p>","null","","","","","","","","","","","","","","","","","","","","","","","",""
"","do_recog","138","433313","0.0-78.0-0.0","""event"",""trial"",""time""
""fullscreenenter"",""0"",""2680""
","
","
","""event"",""trial"",""time""
""fullscreenenter"",""0"",""2680""
","
","652.1000000000931","","","","","","","","56","","","","289","probe-135","","","","","1","[object Object]","192","4","0","","","",""
"","html-keyboard-response","139","434317","0.0-78.0-1.0","""event"",""trial"",""time""
""fullscreenenter"",""0"",""2680""
","
","
","""event"",""trial"",""time""
""fullscreenenter"",""0"",""2680""
","
","null","<p></p>","null","","","","","","","","","","","","","","","","","","","","","","","",""
"","do_trial","140","437202","0.0-79.0-0.0","""event"",""trial"",""time""
""fullscreenenter"",""0"",""2680""
","
","
","""event"",""trial"",""time""
""fullscreenenter"",""0"",""2680""
","
","346","","","","","","","","49","0,1,0","6","blank","290","null","0.5189780211931633","0.16094612037926637","0.1262450472350546","0","","","","","","","","",""
"","html-keyboard-response","141","438207","0.0-79.0-1.0","""event"",""trial"",""time""
""fullscreenenter"",""0"",""2680""
","
","
","""event"",""trial"",""time""
""fullscreenenter"",""0"",""2680""
","
","null","<p></p>","null","","","","","","","","","","","","","","","","","","","","","","","",""
"","do_trial","142","441189","0.0-80.0-0.0","""event"",""trial"",""time""
""fullscreenenter"",""0"",""2680""
","
","
","""event"",""trial"",""time""
""fullscreenenter"",""0"",""2680""
","
","438.8000000002794","","","","","","","","50","1,0,1","6","blank","291","null","0.6589635360705002","0.07875496067487062","0.2921918531551151","0","","","","","","","","",""
"","html-keyboard-response","143","442192","0.0-80.0-1.0","""event"",""trial"",""time""
""fullscreenenter"",""0"",""2680""
","
","
","""event"",""trial"",""time""
""fullscreenenter"",""0"",""2680""
","
","null","<p></p>","null","","","","","","","","","","","","","","","","","","","","","","","",""
"","do_trial","144","445333","0.0-81.0-0.0","""event"",""trial"",""time""
""fullscreenenter"",""0"",""2680""
","
","
","""event"",""trial"",""time""
""fullscreenenter"",""0"",""2680""
","
","598.1000000000931","","","","","","","","49","1,0,0","6","blank","292","null","0.5267480975481871","0.0624968511046037","0.19725007026663313","1","","","","","","","","",""
"","html-keyboard-response","145","446338","0.0-81.0-1.0","""event"",""trial"",""time""
""fullscreenenter"",""0"",""2680""
","
","
","""event"",""trial"",""time""
""fullscreenenter"",""0"",""2680""
","
","null","<p></p>","null","","","","","","","","","","","","","","","","","","","","","","","",""
"","do_recog","146","448797","0.0-82.0-0.0","""event"",""trial"",""time""
""fullscreenenter"",""0"",""2680""
","
","
","""event"",""trial"",""time""
""fullscreenenter"",""0"",""2680""
","
","947.8999999999069","","","","","","","","56","","","","293","probe-224","","","","","1","[object Object]","36","0","0","","","",""
"","html-keyboard-response","147","449801","0.0-82.0-1.0","""event"",""trial"",""time""
""fullscreenenter"",""0"",""2680""
","
","
","""event"",""trial"",""time""
""fullscreenenter"",""0"",""2680""
","
","null","<p></p>","null","","","","","","","","","","","","","","","","","","","","","","","",""
"","do_trial","148","453509","0.0-83.0-0.0","""event"",""trial"",""time""
""fullscreenenter"",""0"",""2680""
","
","
","""event"",""trial"",""time""
""fullscreenenter"",""0"",""2680""
","
","1165.5","","","","","","","","49","1,0,0","6","blank","294","null","0.2599626247971391","0.17233791236510013","0.2595858091762372","1","","","","","","","","",""
"","html-keyboard-response","149","454510","0.0-83.0-1.0","""event"",""trial"",""time""
""fullscreenenter"",""0"",""2680""
","
","
","""event"",""trial"",""time""
""fullscreenenter"",""0"",""2680""
","
","null","<p></p>","null","","","","","","","","","","","","","","","","","","","","","","","",""
"","do_recog","150","456733","0.0-84.0-0.0","""event"",""trial"",""time""
""fullscreenenter"",""0"",""2680""
","
","
","""event"",""trial"",""time""
""fullscreenenter"",""0"",""2680""
","
","712.1000000000931","","","","","","","","55","","","","295","probe-211","","","","","1","[object Object]","79","1","0","","","",""
"","html-keyboard-response","151","457736","0.0-84.0-1.0","""event"",""trial"",""time""
""fullscreenenter"",""0"",""2680""
","
","
","""event"",""trial"",""time""
""fullscreenenter"",""0"",""2680""
","
","null","<p></p>","null","","","","","","","","","","","","","","","","","","","","","","","",""
"","do_trial","152","460697","0.0-85.0-0.0","""event"",""trial"",""time""
""fullscreenenter"",""0"",""2680""
","
","
","""event"",""trial"",""time""
""fullscreenenter"",""0"",""2680""
","
","421.5","","","","","","","","49","0,0,0","6","blank","296","null","0.1815927882430837","0.21583814986186348","0.4500300154746055","0","","","","","","","","",""
"","html-keyboard-response","153","461700","0.0-85.0-1.0","""event"",""trial"",""time""
""fullscreenenter"",""0"",""2680""
","
","
","""event"",""trial"",""time""
""fullscreenenter"",""0"",""2680""
","
","null","<p></p>","null","","","","","","","","","","","","","","","","","","","","","","","",""
"","do_trial","154","465033","0.0-86.0-0.0","""event"",""trial"",""time""
""fullscreenenter"",""0"",""2680""
","
","
","""event"",""trial"",""time""
""fullscreenenter"",""0"",""2680""
","
","793.2999999998137","","","","","","","","50","0,0,1","6","blank","297","null","0.19499839639431402","0.15660838316412218","0.4788226239538916","0","","","","","","","","",""
"","html-keyboard-response","155","466039","0.0-86.0-1.0","""event"",""trial"",""time""
""fullscreenenter"",""0"",""2680""
","
","
","""event"",""trial"",""time""
""fullscreenenter"",""0"",""2680""
","
","null","<p></p>","null","","","","","","","","","","","","","","","","","","","","","","","",""
"","do_trial","156","469082","0.0-87.0-0.0","""event"",""trial"",""time""
""fullscreenenter"",""0"",""2680""
","
","
","""event"",""trial"",""time""
""fullscreenenter"",""0"",""2680""
","
","503.10000000009313","","","","","","","","50","0,0,0","6","blank","298","null","0.1393242938760331","0.1936386871897397","0.5473420153315568","0","","","","","","","","",""
"","html-keyboard-response","157","470087","0.0-87.0-1.0","""event"",""trial"",""time""
""fullscreenenter"",""0"",""2680""
","
","
","""event"",""trial"",""time""
""fullscreenenter"",""0"",""2680""
","
","null","<p></p>","null","","","","","","","","","","","","","","","","","","","","","","","",""
"","do_trial","158","473316","0.0-88.0-0.0","""event"",""trial"",""time""
""fullscreenenter"",""0"",""2680""
","
","
","""event"",""trial"",""time""
""fullscreenenter"",""0"",""2680""
","
","687.0999999996275","","","","","","","","50","1,0,1","6","blank","299","null","0.25383530787402314","0.1936721386145118","0.5341502387832685","0","","","","","","","","",""
"","html-keyboard-response","159","474322","0.0-88.0-1.0","""event"",""trial"",""time""
""fullscreenenter"",""0"",""2680""
","
","
","""event"",""trial"",""time""
""fullscreenenter"",""0"",""2680""
","
","null","<p></p>","null","","","","","","","","","","","","","","","","","","","","","","","",""
"","do_trial","160","477713","0.0-89.0-0.0","""event"",""trial"",""time""
""fullscreenenter"",""0"",""2680""
","
","
","""event"",""trial"",""time""
""fullscreenenter"",""0"",""2680""
","
","852.4000000003725","","","","","","","","49","0,0,1","6","blank","300","null","0.16065900562661828","0.27902245486383304","0.4238111071940264","0","","","","","","","","",""
"","html-keyboard-response","161","478719","0.0-89.0-1.0","""event"",""trial"",""time""
""fullscreenenter"",""0"",""2680""
","
","
","""event"",""trial"",""time""
""fullscreenenter"",""0"",""2680""
","
","null","<p></p>","null","","","","","","","","","","","","","","","","","","","","","","","",""
"","do_recog","162","481801","0.0-90.0-0.0","""event"",""trial"",""time""
""fullscreenenter"",""0"",""2680""
","
","
","""event"",""trial"",""time""
""fullscreenenter"",""0"",""2680""
","
","1575.7000000001863","","","","","","","","53","","","","301","probe-65","","","","","1","[object Object]","72","1","1","","","",""
"","html-keyboard-response","163","482805","0.0-90.0-1.0","""event"",""trial"",""time""
""fullscreenenter"",""0"",""2680""
","
","
","""event"",""trial"",""time""
""fullscreenenter"",""0"",""2680""
","
","null","<p></p>","null","","","","","","","","","","","","","","","","","","","","","","","",""
"","do_trial","164","486445","0.0-91.0-0.0","""event"",""trial"",""time""
""fullscreenenter"",""0"",""2680""
","
","
","""event"",""trial"",""time""
""fullscreenenter"",""0"",""2680""
","
","1098","","","","","","","","49","0,0,0","6","blank","302","null","0.08894781971328375","0.3041794192890035","0.2723640995171439","0","","","","","","","","",""
"","html-keyboard-response","165","487451","0.0-91.0-1.0","""event"",""trial"",""time""
""fullscreenenter"",""0"",""2680""
","
","
","""event"",""trial"",""time""
""fullscreenenter"",""0"",""2680""
","
","null","<p></p>","null","","","","","","","","","","","","","","","","","","","","","","","",""
"","do_recog","166","490381","0.0-92.0-0.0","""event"",""trial"",""time""
""fullscreenenter"",""0"",""2680""
","
","
","""event"",""trial"",""time""
""fullscreenenter"",""0"",""2680""
","
","1419.8999999999069","","","","","","","","55","","","","303","probe-157","","","","","1","[object Object]","76","1","0","","","",""
"","html-keyboard-response","167","491384","0.0-92.0-1.0","""event"",""trial"",""time""
""fullscreenenter"",""0"",""2680""
","
","
","""event"",""trial"",""time""
""fullscreenenter"",""0"",""2680""
","
","null","<p></p>","null","","","","","","","","","","","","","","","","","","","","","","","",""
"","do_trial","168","494896","0.0-93.0-0.0","""event"",""trial"",""time""
""fullscreenenter"",""0"",""2680""
","
","
","""event"",""trial"",""time""
""fullscreenenter"",""0"",""2680""
","
","974","","","","","","","","50","0,1,0","6","blank","304","null","0.11989901952509975","0.38963286031923333","0.363262219110375","1","","","","","","","","",""
"","html-keyboard-response","169","495901","0.0-93.0-1.0","""event"",""trial"",""time""
""fullscreenenter"",""0"",""2680""
","
","
","""event"",""trial"",""time""
""fullscreenenter"",""0"",""2680""
","
","null","<p></p>","null","","","","","","","","","","","","","","","","","","","","","","","",""
"","do_recog","170","498196","0.0-94.0-0.0","""event"",""trial"",""time""
""fullscreenenter"",""0"",""2680""
","
","
","""event"",""trial"",""time""
""fullscreenenter"",""0"",""2680""
","
","785.7000000001863","","","","","","","","54","","","","305","probe-234","","","","","0","[object Object]","null","null","0","","","",""
"","html-keyboard-response","171","499200","0.0-94.0-1.0","""event"",""trial"",""time""
""fullscreenenter"",""0"",""2680""
","
","
","""event"",""trial"",""time""
""fullscreenenter"",""0"",""2680""
","
","null","<p></p>","null","","","","","","","","","","","","","","","","","","","","","","","",""
"","do_trial","172","502668","0.0-95.0-0.0","""event"",""trial"",""time""
""fullscreenenter"",""0"",""2680""
","
","
","""event"",""trial"",""time""
""fullscreenenter"",""0"",""2680""
","
","925.7000000001863","","","","","","","","50","0,0,0","6","blank","306","null","0.16506623528843878","0.34639233967155925","0.4857403519752615","0","","","","","","","","",""
"","html-keyboard-response","173","503674","0.0-95.0-1.0","""event"",""trial"",""time""
""fullscreenenter"",""0"",""2680""
","
","
","""event"",""trial"",""time""
""fullscreenenter"",""0"",""2680""
","
","null","<p></p>","null","","","","","","","","","","","","","","","","","","","","","","","",""
"","do_trial","174","506973","0.0-96.0-0.0","""event"",""trial"",""time""
""fullscreenenter"",""0"",""2680""
","
","
","""event"",""trial"",""time""
""fullscreenenter"",""0"",""2680""
","
","756","","","","","","","","51","0,1,1","6","blank","307","null","0.2046391588528793","0.2588903229048405","0.5929104627814494","1","","","","","","","","",""
"","html-keyboard-response","175","507978","0.0-96.0-1.0","""event"",""trial"",""time""
""fullscreenenter"",""0"",""2680""
","
","
","""event"",""trial"",""time""
""fullscreenenter"",""0"",""2680""
","
","null","<p></p>","null","","","","","","","","","","","","","","","","","","","","","","","",""
"","do_recog","176","510331","0.0-97.0-0.0","""event"",""trial"",""time""
""fullscreenenter"",""0"",""2680""
","
","
","""event"",""trial"",""time""
""fullscreenenter"",""0"",""2680""
","
","845.0999999996275","","","","","","","","53","","","","308","probe-30","","","","","1","[object Object]","75","1","1","","","",""
"","html-keyboard-response","177","511335","0.0-97.0-1.0","""event"",""trial"",""time""
""fullscreenenter"",""0"",""2680""
","
","
","""event"",""trial"",""time""
""fullscreenenter"",""0"",""2680""
","
","null","<p></p>","null","","","","","","","","","","","","","","","","","","","","","","","",""
"","break","178","603829","0.0-98.0-0.0","""event"",""trial"",""time""
""fullscreenenter"",""0"",""2680""
","
","
","""event"",""trial"",""time""
""fullscreenenter"",""0"",""2680""
","
","92492.29999999981","<div class='center'><p>Time to take a quick break! You have 2 minutes to rest, but you can move on sooner if you'd like.</p><p> Press the <b>space bar</b> to continue.</p></div>","32","","","","","","","","","","","","","","","","","","","","","","","",""
"","do_trial","179","607516","0.0-98.0-1.0","""event"",""trial"",""time""
""fullscreenenter"",""0"",""2680""
","
","
","""event"",""trial"",""time""
""fullscreenenter"",""0"",""2680""
","
","1148","","","","","","","","49","0,0,1","6","blank","309","null","0.1285016762410419","0.3234852944359865","0.5753383972149846","0","","","","","","","","",""
"","html-keyboard-response","180","608522","0.0-98.0-2.0","""event"",""trial"",""time""
""fullscreenenter"",""0"",""2680""
","
","
","""event"",""trial"",""time""
""fullscreenenter"",""0"",""2680""
","
","null","<p></p>","null","","","","","","","","","","","","","","","","","","","","","","","",""
"","do_recog","181","611003","0.0-99.0-0.0","""event"",""trial"",""time""
""fullscreenenter"",""0"",""2680""
","
","
","""event"",""trial"",""time""
""fullscreenenter"",""0"",""2680""
","
","973.7999999998137","","","","","","","","55","","","","310","probe-96","","","","","1","[object Object]","74","1","0","","","",""
"","html-keyboard-response","182","612007","0.0-99.0-1.0","""event"",""trial"",""time""
""fullscreenenter"",""0"",""2680""
","
","
","""event"",""trial"",""time""
""fullscreenenter"",""0"",""2680""
","
","null","<p></p>","null","","","","","","","","","","","","","","","","","","","","","","","",""
"","do_trial","183","615956","0.0-100.0-0.0","""event"",""trial"",""time""
""fullscreenenter"",""0"",""2680""
","
","
","""event"",""trial"",""time""
""fullscreenenter"",""0"",""2680""
","
","1408.6000000000931","","","","","","","","49","0,1,1","6","blank","311","null","0.19405882123689533","0.291073165976229","0.5373854574531473","0","","","","","","","","",""
"","html-keyboard-response","184","616962","0.0-100.0-1.0","""event"",""trial"",""time""
""fullscreenenter"",""0"",""2680""
","
","
","""event"",""trial"",""time""
""fullscreenenter"",""0"",""2680""
","
","null","<p></p>","null","","","","","","","","","","","","","","","","","","","","","","","",""
"","do_trial","185","620786","0.0-101.0-0.0","""event"",""trial"",""time""
""fullscreenenter"",""0"",""2680""
","
","
","""event"",""trial"",""time""
""fullscreenenter"",""0"",""2680""
","
","1286","","","","","","","","50","0,0,1","6","blank","312","null","0.26468355522896514","0.09451661395133379","0.6608814119201604","0","","","","","","","","",""
"","html-keyboard-response","186","621792","0.0-101.0-1.0","""event"",""trial"",""time""
""fullscreenenter"",""0"",""2680""
","
","
","""event"",""trial"",""time""
""fullscreenenter"",""0"",""2680""
","
","null","<p></p>","null","","","","","","","","","","","","","","","","","","","","","","","",""
"","do_trial","187","624834","0.0-102.0-0.0","""event"",""trial"",""time""
""fullscreenenter"",""0"",""2680""
","
","
","""event"",""trial"",""time""
""fullscreenenter"",""0"",""2680""
","
","503.20000000018626","","","","","","","","51","1,0,0","6","blank","313","null","0.21248933281711105","0.1284464789380185","0.7017661250249949","0","","","","","","","","",""
"","html-keyboard-response","188","625840","0.0-102.0-1.0","""event"",""trial"",""time""
""fullscreenenter"",""0"",""2680""
","
","
","""event"",""trial"",""time""
""fullscreenenter"",""0"",""2680""
","
","null","<p></p>","null","","","","","","","","","","","","","","","","","","","","","","","",""
"","do_recog","189","628241","0.0-103.0-0.0","""event"",""trial"",""time""
""fullscreenenter"",""0"",""2680""
","
","
","""event"",""trial"",""time""
""fullscreenenter"",""0"",""2680""
","
","895.6000000000931","","","","","","","","54","","","","314","probe-24","","","","","1","[object Object]","117","2","1","","","",""
"","html-keyboard-response","190","629245","0.0-103.0-1.0","""event"",""trial"",""time""
""fullscreenenter"",""0"",""2680""
","
","
","""event"",""trial"",""time""
""fullscreenenter"",""0"",""2680""
","
","null","<p></p>","null","","","","","","","","","","","","","","","","","","","","","","","",""
"","do_trial","191","633060","0.0-104.0-0.0","""event"",""trial"",""time""
""fullscreenenter"",""0"",""2680""
","
","
","""event"",""trial"",""time""
""fullscreenenter"",""0"",""2680""
","
","1275.2999999998137","","","","","","","","50","0,0,1","6","blank","315","null","0.0796318582090755","0.2234275009937412","0.5513782852446195","0","","","","","","","","",""
"","html-keyboard-response","192","634066","0.0-104.0-1.0","""event"",""trial"",""time""
""fullscreenenter"",""0"",""2680""
","
","
","""event"",""trial"",""time""
""fullscreenenter"",""0"",""2680""
","
","null","<p></p>","null","","","","","","","","","","","","","","","","","","","","","","","",""
"","do_recog","193","636950","0.0-105.0-0.0","""event"",""trial"",""time""
""fullscreenenter"",""0"",""2680""
","
","
","""event"",""trial"",""time""
""fullscreenenter"",""0"",""2680""
","
","1373.7999999998137","","","","","","","","53","","","","316","probe-174","","","","","1","[object Object]","111","2","1","","","",""
"","html-keyboard-response","194","637954","0.0-105.0-1.0","""event"",""trial"",""time""
""fullscreenenter"",""0"",""2680""
","
","
","""event"",""trial"",""time""
""fullscreenenter"",""0"",""2680""
","
","null","<p></p>","null","","","","","","","","","","","","","","","","","","","","","","","",""
"","do_trial","195","641612","0.0-106.0-0.0","""event"",""trial"",""time""
""fullscreenenter"",""0"",""2680""
","
","
","""event"",""trial"",""time""
""fullscreenenter"",""0"",""2680""
","
","1117.8999999999069","","","","","","","","50","0,1,0","6","blank","317","null","0.08752816942486145","0.27270997007789516","0.5840352560030373","1","","","","","","","","",""
"","html-keyboard-response","196","642618","0.0-106.0-1.0","""event"",""trial"",""time""
""fullscreenenter"",""0"",""2680""
","
","
","""event"",""trial"",""time""
""fullscreenenter"",""0"",""2680""
","
","null","<p></p>","null","","","","","","","","","","","","","","","","","","","","","","","",""
"","do_recog","197","645838","0.0-107.0-0.0","""event"",""trial"",""time""
""fullscreenenter"",""0"",""2680""
","
","
","""event"",""trial"",""time""
""fullscreenenter"",""0"",""2680""
","
","1709.7999999998137","","","","","","","","56","","","","318","probe-132","","","","","1","[object Object]","157","3","0","","","",""
"","html-keyboard-response","198","646842","0.0-107.0-1.0","""event"",""trial"",""time""
""fullscreenenter"",""0"",""2680""
","
","
","""event"",""trial"",""time""
""fullscreenenter"",""0"",""2680""
","
","null","<p></p>","null","","","","","","","","","","","","","","","","","","","","","","","",""
"","do_trial","199","650766","0.0-108.0-0.0","""event"",""trial"",""time""
""fullscreenenter"",""0"",""2680""
","
","
","""event"",""trial"",""time""
""fullscreenenter"",""0"",""2680""
","
","1381.2999999998137","","","","","","","","49","0,0,1","6","blank","319","null","0.09938340237961582","0.23126922548132833","0.577675721592459","0","","","","","","","","",""
"","html-keyboard-response","200","651771","0.0-108.0-1.0","""event"",""trial"",""time""
""fullscreenenter"",""0"",""2680""
","
","
","""event"",""trial"",""time""
""fullscreenenter"",""0"",""2680""
","
","null","<p></p>","null","","","","","","","","","","","","","","","","","","","","","","","",""
"","do_recog","201","654754","0.0-109.0-0.0","""event"",""trial"",""time""
""fullscreenenter"",""0"",""2680""
","
","
","""event"",""trial"",""time""
""fullscreenenter"",""0"",""2680""
","
","1476.0999999996275","","","","","","","","53","","","","320","probe-108","","","","","1","[object Object]","37","0","1","","","",""
"","html-keyboard-response","202","655758","0.0-109.0-1.0","""event"",""trial"",""time""
""fullscreenenter"",""0"",""2680""
","
","
","""event"",""trial"",""time""
""fullscreenenter"",""0"",""2680""
","
","null","<p></p>","null","","","","","","","","","","","","","","","","","","","","","","","",""
"","do_trial","203","659850","0.0-110.0-0.0","""event"",""trial"",""time""
""fullscreenenter"",""0"",""2680""
","
","
","""event"",""trial"",""time""
""fullscreenenter"",""0"",""2680""
","
","1553.7000000001863","","","","","","","","49","0,0,0","6","blank","321","null","0.2043276241201399","0.3280020221113196","0.5512212636819741","0","","","","","","","","",""
"","html-keyboard-response","204","660854","0.0-110.0-1.0","""event"",""trial"",""time""
""fullscreenenter"",""0"",""2680""
","
","
","""event"",""trial"",""time""
""fullscreenenter"",""0"",""2680""
","
","null","<p></p>","null","","","","","","","","","","","","","","","","","","","","","","","",""
"","do_trial","205","664006","0.0-111.0-0.0","""event"",""trial"",""time""
""fullscreenenter"",""0"",""2680""
","
","
","""event"",""trial"",""time""
""fullscreenenter"",""0"",""2680""
","
","609.8999999999069","","","","","","","","51","0,0,1","6","blank","322","null","0.28264622120718963","0.3919703542238033","0.6731999188433244","1","","","","","","","","",""
"","html-keyboard-response","206","665012","0.0-111.0-1.0","""event"",""trial"",""time""
""fullscreenenter"",""0"",""2680""
","
","
","""event"",""trial"",""time""
""fullscreenenter"",""0"",""2680""
","
","null","<p></p>","null","","","","","","","","","","","","","","","","","","","","","","","",""
"","do_trial","207","668381","0.0-112.0-0.0","""event"",""trial"",""time""
""fullscreenenter"",""0"",""2680""
","
","
","""event"",""trial"",""time""
""fullscreenenter"",""0"",""2680""
","
","828.3000000002794","","","","","","","","49","0,1,1","6","blank","323","null","0.21837979006220423","0.5251739189254775","0.8969642255659008","0","","","","","","","","",""
"","html-keyboard-response","208","669387","0.0-112.0-1.0","""event"",""trial"",""time""
""fullscreenenter"",""0"",""2680""
","
","
","""event"",""trial"",""time""
""fullscreenenter"",""0"",""2680""
","
","null","<p></p>","null","","","","","","","","","","","","","","","","","","","","","","","",""
"","do_trial","209","672806","0.0-113.0-0.0","""event"",""trial"",""time""
""fullscreenenter"",""0"",""2680""
","
","
","""event"",""trial"",""time""
""fullscreenenter"",""0"",""2680""
","
","877.6000000000931","","","","","","","","49","0,0,1","6","blank","324","null","0.21546246114681644","0.4359147085226753","0.6474317240195715","0","","","","","","","","",""
"","html-keyboard-response","210","673812","0.0-113.0-1.0","""event"",""trial"",""time""
""fullscreenenter"",""0"",""2680""
","
","
","""event"",""trial"",""time""
""fullscreenenter"",""0"",""2680""
","
","null","<p></p>","null","","","","","","","","","","","","","","","","","","","","","","","",""
"","do_trial","211","677286","0.0-114.0-0.0","""event"",""trial"",""time""
""fullscreenenter"",""0"",""2680""
","
","
","""event"",""trial"",""time""
""fullscreenenter"",""0"",""2680""
","
","931.7000000001863","","","","","","","","49","0,1,0","6","blank","325","null","0.050777369403546546","0.4480615640466374","0.6609504111566308","0","","","","","","","","",""
"","html-keyboard-response","212","678292","0.0-114.0-1.0","""event"",""trial"",""time""
""fullscreenenter"",""0"",""2680""
","
","
","""event"",""trial"",""time""
""fullscreenenter"",""0"",""2680""
","
","null","<p></p>","null","","","","","","","","","","","","","","","","","","","","","","","",""
"","do_recog","213","680894","0.0-115.0-0.0","""event"",""trial"",""time""
""fullscreenenter"",""0"",""2680""
","
","
","""event"",""trial"",""time""
""fullscreenenter"",""0"",""2680""
","
","1091.8999999999069","","","","","","","","56","","","","326","probe-04","","","","","1","[object Object]","194","4","0","","","",""
"","html-keyboard-response","214","681898","0.0-115.0-1.0","""event"",""trial"",""time""
""fullscreenenter"",""0"",""2680""
","
","
","""event"",""trial"",""time""
""fullscreenenter"",""0"",""2680""
","
","null","<p></p>","null","","","","","","","","","","","","","","","","","","","","","","","",""
"","do_trial","215","685342","0.0-116.0-0.0","""event"",""trial"",""time""
""fullscreenenter"",""0"",""2680""
","
","
","""event"",""trial"",""time""
""fullscreenenter"",""0"",""2680""
","
","901.8999999999069","","","","","","","","49","0,0,1","6","blank","327","null","0.15878339877801975","0.2661070653269201","0.7236549202617252","0","","","","","","","","",""
"","html-keyboard-response","216","686348","0.0-116.0-1.0","""event"",""trial"",""time""
""fullscreenenter"",""0"",""2680""
","
","
","""event"",""trial"",""time""
""fullscreenenter"",""0"",""2680""
","
","null","<p></p>","null","","","","","","","","","","","","","","","","","","","","","","","",""
"","do_trial","217","689854","0.0-117.0-0.0","""event"",""trial"",""time""
""fullscreenenter"",""0"",""2680""
","
","
","""event"",""trial"",""time""
""fullscreenenter"",""0"",""2680""
","
","963.8999999999069","","","","","","","","50","0,0,1","6","blank","328","null","0.0671747237395604","0.18100441968343248","0.6587328790611688","0","","","","","","","","",""
"","html-keyboard-response","218","690860","0.0-117.0-1.0","""event"",""trial"",""time""
""fullscreenenter"",""0"",""2680""
","
","
","""event"",""trial"",""time""
""fullscreenenter"",""0"",""2680""
","
","null","<p></p>","null","","","","","","","","","","","","","","","","","","","","","","","",""
"","do_trial","219","693998","0.0-118.0-0.0","""event"",""trial"",""time""
""fullscreenenter"",""0"",""2680""
","
","
","""event"",""trial"",""time""
""fullscreenenter"",""0"",""2680""
","
","596.3000000002794","","","","","","","","51","0,1,1","6","blank","329","null","0.05756468171856424","0.21288854418184142","0.7195867465639536","1","","","","","","","","",""
"","html-keyboard-response","220","695005","0.0-118.0-1.0","""event"",""trial"",""time""
""fullscreenenter"",""0"",""2680""
","
","
","""event"",""trial"",""time""
""fullscreenenter"",""0"",""2680""
","
","null","<p></p>","null","","","","","","","","","","","","","","","","","","","","","","","",""
"","do_trial","221","698079","0.0-119.0-0.0","""event"",""trial"",""time""
""fullscreenenter"",""0"",""2680""
","
","
","""event"",""trial"",""time""
""fullscreenenter"",""0"",""2680""
","
","532.2999999998137","","","","","","","","50","0,0,1","6","blank","330","null","0.13849046612364757","0.1979947640979357","0.6861979474323325","0","","","","","","","","",""
"","html-keyboard-response","222","699084","0.0-119.0-1.0","""event"",""trial"",""time""
""fullscreenenter"",""0"",""2680""
","
","
","""event"",""trial"",""time""
""fullscreenenter"",""0"",""2680""
","
","null","<p></p>","null","","","","","","","","","","","","","","","","","","","","","","","",""
"","do_recog","223","701655","0.0-120.0-0.0","""event"",""trial"",""time""
""fullscreenenter"",""0"",""2680""
","
","
","""event"",""trial"",""time""
""fullscreenenter"",""0"",""2680""
","
","1060","","","","","","","","53","","","","331","probe-146","","","","","1","[object Object]","155","3","1","","","",""
"","html-keyboard-response","224","702658","0.0-120.0-1.0","""event"",""trial"",""time""
""fullscreenenter"",""0"",""2680""
","
","
","""event"",""trial"",""time""
""fullscreenenter"",""0"",""2680""
","
","null","<p></p>","null","","","","","","","","","","","","","","","","","","","","","","","",""
"","do_trial","225","706286","0.0-121.0-0.0","""event"",""trial"",""time""
""fullscreenenter"",""0"",""2680""
","
","
","""event"",""trial"",""time""
""fullscreenenter"",""0"",""2680""
","
","1086.3999999999069","","","","","","","","50","0,0,0","6","blank","332","null","0.17733421238799404","0.21404130274912198","0.6043304791072585","0","","","","","","","","",""
"","html-keyboard-response","226","707291","0.0-121.0-1.0","""event"",""trial"",""time""
""fullscreenenter"",""0"",""2680""
","
","
","""event"",""trial"",""time""
""fullscreenenter"",""0"",""2680""
","
","null","<p></p>","null","","","","","","","","","","","","","","","","","","","","","","","",""
"","do_recog","227","711535","0.0-122.0-0.0","""event"",""trial"",""time""
""fullscreenenter"",""0"",""2680""
","
","
","""event"",""trial"",""time""
""fullscreenenter"",""0"",""2680""
","
","2732.9000000003725","","","","","","","","53","","","","333","probe-153","","","","","1","[object Object]","195","4","1","","","",""
"","html-keyboard-response","228","712538","0.0-122.0-1.0","""event"",""trial"",""time""
""fullscreenenter"",""0"",""2680""
","
","
","""event"",""trial"",""time""
""fullscreenenter"",""0"",""2680""
","
","null","<p></p>","null","","","","","","","","","","","","","","","","","","","","","","","",""
"","do_trial","229","716262","0.0-123.0-0.0","""event"",""trial"",""time""
""fullscreenenter"",""0"",""2680""
","
","
","""event"",""trial"",""time""
""fullscreenenter"",""0"",""2680""
","
","1181.8999999999069","","","","","","","","51","0,0,1","6","blank","334","null","0.0740252357387979","0.23987505584551977","0.6162663577112331","1","","","","","","","","",""
"","html-keyboard-response","230","717267","0.0-123.0-1.0","""event"",""trial"",""time""
""fullscreenenter"",""0"",""2680""
","
","
","""event"",""trial"",""time""
""fullscreenenter"",""0"",""2680""
","
","null","<p></p>","null","","","","","","","","","","","","","","","","","","","","","","","",""
"","do_trial","231","720842","0.0-124.0-0.0","""event"",""trial"",""time""
""fullscreenenter"",""0"",""2680""
","
","
","""event"",""trial"",""time""
""fullscreenenter"",""0"",""2680""
","
","1037.2000000001863","","","","","","","","51","0,0,1","6","blank","335","null","0.09249347325676098","0.2983541768793095","0.505822715375137","1","","","","","","","","",""
"","html-keyboard-response","232","721847","0.0-124.0-1.0","""event"",""trial"",""time""
""fullscreenenter"",""0"",""2680""
","
","
","""event"",""trial"",""time""
""fullscreenenter"",""0"",""2680""
","
","null","<p></p>","null","","","","","","","","","","","","","","","","","","","","","","","",""
"","do_trial","233","724871","0.0-125.0-0.0","""event"",""trial"",""time""
""fullscreenenter"",""0"",""2680""
","
","
","""event"",""trial"",""time""
""fullscreenenter"",""0"",""2680""
","
","481","","","","","","","","49","0,0,1","6","blank","336","null","0.13463390650744791","0.24324624882960835","0.5652765922245967","0","","","","","","","","",""
"","html-keyboard-response","234","725875","0.0-125.0-1.0","""event"",""trial"",""time""
""fullscreenenter"",""0"",""2680""
","
","
","""event"",""trial"",""time""
""fullscreenenter"",""0"",""2680""
","
","null","<p></p>","null","","","","","","","","","","","","","","","","","","","","","","","",""
"","do_trial","235","729431","0.0-126.0-0.0","""event"",""trial"",""time""
""fullscreenenter"",""0"",""2680""
","
","
","""event"",""trial"",""time""
""fullscreenenter"",""0"",""2680""
","
","1013","","","","","","","","51","0,0,1","6","blank","337","null","0.2227659999374517","0.3755192996111509","0.6247174858856058","1","","","","","","","","",""
"","html-keyboard-response","236","730436","0.0-126.0-1.0","""event"",""trial"",""time""
""fullscreenenter"",""0"",""2680""
","
","
","""event"",""trial"",""time""
""fullscreenenter"",""0"",""2680""
","
","null","<p></p>","null","","","","","","","","","","","","","","","","","","","","","","","",""
"","do_trial","237","733927","0.0-127.0-0.0","""event"",""trial"",""time""
""fullscreenenter"",""0"",""2680""
","
","
","""event"",""trial"",""time""
""fullscreenenter"",""0"",""2680""
","
","948","","","","","","","","50","0,0,1","6","blank","338","null","0.19474470457965393","0.29314714728321745","0.7613651841216077","0","","","","","","","","",""
"","html-keyboard-response","238","734932","0.0-127.0-1.0","""event"",""trial"",""time""
""fullscreenenter"",""0"",""2680""
","
","
","""event"",""trial"",""time""
""fullscreenenter"",""0"",""2680""
","
","null","<p></p>","null","","","","","","","","","","","","","","","","","","","","","","","",""
"","do_trial","239","738005","0.0-128.0-0.0","""event"",""trial"",""time""
""fullscreenenter"",""0"",""2680""
","
","
","""event"",""trial"",""time""
""fullscreenenter"",""0"",""2680""
","
","532.3999999999069","","","","","","","","51","1,0,1","6","blank","339","null","0.17415627249115959","0.3293791306460377","0.729993599652533","1","","","","","","","","",""
"","html-keyboard-response","240","739010","0.0-128.0-1.0","""event"",""trial"",""time""
""fullscreenenter"",""0"",""2680""
","
","
","""event"",""trial"",""time""
""fullscreenenter"",""0"",""2680""
","
","null","<p></p>","null","","","","","","","","","","","","","","","","","","","","","","","",""
"","do_recog","241","743279","0.0-129.0-0.0","""event"",""trial"",""time""
""fullscreenenter"",""0"",""2680""
","
","
","""event"",""trial"",""time""
""fullscreenenter"",""0"",""2680""
","
","2758.8000000002794","","","","","","","","53","","","","340","probe-213","","","","","1","[object Object]","198","4","1","","","",""
"","html-keyboard-response","242","744282","0.0-129.0-1.0","""event"",""trial"",""time""
""fullscreenenter"",""0"",""2680""
","
","
","""event"",""trial"",""time""
""fullscreenenter"",""0"",""2680""
","
","null","<p></p>","null","","","","","","","","","","","","","","","","","","","","","","","",""
"","do_trial","243","747695","0.0-130.0-0.0","""event"",""trial"",""time""
""fullscreenenter"",""0"",""2680""
","
","
","""event"",""trial"",""time""
""fullscreenenter"",""0"",""2680""
","
","870.6000000000931","","","","","","","","51","0,0,1","6","blank","341","null","0.23000965815716506","0.30871122595987566","0.6413273576619658","1","","","","","","","","",""
"","html-keyboard-response","244","748701","0.0-130.0-1.0","""event"",""trial"",""time""
""fullscreenenter"",""0"",""2680""
","
","
","""event"",""trial"",""time""
""fullscreenenter"",""0"",""2680""
","
","null","<p></p>","null","","","","","","","","","","","","","","","","","","","","","","","",""
"","do_trial","245","752354","0.0-131.0-0.0","""event"",""trial"",""time""
""fullscreenenter"",""0"",""2680""
","
","
","""event"",""trial"",""time""
""fullscreenenter"",""0"",""2680""
","
","1116.3999999999069","","","","","","","","50","0,1,1","6","blank","342","null","0.21293273725900816","0.3179861272267887","0.5982125790955634","1","","","","","","","","",""
"","html-keyboard-response","246","753360","0.0-131.0-1.0","""event"",""trial"",""time""
""fullscreenenter"",""0"",""2680""
","
","
","""event"",""trial"",""time""
""fullscreenenter"",""0"",""2680""
","
","null","<p></p>","null","","","","","","","","","","","","","","","","","","","","","","","",""
"","do_trial","247","756391","0.0-132.0-0.0","""event"",""trial"",""time""
""fullscreenenter"",""0"",""2680""
","
","
","""event"",""trial"",""time""
""fullscreenenter"",""0"",""2680""
","
","487.89999999990687","","","","","","","","51","0,1,0","6","blank","343","null","0.09650290980839042","0.4022564883501342","0.6552526317725136","0","","","","","","","","",""
"","html-keyboard-response","248","757396","0.0-132.0-1.0","""event"",""trial"",""time""
""fullscreenenter"",""0"",""2680""
","
","
","""event"",""trial"",""time""
""fullscreenenter"",""0"",""2680""
","
","null","<p></p>","null","","","","","","","","","","","","","","","","","","","","","","","",""
"","do_trial","249","760351","0.0-133.0-0.0","""event"",""trial"",""time""
""fullscreenenter"",""0"",""2680""
","
","
","""event"",""trial"",""time""
""fullscreenenter"",""0"",""2680""
","
","412.5","","","","","","","","49","0,1,0","6","blank","344","null","0.06803258418904103","0.4959044255993664","0.6476781035427541","0","","","","","","","","",""
"","html-keyboard-response","250","761355","0.0-133.0-1.0","""event"",""trial"",""time""
""fullscreenenter"",""0"",""2680""
","
","
","""event"",""trial"",""time""
""fullscreenenter"",""0"",""2680""
","
","null","<p></p>","null","","","","","","","","","","","","","","","","","","","","","","","",""
"","do_trial","251","764215","0.0-134.0-0.0","""event"",""trial"",""time""
""fullscreenenter"",""0"",""2680""
","
","
","""event"",""trial"",""time""
""fullscreenenter"",""0"",""2680""
","
","317.89999999990687","","","","","","","","50","0,0,1","6","blank","345","null","0.14968133867326902","0.4079387120174088","0.6528241597548666","0","","","","","","","","",""
"","html-keyboard-response","252","765221","0.0-134.0-1.0","""event"",""trial"",""time""
""fullscreenenter"",""0"",""2680""
","
","
","""event"",""trial"",""time""
""fullscreenenter"",""0"",""2680""
","
","null","<p></p>","null","","","","","","","","","","","","","","","","","","","","","","","",""
"","do_recog","253","768326","0.0-135.0-0.0","""event"",""trial"",""time""
""fullscreenenter"",""0"",""2680""
","
","
","""event"",""trial"",""time""
""fullscreenenter"",""0"",""2680""
","
","1594.5","","","","","","","","53","","","","346","probe-217","","","","","1","[object Object]","193","4","1","","","",""
"","html-keyboard-response","254","769330","0.0-135.0-1.0","""event"",""trial"",""time""
""fullscreenenter"",""0"",""2680""
","
","
","""event"",""trial"",""time""
""fullscreenenter"",""0"",""2680""
","
","null","<p></p>","null","","","","","","","","","","","","","","","","","","","","","","","",""
"","do_trial","255","772829","0.0-136.0-0.0","""event"",""trial"",""time""
""fullscreenenter"",""0"",""2680""
","
","
","""event"",""trial"",""time""
""fullscreenenter"",""0"",""2680""
","
","958","","","","","","","","51","1,0,1","6","blank","347","null","0.2862592007312834","0.4127126769354771","0.5741158000612047","1","","","","","","","","",""
"","html-keyboard-response","256","773835","0.0-136.0-1.0","""event"",""trial"",""time""
""fullscreenenter"",""0"",""2680""
","
","
","""event"",""trial"",""time""
""fullscreenenter"",""0"",""2680""
","
","null","<p></p>","null","","","","","","","","","","","","","","","","","","","","","","","",""
"","do_trial","257","777167","0.0-137.0-0.0","""event"",""trial"",""time""
""fullscreenenter"",""0"",""2680""
","
","
","""event"",""trial"",""time""
""fullscreenenter"",""0"",""2680""
","
","790","","","","","","","","51","1,0,1","6","blank","348","null","0.3975296542830801","0.43206763159004474","0.38249985032926076","1","","","","","","","","",""
"","html-keyboard-response","258","778173","0.0-137.0-1.0","""event"",""trial"",""time""
""fullscreenenter"",""0"",""2680""
","
","
","""event"",""trial"",""time""
""fullscreenenter"",""0"",""2680""
","
","null","<p></p>","null","","","","","","","","","","","","","","","","","","","","","","","",""
"","break","259","799014","0.0-138.0-0.0","""event"",""trial"",""time""
""fullscreenenter"",""0"",""2680""
","
","
","""event"",""trial"",""time""
""fullscreenenter"",""0"",""2680""
","
","20839.799999999814","<div class='center'><p>Time to take a quick break! You have 2 minutes to rest, but you can move on sooner if you'd like.</p><p> Press the <b>space bar</b> to continue.</p></div>","32","","","","","","","","","","","","","","","","","","","","","","","",""
"","do_trial","260","802678","0.0-138.0-1.0","""event"",""trial"",""time""
""fullscreenenter"",""0"",""2680""
","
","
","""event"",""trial"",""time""
""fullscreenenter"",""0"",""2680""
","
","1123.7000000001863","","","","","","","","50","0,1,1","6","blank","349","null","0.4605602300455452","0.34948436464651556","0.25002994888886076","1","","","","","","","","",""
"","html-keyboard-response","261","803684","0.0-138.0-2.0","""event"",""trial"",""time""
""fullscreenenter"",""0"",""2680""
","
","
","""event"",""trial"",""time""
""fullscreenenter"",""0"",""2680""
","
","null","<p></p>","null","","","","","","","","","","","","","","","","","","","","","","","",""
"","do_trial","262","806797","0.0-139.0-0.0","""event"",""trial"",""time""
""fullscreenenter"",""0"",""2680""
","
","
","""event"",""trial"",""time""
""fullscreenenter"",""0"",""2680""
","
","573","","","","","","","","50","0,0,0","6","blank","350","null","0.6129614076170417","0.1262289523206912","0.31908160098090255","0","","","","","","","","",""
"","html-keyboard-response","263","807801","0.0-139.0-1.0","""event"",""trial"",""time""
""fullscreenenter"",""0"",""2680""
","
","
","""event"",""trial"",""time""
""fullscreenenter"",""0"",""2680""
","
","null","<p></p>","null","","","","","","","","","","","","","","","","","","","","","","","",""
"","do_trial","264","810799","0.0-140.0-0.0","""event"",""trial"",""time""
""fullscreenenter"",""0"",""2680""
","
","
","""event"",""trial"",""time""
""fullscreenenter"",""0"",""2680""
","
","454.60000000009313","","","","","","","","51","1,0,0","6","blank","351","null","0.5157976703954528","0.20020062560377494","0.38465535178806826","0","","","","","","","","",""
"","html-keyboard-response","265","811805","0.0-140.0-1.0","""event"",""trial"",""time""
""fullscreenenter"",""0"",""2680""
","
","
","""event"",""trial"",""time""
""fullscreenenter"",""0"",""2680""
","
","null","<p></p>","null","","","","","","","","","","","","","","","","","","","","","","","",""
"","do_recog","266","815781","0.0-141.0-0.0","""event"",""trial"",""time""
""fullscreenenter"",""0"",""2680""
","
","
","""event"",""trial"",""time""
""fullscreenenter"",""0"",""2680""
","
","2468.2999999998137","","","","","","","","53","","","","352","probe-116","","","","","1","[object Object]","191","4","1","","","",""
"","html-keyboard-response","267","816784","0.0-141.0-1.0","""event"",""trial"",""time""
""fullscreenenter"",""0"",""2680""
","
","
","""event"",""trial"",""time""
""fullscreenenter"",""0"",""2680""
","
","null","<p></p>","null","","","","","","","","","","","","","","","","","","","","","","","",""
"","do_trial","268","820327","0.0-142.0-0.0","""event"",""trial"",""time""
""fullscreenenter"",""0"",""2680""
","
","
","""event"",""trial"",""time""
""fullscreenenter"",""0"",""2680""
","
","1001.5","","","","","","","","50","1,0,1","6","blank","353","null","0.5570952325969425","0.1640200541178711","0.31781367786967696","0","","","","","","","","",""
"","html-keyboard-response","269","821333","0.0-142.0-1.0","""event"",""trial"",""time""
""fullscreenenter"",""0"",""2680""
","
","
","""event"",""trial"",""time""
""fullscreenenter"",""0"",""2680""
","
","null","<p></p>","null","","","","","","","","","","","","","","","","","","","","","","","",""
"","do_trial","270","824551","0.0-143.0-0.0","""event"",""trial"",""time""
""fullscreenenter"",""0"",""2680""
","
","
","""event"",""trial"",""time""
""fullscreenenter"",""0"",""2680""
","
","675.9000000003725","","","","","","","","50","1,0,0","6","blank","354","null","0.6017800459891048","0.10361839035538889","0.4444011403657019","0","","","","","","","","",""
"","html-keyboard-response","271","825557","0.0-143.0-1.0","""event"",""trial"",""time""
""fullscreenenter"",""0"",""2680""
","
","
","""event"",""trial"",""time""
""fullscreenenter"",""0"",""2680""
","
","null","<p></p>","null","","","","","","","","","","","","","","","","","","","","","","","",""
"","do_trial","272","829016","0.0-144.0-0.0","""event"",""trial"",""time""
""fullscreenenter"",""0"",""2680""
","
","
","""event"",""trial"",""time""
""fullscreenenter"",""0"",""2680""
","
","916.1999999997206","","","","","","","","49","0,0,0","6","blank","355","null","0.577872964559155","0.12233060458556379","0.2996908582761724","0","","","","","","","","",""
"","html-keyboard-response","273","830022","0.0-144.0-1.0","""event"",""trial"",""time""
""fullscreenenter"",""0"",""2680""
","
","
","""event"",""trial"",""time""
""fullscreenenter"",""0"",""2680""
","
","null","<p></p>","null","","","","","","","","","","","","","","","","","","","","","","","",""
"","do_trial","274","833879","0.0-145.0-0.0","""event"",""trial"",""time""
""fullscreenenter"",""0"",""2680""
","
","
","""event"",""trial"",""time""
""fullscreenenter"",""0"",""2680""
","
","1315.1000000000931","","","","","","","","51","1,0,1","6","blank","356","null","0.5631196396470892","0.07362327449369242","0.23465542921274565","1","","","","","","","","",""
"","html-keyboard-response","275","834884","0.0-145.0-1.0","""event"",""trial"",""time""
""fullscreenenter"",""0"",""2680""
","
","
","""event"",""trial"",""time""
""fullscreenenter"",""0"",""2680""
","
","null","<p></p>","null","","","","","","","","","","","","","","","","","","","","","","","",""
"","do_trial","276","837883","0.0-146.0-0.0","""event"",""trial"",""time""
""fullscreenenter"",""0"",""2680""
","
","
","""event"",""trial"",""time""
""fullscreenenter"",""0"",""2680""
","
","461.89999999990687","","","","","","","","51","0,0,0","6","blank","357","null","0.5125149653684258","0.25735791279162085","0.21739467408642207","0","","","","","","","","",""
"","html-keyboard-response","277","838889","0.0-146.0-1.0","""event"",""trial"",""time""
""fullscreenenter"",""0"",""2680""
","
","
","""event"",""trial"",""time""
