"success","trial_type","trial_index","time_elapsed","internal_node_id","interactions","blur_events","focus_events","fullscreenenter_events","fullscreenexit_events","rt","stimulus","key_press","subject_id","participant_id","age","gender","prompt","response","choice_outcomes","context_n","context_img_id","trial_n","probe_img_id","pR_red","pR_white","pR_black","outcome","is_valid","image_to_show","probed_trial","probed_context","correct","probe","probed_trial_n","probed_context_n","context_im"
"true","fullscreen","0","7508","0.0-0.0","""event"",""trial"",""time""
""fullscreenenter"",""0"",""6529""
","
","
","""event"",""trial"",""time""
""fullscreenenter"",""0"",""6529""
","
","","","","","","","","","","","","","","","","","","","","","","","","","","",""
"","pavlovia","1","7514","0.0-1.0","""event"",""trial"",""time""
""fullscreenenter"",""0"",""6529""
","
","
","""event"",""trial"",""time""
""fullscreenenter"",""0"",""6529""
","
","","","","","","","","","","","","","","","","","","","","","","","","","","",""
"","welc_back","2","17286","0.0-2.0","""event"",""trial"",""time""
""fullscreenenter"",""0"",""6529""
","
","
","""event"",""trial"",""time""
""fullscreenenter"",""0"",""6529""
","
","null","run_exp/static/audio/clip_29_welcome_back.m4a","null","411","784","21","Female","<div class='center'><p>Welcome to day 2!</p><p> Yesterday, you were the head captain of a pirate ship. You asked your fellow pirates to rob other ships of their gold across six different islands.</p></div>","","","","","","","","","","","","","","","","","","",""
"","html-keyboard-response","3","17733","0.0-3.0","""event"",""trial"",""time""
""fullscreenenter"",""0"",""6529""
","
","
","""event"",""trial"",""time""
""fullscreenenter"",""0"",""6529""
","
","443.40000000596046","<div class='center'><p>Welcome to day 2!</p><p> Yesterday, you were the head captain of a pirate ship. You asked your fellow pirates to rob other ships of their gold across six different islands.</p><p><b>[Press the space bar to continue]</b></p></div>","32","","","","","","","","","","","","","","","","","","","","","","","",""
"","day_1_summary_goal","4","34923","0.0-4.0","""event"",""trial"",""time""
""fullscreenenter"",""0"",""6529""
","
","
","""event"",""trial"",""time""
""fullscreenenter"",""0"",""6529""
","
","null","run_exp/static/audio/clip_30_goal_of_game.m4a","null","","","","","<div class='center'><p>Today, like yesterday, you get to pick which pirate you want to rob the next ship.</p><p>If the pirate is successful in robbing a ship, you get gold coins that look like this: </p><p><img src='run_exp/static/images/tutorial/reward.png' height='150'></p><p> If they were not successful in robbing the ship, then you will get no gold coins and you'll see a big red x like this: </p><p><img src='run_exp/static/images/tutorial/reward_no.png' height='150'></p></div>","","","","","","","","","","","","","","","","","","",""
"","html-keyboard-response","5","35397","0.0-5.0","""event"",""trial"",""time""
""fullscreenenter"",""0"",""6529""
","
","
","""event"",""trial"",""time""
""fullscreenenter"",""0"",""6529""
","
","470.70000000298023","<div class='center'><p>Today, like yesterday, you get to pick which pirate you want to rob the next ship.</p><p>If the pirate is successful in robbing a ship, you get gold coins that look like this: </p><p><img src='run_exp/static/images/tutorial/reward.png' height='150'></p><p> If they were not successful in robbing the ship, then you will get no gold coins and you'll see a big red x like this: </p><p><img src='run_exp/static/images/tutorial/reward_no.png' height='150'></p><p><b>[Press the space bar to continue]</b></p></div>","32","","","","","","","","","","","","","","","","","","","","","","","",""
"","day_1_summary_pick","6","50082","0.0-6.0","""event"",""trial"",""time""
""fullscreenenter"",""0"",""6529""
","
","
","""event"",""trial"",""time""
""fullscreenenter"",""0"",""6529""
","
","null","run_exp/static/audio/clip_31_how_to_pick_a_pirate.m4a","null","","","","","<div class='center'><p>Also, just like yesterday, you will use the 1,2,3 keys on your keyboard to pick a pirate. Press '1' to choose red beard, '2' to choose white beard, and '3' to choose black beard . You only have 3 seconds to pick a pirate, so please make a choice quickly!</p></div>","","","","","","","","","","","","","","","","","","",""
"","html-keyboard-response","7","50723","0.0-7.0","""event"",""trial"",""time""
""fullscreenenter"",""0"",""6529""
","
","
","""event"",""trial"",""time""
""fullscreenenter"",""0"",""6529""
","
","640.2000000029802","<div class='center'><p>Also, just like yesterday, you will use the 1,2,3 keys on your keyboard to pick a pirate. Press '1' to choose red beard, '2' to choose white beard, and '3' to choose black beard . You only have 3 seconds to pick a pirate, so please make a choice quickly!</p><p><b>[Press the space bar to continue]</b></p></div>","32","","","","","","","","","","","","","","","","","","","","","","","",""
"","test_phase_begin","8","81103","0.0-8.0","""event"",""trial"",""time""
""fullscreenenter"",""0"",""6529""
","
","
","""event"",""trial"",""time""
""fullscreenenter"",""0"",""6529""
","
","null","run_exp/static/audio/clip_32_final_place.m4a","null","","","","","<div class='center'><p>You’ve arrived at the final island of your journey! Unfortunately, it’s very foggy out, so you won’t be able to see it in the distance like the other islands you've visited.</p><p>You’ll still be deciding which pirate you want to rob a ship like before. However, because of the fog, you also won’t be able to see the ship.</p><p>This means you do not have to remember the ships you rob on this island.</p><p>Unlike yesterday, you won't be visiting multiple islands today. You will stay on this island for the entire game. This game will last ~30 minutes.</p></div>","","","","","","","","","","","","","","","","","","",""
"","html-keyboard-response","9","98382","0.0-9.0","""event"",""trial"",""time""
""fullscreenenter"",""0"",""6529""
","
","
","""event"",""trial"",""time""
""fullscreenenter"",""0"",""6529""
","
","17276.79999999702","<div class='center'><p>You’ve arrived at the final island of your journey! Unfortunately, it’s very foggy out, so you won’t be able to see it in the distance like the other islands you've visited.</p><p>You’ll still be deciding which pirate you want to rob a ship like before. However, because of the fog, you also won’t be able to see the ship.</p><p>This means you do not have to remember the ships you rob on this island.</p><p>Unlike yesterday, you won't be visiting multiple islands today. You will stay on this island for the entire game. This game will last ~30 minutes.</p><p><b>[Press the space bar to continue]</b></p></div>","32","","","","","","","","","","","","","","","","","","","","","","","",""
"","explain_probe_1","10","106066","0.0-10.0","""event"",""trial"",""time""
""fullscreenenter"",""0"",""6529""
","
","
","""event"",""trial"",""time""
""fullscreenenter"",""0"",""6529""
","
","null","run_exp/static/audio/clip_33_recognition_1.m4a","null","","","","","<div class='center'><p> Sometimes you’ll be shown a ship, and you will be asked if you saw this ship on a past island.</p><p> Here is an example of what you will see.</p><p><img src='run_exp/static/images/tutorial/example_recog_trial.png' height='500'></p></div>","","","","","","","","","","","","","","","","","","",""
"","html-keyboard-response","11","107415","0.0-11.0","""event"",""trial"",""time""
""fullscreenenter"",""0"",""6529""
","
","
","""event"",""trial"",""time""
""fullscreenenter"",""0"",""6529""
","
","1346.5","<div class='center'><p> Sometimes you’ll be shown a ship, and you will be asked if you saw this ship on a past island.</p><p> Here is an example of what you will see.</p><p><img src='run_exp/static/images/tutorial/example_recog_trial.png' height='500'></p><p><b>[Press the space bar to continue]</b></p></div>","32","","","","","","","","","","","","","","","","","","","","","","","",""
"","explain_probe_2","12","129126","0.0-12.0","""event"",""trial"",""time""
""fullscreenenter"",""0"",""6529""
","
","
","""event"",""trial"",""time""
""fullscreenenter"",""0"",""6529""
","
","null","run_exp/static/audio/clip_34_recognition_2.m4a","null","","","","","<div class='center'><p> You will press the 5, 6, 7, 8 keys on your keyboard to respond.</p><p>If you are sure you saw the ship, press <b>5</b> on your keyboard.</p><p> If you think you saw it before but aren't sure, then press <b>6</b>.</p><p> If you think you have <b>not</b> seen it before but aren't sure, then press <b>7</b>.</p><p> If you are sure you did <b>not</b> see the ship before, then press <b>8</b>.</p><p><img src='run_exp/static/images/tutorial/example_recog_trial.png' height='500'></p></div>","","","","","","","","","","","","","","","","","","",""
"","html-keyboard-response","13","129801","0.0-13.0","""event"",""trial"",""time""
""fullscreenenter"",""0"",""6529""
","
","
","""event"",""trial"",""time""
""fullscreenenter"",""0"",""6529""
","
","673.0999999940395","<div class='center'><p> You will press the 5, 6, 7, 8 keys on your keyboard to respond.</p><p>If you are sure you saw the ship, press <b>5</b> on your keyboard.</p><p> If you think you saw it before but aren't sure, then press <b>6</b>.</p><p> If you think you have <b>not</b> seen it before but aren't sure, then press <b>7</b>.</p><p> If you are sure you did <b>not</b> see the ship before, then press <b>8</b>.</p><p><img src='run_exp/static/images/tutorial/example_recog_trial.png' height='500'></p><p><b>[Press the space bar to continue]</b></p></div>","32","","","","","","","","","","","","","","","","","","","","","","","",""
"","explain_outcome","14","146986","0.0-14.0","""event"",""trial"",""time""
""fullscreenenter"",""0"",""6529""
","
","
","""event"",""trial"",""time""
""fullscreenenter"",""0"",""6529""
","
","null","run_exp/static/audio/clip_35_recognition_3.m4a","null","","","","","<div class='center'><p> If you remember correctly, then you’ll get a gold coin like this: </p><p><img src='run_exp/static/images/tutorial/reward_small.png' height='200'></p><p>If you do not remember correctly, then you'll see a red x like this: </p><p><img src='run_exp/static/images/tutorial/reward_no.png' height='200'></p><p>Importantly, when you are shown a ship, take the time to remind yourself which island you saw it on. This will help you in the next part of the study.</p></div>","","","","","","","","","","","","","","","","","","",""
"","html-keyboard-response","15","147453","0.0-15.0","""event"",""trial"",""time""
""fullscreenenter"",""0"",""6529""
","
","
","""event"",""trial"",""time""
""fullscreenenter"",""0"",""6529""
","
","464.20000000298023","<div class='center'><p> If you remember correctly, then you’ll get a gold coin like this: </p><p><img src='run_exp/static/images/tutorial/reward_small.png' height='200'></p><p>If you do not remember correctly, then you'll see a red x like this: </p><p><img src='run_exp/static/images/tutorial/reward_no.png' height='200'></p><p>Importantly, when you are shown a ship, take the time to remind yourself which island you saw it on. This will help you in the next part of the study.</p><p><b>[Press the space bar to continue]</b></p></div>","32","","","","","","","","","","","","","","","","","","","","","","","",""
"","begin_test_phase","16","163286","0.0-16.0","""event"",""trial"",""time""
""fullscreenenter"",""0"",""6529""
","
","
","""event"",""trial"",""time""
""fullscreenenter"",""0"",""6529""
","
","null","run_exp/static/audio/clip_36_begin_final.m4a","null","","","","","<div class='center'><p>Let's go over the important points again. Your job is to: </p><p>1. Pick the pirate who is best at robbing ships and will bring you back gold coins. </p><p>2. Correctly remember whether or not you saw a ship before. If you did see the ship before, remind yourself on which island you saw it. </p></div>","","","","","","","","","","","","","","","","","","",""
"","html-keyboard-response","17","164314","0.0-17.0","""event"",""trial"",""time""
""fullscreenenter"",""0"",""6529""
","
","
","""event"",""trial"",""time""
""fullscreenenter"",""0"",""6529""
","
","996.5999999940395","<div class='center'><p>Let's go over the important points again. Your job is to: </p><p>1. Pick the pirate who is best at robbing ships and will bring you back gold coins. </p><p>2. Correctly remember whether or not you saw a ship before. If you did see the ship before, remind yourself on which island you saw it. </p><p><b>[Press the space bar to continue]</b></p></div>","32","","","","","","","","","","","","","","","","","","","","","","","",""
"","do_welcome","18","168323","0.0-18.0","""event"",""trial"",""time""
""fullscreenenter"",""0"",""6529""
","
","
","""event"",""trial"",""time""
""fullscreenenter"",""0"",""6529""
","
","null","","","","","","","","null","","","","","","","","","","","","","","","","","",""
"","do_trial","19","171847","0.0-19.0-0.0","""event"",""trial"",""time""
""fullscreenenter"",""0"",""6529""
","
","
","""event"",""trial"",""time""
""fullscreenenter"",""0"",""6529""
","
","973.7000000029802","","","","","","","","50","1,1,0","6","blank","230","null","0.5237060522858847","0.6579229887793093","0.06271202133175927","1","","","","","","","","",""
"","html-keyboard-response","20","172853","0.0-19.0-1.0","""event"",""trial"",""time""
""fullscreenenter"",""0"",""6529""
","
","
","""event"",""trial"",""time""
""fullscreenenter"",""0"",""6529""
","
","null","<p></p>","null","","","","","","","","","","","","","","","","","","","","","","","",""
"","do_trial","21","176702","0.0-20.0-0.0","""event"",""trial"",""time""
""fullscreenenter"",""0"",""6529""
","
","
","""event"",""trial"",""time""
""fullscreenenter"",""0"",""6529""
","
","1304.7000000029802","","","","","","","","49","1,1,0","6","blank","231","null","0.5419398599078197","0.7057814668745842","0.12474353836519037","1","","","","","","","","",""
"","html-keyboard-response","22","177705","0.0-20.0-1.0","""event"",""trial"",""time""
""fullscreenenter"",""0"",""6529""
","
","
","""event"",""trial"",""time""
""fullscreenenter"",""0"",""6529""
","
","null","<p></p>","null","","","","","","","","","","","","","","","","","","","","","","","",""
"","do_trial","23","180843","0.0-21.0-0.0","""event"",""trial"",""time""
""fullscreenenter"",""0"",""6529""
","
","
","""event"",""trial"",""time""
""fullscreenenter"",""0"",""6529""
","
","594.5","","","","","","","","49","0,1,0","6","blank","232","null","0.42239357158066176","0.848511415855712","0.10156421562896274","0","","","","","","","","",""
"","html-keyboard-response","24","181847","0.0-21.0-1.0","""event"",""trial"",""time""
""fullscreenenter"",""0"",""6529""
","
","
","""event"",""trial"",""time""
""fullscreenenter"",""0"",""6529""
","
","null","<p></p>","null","","","","","","","","","","","","","","","","","","","","","","","",""
"","do_trial","25","184674","0.0-22.0-0.0","""event"",""trial"",""time""
""fullscreenenter"",""0"",""6529""
","
","
","""event"",""trial"",""time""
""fullscreenenter"",""0"",""6529""
","
","282.59999999403954","","","","","","","","50","0,1,0","6","blank","233","null","0.2677783713403202","0.8240154963224882","0.08266908651044515","1","","","","","","","","",""
"","html-keyboard-response","26","185677","0.0-22.0-1.0","""event"",""trial"",""time""
""fullscreenenter"",""0"",""6529""
","
","
","""event"",""trial"",""time""
""fullscreenenter"",""0"",""6529""
","
","null","<p></p>","null","","","","","","","","","","","","","","","","","","","","","","","",""
"","do_trial","27","188631","0.0-23.0-0.0","""event"",""trial"",""time""
""fullscreenenter"",""0"",""6529""
","
","
","""event"",""trial"",""time""
""fullscreenenter"",""0"",""6529""
","
","409.20000000298023","","","","","","","","51","0,0,1","6","blank","234","null","0.26620889993199465","0.6855880286349378","0.27563625875909226","1","","","","","","","","",""
"","html-keyboard-response","28","189635","0.0-23.0-1.0","""event"",""trial"",""time""
""fullscreenenter"",""0"",""6529""
","
","
","""event"",""trial"",""time""
""fullscreenenter"",""0"",""6529""
","
","null","<p></p>","null","","","","","","","","","","","","","","","","","","","","","","","",""
"","do_trial","29","193217","0.0-24.0-0.0","""event"",""trial"",""time""
""fullscreenenter"",""0"",""6529""
","
","
","""event"",""trial"",""time""
""fullscreenenter"",""0"",""6529""
","
","1034.2999999970198","","","","","","","","50","0,0,0","6","blank","235","null","0.27148823282714657","0.6371820278329183","0.3022849292666644","0","","","","","","","","",""
"","html-keyboard-response","30","194222","0.0-24.0-1.0","""event"",""trial"",""time""
""fullscreenenter"",""0"",""6529""
","
","
","""event"",""trial"",""time""
""fullscreenenter"",""0"",""6529""
","
","null","<p></p>","null","","","","","","","","","","","","","","","","","","","","","","","",""
"","do_trial","31","197310","0.0-25.0-0.0","""event"",""trial"",""time""
""fullscreenenter"",""0"",""6529""
","
","
","""event"",""trial"",""time""
""fullscreenenter"",""0"",""6529""
","
","544","","","","","","","","51","0,0,0","6","blank","236","null","0.3410143266605715","0.664996295441661","0.23594884788943382","0","","","","","","","","",""
"","html-keyboard-response","32","198312","0.0-25.0-1.0","""event"",""trial"",""time""
""fullscreenenter"",""0"",""6529""
","
","
","""event"",""trial"",""time""
""fullscreenenter"",""0"",""6529""
","
","null","<p></p>","null","","","","","","","","","","","","","","","","","","","","","","","",""
"","do_trial","33","201427","0.0-26.0-0.0","""event"",""trial"",""time""
""fullscreenenter"",""0"",""6529""
","
","
","""event"",""trial"",""time""
""fullscreenenter"",""0"",""6529""
","
","572.7000000029802","","","","","","","","49","0,1,0","6","blank","237","null","0.28043741319113613","0.6517517135985097","0.30427188183144155","0","","","","","","","","",""
"","html-keyboard-response","34","202429","0.0-26.0-1.0","""event"",""trial"",""time""
""fullscreenenter"",""0"",""6529""
","
","
","""event"",""trial"",""time""
""fullscreenenter"",""0"",""6529""
","
","null","<p></p>","null","","","","","","","","","","","","","","","","","","","","","","","",""
"","do_trial","35","205484","0.0-27.0-0.0","""event"",""trial"",""time""
""fullscreenenter"",""0"",""6529""
","
","
","""event"",""trial"",""time""
""fullscreenenter"",""0"",""6529""
","
","518.5","","","","","","","","50","0,0,0","6","blank","238","null","0.1973182406344677","0.6483375954770446","0.20868351360744705","0","","","","","","","","",""
"","html-keyboard-response","36","206488","0.0-27.0-1.0","""event"",""trial"",""time""
""fullscreenenter"",""0"",""6529""
","
","
","""event"",""trial"",""time""
""fullscreenenter"",""0"",""6529""
","
","null","<p></p>","null","","","","","","","","","","","","","","","","","","","","","","","",""
"","do_trial","37","209371","0.0-28.0-0.0","""event"",""trial"",""time""
""fullscreenenter"",""0"",""6529""
","
","
","""event"",""trial"",""time""
""fullscreenenter"",""0"",""6529""
","
","324.19999998807907","","","","","","","","50","0,1,0","6","blank","239","null","0.1723657573759854","0.8066651197678825","0.06511019785808266","1","","","","","","","","",""
"","html-keyboard-response","38","210375","0.0-28.0-1.0","""event"",""trial"",""time""
""fullscreenenter"",""0"",""6529""
","
","
","""event"",""trial"",""time""
""fullscreenenter"",""0"",""6529""
","
","null","<p></p>","null","","","","","","","","","","","","","","","","","","","","","","","",""
"","do_trial","39","213434","0.0-29.0-0.0","""event"",""trial"",""time""
""fullscreenenter"",""0"",""6529""
","
","
","""event"",""trial"",""time""
""fullscreenenter"",""0"",""6529""
","
","511","","","","","","","","50","0,1,0","6","blank","240","null","0.2510286854190155","0.7601245537158282","0.05791556615718586","1","","","","","","","","",""
"","html-keyboard-response","40","214438","0.0-29.0-1.0","""event"",""trial"",""time""
""fullscreenenter"",""0"",""6529""
","
","
","""event"",""trial"",""time""
""fullscreenenter"",""0"",""6529""
","
","null","<p></p>","null","","","","","","","","","","","","","","","","","","","","","","","",""
"","do_trial","41","218558","0.0-30.0-0.0","""event"",""trial"",""time""
""fullscreenenter"",""0"",""6529""
","
","
","""event"",""trial"",""time""
""fullscreenenter"",""0"",""6529""
","
","1578.2000000029802","","","","","","","","49","0,1,0","6","blank","241","null","0.23954709192260615","0.8392953712224889","0.08365165603564823","0","","","","","","","","",""
"","html-keyboard-response","42","219561","0.0-30.0-1.0","""event"",""trial"",""time""
""fullscreenenter"",""0"",""6529""
","
","
","""event"",""trial"",""time""
""fullscreenenter"",""0"",""6529""
","
","null","<p></p>","null","","","","","","","","","","","","","","","","","","","","","","","",""
"","do_recog","43","225571","0.0-31.0-0.0","""event"",""trial"",""time""
""fullscreenenter"",""0"",""6529""
","
","
","""event"",""trial"",""time""
""fullscreenenter"",""0"",""6529""
","
","null","","","","","","","","null","","","","242","probe-253","","","","","0","[object Object]","null","null","0","","","",""
"","html-keyboard-response","44","226575","0.0-31.0-1.0","""event"",""trial"",""time""
""fullscreenenter"",""0"",""6529""
","
","
","""event"",""trial"",""time""
""fullscreenenter"",""0"",""6529""
","
","null","<p></p>","null","","","","","","","","","","","","","","","","","","","","","","","",""
"","do_trial","45","230459","0.0-32.0-0.0","""event"",""trial"",""time""
""fullscreenenter"",""0"",""6529""
","
","
","""event"",""trial"",""time""
""fullscreenenter"",""0"",""6529""
","
","1344.2000000029802","","","","","","","","51","0,1,0","6","blank","243","null","0.45246304921566044","0.5939051420399509","0.09802813335805971","0","","","","","","","","",""
"","html-keyboard-response","46","231462","0.0-32.0-1.0","""event"",""trial"",""time""
""fullscreenenter"",""0"",""6529""
","
","
","""event"",""trial"",""time""
""fullscreenenter"",""0"",""6529""
","
","null","<p></p>","null","","","","","","","","","","","","","","","","","","","","","","","",""
"","do_trial","47","234285","0.0-33.0-0.0","""event"",""trial"",""time""
""fullscreenenter"",""0"",""6529""
","
","
","""event"",""trial"",""time""
""fullscreenenter"",""0"",""6529""
","
","280.09999999403954","","","","","","","","50","0,1,0","6","blank","244","null","0.5011968207775915","0.5312310105538733","0.05533750424976867","1","","","","","","","","",""
"","html-keyboard-response","48","235288","0.0-33.0-1.0","""event"",""trial"",""time""
""fullscreenenter"",""0"",""6529""
","
","
","""event"",""trial"",""time""
""fullscreenenter"",""0"",""6529""
","
","null","<p></p>","null","","","","","","","","","","","","","","","","","","","","","","","",""
"","do_trial","49","238928","0.0-34.0-0.0","""event"",""trial"",""time""
""fullscreenenter"",""0"",""6529""
","
","
","""event"",""trial"",""time""
""fullscreenenter"",""0"",""6529""
","
","1096.2000000029802","","","","","","","","50","1,1,0","6","blank","245","null","0.6093567639878901","0.44468269502655366","0.150567148874563","1","","","","","","","","",""
"","html-keyboard-response","50","239947","0.0-34.0-1.0","""event"",""trial"",""time""
""fullscreenenter"",""0"",""6529""
","
","
","""event"",""trial"",""time""
""fullscreenenter"",""0"",""6529""
","
","null","<p></p>","null","","","","","","","","","","","","","","","","","","","","","","","",""
"","do_recog","51","244045","0.0-35.0-0.0","""event"",""trial"",""time""
""fullscreenenter"",""0"",""6529""
","
","
","""event"",""trial"",""time""
""fullscreenenter"",""0"",""6529""
","
","2588.300000011921","","","","","","","","56","","","","246","probe-69","","","","","1","[object Object]","117","2","0","","","",""
"","html-keyboard-response","52","245048","0.0-35.0-1.0","""event"",""trial"",""time""
""fullscreenenter"",""0"",""6529""
","
","
","""event"",""trial"",""time""
""fullscreenenter"",""0"",""6529""
","
","null","<p></p>","null","","","","","","","","","","","","","","","","","","","","","","","",""
"","do_trial","53","249991","0.0-36.0-0.0","""event"",""trial"",""time""
""fullscreenenter"",""0"",""6529""
","
","
","""event"",""trial"",""time""
""fullscreenenter"",""0"",""6529""
","
","2402.7000000029802","","","","","","","","49","0,1,1","6","blank","247","null","0.48483228061732647","0.3610410096936926","0.0764727195854918","0","","","","","","","","",""
"","html-keyboard-response","54","250994","0.0-36.0-1.0","""event"",""trial"",""time""
""fullscreenenter"",""0"",""6529""
","
","
","""event"",""trial"",""time""
""fullscreenenter"",""0"",""6529""
","
","null","<p></p>","null","","","","","","","","","","","","","","","","","","","","","","","",""
"","do_trial","55","253882","0.0-37.0-0.0","""event"",""trial"",""time""
""fullscreenenter"",""0"",""6529""
","
","
","""event"",""trial"",""time""
""fullscreenenter"",""0"",""6529""
","
","322.6000000089407","","","","","","","","50","0,0,0","6","blank","248","null","0.47328439193043537","0.32890249523462045","0.2417349986078902","0","","","","","","","","",""
"","html-keyboard-response","56","254885","0.0-37.0-1.0","""event"",""trial"",""time""
""fullscreenenter"",""0"",""6529""
","
","
","""event"",""trial"",""time""
""fullscreenenter"",""0"",""6529""
","
","null","<p></p>","null","","","","","","","","","","","","","","","","","","","","","","","",""
"","do_trial","57","258677","0.0-38.0-0.0","""event"",""trial"",""time""
""fullscreenenter"",""0"",""6529""
","
","
","""event"",""trial"",""time""
""fullscreenenter"",""0"",""6529""
","
","1248.8999999910593","","","","","","","","51","0,0,0","6","blank","249","null","0.6229015502783136","0.3186222577796888","0.11552976556898373","0","","","","","","","","",""
"","html-keyboard-response","58","259680","0.0-38.0-1.0","""event"",""trial"",""time""
""fullscreenenter"",""0"",""6529""
","
","
","""event"",""trial"",""time""
""fullscreenenter"",""0"",""6529""
","
","null","<p></p>","null","","","","","","","","","","","","","","","","","","","","","","","",""
"","do_trial","59","262891","0.0-39.0-0.0","""event"",""trial"",""time""
""fullscreenenter"",""0"",""6529""
","
","
","""event"",""trial"",""time""
""fullscreenenter"",""0"",""6529""
","
","667.4000000059605","","","","","","","","50","0,1,0","6","blank","250","null","0.3377179002696437","0.26311051638854027","0.08755593362255418","1","","","","","","","","",""
"","html-keyboard-response","60","263894","0.0-39.0-1.0","""event"",""trial"",""time""
""fullscreenenter"",""0"",""6529""
","
","
","""event"",""trial"",""time""
""fullscreenenter"",""0"",""6529""
","
","null","<p></p>","null","","","","","","","","","","","","","","","","","","","","","","","",""
"","do_trial","61","267517","0.0-40.0-0.0","""event"",""trial"",""time""
""fullscreenenter"",""0"",""6529""
","
","
","""event"",""trial"",""time""
""fullscreenenter"",""0"",""6529""
","
","1066.2000000029802","","","","","","","","49","1,1,0","6","blank","251","null","0.36860368985069725","0.37639856741425626","0.11654818453070963","1","","","","","","","","",""
"","html-keyboard-response","62","268521","0.0-40.0-1.0","""event"",""trial"",""time""
""fullscreenenter"",""0"",""6529""
","
","
","""event"",""trial"",""time""
""fullscreenenter"",""0"",""6529""
","
","null","<p></p>","null","","","","","","","","","","","","","","","","","","","","","","","",""
"","do_trial","63","272515","0.0-41.0-0.0","""event"",""trial"",""time""
""fullscreenenter"",""0"",""6529""
","
","
","""event"",""trial"",""time""
""fullscreenenter"",""0"",""6529""
","
","1450.4000000059605","","","","","","","","49","0,1,0","6","blank","252","null","0.515978701088154","0.35944604712988404","0.0705890279704907","0","","","","","","","","",""
"","html-keyboard-response","64","273518","0.0-41.0-1.0","""event"",""trial"",""time""
""fullscreenenter"",""0"",""6529""
","
","
","""event"",""trial"",""time""
""fullscreenenter"",""0"",""6529""
","
","null","<p></p>","null","","","","","","","","","","","","","","","","","","","","","","","",""
"","do_recog","65","276999","0.0-42.0-0.0","""event"",""trial"",""time""
""fullscreenenter"",""0"",""6529""
","
","
","""event"",""trial"",""time""
""fullscreenenter"",""0"",""6529""
","
","1971.8999999910593","","","","","","","","56","","","","253","probe-242","","","","","0","[object Object]","null","null","1","","","",""
"","html-keyboard-response","66","278002","0.0-42.0-1.0","""event"",""trial"",""time""
""fullscreenenter"",""0"",""6529""
","
","
","""event"",""trial"",""time""
""fullscreenenter"",""0"",""6529""
","
","null","<p></p>","null","","","","","","","","","","","","","","","","","","","","","","","",""
"","do_trial","67","281354","0.0-43.0-0.0","""event"",""trial"",""time""
""fullscreenenter"",""0"",""6529""
","
","
","""event"",""trial"",""time""
""fullscreenenter"",""0"",""6529""
","
","809.3999999910593","","","","","","","","50","1,0,0","6","blank","254","null","0.5847630669088837","0.46027939185169964","0.18195963399356316","0","","","","","","","","",""
"","html-keyboard-response","68","282357","0.0-43.0-1.0","""event"",""trial"",""time""
""fullscreenenter"",""0"",""6529""
","
","
","""event"",""trial"",""time""
""fullscreenenter"",""0"",""6529""
","
","null","<p></p>","null","","","","","","","","","","","","","","","","","","","","","","","",""
"","do_recog","69","286760","0.0-44.0-0.0","""event"",""trial"",""time""
""fullscreenenter"",""0"",""6529""
","
","
","""event"",""trial"",""time""
""fullscreenenter"",""0"",""6529""
","
","2889","","","","","","","","54","","","","255","probe-121","","","","","1","[object Object]","76","1","1","","","",""
"","html-keyboard-response","70","287763","0.0-44.0-1.0","""event"",""trial"",""time""
""fullscreenenter"",""0"",""6529""
","
","
","""event"",""trial"",""time""
""fullscreenenter"",""0"",""6529""
","
","null","<p></p>","null","","","","","","","","","","","","","","","","","","","","","","","",""
"","do_trial","71","291150","0.0-45.0-0.0","""event"",""trial"",""time""
""fullscreenenter"",""0"",""6529""
","
","
","""event"",""trial"",""time""
""fullscreenenter"",""0"",""6529""
","
","843.6000000089407","","","","","","","","49","0,0,1","6","blank","256","null","0.5152626824837505","0.35894943913439364","0.16499188902599157","0","","","","","","","","",""
"","html-keyboard-response","72","292155","0.0-45.0-1.0","""event"",""trial"",""time""
""fullscreenenter"",""0"",""6529""
","
","
","""event"",""trial"",""time""
""fullscreenenter"",""0"",""6529""
","
","null","<p></p>","null","","","","","","","","","","","","","","","","","","","","","","","",""
"","do_trial","73","295209","0.0-46.0-0.0","""event"",""trial"",""time""
""fullscreenenter"",""0"",""6529""
","
","
","""event"",""trial"",""time""
""fullscreenenter"",""0"",""6529""
","
","510.79999999701977","","","","","","","","50","0,0,1","6","blank","257","null","0.45027053941399003","0.34651113638044856","0.2877439522117462","0","","","","","","","","",""
"","html-keyboard-response","74","296212","0.0-46.0-1.0","""event"",""trial"",""time""
""fullscreenenter"",""0"",""6529""
","
","
","""event"",""trial"",""time""
""fullscreenenter"",""0"",""6529""
","
","null","<p></p>","null","","","","","","","","","","","","","","","","","","","","","","","",""
"","do_recog","75","300702","0.0-47.0-0.0","""event"",""trial"",""time""
""fullscreenenter"",""0"",""6529""
","
","
","""event"",""trial"",""time""
""fullscreenenter"",""0"",""6529""
","
","2978.7999999970198","","","","","","","","55","","","","258","probe-147","","","","","1","[object Object]","113","2","0","","","",""
"","html-keyboard-response","76","301706","0.0-47.0-1.0","""event"",""trial"",""time""
""fullscreenenter"",""0"",""6529""
","
","
","""event"",""trial"",""time""
""fullscreenenter"",""0"",""6529""
","
","null","<p></p>","null","","","","","","","","","","","","","","","","","","","","","","","",""
"","do_trial","77","304787","0.0-48.0-0.0","""event"",""trial"",""time""
""fullscreenenter"",""0"",""6529""
","
","
","""event"",""trial"",""time""
""fullscreenenter"",""0"",""6529""
","
","537.3000000119209","","","","","","","","50","0,0,0","6","blank","259","null","0.4460767305064737","0.24700979065868459","0.10640558107538832","0","","","","","","","","",""
"","html-keyboard-response","78","305790","0.0-48.0-1.0","""event"",""trial"",""time""
""fullscreenenter"",""0"",""6529""
","
","
","""event"",""trial"",""time""
""fullscreenenter"",""0"",""6529""
","
","null","<p></p>","null","","","","","","","","","","","","","","","","","","","","","","","",""
"","do_trial","79","308606","0.0-49.0-0.0","""event"",""trial"",""time""
""fullscreenenter"",""0"",""6529""
","
","
","""event"",""trial"",""time""
""fullscreenenter"",""0"",""6529""
","
","273.59999999403954","","","","","","","","49","0,0,0","6","blank","260","null","0.528356341341743","0.19475073958468336","0.18008003596700423","0","","","","","","","","",""
"","html-keyboard-response","80","309609","0.0-49.0-1.0","""event"",""trial"",""time""
""fullscreenenter"",""0"",""6529""
","
","
","""event"",""trial"",""time""
""fullscreenenter"",""0"",""6529""
","
","null","<p></p>","null","","","","","","","","","","","","","","","","","","","","","","","",""
"","do_recog","81","315623","0.0-50.0-0.0","""event"",""trial"",""time""
""fullscreenenter"",""0"",""6529""
","
","
","""event"",""trial"",""time""
""fullscreenenter"",""0"",""6529""
","
","null","","","","","","","","null","","","","261","probe-61","","","","","1","[object Object]","31","0","0","","","",""
"","html-keyboard-response","82","316627","0.0-50.0-1.0","""event"",""trial"",""time""
""fullscreenenter"",""0"",""6529""
","
","
","""event"",""trial"",""time""
""fullscreenenter"",""0"",""6529""
","
","null","<p></p>","null","","","","","","","","","","","","","","","","","","","","","","","",""
"","do_trial","83","320937","0.0-51.0-0.0","""event"",""trial"",""time""
""fullscreenenter"",""0"",""6529""
","
","
","""event"",""trial"",""time""
""fullscreenenter"",""0"",""6529""
","
","1765.7000000029802","","","","","","","","50","1,0,0","6","blank","262","null","0.6194058501730657","0.10224021628047339","0.1582022050762023","0","","","","","","","","",""
"","html-keyboard-response","84","321940","0.0-51.0-1.0","""event"",""trial"",""time""
""fullscreenenter"",""0"",""6529""
","
","
","""event"",""trial"",""time""
""fullscreenenter"",""0"",""6529""
","
","null","<p></p>","null","","","","","","","","","","","","","","","","","","","","","","","",""
"","do_trial","85","325154","0.0-52.0-0.0","""event"",""trial"",""time""
""fullscreenenter"",""0"",""6529""
","
","
","""event"",""trial"",""time""
""fullscreenenter"",""0"",""6529""
","
","670.2999999970198","","","","","","","","51","1,1,0","6","blank","263","null","0.6344278250777624","0.24836093626373565","0.050471961166818284","0","","","","","","","","",""
"","html-keyboard-response","86","326157","0.0-52.0-1.0","""event"",""trial"",""time""
""fullscreenenter"",""0"",""6529""
","
","
","""event"",""trial"",""time""
""fullscreenenter"",""0"",""6529""
","
","null","<p></p>","null","","","","","","","","","","","","","","","","","","","","","","","",""
"","do_trial","87","329741","0.0-53.0-0.0","""event"",""trial"",""time""
""fullscreenenter"",""0"",""6529""
","
","
","""event"",""trial"",""time""
""fullscreenenter"",""0"",""6529""
","
","1040.3999999910593","","","","","","","","49","1,0,0","6","blank","264","null","0.5721042606763953","0.47004520638276226","0.07057414675125885","1","","","","","","","","",""
"","html-keyboard-response","88","330744","0.0-53.0-1.0","""event"",""trial"",""time""
""fullscreenenter"",""0"",""6529""
","
","
","""event"",""trial"",""time""
""fullscreenenter"",""0"",""6529""
","
","null","<p></p>","null","","","","","","","","","","","","","","","","","","","","","","","",""
"","do_trial","89","333691","0.0-54.0-0.0","""event"",""trial"",""time""
""fullscreenenter"",""0"",""6529""
","
","
","""event"",""trial"",""time""
""fullscreenenter"",""0"",""6529""
","
","403.79999999701977","","","","","","","","49","0,0,1","6","blank","265","null","0.6105136720501455","0.470850461556938","0.26896588154535067","0","","","","","","","","",""
"","html-keyboard-response","90","334694","0.0-54.0-1.0","""event"",""trial"",""time""
""fullscreenenter"",""0"",""6529""
","
","
","""event"",""trial"",""time""
""fullscreenenter"",""0"",""6529""
","
","null","<p></p>","null","","","","","","","","","","","","","","","","","","","","","","","",""
"","do_trial","91","337655","0.0-55.0-0.0","""event"",""trial"",""time""
""fullscreenenter"",""0"",""6529""
","
","
","""event"",""trial"",""time""
""fullscreenenter"",""0"",""6529""
","
","417.90000000596046","","","","","","","","50","1,0,0","6","blank","266","null","0.7040171763164284","0.34186657433333884","0.23831931730484285","0","","","","","","","","",""
"","html-keyboard-response","92","338659","0.0-55.0-1.0","""event"",""trial"",""time""
""fullscreenenter"",""0"",""6529""
","
","
","""event"",""trial"",""time""
""fullscreenenter"",""0"",""6529""
","
","null","<p></p>","null","","","","","","","","","","","","","","","","","","","","","","","",""
"","do_trial","93","341651","0.0-56.0-0.0","""event"",""trial"",""time""
""fullscreenenter"",""0"",""6529""
","
","
","""event"",""trial"",""time""
""fullscreenenter"",""0"",""6529""
","
","448.8999999910593","","","","","","","","51","1,0,0","6","blank","267","null","0.6581719218018728","0.30602741629411917","0.1471537962261444","0","","","","","","","","",""
"","html-keyboard-response","94","342653","0.0-56.0-1.0","""event"",""trial"",""time""
""fullscreenenter"",""0"",""6529""
","
","
","""event"",""trial"",""time""
""fullscreenenter"",""0"",""6529""
","
","null","<p></p>","null","","","","","","","","","","","","","","","","","","","","","","","",""
"","do_trial","95","345967","0.0-57.0-0.0","""event"",""trial"",""time""
""fullscreenenter"",""0"",""6529""
","
","
","""event"",""trial"",""time""
""fullscreenenter"",""0"",""6529""
","
","770.7999999970198","","","","","","","","51","0,1,0","6","blank","268","null","0.6904418926327237","0.4220953258491036","0.2212317805702099","0","","","","","","","","",""
"","html-keyboard-response","96","346970","0.0-57.0-1.0","""event"",""trial"",""time""
""fullscreenenter"",""0"",""6529""
","
","
","""event"",""trial"",""time""
""fullscreenenter"",""0"",""6529""
","
","null","<p></p>","null","","","","","","","","","","","","","","","","","","","","","","","",""
"","break","97","349300","0.0-58.0-0.0","""event"",""trial"",""time""
""fullscreenenter"",""0"",""6529""
","
","
","""event"",""trial"",""time""
""fullscreenenter"",""0"",""6529""
","
","2327.8999999910593","<div class='center'><p>Time to take a quick break! You have 2 minutes to rest, but you can move on sooner if you'd like.</p><p> Press the <b>space bar</b> to continue.</p></div>","32","","","","","","","","","","","","","","","","","","","","","","","",""
"","do_recog","98","352729","0.0-58.0-1.0","""event"",""trial"",""time""
""fullscreenenter"",""0"",""6529""
","
","
","""event"",""trial"",""time""
""fullscreenenter"",""0"",""6529""
","
","1919.4000000059605","","","","","","","","56","","","","269","probe-176","","","","","1","[object Object]","193","4","0","","","",""
"","html-keyboard-response","99","353733","0.0-58.0-2.0","""event"",""trial"",""time""
""fullscreenenter"",""0"",""6529""
","
","
","""event"",""trial"",""time""
""fullscreenenter"",""0"",""6529""
","
","null","<p></p>","null","","","","","","","","","","","","","","","","","","","","","","","",""
"","do_trial","100","357219","0.0-59.0-0.0","""event"",""trial"",""time""
""fullscreenenter"",""0"",""6529""
","
","
","""event"",""trial"",""time""
""fullscreenenter"",""0"",""6529""
","
","943.5999999940395","","","","","","","","49","1,1,1","6","blank","270","null","0.621300118899463","0.45820932058465347","0.20560011330805858","1","","","","","","","","",""
"","html-keyboard-response","101","358222","0.0-59.0-1.0","""event"",""trial"",""time""
""fullscreenenter"",""0"",""6529""
","
","
","""event"",""trial"",""time""
""fullscreenenter"",""0"",""6529""
","
","null","<p></p>","null","","","","","","","","","","","","","","","","","","","","","","","",""
"","do_recog","102","361270","0.0-60.0-0.0","""event"",""trial"",""time""
""fullscreenenter"",""0"",""6529""
","
","
","""event"",""trial"",""time""
""fullscreenenter"",""0"",""6529""
","
","1540.2999999970198","","","","","","","","53","","","","271","probe-200","","","","","1","[object Object]","196","4","1","","","",""
"","html-keyboard-response","103","362274","0.0-60.0-1.0","""event"",""trial"",""time""
""fullscreenenter"",""0"",""6529""
","
","
","""event"",""trial"",""time""
""fullscreenenter"",""0"",""6529""
","
","null","<p></p>","null","","","","","","","","","","","","","","","","","","","","","","","",""
"","do_trial","104","366505","0.0-61.0-0.0","""event"",""trial"",""time""
""fullscreenenter"",""0"",""6529""
","
","
","""event"",""trial"",""time""
""fullscreenenter"",""0"",""6529""
","
","1688.199999988079","","","","","","","","49","0,0,0","6","blank","272","null","0.6981344725610031","0.28738963868804357","0.07017012672504215","0","","","","","","","","",""
"","html-keyboard-response","105","367509","0.0-61.0-1.0","""event"",""trial"",""time""
""fullscreenenter"",""0"",""6529""
","
","
","""event"",""trial"",""time""
""fullscreenenter"",""0"",""6529""
","
","null","<p></p>","null","","","","","","","","","","","","","","","","","","","","","","","",""
"","do_trial","106","370359","0.0-62.0-0.0","""event"",""trial"",""time""
""fullscreenenter"",""0"",""6529""
","
","
","""event"",""trial"",""time""
""fullscreenenter"",""0"",""6529""
","
","308.59999999403954","","","","","","","","50","0,0,0","6","blank","273","null","0.46123325102685697","0.164100171843448","0.06540801929133216","0","","","","","","","","",""
"","html-keyboard-response","107","371362","0.0-62.0-1.0","""event"",""trial"",""time""
""fullscreenenter"",""0"",""6529""
","
","
","""event"",""trial"",""time""
""fullscreenenter"",""0"",""6529""
","
","null","<p></p>","null","","","","","","","","","","","","","","","","","","","","","","","",""
"","do_trial","108","374863","0.0-63.0-0.0","""event"",""trial"",""time""
""fullscreenenter"",""0"",""6529""
","
","
","""event"",""trial"",""time""
""fullscreenenter"",""0"",""6529""
","
","958.4000000059605","","","","","","","","49","0,1,0","6","blank","274","null","0.4396107688421839","0.13351292782784444","0.1454241018860547","0","","","","","","","","",""
"","html-keyboard-response","109","375867","0.0-63.0-1.0","""event"",""trial"",""time""
""fullscreenenter"",""0"",""6529""
","
","
","""event"",""trial"",""time""
""fullscreenenter"",""0"",""6529""
","
","null","<p></p>","null","","","","","","","","","","","","","","","","","","","","","","","",""
"","do_trial","110","378714","0.0-64.0-0.0","""event"",""trial"",""time""
""fullscreenenter"",""0"",""6529""
","
","
","""event"",""trial"",""time""
""fullscreenenter"",""0"",""6529""
","
","304.20000000298023","","","","","","","","51","1,0,0","6","blank","275","null","0.6077407303796823","0.13306176428065072","0.17306264503292684","0","","","","","","","","",""
"","html-keyboard-response","111","379718","0.0-64.0-1.0","""event"",""trial"",""time""
""fullscreenenter"",""0"",""6529""
","
","
","""event"",""trial"",""time""
""fullscreenenter"",""0"",""6529""
","
","null","<p></p>","null","","","","","","","","","","","","","","","","","","","","","","","",""
"","do_trial","112","383077","0.0-65.0-0.0","""event"",""trial"",""time""
""fullscreenenter"",""0"",""6529""
","
","
","""event"",""trial"",""time""
""fullscreenenter"",""0"",""6529""
","
","814.7000000029802","","","","","","","","50","1,0,0","6","blank","276","null","0.6413165110533323","0.09788902707508956","0.07040653435609265","0","","","","","","","","",""
"","html-keyboard-response","113","384081","0.0-65.0-1.0","""event"",""trial"",""time""
""fullscreenenter"",""0"",""6529""
","
","
","""event"",""trial"",""time""
""fullscreenenter"",""0"",""6529""
","
","null","<p></p>","null","","","","","","","","","","","","","","","","","","","","","","","",""
"","do_trial","114","387756","0.0-66.0-0.0","""event"",""trial"",""time""
""fullscreenenter"",""0"",""6529""
","
","
","""event"",""trial"",""time""
""fullscreenenter"",""0"",""6529""
","
","1133.6000000089407","","","","","","","","49","0,0,0","6","blank","277","null","0.6491394731061451","0.17788145970113767","0.05076157184410616","0","","","","","","","","",""
"","html-keyboard-response","115","388760","0.0-66.0-1.0","""event"",""trial"",""time""
""fullscreenenter"",""0"",""6529""
","
","
","""event"",""trial"",""time""
""fullscreenenter"",""0"",""6529""
","
","null","<p></p>","null","","","","","","","","","","","","","","","","","","","","","","","",""
"","do_trial","116","391660","0.0-67.0-0.0","""event"",""trial"",""time""
""fullscreenenter"",""0"",""6529""
","
","
","""event"",""trial"",""time""
""fullscreenenter"",""0"",""6529""
","
","357.29999999701977","","","","","","","","51","0,0,0","6","blank","278","null","0.4750808483276219","0.24191419591536556","0.27152453588365666","0","","","","","","","","",""
"","html-keyboard-response","117","392663","0.0-67.0-1.0","""event"",""trial"",""time""
""fullscreenenter"",""0"",""6529""
","
","
","""event"",""trial"",""time""
""fullscreenenter"",""0"",""6529""
","
","null","<p></p>","null","","","","","","","","","","","","","","","","","","","","","","","",""
"","do_recog","118","396154","0.0-68.0-0.0","""event"",""trial"",""time""
""fullscreenenter"",""0"",""6529""
","
","
","""event"",""trial"",""time""
""fullscreenenter"",""0"",""6529""
","
","1981.4000000059605","","","","","","","","56","","","","279","probe-174","","","","","1","[object Object]","159","3","0","","","",""
"","html-keyboard-response","119","397157","0.0-68.0-1.0","""event"",""trial"",""time""
""fullscreenenter"",""0"",""6529""
","
","
","""event"",""trial"",""time""
""fullscreenenter"",""0"",""6529""
","
","null","<p></p>","null","","","","","","","","","","","","","","","","","","","","","","","",""
"","do_trial","120","400390","0.0-69.0-0.0","""event"",""trial"",""time""
""fullscreenenter"",""0"",""6529""
","
","
","""event"",""trial"",""time""
""fullscreenenter"",""0"",""6529""
","
","671","","","","","","","","49","1,0,0","6","blank","280","null","0.5863129622960865","0.43160860738490164","0.08411760487375398","1","","","","","","","","",""
"","html-keyboard-response","121","401393","0.0-69.0-1.0","""event"",""trial"",""time""
""fullscreenenter"",""0"",""6529""
","
","
","""event"",""trial"",""time""
""fullscreenenter"",""0"",""6529""
","
","null","<p></p>","null","","","","","","","","","","","","","","","","","","","","","","","",""
"","do_trial","122","404916","0.0-70.0-0.0","""event"",""trial"",""time""
""fullscreenenter"",""0"",""6529""
","
","
","""event"",""trial"",""time""
""fullscreenenter"",""0"",""6529""
","
","982.2999999970198","","","","","","","","51","0,0,1","6","blank","281","null","0.6497663114430408","0.32339990807469926","0.11776076832473073","1","","","","","","","","",""
"","html-keyboard-response","123","405919","0.0-70.0-1.0","""event"",""trial"",""time""
""fullscreenenter"",""0"",""6529""
","
","
","""event"",""trial"",""time""
""fullscreenenter"",""0"",""6529""
","
","null","<p></p>","null","","","","","","","","","","","","","","","","","","","","","","","",""
"","do_trial","124","409276","0.0-71.0-0.0","""event"",""trial"",""time""
""fullscreenenter"",""0"",""6529""
","
","
","""event"",""trial"",""time""
""fullscreenenter"",""0"",""6529""
","
","797.7000000029802","","","","","","","","49","1,0,0","6","blank","282","null","0.7849701293644821","0.26450828990693415","0.17506857584543853","1","","","","","","","","",""
"","html-keyboard-response","125","410280","0.0-71.0-1.0","""event"",""trial"",""time""
""fullscreenenter"",""0"",""6529""
","
","
","""event"",""trial"",""time""
""fullscreenenter"",""0"",""6529""
","
","null","<p></p>","null","","","","","","","","","","","","","","","","","","","","","","","",""
"","do_trial","126","413496","0.0-72.0-0.0","""event"",""trial"",""time""
""fullscreenenter"",""0"",""6529""
","
","
","""event"",""trial"",""time""
""fullscreenenter"",""0"",""6529""
","
","646.0999999940395","","","","","","","","50","0,0,0","6","blank","283","null","0.6361721634677479","0.318814060127524","0.07732735779493019","0","","","","","","","","",""
"","html-keyboard-response","127","414500","0.0-72.0-1.0","""event"",""trial"",""time""
""fullscreenenter"",""0"",""6529""
","
","
","""event"",""trial"",""time""
""fullscreenenter"",""0"",""6529""
","
","null","<p></p>","null","","","","","","","","","","","","","","","","","","","","","","","",""
"","do_trial","128","417469","0.0-73.0-0.0","""event"",""trial"",""time""
""fullscreenenter"",""0"",""6529""
","
","
","""event"",""trial"",""time""
""fullscreenenter"",""0"",""6529""
","
","394.5","","","","","","","","51","1,1,0","6","blank","284","null","0.7660667566131799","0.43478408291389714","0.10506051425631623","0","","","","","","","","",""
"","html-keyboard-response","129","418472","0.0-73.0-1.0","""event"",""trial"",""time""
""fullscreenenter"",""0"",""6529""
","
","
","""event"",""trial"",""time""
""fullscreenenter"",""0"",""6529""
","
","null","<p></p>","null","","","","","","","","","","","","","","","","","","","","","","","",""
"","do_trial","130","421347","0.0-74.0-0.0","""event"",""trial"",""time""
""fullscreenenter"",""0"",""6529""
","
","
","""event"",""trial"",""time""
""fullscreenenter"",""0"",""6529""
","
","294.3999999910593","","","","","","","","49","0,1,0","6","blank","285","null","0.4752776837793738","0.5956445576527257","0.0772518237541368","0","","","","","","","","",""
"","html-keyboard-response","131","422350","0.0-74.0-1.0","""event"",""trial"",""time""
""fullscreenenter"",""0"",""6529""
","
","
","""event"",""trial"",""time""
""fullscreenenter"",""0"",""6529""
","
","null","<p></p>","null","","","","","","","","","","","","","","","","","","","","","","","",""
"","do_trial","132","425534","0.0-75.0-0.0","""event"",""trial"",""time""
""fullscreenenter"",""0"",""6529""
","
","
","""event"",""trial"",""time""
""fullscreenenter"",""0"",""6529""
","
","641.2999999970198","","","","","","","","49","1,1,0","6","blank","286","null","0.6671037343610975","0.4636545753380923","0.06681124580697655","1","","","","","","","","",""
"","html-keyboard-response","133","426538","0.0-75.0-1.0","""event"",""trial"",""time""
""fullscreenenter"",""0"",""6529""
","
","
","""event"",""trial"",""time""
""fullscreenenter"",""0"",""6529""
","
","null","<p></p>","null","","","","","","","","","","","","","","","","","","","","","","","",""
"","do_recog","134","429320","0.0-76.0-0.0","""event"",""trial"",""time""
""fullscreenenter"",""0"",""6529""
","
","
","""event"",""trial"",""time""
""fullscreenenter"",""0"",""6529""
","
","1273.3999999910593","","","","","","","","53","","","","287","probe-34","","","","","1","[object Object]","36","0","1","","","",""
"","html-keyboard-response","135","430323","0.0-76.0-1.0","""event"",""trial"",""time""
""fullscreenenter"",""0"",""6529""
","
","
","""event"",""trial"",""time""
""fullscreenenter"",""0"",""6529""
","
","null","<p></p>","null","","","","","","","","","","","","","","","","","","","","","","","",""
"","do_trial","136","435842","0.0-77.0-0.0","""event"",""trial"",""time""
""fullscreenenter"",""0"",""6529""
","
","
","""event"",""trial"",""time""
""fullscreenenter"",""0"",""6529""
","
","2975.5999999940395","","","","","","","","51","1,0,0","6","blank","288","null","0.6712261421136486","0.3043047646612132","0.06122214438821123","0","","","","","","","","",""
"","html-keyboard-response","137","436846","0.0-77.0-1.0","""event"",""trial"",""time""
""fullscreenenter"",""0"",""6529""
","
","
","""event"",""trial"",""time""
""fullscreenenter"",""0"",""6529""
","
","null","<p></p>","null","","","","","","","","","","","","","","","","","","","","","","","",""
"","do_recog","138","439631","0.0-78.0-0.0","""event"",""trial"",""time""
""fullscreenenter"",""0"",""6529""
","
","
","""event"",""trial"",""time""
""fullscreenenter"",""0"",""6529""
","
","1276.5999999940395","","","","","","","","53","","","","289","probe-41","","","","","1","[object Object]","77","1","1","","","",""
"","html-keyboard-response","139","440635","0.0-78.0-1.0","""event"",""trial"",""time""
""fullscreenenter"",""0"",""6529""
","
","
","""event"",""trial"",""time""
""fullscreenenter"",""0"",""6529""
","
","null","<p></p>","null","","","","","","","","","","","","","","","","","","","","","","","",""
"","do_trial","140","443881","0.0-79.0-0.0","""event"",""trial"",""time""
""fullscreenenter"",""0"",""6529""
","
","
","""event"",""trial"",""time""
""fullscreenenter"",""0"",""6529""
","
","703.4000000059605","","","","","","","","50","0,0,0","6","blank","290","null","0.6093939777590438","0.28493424728788724","0.052723433384584184","0","","","","","","","","",""
"","html-keyboard-response","141","444884","0.0-79.0-1.0","""event"",""trial"",""time""
""fullscreenenter"",""0"",""6529""
","
","
","""event"",""trial"",""time""
""fullscreenenter"",""0"",""6529""
","
","null","<p></p>","null","","","","","","","","","","","","","","","","","","","","","","","",""
"","do_trial","142","447713","0.0-80.0-0.0","""event"",""trial"",""time""
""fullscreenenter"",""0"",""6529""
","
","
","""event"",""trial"",""time""
""fullscreenenter"",""0"",""6529""
","
","258.70000000298023","","","","","","","","49","1,1,0","6","blank","291","null","0.6129747324596692","0.21411656486985947","0.08310142219696613","1","","","","","","","","",""
"","html-keyboard-response","143","448716","0.0-80.0-1.0","""event"",""trial"",""time""
""fullscreenenter"",""0"",""6529""
","
","
","""event"",""trial"",""time""
""fullscreenenter"",""0"",""6529""
","
","null","<p></p>","null","","","","","","","","","","","","","","","","","","","","","","","",""
"","do_recog","144","452434","0.0-81.0-0.0","""event"",""trial"",""time""
""fullscreenenter"",""0"",""6529""
","
","
","""event"",""trial"",""time""
""fullscreenenter"",""0"",""6529""
","
","2208.7000000029802","","","","","","","","55","","","","292","probe-94","","","","","1","[object Object]","75","1","0","","","",""
"","html-keyboard-response","145","453438","0.0-81.0-1.0","""event"",""trial"",""time""
""fullscreenenter"",""0"",""6529""
","
","
","""event"",""trial"",""time""
""fullscreenenter"",""0"",""6529""
","
","null","<p></p>","null","","","","","","","","","","","","","","","","","","","","","","","",""
"","do_trial","146","456674","0.0-82.0-0.0","""event"",""trial"",""time""
""fullscreenenter"",""0"",""6529""
","
","
","""event"",""trial"",""time""
""fullscreenenter"",""0"",""6529""
","
","693.9000000059605","","","","","","","","49","0,0,0","6","blank","293","null","0.6009234480723536","0.4157194040172854","0.15081302907070143","0","","","","","","","","",""
"","html-keyboard-response","147","457678","0.0-82.0-1.0","""event"",""trial"",""time""
""fullscreenenter"",""0"",""6529""
","
","
","""event"",""trial"",""time""
""fullscreenenter"",""0"",""6529""
","
","null","<p></p>","null","","","","","","","","","","","","","","","","","","","","","","","",""
"","do_trial","148","460457","0.0-83.0-0.0","""event"",""trial"",""time""
""fullscreenenter"",""0"",""6529""
","
","
","""event"",""trial"",""time""
""fullscreenenter"",""0"",""6529""
","
","234.19999998807907","","","","","","","","50","1,1,1","6","blank","294","null","0.34600799552079714","0.6013122517798181","0.09694835174730917","1","","","","","","","","",""
"","html-keyboard-response","149","461460","0.0-83.0-1.0","""event"",""trial"",""time""
""fullscreenenter"",""0"",""6529""
","
","
","""event"",""trial"",""time""
""fullscreenenter"",""0"",""6529""
","
","null","<p></p>","null","","","","","","","","","","","","","","","","","","","","","","","",""
"","do_trial","150","464363","0.0-84.0-0.0","""event"",""trial"",""time""
""fullscreenenter"",""0"",""6529""
","
","
","""event"",""trial"",""time""
""fullscreenenter"",""0"",""6529""
","
","360.79999999701977","","","","","","","","51","0,0,0","6","blank","295","null","0.27267344693033485","0.6334661741366496","0.3310165180270231","0","","","","","","","","",""
"","html-keyboard-response","151","465367","0.0-84.0-1.0","""event"",""trial"",""time""
""fullscreenenter"",""0"",""6529""
","
","
","""event"",""trial"",""time""
""fullscreenenter"",""0"",""6529""
","
","null","<p></p>","null","","","","","","","","","","","","","","","","","","","","","","","",""
"","do_recog","152","468184","0.0-85.0-0.0","""event"",""trial"",""time""
""fullscreenenter"",""0"",""6529""
","
","
","""event"",""trial"",""time""
""fullscreenenter"",""0"",""6529""
","
","1307.5999999940395","","","","","","","","55","","","","296","probe-45","","","","","1","[object Object]","71","1","0","","","",""
"","html-keyboard-response","153","469189","0.0-85.0-1.0","""event"",""trial"",""time""
""fullscreenenter"",""0"",""6529""
","
","
","""event"",""trial"",""time""
""fullscreenenter"",""0"",""6529""
","
","null","<p></p>","null","","","","","","","","","","","","","","","","","","","","","","","",""
"","do_trial","154","472211","0.0-86.0-0.0","""event"",""trial"",""time""
""fullscreenenter"",""0"",""6529""
","
","
","""event"",""trial"",""time""
""fullscreenenter"",""0"",""6529""
","
","479.70000000298023","","","","","","","","51","1,1,0","6","blank","297","null","0.25538485714613324","0.6901782020632868","0.40646476060749037","0","","","","","","","","",""
"","html-keyboard-response","155","473215","0.0-86.0-1.0","""event"",""trial"",""time""
""fullscreenenter"",""0"",""6529""
","
","
","""event"",""trial"",""time""
""fullscreenenter"",""0"",""6529""
","
","null","<p></p>","null","","","","","","","","","","","","","","","","","","","","","","","",""
"","do_recog","156","476178","0.0-87.0-0.0","""event"",""trial"",""time""
""fullscreenenter"",""0"",""6529""
","
","
","""event"",""trial"",""time""
""fullscreenenter"",""0"",""6529""
","
","1453.6000000089407","","","","","","","","55","","","","298","probe-118","","","","","1","[object Object]","38","0","0","","","",""
"","html-keyboard-response","157","477181","0.0-87.0-1.0","""event"",""trial"",""time""
""fullscreenenter"",""0"",""6529""
","
","
","""event"",""trial"",""time""
""fullscreenenter"",""0"",""6529""
","
","null","<p></p>","null","","","","","","","","","","","","","","","","","","","","","","","",""
"","do_trial","158","481436","0.0-88.0-0.0","""event"",""trial"",""time""
""fullscreenenter"",""0"",""6529""
","
","
","""event"",""trial"",""time""
""fullscreenenter"",""0"",""6529""
","
","1709.800000011921","","","","","","","","49","1,1,0","6","blank","299","null","0.16331511969064785","0.651165273576513","0.35874745950793474","1","","","","","","","","",""
"","html-keyboard-response","159","482439","0.0-88.0-1.0","""event"",""trial"",""time""
""fullscreenenter"",""0"",""6529""
","
","
","""event"",""trial"",""time""
""fullscreenenter"",""0"",""6529""
","
","null","<p></p>","null","","","","","","","","","","","","","","","","","","","","","","","",""
"","do_recog","160","485143","0.0-89.0-0.0","""event"",""trial"",""time""
""fullscreenenter"",""0"",""6529""
","
","
","""event"",""trial"",""time""
""fullscreenenter"",""0"",""6529""
","
","1195.699999988079","","","","","","","","53","","","","300","probe-141","","","","","1","[object Object]","199","4","1","","","",""
"","html-keyboard-response","161","486147","0.0-89.0-1.0","""event"",""trial"",""time""
""fullscreenenter"",""0"",""6529""
","
","
","""event"",""trial"",""time""
""fullscreenenter"",""0"",""6529""
","
","null","<p></p>","null","","","","","","","","","","","","","","","","","","","","","","","",""
"","do_trial","162","489487","0.0-90.0-0.0","""event"",""trial"",""time""
""fullscreenenter"",""0"",""6529""
","
","
","""event"",""trial"",""time""
""fullscreenenter"",""0"",""6529""
","
","797.2000000029802","","","","","","","","50","0,0,0","6","blank","301","null","0.0516083327368994","0.6304340382283246","0.276378328003188","0","","","","","","","","",""
"","html-keyboard-response","163","490490","0.0-90.0-1.0","""event"",""trial"",""time""
""fullscreenenter"",""0"",""6529""
","
","
","""event"",""trial"",""time""
""fullscreenenter"",""0"",""6529""
","
","null","<p></p>","null","","","","","","","","","","","","","","","","","","","","","","","",""
"","do_trial","164","493321","0.0-91.0-0.0","""event"",""trial"",""time""
""fullscreenenter"",""0"",""6529""
","
","
","""event"",""trial"",""time""
""fullscreenenter"",""0"",""6529""
","
","288.59999999403954","","","","","","","","49","0,1,0","6","blank","302","null","0.06416107808048971","0.6085081724044948","0.3044436791659991","0","","","","","","","","",""
"","html-keyboard-response","165","494324","0.0-91.0-1.0","""event"",""trial"",""time""
""fullscreenenter"",""0"",""6529""
","
","
","""event"",""trial"",""time""
""fullscreenenter"",""0"",""6529""
","
","null","<p></p>","null","","","","","","","","","","","","","","","","","","","","","","","",""
"","do_trial","166","497093","0.0-92.0-0.0","""event"",""trial"",""time""
""fullscreenenter"",""0"",""6529""
","
","
","""event"",""trial"",""time""
""fullscreenenter"",""0"",""6529""
","
","196.29999999701977","","","","","","","","49","0,1,0","6","blank","303","null","0.12048210350176529","0.8022522405971543","0.3042723997096224","0","","","","","","","","",""
"","html-keyboard-response","167","498097","0.0-92.0-1.0","""event"",""trial"",""time""
""fullscreenenter"",""0"",""6529""
","
","
","""event"",""trial"",""time""
""fullscreenenter"",""0"",""6529""
","
","null","<p></p>","null","","","","","","","","","","","","","","","","","","","","","","","",""
"","do_recog","168","501114","0.0-93.0-0.0","""event"",""trial"",""time""
""fullscreenenter"",""0"",""6529""
","
","
","""event"",""trial"",""time""
""fullscreenenter"",""0"",""6529""
","
","1509.4000000059605","","","","","","","","53","","","","304","probe-107","","","","","1","[object Object]","110","2","1","","","",""
"","html-keyboard-response","169","502117","0.0-93.0-1.0","""event"",""trial"",""time""
""fullscreenenter"",""0"",""6529""
","
","
","""event"",""trial"",""time""
""fullscreenenter"",""0"",""6529""
","
","null","<p></p>","null","","","","","","","","","","","","","","","","","","","","","","","",""
"","do_trial","170","505310","0.0-94.0-0.0","""event"",""trial"",""time""
""fullscreenenter"",""0"",""6529""
","
","
","""event"",""trial"",""time""
""fullscreenenter"",""0"",""6529""
","
","644.5","","","","","","","","51","0,1,1","6","blank","305","null","0.1085857705934673","0.6601986079761096","0.18474349870827841","1","","","","","","","","",""
"","html-keyboard-response","171","506313","0.0-94.0-1.0","""event"",""trial"",""time""
""fullscreenenter"",""0"",""6529""
","
","
","""event"",""trial"",""time""
""fullscreenenter"",""0"",""6529""
","
","null","<p></p>","null","","","","","","","","","","","","","","","","","","","","","","","",""
"","do_recog","172","510060","0.0-95.0-0.0","""event"",""trial"",""time""
""fullscreenenter"",""0"",""6529""
","
","
","""event"",""trial"",""time""
""fullscreenenter"",""0"",""6529""
","
","2235.7999999970198","","","","","","","","53","","","","306","probe-213","","","","","1","[object Object]","154","3","1","","","",""
"","html-keyboard-response","173","511063","0.0-95.0-1.0","""event"",""trial"",""time""
""fullscreenenter"",""0"",""6529""
","
","
","""event"",""trial"",""time""
""fullscreenenter"",""0"",""6529""
","
","null","<p></p>","null","","","","","","","","","","","","","","","","","","","","","","","",""
"","do_trial","174","514598","0.0-96.0-0.0","""event"",""trial"",""time""
""fullscreenenter"",""0"",""6529""
","
","
","""event"",""trial"",""time""
""fullscreenenter"",""0"",""6529""
","
","993.1999999880791","","","","","","","","49","0,0,0","6","blank","307","null","0.11486828072620478","0.6273286781127176","0.33396755601981426","0","","","","","","","","",""
"","html-keyboard-response","175","515602","0.0-96.0-1.0","""event"",""trial"",""time""
""fullscreenenter"",""0"",""6529""
","
","
","""event"",""trial"",""time""
""fullscreenenter"",""0"",""6529""
","
","null","<p></p>","null","","","","","","","","","","","","","","","","","","","","","","","",""
"","do_recog","176","518424","0.0-97.0-0.0","""event"",""trial"",""time""
""fullscreenenter"",""0"",""6529""
","
","
","""event"",""trial"",""time""
""fullscreenenter"",""0"",""6529""
","
","1312.9000000059605","","","","","","","","53","","","","308","probe-252","","","","","0","[object Object]","null","null","0","","","",""
"","html-keyboard-response","177","519428","0.0-97.0-1.0","""event"",""trial"",""time""
""fullscreenenter"",""0"",""6529""
","
","
","""event"",""trial"",""time""
""fullscreenenter"",""0"",""6529""
","
","null","<p></p>","null","","","","","","","","","","","","","","","","","","","","","","","",""
"","break","178","523083","0.0-98.0-0.0","""event"",""trial"",""time""
""fullscreenenter"",""0"",""6529""
","
","
","""event"",""trial"",""time""
""fullscreenenter"",""0"",""6529""
","
","3653.7999999970198","<div class='center'><p>Time to take a quick break! You have 2 minutes to rest, but you can move on sooner if you'd like.</p><p> Press the <b>space bar</b> to continue.</p></div>","32","","","","","","","","","","","","","","","","","","","","","","","",""
"","do_trial","179","527206","0.0-98.0-1.0","""event"",""trial"",""time""
""fullscreenenter"",""0"",""6529""
","
","
","""event"",""trial"",""time""
""fullscreenenter"",""0"",""6529""
","
","1581.2999999970198","","","","","","","","50","0,1,1","6","blank","309","null","0.05239761116091568","0.5365423467873083","0.35436326052122263","1","","","","","","","","",""
"","html-keyboard-response","180","528209","0.0-98.0-2.0","""event"",""trial"",""time""
""fullscreenenter"",""0"",""6529""
","
","
","""event"",""trial"",""time""
""fullscreenenter"",""0"",""6529""
","
","null","<p></p>","null","","","","","","","","","","","","","","","","","","","","","","","",""
"","do_trial","181","531795","0.0-99.0-0.0","""event"",""trial"",""time""
""fullscreenenter"",""0"",""6529""
","
","
","""event"",""trial"",""time""
""fullscreenenter"",""0"",""6529""
","
","1044.800000011921","","","","","","","","50","0,0,0","6","blank","310","null","0.0926327421933749","0.514416848128561","0.40964082807262103","0","","","","","","","","",""
"","html-keyboard-response","182","532797","0.0-99.0-1.0","""event"",""trial"",""time""
""fullscreenenter"",""0"",""6529""
","
","
","""event"",""trial"",""time""
""fullscreenenter"",""0"",""6529""
","
","null","<p></p>","null","","","","","","","","","","","","","","","","","","","","","","","",""
"","do_trial","183","535635","0.0-100.0-0.0","""event"",""trial"",""time""
""fullscreenenter"",""0"",""6529""
","
","
","""event"",""trial"",""time""
""fullscreenenter"",""0"",""6529""
","
","294.3999999910593","","","","","","","","51","1,1,1","6","blank","311","null","0.24216388340029413","0.5847580353154542","0.48628355390954975","1","","","","","","","","",""
"","html-keyboard-response","184","536639","0.0-100.0-1.0","""event"",""trial"",""time""
""fullscreenenter"",""0"",""6529""
","
","
","""event"",""trial"",""time""
""fullscreenenter"",""0"",""6529""
","
","null","<p></p>","null","","","","","","","","","","","","","","","","","","","","","","","",""
"","do_trial","185","539949","0.0-101.0-0.0","""event"",""trial"",""time""
""fullscreenenter"",""0"",""6529""
","
","
","""event"",""trial"",""time""
""fullscreenenter"",""0"",""6529""
","
","768.6000000089407","","","","","","","","49","0,0,1","6","blank","312","null","0.2059581667266034","0.6386835246587046","0.3610582503408119","0","","","","","","","","",""
"","html-keyboard-response","186","540952","0.0-101.0-1.0","""event"",""trial"",""time""
""fullscreenenter"",""0"",""6529""
","
","
","""event"",""trial"",""time""
""fullscreenenter"",""0"",""6529""
","
","null","<p></p>","null","","","","","","","","","","","","","","","","","","","","","","","",""
"","do_trial","187","543807","0.0-102.0-0.0","""event"",""trial"",""time""
""fullscreenenter"",""0"",""6529""
","
","
","""event"",""trial"",""time""
""fullscreenenter"",""0"",""6529""
","
","308.40000000596046","","","","","","","","50","1,1,0","6","blank","313","null","0.1928331121673046","0.6690639210353007","0.22236941605989352","1","","","","","","","","",""
"","html-keyboard-response","188","544811","0.0-102.0-1.0","""event"",""trial"",""time""
""fullscreenenter"",""0"",""6529""
","
","
","""event"",""trial"",""time""
""fullscreenenter"",""0"",""6529""
","
","null","<p></p>","null","","","","","","","","","","","","","","","","","","","","","","","",""
"","do_recog","189","547728","0.0-103.0-0.0","""event"",""trial"",""time""
""fullscreenenter"",""0"",""6529""
","
","
","""event"",""trial"",""time""
""fullscreenenter"",""0"",""6529""
","
","1404.800000011921","","","","","","","","56","","","","314","probe-64","","","","","1","[object Object]","195","4","0","","","",""
"","html-keyboard-response","190","548731","0.0-103.0-1.0","""event"",""trial"",""time""
""fullscreenenter"",""0"",""6529""
","
","
","""event"",""trial"",""time""
""fullscreenenter"",""0"",""6529""
","
","null","<p></p>","null","","","","","","","","","","","","","","","","","","","","","","","",""
"","do_trial","191","552017","0.0-104.0-0.0","""event"",""trial"",""time""
""fullscreenenter"",""0"",""6529""
","
","
","""event"",""trial"",""time""
""fullscreenenter"",""0"",""6529""
","
","743.7999999970198","","","","","","","","49","0,1,0","6","blank","315","null","0.16146410290506186","0.7198611971759153","0.2802020616789419","0","","","","","","","","",""
"","html-keyboard-response","192","553021","0.0-104.0-1.0","""event"",""trial"",""time""
""fullscreenenter"",""0"",""6529""
","
","
","""event"",""trial"",""time""
""fullscreenenter"",""0"",""6529""
","
","null","<p></p>","null","","","","","","","","","","","","","","","","","","","","","","","",""
"","do_recog","193","556420","0.0-105.0-0.0","""event"",""trial"",""time""
""fullscreenenter"",""0"",""6529""
","
","
","""event"",""trial"",""time""
""fullscreenenter"",""0"",""6529""
","
","1890.2000000029802","","","","","","","","53","","","","316","probe-114","","","","","1","[object Object]","78","1","1","","","",""
"","html-keyboard-response","194","557423","0.0-105.0-1.0","""event"",""trial"",""time""
""fullscreenenter"",""0"",""6529""
","
","
","""event"",""trial"",""time""
""fullscreenenter"",""0"",""6529""
","
","null","<p></p>","null","","","","","","","","","","","","","","","","","","","","","","","",""
"","do_trial","195","560659","0.0-106.0-0.0","""event"",""trial"",""time""
""fullscreenenter"",""0"",""6529""
","
","
","""event"",""trial"",""time""
""fullscreenenter"",""0"",""6529""
","
","694","","","","","","","","51","1,0,0","6","blank","317","null","0.15824555494932516","0.6328792193348056","0.27898149987507986","0","","","","","","","","",""
"","html-keyboard-response","196","561662","0.0-106.0-1.0","""event"",""trial"",""time""
""fullscreenenter"",""0"",""6529""
","
","
","""event"",""trial"",""time""
""fullscreenenter"",""0"",""6529""
","
","null","<p></p>","null","","","","","","","","","","","","","","","","","","","","","","","",""
"","do_trial","197","564488","0.0-107.0-0.0","""event"",""trial"",""time""
""fullscreenenter"",""0"",""6529""
","
","
","""event"",""trial"",""time""
""fullscreenenter"",""0"",""6529""
","
","281.59999999403954","","","","","","","","50","0,0,0","6","blank","318","null","0.1226210570965145","0.4505506262405193","0.3605593402247526","0","","","","","","","","",""
"","html-keyboard-response","198","565491","0.0-107.0-1.0","""event"",""trial"",""time""
""fullscreenenter"",""0"",""6529""
","
","
","""event"",""trial"",""time""
""fullscreenenter"",""0"",""6529""
","
","null","<p></p>","null","","","","","","","","","","","","","","","","","","","","","","","",""
"","do_recog","199","568299","0.0-108.0-0.0","""event"",""trial"",""time""
""fullscreenenter"",""0"",""6529""
","
","
","""event"",""trial"",""time""
""fullscreenenter"",""0"",""6529""
","
","1299.3999999910593","","","","","","","","56","","","","319","probe-01","","","","","1","[object Object]","118","2","0","","","",""
"","html-keyboard-response","200","569303","0.0-108.0-1.0","""event"",""trial"",""time""
""fullscreenenter"",""0"",""6529""
","
","
","""event"",""trial"",""time""
""fullscreenenter"",""0"",""6529""
","
","null","<p></p>","null","","","","","","","","","","","","","","","","","","","","","","","",""
"","do_trial","201","572407","0.0-109.0-0.0","""event"",""trial"",""time""
""fullscreenenter"",""0"",""6529""
","
","
","""event"",""trial"",""time""
""fullscreenenter"",""0"",""6529""
","
","562.3999999910593","","","","","","","","49","0,1,1","6","blank","320","null","0.06959836360196828","0.7308537115850717","0.27998967938002706","0","","","","","","","","",""
"","html-keyboard-response","202","573410","0.0-109.0-1.0","""event"",""trial"",""time""
""fullscreenenter"",""0"",""6529""
","
","
","""event"",""trial"",""time""
""fullscreenenter"",""0"",""6529""
","
","null","<p></p>","null","","","","","","","","","","","","","","","","","","","","","","","",""
"","do_trial","203","576219","0.0-110.0-0.0","""event"",""trial"",""time""
""fullscreenenter"",""0"",""6529""
","
","
","""event"",""trial"",""time""
""fullscreenenter"",""0"",""6529""
","
","266.79999999701977","","","","","","","","50","0,1,1","6","blank","321","null","0.07237074830412236","0.782358477342122","0.28674633497328156","1","","","","","","","","",""
"","html-keyboard-response","204","577223","0.0-110.0-1.0","""event"",""trial"",""time""
""fullscreenenter"",""0"",""6529""
","
","
","""event"",""trial"",""time""
""fullscreenenter"",""0"",""6529""
","
","null","<p></p>","null","","","","","","","","","","","","","","","","","","","","","","","",""
"","do_trial","205","580295","0.0-111.0-0.0","""event"",""trial"",""time""
""fullscreenenter"",""0"",""6529""
","
","
","""event"",""trial"",""time""
""fullscreenenter"",""0"",""6529""
","
","528","","","","","","","","51","0,1,0","6","blank","322","null","0.2067889670677213","0.7265382121324021","0.46566744186769404","0","","","","","","","","",""
"","html-keyboard-response","206","581298","0.0-111.0-1.0","""event"",""trial"",""time""
""fullscreenenter"",""0"",""6529""
","
","
","""event"",""trial"",""time""
""fullscreenenter"",""0"",""6529""
","
","null","<p></p>","null","","","","","","","","","","","","","","","","","","","","","","","",""
"","do_trial","207","584134","0.0-112.0-0.0","""event"",""trial"",""time""
""fullscreenenter"",""0"",""6529""
","
","
","""event"",""trial"",""time""
""fullscreenenter"",""0"",""6529""
","
","294.29999999701977","","","","","","","","50","0,1,0","6","blank","323","null","0.11167435037554688","0.6719381649593902","0.35489650871326944","1","","","","","","","","",""
"","html-keyboard-response","208","585138","0.0-112.0-1.0","""event"",""trial"",""time""
""fullscreenenter"",""0"",""6529""
","
","
","""event"",""trial"",""time""
""fullscreenenter"",""0"",""6529""
","
","null","<p></p>","null","","","","","","","","","","","","","","","","","","","","","","","",""
"","do_recog","209","587746","0.0-113.0-0.0","""event"",""trial"",""time""
""fullscreenenter"",""0"",""6529""
","
","
","""event"",""trial"",""time""
""fullscreenenter"",""0"",""6529""
","
","1098.0999999940395","","","","","","","","56","","","","324","probe-73","","","","","1","[object Object]","192","4","0","","","",""
"","html-keyboard-response","210","588750","0.0-113.0-1.0","""event"",""trial"",""time""
""fullscreenenter"",""0"",""6529""
","
","
","""event"",""trial"",""time""
""fullscreenenter"",""0"",""6529""
","
","null","<p></p>","null","","","","","","","","","","","","","","","","","","","","","","","",""
"","do_trial","211","592002","0.0-114.0-0.0","""event"",""trial"",""time""
""fullscreenenter"",""0"",""6529""
","
","
","""event"",""trial"",""time""
""fullscreenenter"",""0"",""6529""
","
","710.5999999940395","","","","","","","","49","1,1,1","6","blank","325","null","0.19474265075919842","0.6301424008231608","0.3414026106514348","1","","","","","","","","",""
"","html-keyboard-response","212","593006","0.0-114.0-1.0","""event"",""trial"",""time""
""fullscreenenter"",""0"",""6529""
","
","
","""event"",""trial"",""time""
""fullscreenenter"",""0"",""6529""
","
","null","<p></p>","null","","","","","","","","","","","","","","","","","","","","","","","",""
"","do_trial","213","596931","0.0-115.0-0.0","""event"",""trial"",""time""
""fullscreenenter"",""0"",""6529""
","
","
","""event"",""trial"",""time""
""fullscreenenter"",""0"",""6529""
","
","1381.7000000029802","","","","","","","","51","0,1,0","6","blank","326","null","0.16806414148364418","0.6921225665812879","0.3261124035795651","0","","","","","","","","",""
"","html-keyboard-response","214","597934","0.0-115.0-1.0","""event"",""trial"",""time""
""fullscreenenter"",""0"",""6529""
","
","
","""event"",""trial"",""time""
""fullscreenenter"",""0"",""6529""
","
","null","<p></p>","null","","","","","","","","","","","","","","","","","","","","","","","",""
"","do_trial","215","600853","0.0-116.0-0.0","""event"",""trial"",""time""
""fullscreenenter"",""0"",""6529""
","
","
","""event"",""trial"",""time""
""fullscreenenter"",""0"",""6529""
","
","374.90000000596046","","","","","","","","49","0,1,0","6","blank","327","null","0.08030371836467733","0.5490684454703021","0.2592919907897217","0","","","","","","","","",""
"","html-keyboard-response","216","601856","0.0-116.0-1.0","""event"",""trial"",""time""
""fullscreenenter"",""0"",""6529""
","
","
","""event"",""trial"",""time""
""fullscreenenter"",""0"",""6529""
","
","null","<p></p>","null","","","","","","","","","","","","","","","","","","","","","","","",""
"","do_trial","217","604786","0.0-117.0-0.0","""event"",""trial"",""time""
""fullscreenenter"",""0"",""6529""
","
","
","""event"",""trial"",""time""
""fullscreenenter"",""0"",""6529""
","
","389.59999999403954","","","","","","","","49","0,0,0","6","blank","328","null","0.06352769020146747","0.6341134217330352","0.2522805634852421","0","","","","","","","","",""
"","html-keyboard-response","218","605790","0.0-117.0-1.0","""event"",""trial"",""time""
""fullscreenenter"",""0"",""6529""
","
","
","""event"",""trial"",""time""
""fullscreenenter"",""0"",""6529""
","
","null","<p></p>","null","","","","","","","","","","","","","","","","","","","","","","","",""
"","do_recog","219","608887","0.0-118.0-0.0","""event"",""trial"",""time""
""fullscreenenter"",""0"",""6529""
","
","
","""event"",""trial"",""time""
""fullscreenenter"",""0"",""6529""
","
","1587.7000000029802","","","","","","","","53","","","","329","probe-181","","","","","1","[object Object]","194","4","1","","","",""
"","html-keyboard-response","220","609890","0.0-118.0-1.0","""event"",""trial"",""time""
""fullscreenenter"",""0"",""6529""
","
","
","""event"",""trial"",""time""
""fullscreenenter"",""0"",""6529""
","
","null","<p></p>","null","","","","","","","","","","","","","","","","","","","","","","","",""
"","do_trial","221","613128","0.0-119.0-0.0","""event"",""trial"",""time""
""fullscreenenter"",""0"",""6529""
","
","
","""event"",""trial"",""time""
""fullscreenenter"",""0"",""6529""
","
","693.7999999970198","","","","","","","","50","1,1,0","6","blank","330","null","0.23943401386017663","0.6563701996565081","0.2690101864270161","1","","","","","","","","",""
"","html-keyboard-response","222","614131","0.0-119.0-1.0","""event"",""trial"",""time""
""fullscreenenter"",""0"",""6529""
","
","
","""event"",""trial"",""time""
""fullscreenenter"",""0"",""6529""
","
","null","<p></p>","null","","","","","","","","","","","","","","","","","","","","","","","",""
"","do_recog","223","617254","0.0-120.0-0.0","""event"",""trial"",""time""
""fullscreenenter"",""0"",""6529""
","
","
","""event"",""trial"",""time""
""fullscreenenter"",""0"",""6529""
","
","1614.2000000029802","","","","","","","","53","","","","331","probe-154","","","","","1","[object Object]","39","0","1","","","",""
"","html-keyboard-response","224","618258","0.0-120.0-1.0","""event"",""trial"",""time""
""fullscreenenter"",""0"",""6529""
","
","
","""event"",""trial"",""time""
""fullscreenenter"",""0"",""6529""
","
","null","<p></p>","null","","","","","","","","","","","","","","","","","","","","","","","",""
"","do_trial","225","621413","0.0-121.0-0.0","""event"",""trial"",""time""
""fullscreenenter"",""0"",""6529""
","
","
","""event"",""trial"",""time""
""fullscreenenter"",""0"",""6529""
","
","611.6000000089407","","","","","","","","50","0,1,0","6","blank","332","null","0.12377224892561031","0.7005927171069578","0.2606241880087425","1","","","","","","","","",""
"","html-keyboard-response","226","622417","0.0-121.0-1.0","""event"",""trial"",""time""
""fullscreenenter"",""0"",""6529""
","
","
","""event"",""trial"",""time""
""fullscreenenter"",""0"",""6529""
","
","null","<p></p>","null","","","","","","","","","","","","","","","","","","","","","","","",""
"","do_trial","227","625610","0.0-122.0-0.0","""event"",""trial"",""time""
""fullscreenenter"",""0"",""6529""
","
","
","""event"",""trial"",""time""
""fullscreenenter"",""0"",""6529""
","
","649.7000000029802","","","","","","","","50","0,0,1","6","blank","333","null","0.07741187429671313","0.7033555830794912","0.35638536884993244","0","","","","","","","","",""
"","html-keyboard-response","228","626613","0.0-122.0-1.0","""event"",""trial"",""time""
""fullscreenenter"",""0"",""6529""
","
","
","""event"",""trial"",""time""
""fullscreenenter"",""0"",""6529""
","
","null","<p></p>","null","","","","","","","","","","","","","","","","","","","","","","","",""
"","do_recog","229","629368","0.0-123.0-0.0","""event"",""trial"",""time""
""fullscreenenter"",""0"",""6529""
","
","
","""event"",""trial"",""time""
""fullscreenenter"",""0"",""6529""
","
","1244","","","","","","","","53","","","","334","probe-71","","","","","1","[object Object]","112","2","1","","","",""
"","html-keyboard-response","230","630372","0.0-123.0-1.0","""event"",""trial"",""time""
""fullscreenenter"",""0"",""6529""
","
","
","""event"",""trial"",""time""
""fullscreenenter"",""0"",""6529""
","
","null","<p></p>","null","","","","","","","","","","","","","","","","","","","","","","","",""
"","do_trial","231","633667","0.0-124.0-0.0","""event"",""trial"",""time""
""fullscreenenter"",""0"",""6529""
","
","
","""event"",""trial"",""time""
""fullscreenenter"",""0"",""6529""
","
","751.2000000029802","","","","","","","","49","0,1,0","6","blank","335","null","0.16648955487833433","0.6642438091234449","0.3632998698935153","0","","","","","","","","",""
"","html-keyboard-response","232","634671","0.0-124.0-1.0","""event"",""trial"",""time""
""fullscreenenter"",""0"",""6529""
","
","
","""event"",""trial"",""time""
""fullscreenenter"",""0"",""6529""
","
","null","<p></p>","null","","","","","","","","","","","","","","","","","","","","","","","",""
"","do_trial","233","637591","0.0-125.0-0.0","""event"",""trial"",""time""
""fullscreenenter"",""0"",""6529""
","
","
","""event"",""trial"",""time""
""fullscreenenter"",""0"",""6529""
","
","377.59999999403954","","","","","","","","50","0,1,1","6","blank","336","null","0.1044522733648333","0.6622506870889688","0.35168175747683783","1","","","","","","","","",""
"","html-keyboard-response","234","638594","0.0-125.0-1.0","""event"",""trial"",""time""
""fullscreenenter"",""0"",""6529""
","
","
","""event"",""trial"",""time""
""fullscreenenter"",""0"",""6529""
","
","null","<p></p>","null","","","","","","","","","","","","","","","","","","","","","","","",""
"","do_trial","235","641788","0.0-126.0-0.0","""event"",""trial"",""time""
""fullscreenenter"",""0"",""6529""
","
","
","""event"",""trial"",""time""
""fullscreenenter"",""0"",""6529""
","
","651.3999999910593","","","","","","","","51","0,1,0","6","blank","337","null","0.1664127148571421","0.6021888567863916","0.37776608963535324","0","","","","","","","","",""
"","html-keyboard-response","236","642791","0.0-126.0-1.0","""event"",""trial"",""time""
""fullscreenenter"",""0"",""6529""
","
","
","""event"",""trial"",""time""
""fullscreenenter"",""0"",""6529""
","
","null","<p></p>","null","","","","","","","","","","","","","","","","","","","","","","","",""
"","do_recog","237","646113","0.0-127.0-0.0","""event"",""trial"",""time""
""fullscreenenter"",""0"",""6529""
","
","
","""event"",""trial"",""time""
""fullscreenenter"",""0"",""6529""
","
","1813.199999988079","","","","","","","","53","","","","338","probe-36","","","","","1","[object Object]","191","4","1","","","",""
"","html-keyboard-response","238","647116","0.0-127.0-1.0","""event"",""trial"",""time""
""fullscreenenter"",""0"",""6529""
","
","
","""event"",""trial"",""time""
""fullscreenenter"",""0"",""6529""
","
","null","<p></p>","null","","","","","","","","","","","","","","","","","","","","","","","",""
"","do_trial","239","650709","0.0-128.0-0.0","""event"",""trial"",""time""
""fullscreenenter"",""0"",""6529""
","
","
","""event"",""trial"",""time""
""fullscreenenter"",""0"",""6529""
","
","1054.7000000029802","","","","","","","","50","0,1,1","6","blank","339","null","0.1296757679733796","0.6886181707858","0.42811029994764327","1","","","","","","","","",""
"","html-keyboard-response","240","651712","0.0-128.0-1.0","""event"",""trial"",""time""
""fullscreenenter"",""0"",""6529""
","
","
","""event"",""trial"",""time""
""fullscreenenter"",""0"",""6529""
","
","null","<p></p>","null","","","","","","","","","","","","","","","","","","","","","","","",""
"","do_trial","241","654846","0.0-129.0-0.0","""event"",""trial"",""time""
""fullscreenenter"",""0"",""6529""
","
","
","""event"",""trial"",""time""
""fullscreenenter"",""0"",""6529""
","
","562.7999999970198","","","","","","","","50","0,1,0","6","blank","340","null","0.1211792309346063","0.6342535652644596","0.4419618078547927","1","","","","","","","","",""
"","html-keyboard-response","242","655850","0.0-129.0-1.0","""event"",""trial"",""time""
""fullscreenenter"",""0"",""6529""
","
","
","""event"",""trial"",""time""
""fullscreenenter"",""0"",""6529""
","
","null","<p></p>","null","","","","","","","","","","","","","","","","","","","","","","","",""
"","do_trial","243","659572","0.0-130.0-0.0","""event"",""trial"",""time""
""fullscreenenter"",""0"",""6529""
","
","
","""event"",""trial"",""time""
""fullscreenenter"",""0"",""6529""
","
","1178.5","","","","","","","","51","0,1,1","6","blank","341","null","0.1582820922366699","0.6568314396087459","0.37765286647645796","1","","","","","","","","",""
"","html-keyboard-response","244","660577","0.0-130.0-1.0","""event"",""trial"",""time""
""fullscreenenter"",""0"",""6529""
","
","
","""event"",""trial"",""time""
""fullscreenenter"",""0"",""6529""
","
","null","<p></p>","null","","","","","","","","","","","","","","","","","","","","","","","",""
"","do_trial","245","663433","0.0-131.0-0.0","""event"",""trial"",""time""
""fullscreenenter"",""0"",""6529""
","
","
","""event"",""trial"",""time""
""fullscreenenter"",""0"",""6529""
","
","314.70000000298023","","","","","","","","50","0,0,0","6","blank","342","null","0.0984627494297644","0.5392198937362375","0.30474462734912416","0","","","","","","","","",""
"","html-keyboard-response","246","664434","0.0-131.0-1.0","""event"",""trial"",""time""
""fullscreenenter"",""0"",""6529""
","
","
","""event"",""trial"",""time""
""fullscreenenter"",""0"",""6529""
","
","null","<p></p>","null","","","","","","","","","","","","","","","","","","","","","","","",""
"","do_trial","247","667427","0.0-132.0-0.0","""event"",""trial"",""time""
""fullscreenenter"",""0"",""6529""
","
","
","""event"",""trial"",""time""
""fullscreenenter"",""0"",""6529""
","
","450.1000000089407","","","","","","","","49","0,1,0","6","blank","343","null","0.13456362451199327","0.5316808759815443","0.22905684740384968","0","","","","","","","","",""
"","html-keyboard-response","248","668431","0.0-132.0-1.0","""event"",""trial"",""time""
""fullscreenenter"",""0"",""6529""
","
","
","""event"",""trial"",""time""
""fullscreenenter"",""0"",""6529""
","
","null","<p></p>","null","","","","","","","","","","","","","","","","","","","","","","","",""
"","do_trial","249","671310","0.0-133.0-0.0","""event"",""trial"",""time""
""fullscreenenter"",""0"",""6529""
","
","
","""event"",""trial"",""time""
""fullscreenenter"",""0"",""6529""
","
","337.09999999403954","","","","","","","","51","0,1,0","6","blank","344","null","0.18531927385839514","0.699594715290863","0.18438073185781853","0","","","","","","","","",""
"","html-keyboard-response","250","672314","0.0-133.0-1.0","""event"",""trial"",""time""
""fullscreenenter"",""0"",""6529""
","
","
","""event"",""trial"",""time""
""fullscreenenter"",""0"",""6529""
","
","null","<p></p>","null","","","","","","","","","","","","","","","","","","","","","","","",""
"","do_recog","251","675272","0.0-134.0-0.0","""event"",""trial"",""time""
""fullscreenenter"",""0"",""6529""
","
","
","""event"",""trial"",""time""
""fullscreenenter"",""0"",""6529""
","
","1449.6000000089407","","","","","","","","53","","","","345","probe-214","","","","","1","[object Object]","151","3","1","","","",""
"","html-keyboard-response","252","676276","0.0-134.0-1.0","""event"",""trial"",""time""
""fullscreenenter"",""0"",""6529""
","
","
","""event"",""trial"",""time""
""fullscreenenter"",""0"",""6529""
","
","null","<p></p>","null","","","","","","","","","","","","","","","","","","","","","","","",""
"","do_trial","253","679929","0.0-135.0-0.0","""event"",""trial"",""time""
""fullscreenenter"",""0"",""6529""
","
","
","""event"",""trial"",""time""
""fullscreenenter"",""0"",""6529""
","
","1107.5","","","","","","","","50","0,1,0","6","blank","346","null","0.12759632685224193","0.7479565254742174","0.32174730252549744","1","","","","","","","","",""
"","html-keyboard-response","254","680939","0.0-135.0-1.0","""event"",""trial"",""time""
""fullscreenenter"",""0"",""6529""
","
","
","""event"",""trial"",""time""
""fullscreenenter"",""0"",""6529""
","
","null","<p></p>","null","","","","","","","","","","","","","","","","","","","","","","","",""
"","do_trial","255","683884","0.0-136.0-0.0","""event"",""trial"",""time""
""fullscreenenter"",""0"",""6529""
","
","
","""event"",""trial"",""time""
""fullscreenenter"",""0"",""6529""
","
","402.5","","","","","","","","51","0,1,1","6","blank","347","null","0.0700776649418114","0.8072145525896904","0.2634185983757599","1","","","","","","","","",""
"","html-keyboard-response","256","684887","0.0-136.0-1.0","""event"",""trial"",""time""
""fullscreenenter"",""0"",""6529""
","
","
","""event"",""trial"",""time""
""fullscreenenter"",""0"",""6529""
","
","null","<p></p>","null","","","","","","","","","","","","","","","","","","","","","","","",""
"","do_recog","257","687598","0.0-137.0-0.0","""event"",""trial"",""time""
""fullscreenenter"",""0"",""6529""
","
","
","""event"",""trial"",""time""
""fullscreenenter"",""0"",""6529""
","
","1202.9000000059605","","","","","","","","53","","","","348","probe-04","","","","","1","[object Object]","32","0","1","","","",""
"","html-keyboard-response","258","688602","0.0-137.0-1.0","""event"",""trial"",""time""
""fullscreenenter"",""0"",""6529""
","
","
","""event"",""trial"",""time""
""fullscreenenter"",""0"",""6529""
","
","null","<p></p>","null","","","","","","","","","","","","","","","","","","","","","","","",""
"","break","259","734718","0.0-138.0-0.0","""event"",""trial"",""time""
""fullscreenenter"",""0"",""6529""
","
","
","""event"",""trial"",""time""
""fullscreenenter"",""0"",""6529""
","
","46114.09999999404","<div class='center'><p>Time to take a quick break! You have 2 minutes to rest, but you can move on sooner if you'd like.</p><p> Press the <b>space bar</b> to continue.</p></div>","32","","","","","","","","","","","","","","","","","","","","","","","",""
"","do_trial","260","738600","0.0-138.0-1.0","""event"",""trial"",""time""
""fullscreenenter"",""0"",""6529""
","
","
","""event"",""trial"",""time""
""fullscreenenter"",""0"",""6529""
","
","1337.7000000029802","","","","","","","","50","0,1,0","6","blank","349","null","0.0817843202191046","0.7416491835457432","0.2878198017626769","1","","","","","","","","",""
"","html-keyboard-response","261","739603","0.0-138.0-2.0","""event"",""trial"",""time""
""fullscreenenter"",""0"",""6529""
","
","
","""event"",""trial"",""time""
""fullscreenenter"",""0"",""6529""
","
","null","<p></p>","null","","","","","","","","","","","","","","","","","","","","","","","",""
"","do_trial","262","742687","0.0-139.0-0.0","""event"",""trial"",""time""
""fullscreenenter"",""0"",""6529""
","
","
","""event"",""trial"",""time""
""fullscreenenter"",""0"",""6529""
","
","538","","","","","","","","51","0,1,0","6","blank","350","null","0.2765934160278909","0.4447925737376842","0.2566341400084524","0","","","","","","","","",""
"","html-keyboard-response","263","743690","0.0-139.0-1.0","""event"",""trial"",""time""
""fullscreenenter"",""0"",""6529""
","
","
","""event"",""trial"",""time""
""fullscreenenter"",""0"",""6529""
","
","null","<p></p>","null","","","","","","","","","","","","","","","","","","","","","","","",""
"","do_trial","264","746567","0.0-140.0-0.0","""event"",""trial"",""time""
""fullscreenenter"",""0"",""6529""
","
","
","""event"",""trial"",""time""
""fullscreenenter"",""0"",""6529""
","
","335","","","","","","","","49","0,1,0","6","blank","351","null","0.3616104274768982","0.39940496947661064","0.5214444605315247","0","","","","","","","","",""
"","html-keyboard-response","265","747569","0.0-140.0-1.0","""event"",""trial"",""time""
""fullscreenenter"",""0"",""6529""
","
","
","""event"",""trial"",""time""
""fullscreenenter"",""0"",""6529""
","
","null","<p></p>","null","","","","","","","","","","","","","","","","","","","","","","","",""
"","do_trial","266","750551","0.0-141.0-0.0","""event"",""trial"",""time""
""fullscreenenter"",""0"",""6529""
","
","
","""event"",""trial"",""time""
""fullscreenenter"",""0"",""6529""
","
","439.6000000089407","","","","","","","","50","0,0,1","6","blank","352","null","0.2919954793000183","0.17903515498676315","0.533182123248073","0","","","","","","","","",""
"","html-keyboard-response","267","751554","0.0-141.0-1.0","""event"",""trial"",""time""
""fullscreenenter"",""0"",""6529""
","
","
","""event"",""trial"",""time""
""fullscreenenter"",""0"",""6529""
","
","null","<p></p>","null","","","","","","","","","","","","","","","","","","","","","","","",""
"","do_trial","268","755958","0.0-142.0-0.0","""event"",""trial"",""time""
""fullscreenenter"",""0"",""6529""
","
","
","""event"",""trial"",""time""
""fullscreenenter"",""0"",""6529""
","
","1861","","","","","","","","50","0,0,0","6","blank","353","null","0.3263206379127778","0.16108943676727858","0.6518105118688557","0","","","","","","","","",""
"","html-keyboard-response","269","756962","0.0-142.0-1.0","""event"",""trial"",""time""
""fullscreenenter"",""0"",""6529""
","
","
","""event"",""trial"",""time""
""fullscreenenter"",""0"",""6529""
","
","null","<p></p>","null","","","","","","","","","","","","","","","","","","","","","","","",""
"","do_trial","270","760274","0.0-143.0-0.0","""event"",""trial"",""time""
""fullscreenenter"",""0"",""6529""
","
","
","""event"",""trial"",""time""
""fullscreenenter"",""0"",""6529""
","
","768.6999999880791","","","","","","","","49","0,0,1","6","blank","354","null","0.35511367535294136","0.12217124605867401","0.7395622396014366","0","","","","","","","","",""
"","html-keyboard-response","271","761278","0.0-143.0-1.0","""event"",""trial"",""time""
""fullscreenenter"",""0"",""6529""
","
","
","""event"",""trial"",""time""
""fullscreenenter"",""0"",""6529""
","
","null","<p></p>","null","","","","","","","","","","","","","","","","","","","","","","","",""
"","do_recog","272","763759","0.0-144.0-0.0","""event"",""trial"",""time""
""fullscreenenter"",""0"",""6529""
","
","
","""event"",""trial"",""time""
""fullscreenenter"",""0"",""6529""
","
","973.2000000029802","","","","","","","","53","","","","355","probe-210","","","","","1","[object Object]","34","0","1","","","",""
"","html-keyboard-response","273","764762","0.0-144.0-1.0","""event"",""trial"",""time""
""fullscreenenter"",""0"",""6529""
","
","
","""event"",""trial"",""time""
""fullscreenenter"",""0"",""6529""
","
","null","<p></p>","null","","","","","","","","","","","","","","","","","","","","","","","",""
"","do_trial","274","767588","0.0-145.0-0.0","""event"",""trial"",""time""
""fullscreenenter"",""0"",""6529""
","
","
","""event"",""trial"",""time""
""fullscreenenter"",""0"",""6529""
","
","280.70000000298023","","","","","","","","50","0,0,1","6","blank","356","null","0.3350353436766909","0.2298361796446291","0.6628226467747078","0","","","","","","","","",""
"","html-keyboard-response","275","768592","0.0-145.0-1.0","""event"",""trial"",""time""
""fullscreenenter"",""0"",""6529""
","
","
","""event"",""trial"",""time""
""fullscreenenter"",""0"",""6529""
","
","null","<p></p>","null","","","","","","","","","","","","","","","","","","","","","","","",""
"","do_trial","276","771560","0.0-146.0-0.0","""event"",""trial"",""time""
""fullscreenenter"",""0"",""6529""
","
","
","""event"",""trial"",""time""
""fullscreenenter"",""0"",""6529""
","
","425.1000000089407","","","","","","","","51","1,1,1","6","blank","357","null","0.21443228505017914","0.3147645604909468","0.6667466830168932","1","","","","","","","","",""
