"success","trial_type","trial_index","time_elapsed","internal_node_id","interactions","blur_events","focus_events","fullscreenenter_events","fullscreenexit_events","rt","stimulus","key_press","subject_id","participant_id","age","gender","prompt","response","choice_outcomes","context_n","context_img_id","trial_n","probe_img_id","pR_red","pR_white","pR_black","outcome","is_valid","image_to_show","probed_trial","probed_context","correct","probe","probed_trial_n","probed_context_n","context_im"
"true","fullscreen","0","3102","0.0-0.0","""event"",""trial"",""time""
""fullscreenenter"",""0"",""2108""
","
","
","""event"",""trial"",""time""
""fullscreenenter"",""0"",""2108""
","
","","","","","","","","","","","","","","","","","","","","","","","","","","",""
"","pavlovia","1","3106","0.0-1.0","""event"",""trial"",""time""
""fullscreenenter"",""0"",""2108""
","
","
","""event"",""trial"",""time""
""fullscreenenter"",""0"",""2108""
","
","","","","","","","","","","","","","","","","","","","","","","","","","","",""
"","welc_back","2","12899","0.0-2.0","""event"",""trial"",""time""
""fullscreenenter"",""0"",""2108""
","
","
","""event"",""trial"",""time""
""fullscreenenter"",""0"",""2108""
","
","null","run_exp/static/audio/clip_29_welcome_back.m4a","null","579","401","9","Female","<div class='center'><p>Welcome to day 2!</p><p> Yesterday, you were the head captain of a pirate ship. You asked your fellow pirates to rob other ships of their gold across six different islands.</p></div>","","","","","","","","","","","","","","","","","","",""
"","html-keyboard-response","3","15843","0.0-3.0","""event"",""trial"",""time""
""fullscreenenter"",""0"",""2108""
","
","
","""event"",""trial"",""time""
""fullscreenenter"",""0"",""2108""
","
","2943","<div class='center'><p>Welcome to day 2!</p><p> Yesterday, you were the head captain of a pirate ship. You asked your fellow pirates to rob other ships of their gold across six different islands.</p><p><b>[Press the space bar to continue]</b></p></div>","32","","","","","","","","","","","","","","","","","","","","","","","",""
"","day_1_summary_goal","4","33053","0.0-4.0","""event"",""trial"",""time""
""fullscreenenter"",""0"",""2108""
","
","
","""event"",""trial"",""time""
""fullscreenenter"",""0"",""2108""
","
","null","run_exp/static/audio/clip_30_goal_of_game.m4a","null","","","","","<div class='center'><p>Today, like yesterday, you get to pick which pirate you want to rob the next ship.</p><p>If the pirate is successful in robbing a ship, you get gold coins that look like this: </p><p><img src='run_exp/static/images/tutorial/reward.png' height='150'></p><p> If they were not successful in robbing the ship, then you will get no gold coins and you'll see a big red x like this: </p><p><img src='run_exp/static/images/tutorial/reward_no.png' height='150'></p></div>","","","","","","","","","","","","","","","","","","",""
"","html-keyboard-response","5","35311","0.0-5.0","""event"",""trial"",""time""
""fullscreenenter"",""0"",""2108""
","
","
","""event"",""trial"",""time""
""fullscreenenter"",""0"",""2108""
","
","2256.10000000149","<div class='center'><p>Today, like yesterday, you get to pick which pirate you want to rob the next ship.</p><p>If the pirate is successful in robbing a ship, you get gold coins that look like this: </p><p><img src='run_exp/static/images/tutorial/reward.png' height='150'></p><p> If they were not successful in robbing the ship, then you will get no gold coins and you'll see a big red x like this: </p><p><img src='run_exp/static/images/tutorial/reward_no.png' height='150'></p><p><b>[Press the space bar to continue]</b></p></div>","32","","","","","","","","","","","","","","","","","","","","","","","",""
"","day_1_summary_pick","6","50004","0.0-6.0","""event"",""trial"",""time""
""fullscreenenter"",""0"",""2108""
","
","
","""event"",""trial"",""time""
""fullscreenenter"",""0"",""2108""
","
","null","run_exp/static/audio/clip_31_how_to_pick_a_pirate.m4a","null","","","","","<div class='center'><p>Also, just like yesterday, you will use the 1,2,3 keys on your keyboard to pick a pirate. Press '1' to choose red beard, '2' to choose white beard, and '3' to choose black beard . You only have 3 seconds to pick a pirate, so please make a choice quickly!</p></div>","","","","","","","","","","","","","","","","","","",""
"","html-keyboard-response","7","55472","0.0-7.0","""event"",""trial"",""time""
""fullscreenenter"",""0"",""2108""
","
","
","""event"",""trial"",""time""
""fullscreenenter"",""0"",""2108""
","
","5467.599999997765","<div class='center'><p>Also, just like yesterday, you will use the 1,2,3 keys on your keyboard to pick a pirate. Press '1' to choose red beard, '2' to choose white beard, and '3' to choose black beard . You only have 3 seconds to pick a pirate, so please make a choice quickly!</p><p><b>[Press the space bar to continue]</b></p></div>","32","","","","","","","","","","","","","","","","","","","","","","","",""
"","test_phase_begin","8","85855","0.0-8.0","""event"",""trial"",""time""
""fullscreenenter"",""0"",""2108""
","
","
","""event"",""trial"",""time""
""fullscreenenter"",""0"",""2108""
","
","null","run_exp/static/audio/clip_32_final_place.m4a","null","","","","","<div class='center'><p>You’ve arrived at the final island of your journey! Unfortunately, it’s very foggy out, so you won’t be able to see it in the distance like the other islands you've visited.</p><p>You’ll still be deciding which pirate you want to rob a ship like before. However, because of the fog, you also won’t be able to see the ship.</p><p>This means you do not have to remember the ships you rob on this island.</p><p>Unlike yesterday, you won't be visiting multiple islands today. You will stay on this island for the entire game. This game will last ~30 minutes.</p></div>","","","","","","","","","","","","","","","","","","",""
"","html-keyboard-response","9","87218","0.0-9.0","""event"",""trial"",""time""
""fullscreenenter"",""0"",""2108""
","
","
","""event"",""trial"",""time""
""fullscreenenter"",""0"",""2108""
","
","1361.3999999985099","<div class='center'><p>You’ve arrived at the final island of your journey! Unfortunately, it’s very foggy out, so you won’t be able to see it in the distance like the other islands you've visited.</p><p>You’ll still be deciding which pirate you want to rob a ship like before. However, because of the fog, you also won’t be able to see the ship.</p><p>This means you do not have to remember the ships you rob on this island.</p><p>Unlike yesterday, you won't be visiting multiple islands today. You will stay on this island for the entire game. This game will last ~30 minutes.</p><p><b>[Press the space bar to continue]</b></p></div>","32","","","","","","","","","","","","","","","","","","","","","","","",""
"","explain_probe_1","10","94935","0.0-10.0","""event"",""trial"",""time""
""fullscreenenter"",""0"",""2108""
","
","
","""event"",""trial"",""time""
""fullscreenenter"",""0"",""2108""
","
","null","run_exp/static/audio/clip_33_recognition_1.m4a","null","","","","","<div class='center'><p> Sometimes you’ll be shown a ship, and you will be asked if you saw this ship on a past island.</p><p> Here is an example of what you will see.</p><p><img src='run_exp/static/images/tutorial/example_recog_trial.png' height='500'></p></div>","","","","","","","","","","","","","","","","","","",""
"","html-keyboard-response","11","96325","0.0-11.0","""event"",""trial"",""time""
""fullscreenenter"",""0"",""2108""
","
","
","""event"",""trial"",""time""
""fullscreenenter"",""0"",""2108""
","
","1389.3999999985099","<div class='center'><p> Sometimes you’ll be shown a ship, and you will be asked if you saw this ship on a past island.</p><p> Here is an example of what you will see.</p><p><img src='run_exp/static/images/tutorial/example_recog_trial.png' height='500'></p><p><b>[Press the space bar to continue]</b></p></div>","32","","","","","","","","","","","","","","","","","","","","","","","",""
"","explain_probe_2","12","118039","0.0-12.0","""event"",""trial"",""time""
""fullscreenenter"",""0"",""2108""
","
","
","""event"",""trial"",""time""
""fullscreenenter"",""0"",""2108""
","
","null","run_exp/static/audio/clip_34_recognition_2.m4a","null","","","","","<div class='center'><p> You will press the 5, 6, 7, 8 keys on your keyboard to respond.</p><p>If you are sure you saw the ship, press <b>5</b> on your keyboard.</p><p> If you think you saw it before but aren't sure, then press <b>6</b>.</p><p> If you think you have <b>not</b> seen it before but aren't sure, then press <b>7</b>.</p><p> If you are sure you did <b>not</b> see the ship before, then press <b>8</b>.</p><p><img src='run_exp/static/images/tutorial/example_recog_trial.png' height='500'></p></div>","","","","","","","","","","","","","","","","","","",""
"","html-keyboard-response","13","119744","0.0-13.0","""event"",""trial"",""time""
""fullscreenenter"",""0"",""2108""
","
","
","""event"",""trial"",""time""
""fullscreenenter"",""0"",""2108""
","
","1704.300000000745","<div class='center'><p> You will press the 5, 6, 7, 8 keys on your keyboard to respond.</p><p>If you are sure you saw the ship, press <b>5</b> on your keyboard.</p><p> If you think you saw it before but aren't sure, then press <b>6</b>.</p><p> If you think you have <b>not</b> seen it before but aren't sure, then press <b>7</b>.</p><p> If you are sure you did <b>not</b> see the ship before, then press <b>8</b>.</p><p><img src='run_exp/static/images/tutorial/example_recog_trial.png' height='500'></p><p><b>[Press the space bar to continue]</b></p></div>","32","","","","","","","","","","","","","","","","","","","","","","","",""
"","explain_outcome","14","136940","0.0-14.0","""event"",""trial"",""time""
""fullscreenenter"",""0"",""2108""
","
","
","""event"",""trial"",""time""
""fullscreenenter"",""0"",""2108""
","
","null","run_exp/static/audio/clip_35_recognition_3.m4a","null","","","","","<div class='center'><p> If you remember correctly, then you’ll get a gold coin like this: </p><p><img src='run_exp/static/images/tutorial/reward_small.png' height='200'></p><p>If you do not remember correctly, then you'll see a red x like this: </p><p><img src='run_exp/static/images/tutorial/reward_no.png' height='200'></p><p>Importantly, when you are shown a ship, take the time to remind yourself which island you saw it on. This will help you in the next part of the study.</p></div>","","","","","","","","","","","","","","","","","","",""
"","html-keyboard-response","15","137609","0.0-15.0","""event"",""trial"",""time""
""fullscreenenter"",""0"",""2108""
","
","
","""event"",""trial"",""time""
""fullscreenenter"",""0"",""2108""
","
","667.6999999992549","<div class='center'><p> If you remember correctly, then you’ll get a gold coin like this: </p><p><img src='run_exp/static/images/tutorial/reward_small.png' height='200'></p><p>If you do not remember correctly, then you'll see a red x like this: </p><p><img src='run_exp/static/images/tutorial/reward_no.png' height='200'></p><p>Importantly, when you are shown a ship, take the time to remind yourself which island you saw it on. This will help you in the next part of the study.</p><p><b>[Press the space bar to continue]</b></p></div>","32","","","","","","","","","","","","","","","","","","","","","","","",""
"","begin_test_phase","16","153426","0.0-16.0","""event"",""trial"",""time""
""fullscreenenter"",""0"",""2108""
","
","
","""event"",""trial"",""time""
""fullscreenenter"",""0"",""2108""
","
","null","run_exp/static/audio/clip_36_begin_final.m4a","null","","","","","<div class='center'><p>Let's go over the important points again. Your job is to: </p><p>1. Pick the pirate who is best at robbing ships and will bring you back gold coins. </p><p>2. Correctly remember whether or not you saw a ship before. If you did see the ship before, remind yourself on which island you saw it. </p></div>","","","","","","","","","","","","","","","","","","",""
"","html-keyboard-response","17","154450","0.0-17.0","""event"",""trial"",""time""
""fullscreenenter"",""0"",""2108""
","
","
","""event"",""trial"",""time""
""fullscreenenter"",""0"",""2108""
","
","988.6999999992549","<div class='center'><p>Let's go over the important points again. Your job is to: </p><p>1. Pick the pirate who is best at robbing ships and will bring you back gold coins. </p><p>2. Correctly remember whether or not you saw a ship before. If you did see the ship before, remind yourself on which island you saw it. </p><p><b>[Press the space bar to continue]</b></p></div>","32","","","","","","","","","","","","","","","","","","","","","","","",""
"","do_welcome","18","158462","0.0-18.0","""event"",""trial"",""time""
""fullscreenenter"",""0"",""2108""
","
","
","""event"",""trial"",""time""
""fullscreenenter"",""0"",""2108""
","
","null","","","","","","","","null","","","","","","","","","","","","","","","","","",""
"","do_trial","19","162385","0.0-19.0-0.0","""event"",""trial"",""time""
""fullscreenenter"",""0"",""2108""
","
","
","""event"",""trial"",""time""
""fullscreenenter"",""0"",""2108""
","
","1374.300000000745","","","","","","","","49","0,0,1","6","blank","230","null","0.10560733475826835","0.665767712992591","0.37376302437885217","0","","","","","","","","",""
"","html-keyboard-response","20","163387","0.0-19.0-1.0","""event"",""trial"",""time""
""fullscreenenter"",""0"",""2108""
","
","
","""event"",""trial"",""time""
""fullscreenenter"",""0"",""2108""
","
","null","<p></p>","null","","","","","","","","","","","","","","","","","","","","","","","",""
"","do_trial","21","166344","0.0-20.0-0.0","""event"",""trial"",""time""
""fullscreenenter"",""0"",""2108""
","
","
","""event"",""trial"",""time""
""fullscreenenter"",""0"",""2108""
","
","412.29999999701977","","","","","","","","51","1,1,0","6","blank","231","null","0.06699299273794262","0.5224935430896955","0.3863546414004548","0","","","","","","","","",""
"","html-keyboard-response","22","167346","0.0-20.0-1.0","""event"",""trial"",""time""
""fullscreenenter"",""0"",""2108""
","
","
","""event"",""trial"",""time""
""fullscreenenter"",""0"",""2108""
","
","null","<p></p>","null","","","","","","","","","","","","","","","","","","","","","","","",""
"","do_trial","23","169892","0.0-21.0-0.0","""event"",""trial"",""time""
""fullscreenenter"",""0"",""2108""
","
","
","""event"",""trial"",""time""
""fullscreenenter"",""0"",""2108""
","
","2","","","","","","","","50","1,0,0","6","blank","232","null","0.07095547145925275","0.630912563897613","0.2532891458304007","0","","","","","","","","",""
"","html-keyboard-response","24","170898","0.0-21.0-1.0","""event"",""trial"",""time""
""fullscreenenter"",""0"",""2108""
","
","
","""event"",""trial"",""time""
""fullscreenenter"",""0"",""2108""
","
","null","<p></p>","null","","","","","","","","","","","","","","","","","","","","","","","",""
"","do_trial","25","173892","0.0-22.0-0.0","""event"",""trial"",""time""
""fullscreenenter"",""0"",""2108""
","
","
","""event"",""trial"",""time""
""fullscreenenter"",""0"",""2108""
","
","451.30000000074506","","","","","","","","49","0,1,0","6","blank","233","null","0.12955555379401748","0.7261138299591512","0.17704539655184084","0","","","","","","","","",""
"","html-keyboard-response","26","174896","0.0-22.0-1.0","""event"",""trial"",""time""
""fullscreenenter"",""0"",""2108""
","
","
","""event"",""trial"",""time""
""fullscreenenter"",""0"",""2108""
","
","null","<p></p>","null","","","","","","","","","","","","","","","","","","","","","","","",""
"","do_trial","27","177894","0.0-23.0-0.0","""event"",""trial"",""time""
""fullscreenenter"",""0"",""2108""
","
","
","""event"",""trial"",""time""
""fullscreenenter"",""0"",""2108""
","
","452.6000000014901","","","","","","","","51","0,1,0","6","blank","234","null","0.24548585272215828","0.7303417559915439","0.21994902420472812","0","","","","","","","","",""
"","html-keyboard-response","28","178898","0.0-23.0-1.0","""event"",""trial"",""time""
""fullscreenenter"",""0"",""2108""
","
","
","""event"",""trial"",""time""
""fullscreenenter"",""0"",""2108""
","
","null","<p></p>","null","","","","","","","","","","","","","","","","","","","","","","","",""
"","do_trial","29","181668","0.0-24.0-0.0","""event"",""trial"",""time""
""fullscreenenter"",""0"",""2108""
","
","
","""event"",""trial"",""time""
""fullscreenenter"",""0"",""2108""
","
","221.79999999701977","","","","","","","","50","0,1,1","6","blank","235","null","0.14019559565803044","0.7366450389704554","0.2580378705990074","1","","","","","","","","",""
"","html-keyboard-response","30","182671","0.0-24.0-1.0","""event"",""trial"",""time""
""fullscreenenter"",""0"",""2108""
","
","
","""event"",""trial"",""time""
""fullscreenenter"",""0"",""2108""
","
","null","<p></p>","null","","","","","","","","","","","","","","","","","","","","","","","",""
"","do_trial","31","185594","0.0-25.0-0.0","""event"",""trial"",""time""
""fullscreenenter"",""0"",""2108""
","
","
","""event"",""trial"",""time""
""fullscreenenter"",""0"",""2108""
","
","377","","","","","","","","49","0,1,0","6","blank","236","null","0.10215901501937731","0.7831538448728453","0.3160015974617082","0","","","","","","","","",""
"","html-keyboard-response","32","186600","0.0-25.0-1.0","""event"",""trial"",""time""
""fullscreenenter"",""0"",""2108""
","
","
","""event"",""trial"",""time""
""fullscreenenter"",""0"",""2108""
","
","null","<p></p>","null","","","","","","","","","","","","","","","","","","","","","","","",""
"","do_trial","33","189520","0.0-26.0-0.0","""event"",""trial"",""time""
""fullscreenenter"",""0"",""2108""
","
","
","""event"",""trial"",""time""
""fullscreenenter"",""0"",""2108""
","
","377","","","","","","","","51","0,1,1","6","blank","237","null","0.14474265187469548","0.6661941383659172","0.2366302312166243","1","","","","","","","","",""
"","html-keyboard-response","34","190522","0.0-26.0-1.0","""event"",""trial"",""time""
""fullscreenenter"",""0"",""2108""
","
","
","""event"",""trial"",""time""
""fullscreenenter"",""0"",""2108""
","
","null","<p></p>","null","","","","","","","","","","","","","","","","","","","","","","","",""
"","do_trial","35","194503","0.0-27.0-0.0","""event"",""trial"",""time""
""fullscreenenter"",""0"",""2108""
","
","
","""event"",""trial"",""time""
""fullscreenenter"",""0"",""2108""
","
","1438.0999999977648","","","","","","","","49","0,1,0","6","blank","238","null","0.21320317584794993","0.5427280768208335","0.1741161242233059","0","","","","","","","","",""
"","html-keyboard-response","36","195507","0.0-27.0-1.0","""event"",""trial"",""time""
""fullscreenenter"",""0"",""2108""
","
","
","""event"",""trial"",""time""
""fullscreenenter"",""0"",""2108""
","
","null","<p></p>","null","","","","","","","","","","","","","","","","","","","","","","","",""
"","do_trial","37","198168","0.0-28.0-0.0","""event"",""trial"",""time""
""fullscreenenter"",""0"",""2108""
","
","
","""event"",""trial"",""time""
""fullscreenenter"",""0"",""2108""
","
","111.19999999925494","","","","","","","","49","0,1,0","6","blank","239","null","0.12062969579572938","0.47248582548806395","0.2416495687477373","0","","","","","","","","",""
"","html-keyboard-response","38","199170","0.0-28.0-1.0","""event"",""trial"",""time""
""fullscreenenter"",""0"",""2108""
","
","
","""event"",""trial"",""time""
""fullscreenenter"",""0"",""2108""
","
","null","<p></p>","null","","","","","","","","","","","","","","","","","","","","","","","",""
"","do_trial","39","202476","0.0-29.0-0.0","""event"",""trial"",""time""
""fullscreenenter"",""0"",""2108""
","
","
","""event"",""trial"",""time""
""fullscreenenter"",""0"",""2108""
","
","762.6999999992549","","","","","","","","49","0,1,1","6","blank","240","null","0.1411501471987699","0.576923802594528","0.10555501058990892","0","","","","","","","","",""
"","html-keyboard-response","40","203479","0.0-29.0-1.0","""event"",""trial"",""time""
""fullscreenenter"",""0"",""2108""
","
","
","""event"",""trial"",""time""
""fullscreenenter"",""0"",""2108""
","
","null","<p></p>","null","","","","","","","","","","","","","","","","","","","","","","","",""
"","do_trial","41","206436","0.0-30.0-0.0","""event"",""trial"",""time""
""fullscreenenter"",""0"",""2108""
","
","
","""event"",""trial"",""time""
""fullscreenenter"",""0"",""2108""
","
","411.8999999985099","","","","","","","","50","0,1,0","6","blank","241","null","0.19861284180772848","0.6207822423918549","0.07634310252672953","1","","","","","","","","",""
"","html-keyboard-response","42","207442","0.0-30.0-1.0","""event"",""trial"",""time""
""fullscreenenter"",""0"",""2108""
","
","
","""event"",""trial"",""time""
""fullscreenenter"",""0"",""2108""
","
","null","<p></p>","null","","","","","","","","","","","","","","","","","","","","","","","",""
"","do_trial","43","210393","0.0-31.0-0.0","""event"",""trial"",""time""
""fullscreenenter"",""0"",""2108""
","
","
","""event"",""trial"",""time""
""fullscreenenter"",""0"",""2108""
","
","406.19999999925494","","","","","","","","51","0,1,0","6","blank","242","null","0.2277234378137447","0.40929508072875015","0.10726556424814017","0","","","","","","","","",""
"","html-keyboard-response","44","211397","0.0-31.0-1.0","""event"",""trial"",""time""
""fullscreenenter"",""0"",""2108""
","
","
","""event"",""trial"",""time""
""fullscreenenter"",""0"",""2108""
","
","null","<p></p>","null","","","","","","","","","","","","","","","","","","","","","","","",""
"","do_trial","45","214516","0.0-32.0-0.0","""event"",""trial"",""time""
""fullscreenenter"",""0"",""2108""
","
","
","""event"",""trial"",""time""
""fullscreenenter"",""0"",""2108""
","
","567.6000000014901","","","","","","","","50","0,0,0","6","blank","243","null","0.14120173614422915","0.48523856810336263","0.28320084790188416","0","","","","","","","","",""
"","html-keyboard-response","46","215519","0.0-32.0-1.0","""event"",""trial"",""time""
""fullscreenenter"",""0"",""2108""
","
","
","""event"",""trial"",""time""
""fullscreenenter"",""0"",""2108""
","
","null","<p></p>","null","","","","","","","","","","","","","","","","","","","","","","","",""
"","do_trial","47","221058","0.0-33.0-0.0","""event"",""trial"",""time""
""fullscreenenter"",""0"",""2108""
","
","
","""event"",""trial"",""time""
""fullscreenenter"",""0"",""2108""
","
","2997.699999999255","","","","","","","","50","0,1,0","6","blank","244","null","0.21096199588720457","0.31502772177440436","0.3814075919823868","1","","","","","","","","",""
"","html-keyboard-response","48","222060","0.0-33.0-1.0","""event"",""trial"",""time""
""fullscreenenter"",""0"",""2108""
","
","
","""event"",""trial"",""time""
""fullscreenenter"",""0"",""2108""
","
","null","<p></p>","null","","","","","","","","","","","","","","","","","","","","","","","",""
"","do_trial","49","228101","0.0-34.0-0.0","""event"",""trial"",""time""
""fullscreenenter"",""0"",""2108""
","
","
","""event"",""trial"",""time""
""fullscreenenter"",""0"",""2108""
","
","null","","","","","","","","null","1,0,0","6","blank","245","null","0.2567030940453644","0.3148029947697897","0.4671675386853991","","","","","","","","","",""
"","html-keyboard-response","50","229103","0.0-34.0-1.0","""event"",""trial"",""time""
""fullscreenenter"",""0"",""2108""
","
","
","""event"",""trial"",""time""
""fullscreenenter"",""0"",""2108""
","
","null","<p></p>","null","","","","","","","","","","","","","","","","","","","","","","","",""
"","do_recog","51","235114","0.0-35.0-0.0","""event"",""trial"",""time""
""fullscreenenter"",""0"",""2108""
","
","
","""event"",""trial"",""time""
""fullscreenenter"",""0"",""2108""
","
","null","","","","","","","","null","","","","246","probe-131","","","","","1","[object Object]","72","1","0","","","",""
"","html-keyboard-response","52","236118","0.0-35.0-1.0","""event"",""trial"",""time""
""fullscreenenter"",""0"",""2108""
","
","
","""event"",""trial"",""time""
""fullscreenenter"",""0"",""2108""
","
","null","<p></p>","null","","","","","","","","","","","","","","","","","","","","","","","",""
"","do_trial","53","240393","0.0-36.0-0.0","""event"",""trial"",""time""
""fullscreenenter"",""0"",""2108""
","
","
","""event"",""trial"",""time""
""fullscreenenter"",""0"",""2108""
","
","1732","","","","","","","","51","0,1,1","6","blank","247","null","0.18399009146972772","0.38523710867752364","0.5477565195387508","1","","","","","","","","",""
"","html-keyboard-response","54","241395","0.0-36.0-1.0","""event"",""trial"",""time""
""fullscreenenter"",""0"",""2108""
","
","
","""event"",""trial"",""time""
""fullscreenenter"",""0"",""2108""
","
","null","<p></p>","null","","","","","","","","","","","","","","","","","","","","","","","",""
"","do_trial","55","244994","0.0-37.0-0.0","""event"",""trial"",""time""
""fullscreenenter"",""0"",""2108""
","
","
","""event"",""trial"",""time""
""fullscreenenter"",""0"",""2108""
","
","1059.300000000745","","","","","","","","51","0,0,0","6","blank","248","null","0.07702290985422464","0.18249212034237927","0.6162531155521057","0","","","","","","","","",""
"","html-keyboard-response","56","246000","0.0-37.0-1.0","""event"",""trial"",""time""
""fullscreenenter"",""0"",""2108""
","
","
","""event"",""trial"",""time""
""fullscreenenter"",""0"",""2108""
","
","null","<p></p>","null","","","","","","","","","","","","","","","","","","","","","","","",""
"","do_trial","57","249001","0.0-38.0-0.0","""event"",""trial"",""time""
""fullscreenenter"",""0"",""2108""
","
","
","""event"",""trial"",""time""
""fullscreenenter"",""0"",""2108""
","
","459.8999999985099","","","","","","","","50","0,1,1","6","blank","249","null","0.08729764448172794","0.23188378520441505","0.6964670735414845","1","","","","","","","","",""
"","html-keyboard-response","58","250002","0.0-38.0-1.0","""event"",""trial"",""time""
""fullscreenenter"",""0"",""2108""
","
","
","""event"",""trial"",""time""
""fullscreenenter"",""0"",""2108""
","
","null","<p></p>","null","","","","","","","","","","","","","","","","","","","","","","","",""
"","do_recog","59","253608","0.0-39.0-0.0","""event"",""trial"",""time""
""fullscreenenter"",""0"",""2108""
","
","
","""event"",""trial"",""time""
""fullscreenenter"",""0"",""2108""
","
","2100.199999999255","","","","","","","","54","","","","250","probe-124","","","","","1","[object Object]","111","2","1","","","",""
"","html-keyboard-response","60","254612","0.0-39.0-1.0","""event"",""trial"",""time""
""fullscreenenter"",""0"",""2108""
","
","
","""event"",""trial"",""time""
""fullscreenenter"",""0"",""2108""
","
","null","<p></p>","null","","","","","","","","","","","","","","","","","","","","","","","",""
"","do_trial","61","260651","0.0-40.0-0.0","""event"",""trial"",""time""
""fullscreenenter"",""0"",""2108""
","
","
","""event"",""trial"",""time""
""fullscreenenter"",""0"",""2108""
","
","null","","","","","","","","null","0,0,1","6","blank","251","null","0.15658011726762283","0.35788298884507114","0.6313338909377955","","","","","","","","","",""
"","html-keyboard-response","62","261655","0.0-40.0-1.0","""event"",""trial"",""time""
""fullscreenenter"",""0"",""2108""
","
","
","""event"",""trial"",""time""
""fullscreenenter"",""0"",""2108""
","
","null","<p></p>","null","","","","","","","","","","","","","","","","","","","","","","","",""
"","do_trial","63","265163","0.0-41.0-0.0","""event"",""trial"",""time""
""fullscreenenter"",""0"",""2108""
","
","
","""event"",""trial"",""time""
""fullscreenenter"",""0"",""2108""
","
","961","","","","","","","","50","0,0,1","6","blank","252","null","0.17206464458375184","0.3480015395078206","0.6385012209678858","0","","","","","","","","",""
"","html-keyboard-response","64","266166","0.0-41.0-1.0","""event"",""trial"",""time""
""fullscreenenter"",""0"",""2108""
","
","
","""event"",""trial"",""time""
""fullscreenenter"",""0"",""2108""
","
","null","<p></p>","null","","","","","","","","","","","","","","","","","","","","","","","",""
"","do_trial","65","269542","0.0-42.0-0.0","""event"",""trial"",""time""
""fullscreenenter"",""0"",""2108""
","
","
","""event"",""trial"",""time""
""fullscreenenter"",""0"",""2108""
","
","836.5","","","","","","","","51","0,1,1","6","blank","253","null","0.12755964255059057","0.5353485843443466","0.7312717642163102","1","","","","","","","","",""
"","html-keyboard-response","66","270544","0.0-42.0-1.0","""event"",""trial"",""time""
""fullscreenenter"",""0"",""2108""
","
","
","""event"",""trial"",""time""
""fullscreenenter"",""0"",""2108""
","
","null","<p></p>","null","","","","","","","","","","","","","","","","","","","","","","","",""
"","do_trial","67","273659","0.0-43.0-0.0","""event"",""trial"",""time""
""fullscreenenter"",""0"",""2108""
","
","
","""event"",""trial"",""time""
""fullscreenenter"",""0"",""2108""
","
","575.3999999985099","","","","","","","","51","0,1,0","6","blank","254","null","0.12949508300287021","0.33569308494831746","0.515885040113754","0","","","","","","","","",""
"","html-keyboard-response","68","274664","0.0-43.0-1.0","""event"",""trial"",""time""
""fullscreenenter"",""0"",""2108""
","
","
","""event"",""trial"",""time""
""fullscreenenter"",""0"",""2108""
","
","null","<p></p>","null","","","","","","","","","","","","","","","","","","","","","","","",""
"","do_trial","69","280707","0.0-44.0-0.0","""event"",""trial"",""time""
""fullscreenenter"",""0"",""2108""
","
","
","""event"",""trial"",""time""
""fullscreenenter"",""0"",""2108""
","
","null","","","","","","","","null","0,0,0","6","blank","255","null","0.12916990953081273","0.5160352285174397","0.5143420407785407","","","","","","","","","",""
"","html-keyboard-response","70","281710","0.0-44.0-1.0","""event"",""trial"",""time""
""fullscreenenter"",""0"",""2108""
","
","
","""event"",""trial"",""time""
""fullscreenenter"",""0"",""2108""
","
","null","<p></p>","null","","","","","","","","","","","","","","","","","","","","","","","",""
"","do_trial","71","284249","0.0-45.0-0.0","""event"",""trial"",""time""
""fullscreenenter"",""0"",""2108""
","
","
","""event"",""trial"",""time""
""fullscreenenter"",""0"",""2108""
","
","0.20000000298023224","","","","","","","","50","0,0,1","6","blank","256","null","0.24055794306184147","0.2849214514184307","0.4689726926769822","0","","","","","","","","",""
"","html-keyboard-response","72","285255","0.0-45.0-1.0","""event"",""trial"",""time""
""fullscreenenter"",""0"",""2108""
","
","
","""event"",""trial"",""time""
""fullscreenenter"",""0"",""2108""
","
","null","<p></p>","null","","","","","","","","","","","","","","","","","","","","","","","",""
"","do_trial","73","288835","0.0-46.0-0.0","""event"",""trial"",""time""
""fullscreenenter"",""0"",""2108""
","
","
","""event"",""trial"",""time""
""fullscreenenter"",""0"",""2108""
","
","1036.800000000745","","","","","","","","50","1,0,0","6","blank","257","null","0.23991564817194222","0.3488390825368062","0.5834616670973152","0","","","","","","","","",""
"","html-keyboard-response","74","289841","0.0-46.0-1.0","""event"",""trial"",""time""
""fullscreenenter"",""0"",""2108""
","
","
","""event"",""trial"",""time""
""fullscreenenter"",""0"",""2108""
","
","null","<p></p>","null","","","","","","","","","","","","","","","","","","","","","","","",""
"","do_recog","75","293509","0.0-47.0-0.0","""event"",""trial"",""time""
""fullscreenenter"",""0"",""2108""
","
","
","""event"",""trial"",""time""
""fullscreenenter"",""0"",""2108""
","
","2160.39999999851","","","","","","","","56","","","","258","probe-250","","","","","0","[object Object]","null","null","1","","","",""
"","html-keyboard-response","76","294515","0.0-47.0-1.0","""event"",""trial"",""time""
""fullscreenenter"",""0"",""2108""
","
","
","""event"",""trial"",""time""
""fullscreenenter"",""0"",""2108""
","
","null","<p></p>","null","","","","","","","","","","","","","","","","","","","","","","","",""
"","do_trial","77","298424","0.0-48.0-0.0","""event"",""trial"",""time""
""fullscreenenter"",""0"",""2108""
","
","
","""event"",""trial"",""time""
""fullscreenenter"",""0"",""2108""
","
","1366.8999999985099","","","","","","","","50","0,0,1","6","blank","259","null","0.1264647421695771","0.24771882020885344","0.5339919188378667","0","","","","","","","","",""
"","html-keyboard-response","78","299425","0.0-48.0-1.0","""event"",""trial"",""time""
""fullscreenenter"",""0"",""2108""
","
","
","""event"",""trial"",""time""
""fullscreenenter"",""0"",""2108""
","
","null","<p></p>","null","","","","","","","","","","","","","","","","","","","","","","","",""
"","do_trial","79","302257","0.0-49.0-0.0","""event"",""trial"",""time""
""fullscreenenter"",""0"",""2108""
","
","
","""event"",""trial"",""time""
""fullscreenenter"",""0"",""2108""
","
","291.1000000014901","","","","","","","","50","0,0,1","6","blank","260","null","0.09593114201316823","0.20559281423731945","0.6490720626728207","0","","","","","","","","",""
"","html-keyboard-response","80","303261","0.0-49.0-1.0","""event"",""trial"",""time""
""fullscreenenter"",""0"",""2108""
","
","
","""event"",""trial"",""time""
""fullscreenenter"",""0"",""2108""
","
","null","<p></p>","null","","","","","","","","","","","","","","","","","","","","","","","",""
"","do_trial","81","305939","0.0-50.0-0.0","""event"",""trial"",""time""
""fullscreenenter"",""0"",""2108""
","
","
","""event"",""trial"",""time""
""fullscreenenter"",""0"",""2108""
","
","137.89999999850988","","","","","","","","50","1,0,1","6","blank","261","null","0.09078317567942955","0.3031773017355352","0.7022445640722904","0","","","","","","","","",""
"","html-keyboard-response","82","306945","0.0-50.0-1.0","""event"",""trial"",""time""
""fullscreenenter"",""0"",""2108""
","
","
","""event"",""trial"",""time""
""fullscreenenter"",""0"",""2108""
","
","null","<p></p>","null","","","","","","","","","","","","","","","","","","","","","","","",""
"","do_trial","83","309829","0.0-51.0-0.0","""event"",""trial"",""time""
""fullscreenenter"",""0"",""2108""
","
","
","""event"",""trial"",""time""
""fullscreenenter"",""0"",""2108""
","
","338.1000000014901","","","","","","","","50","0,1,0","6","blank","262","null","0.091585130643453","0.29458698148552726","0.7435853901065189","1","","","","","","","","",""
"","html-keyboard-response","84","310832","0.0-51.0-1.0","""event"",""trial"",""time""
""fullscreenenter"",""0"",""2108""
","
","
","""event"",""trial"",""time""
""fullscreenenter"",""0"",""2108""
","
","null","<p></p>","null","","","","","","","","","","","","","","","","","","","","","","","",""
"","do_trial","85","313759","0.0-52.0-0.0","""event"",""trial"",""time""
""fullscreenenter"",""0"",""2108""
","
","
","""event"",""trial"",""time""
""fullscreenenter"",""0"",""2108""
","
","382.6000000014901","","","","","","","","51","0,0,0","6","blank","263","null","0.17028325903434918","0.3255832707476205","0.6934781019019809","0","","","","","","","","",""
"","html-keyboard-response","86","314765","0.0-52.0-1.0","""event"",""trial"",""time""
""fullscreenenter"",""0"",""2108""
","
","
","""event"",""trial"",""time""
""fullscreenenter"",""0"",""2108""
","
","null","<p></p>","null","","","","","","","","","","","","","","","","","","","","","","","",""
"","do_trial","87","317650","0.0-53.0-0.0","""event"",""trial"",""time""
""fullscreenenter"",""0"",""2108""
","
","
","""event"",""trial"",""time""
""fullscreenenter"",""0"",""2108""
","
","344.19999999925494","","","","","","","","50","0,0,1","6","blank","264","null","0.08673830582032509","0.18951597632508738","0.6113001985516067","0","","","","","","","","",""
"","html-keyboard-response","88","318654","0.0-53.0-1.0","""event"",""trial"",""time""
""fullscreenenter"",""0"",""2108""
","
","
","""event"",""trial"",""time""
""fullscreenenter"",""0"",""2108""
","
","null","<p></p>","null","","","","","","","","","","","","","","","","","","","","","","","",""
"","do_recog","89","322040","0.0-54.0-0.0","""event"",""trial"",""time""
""fullscreenenter"",""0"",""2108""
","
","
","""event"",""trial"",""time""
""fullscreenenter"",""0"",""2108""
","
","1880","","","","","","","","55","","","","265","probe-125","","","","","1","[object Object]","197","4","0","","","",""
"","html-keyboard-response","90","323044","0.0-54.0-1.0","""event"",""trial"",""time""
""fullscreenenter"",""0"",""2108""
","
","
","""event"",""trial"",""time""
""fullscreenenter"",""0"",""2108""
","
","null","<p></p>","null","","","","","","","","","","","","","","","","","","","","","","","",""
"","do_trial","91","327954","0.0-55.0-0.0","""event"",""trial"",""time""
""fullscreenenter"",""0"",""2108""
","
","
","""event"",""trial"",""time""
""fullscreenenter"",""0"",""2108""
","
","2366.199999999255","","","","","","","","50","0,0,1","6","blank","266","null","0.08039058972835393","0.27028329326521877","0.6513733500211251","0","","","","","","","","",""
"","html-keyboard-response","92","328956","0.0-55.0-1.0","""event"",""trial"",""time""
""fullscreenenter"",""0"",""2108""
","
","
","""event"",""trial"",""time""
""fullscreenenter"",""0"",""2108""
","
","null","<p></p>","null","","","","","","","","","","","","","","","","","","","","","","","",""
"","do_trial","93","332791","0.0-56.0-0.0","""event"",""trial"",""time""
""fullscreenenter"",""0"",""2108""
","
","
","""event"",""trial"",""time""
""fullscreenenter"",""0"",""2108""
","
","1294.6000000014901","","","","","","","","51","0,1,0","6","blank","267","null","0.0836117874459334","0.2860016908526166","0.5538103604220139","0","","","","","","","","",""
"","html-keyboard-response","94","333797","0.0-56.0-1.0","""event"",""trial"",""time""
""fullscreenenter"",""0"",""2108""
","
","
","""event"",""trial"",""time""
""fullscreenenter"",""0"",""2108""
","
","null","<p></p>","null","","","","","","","","","","","","","","","","","","","","","","","",""
"","do_trial","95","336460","0.0-57.0-0.0","""event"",""trial"",""time""
""fullscreenenter"",""0"",""2108""
","
","
","""event"",""trial"",""time""
""fullscreenenter"",""0"",""2108""
","
","117.30000000074506","","","","","","","","51","0,0,1","6","blank","268","null","0.11003119901939507","0.2796656243222359","0.6491241671279232","1","","","","","","","","",""
"","html-keyboard-response","96","337462","0.0-57.0-1.0","""event"",""trial"",""time""
""fullscreenenter"",""0"",""2108""
","
","
","""event"",""trial"",""time""
""fullscreenenter"",""0"",""2108""
","
","null","<p></p>","null","","","","","","","","","","","","","","","","","","","","","","","",""
"","break","97","392365","0.0-58.0-0.0","""event"",""trial"",""time""
""fullscreenenter"",""0"",""2108""
","
","
","""event"",""trial"",""time""
""fullscreenenter"",""0"",""2108""
","
","54901.39999999851","<div class='center'><p>Time to take a quick break! You have 2 minutes to rest, but you can move on sooner if you'd like.</p><p> Press the <b>space bar</b> to continue.</p></div>","32","","","","","","","","","","","","","","","","","","","","","","","",""
"","do_trial","98","396245","0.0-58.0-1.0","""event"",""trial"",""time""
""fullscreenenter"",""0"",""2108""
","
","
","""event"",""trial"",""time""
""fullscreenenter"",""0"",""2108""
","
","1340.0999999977648","","","","","","","","50","0,0,1","6","blank","269","null","0.093513050500457","0.24035674185329495","0.6487859692925944","0","","","","","","","","",""
"","html-keyboard-response","99","397248","0.0-58.0-2.0","""event"",""trial"",""time""
""fullscreenenter"",""0"",""2108""
","
","
","""event"",""trial"",""time""
""fullscreenenter"",""0"",""2108""
","
","null","<p></p>","null","","","","","","","","","","","","","","","","","","","","","","","",""
"","do_trial","100","400425","0.0-59.0-0.0","""event"",""trial"",""time""
""fullscreenenter"",""0"",""2108""
","
","
","""event"",""trial"",""time""
""fullscreenenter"",""0"",""2108""
","
","629.8999999985099","","","","","","","","50","0,0,0","6","blank","270","null","0.08227107713749991","0.15576813797696878","0.5858346254632101","0","","","","","","","","",""
"","html-keyboard-response","101","401427","0.0-59.0-1.0","""event"",""trial"",""time""
""fullscreenenter"",""0"",""2108""
","
","
","""event"",""trial"",""time""
""fullscreenenter"",""0"",""2108""
","
","null","<p></p>","null","","","","","","","","","","","","","","","","","","","","","","","",""
"","do_trial","102","404381","0.0-60.0-0.0","""event"",""trial"",""time""
""fullscreenenter"",""0"",""2108""
","
","
","""event"",""trial"",""time""
""fullscreenenter"",""0"",""2108""
","
","413.19999999925494","","","","","","","","51","0,0,1","6","blank","271","null","0.1126186275765952","0.260694834562417","0.5678435191720095","1","","","","","","","","",""
"","html-keyboard-response","103","405387","0.0-60.0-1.0","""event"",""trial"",""time""
""fullscreenenter"",""0"",""2108""
","
","
","""event"",""trial"",""time""
""fullscreenenter"",""0"",""2108""
","
","null","<p></p>","null","","","","","","","","","","","","","","","","","","","","","","","",""
"","do_recog","104","408981","0.0-61.0-0.0","""event"",""trial"",""time""
""fullscreenenter"",""0"",""2108""
","
","
","""event"",""trial"",""time""
""fullscreenenter"",""0"",""2108""
","
","2083.699999999255","","","","","","","","53","","","","272","probe-65","","","","","1","[object Object]","32","0","1","","","",""
"","html-keyboard-response","105","409984","0.0-61.0-1.0","""event"",""trial"",""time""
""fullscreenenter"",""0"",""2108""
","
","
","""event"",""trial"",""time""
""fullscreenenter"",""0"",""2108""
","
","null","<p></p>","null","","","","","","","","","","","","","","","","","","","","","","","",""
"","do_trial","106","413093","0.0-62.0-0.0","""event"",""trial"",""time""
""fullscreenenter"",""0"",""2108""
","
","
","""event"",""trial"",""time""
""fullscreenenter"",""0"",""2108""
","
","563.6999999992549","","","","","","","","50","0,0,1","6","blank","273","null","0.09685333774448966","0.25958925231362595","0.563762591874056","0","","","","","","","","",""
"","html-keyboard-response","107","414094","0.0-62.0-1.0","""event"",""trial"",""time""
""fullscreenenter"",""0"",""2108""
","
","
","""event"",""trial"",""time""
""fullscreenenter"",""0"",""2108""
","
","null","<p></p>","null","","","","","","","","","","","","","","","","","","","","","","","",""
"","do_trial","108","417238","0.0-63.0-0.0","""event"",""trial"",""time""
""fullscreenenter"",""0"",""2108""
","
","
","""event"",""trial"",""time""
""fullscreenenter"",""0"",""2108""
","
","601.5","","","","","","","","50","0,1,1","6","blank","274","null","0.15251069575505535","0.16347815239963637","0.6243787251713571","1","","","","","","","","",""
"","html-keyboard-response","109","418244","0.0-63.0-1.0","""event"",""trial"",""time""
""fullscreenenter"",""0"",""2108""
","
","
","""event"",""trial"",""time""
""fullscreenenter"",""0"",""2108""
","
","null","<p></p>","null","","","","","","","","","","","","","","","","","","","","","","","",""
"","do_trial","110","421428","0.0-64.0-0.0","""event"",""trial"",""time""
""fullscreenenter"",""0"",""2108""
","
","
","""event"",""trial"",""time""
""fullscreenenter"",""0"",""2108""
","
","639","","","","","","","","50","0,0,1","6","blank","275","null","0.19830477676438693","0.14666221124284043","0.6549445916188834","0","","","","","","","","",""
"","html-keyboard-response","111","422434","0.0-64.0-1.0","""event"",""trial"",""time""
""fullscreenenter"",""0"",""2108""
","
","
","""event"",""trial"",""time""
""fullscreenenter"",""0"",""2108""
","
","null","<p></p>","null","","","","","","","","","","","","","","","","","","","","","","","",""
"","do_trial","112","425522","0.0-65.0-0.0","""event"",""trial"",""time""
""fullscreenenter"",""0"",""2108""
","
","
","""event"",""trial"",""time""
""fullscreenenter"",""0"",""2108""
","
","544.1999999992549","","","","","","","","51","0,1,1","6","blank","276","null","0.10526347871794901","0.2319305075947696","0.6430630401592917","1","","","","","","","","",""
"","html-keyboard-response","113","426528","0.0-65.0-1.0","""event"",""trial"",""time""
""fullscreenenter"",""0"",""2108""
","
","
","""event"",""trial"",""time""
""fullscreenenter"",""0"",""2108""
","
","null","<p></p>","null","","","","","","","","","","","","","","","","","","","","","","","",""
"","do_trial","114","429443","0.0-66.0-0.0","""event"",""trial"",""time""
""fullscreenenter"",""0"",""2108""
","
","
","""event"",""trial"",""time""
""fullscreenenter"",""0"",""2108""
","
","375.3999999985099","","","","","","","","51","0,0,1","6","blank","277","null","0.10891164079085451","0.1906714738657585","0.5518527604398146","1","","","","","","","","",""
"","html-keyboard-response","115","430445","0.0-66.0-1.0","""event"",""trial"",""time""
""fullscreenenter"",""0"",""2108""
","
","
","""event"",""trial"",""time""
""fullscreenenter"",""0"",""2108""
","
","null","<p></p>","null","","","","","","","","","","","","","","","","","","","","","","","",""
"","do_recog","116","433649","0.0-67.0-0.0","""event"",""trial"",""time""
""fullscreenenter"",""0"",""2108""
","
","
","""event"",""trial"",""time""
""fullscreenenter"",""0"",""2108""
","
","1698.300000000745","","","","","","","","53","","","","278","probe-157","","","","","1","[object Object]","115","2","1","","","",""
"","html-keyboard-response","117","434653","0.0-67.0-1.0","""event"",""trial"",""time""
""fullscreenenter"",""0"",""2108""
","
","
","""event"",""trial"",""time""
""fullscreenenter"",""0"",""2108""
","
","null","<p></p>","null","","","","","","","","","","","","","","","","","","","","","","","",""
"","do_trial","118","437941","0.0-68.0-0.0","""event"",""trial"",""time""
""fullscreenenter"",""0"",""2108""
","
","
","""event"",""trial"",""time""
""fullscreenenter"",""0"",""2108""
","
","744.8000000007451","","","","","","","","50","0,0,1","6","blank","279","null","0.19477587242413577","0.2564418822206103","0.5760440164230497","0","","","","","","","","",""
"","html-keyboard-response","119","438943","0.0-68.0-1.0","""event"",""trial"",""time""
""fullscreenenter"",""0"",""2108""
","
","
","""event"",""trial"",""time""
""fullscreenenter"",""0"",""2108""
","
","null","<p></p>","null","","","","","","","","","","","","","","","","","","","","","","","",""
"","do_recog","120","442253","0.0-69.0-0.0","""event"",""trial"",""time""
""fullscreenenter"",""0"",""2108""
","
","
","""event"",""trial"",""time""
""fullscreenenter"",""0"",""2108""
","
","1803","","","","","","","","55","","","","280","probe-76","","","","","1","[object Object]","193","4","0","","","",""
"","html-keyboard-response","121","443254","0.0-69.0-1.0","""event"",""trial"",""time""
""fullscreenenter"",""0"",""2108""
","
","
","""event"",""trial"",""time""
""fullscreenenter"",""0"",""2108""
","
","null","<p></p>","null","","","","","","","","","","","","","","","","","","","","","","","",""
"","do_trial","122","446528","0.0-70.0-0.0","""event"",""trial"",""time""
""fullscreenenter"",""0"",""2108""
","
","
","""event"",""trial"",""time""
""fullscreenenter"",""0"",""2108""
","
","733.5","","","","","","","","49","0,0,1","6","blank","281","null","0.27492469566687844","0.2242290750069786","0.468260299100883","0","","","","","","","","",""
"","html-keyboard-response","123","447529","0.0-70.0-1.0","""event"",""trial"",""time""
""fullscreenenter"",""0"",""2108""
","
","
","""event"",""trial"",""time""
""fullscreenenter"",""0"",""2108""
","
","null","<p></p>","null","","","","","","","","","","","","","","","","","","","","","","","",""
"","do_recog","124","450580","0.0-71.0-0.0","""event"",""trial"",""time""
""fullscreenenter"",""0"",""2108""
","
","
","""event"",""trial"",""time""
""fullscreenenter"",""0"",""2108""
","
","1544.300000000745","","","","","","","","53","","","","282","probe-07","","","","","1","[object Object]","113","2","1","","","",""
"","html-keyboard-response","125","451581","0.0-71.0-1.0","""event"",""trial"",""time""
""fullscreenenter"",""0"",""2108""
","
","
","""event"",""trial"",""time""
""fullscreenenter"",""0"",""2108""
","
","null","<p></p>","null","","","","","","","","","","","","","","","","","","","","","","","",""
"","do_trial","126","454691","0.0-72.0-0.0","""event"",""trial"",""time""
""fullscreenenter"",""0"",""2108""
","
","
","""event"",""trial"",""time""
""fullscreenenter"",""0"",""2108""
","
","567.5999999977648","","","","","","","","50","0,0,1","6","blank","283","null","0.2755661908946371","0.13921048412553638","0.5627521178109257","0","","","","","","","","",""
"","html-keyboard-response","127","455696","0.0-72.0-1.0","""event"",""trial"",""time""
""fullscreenenter"",""0"",""2108""
","
","
","""event"",""trial"",""time""
""fullscreenenter"",""0"",""2108""
","
","null","<p></p>","null","","","","","","","","","","","","","","","","","","","","","","","",""
"","do_recog","128","458667","0.0-73.0-0.0","""event"",""trial"",""time""
""fullscreenenter"",""0"",""2108""
","
","
","""event"",""trial"",""time""
""fullscreenenter"",""0"",""2108""
","
","1466.300000000745","","","","","","","","53","","","","284","probe-227","","","","","1","[object Object]","190","4","1","","","",""
"","html-keyboard-response","129","459672","0.0-73.0-1.0","""event"",""trial"",""time""
""fullscreenenter"",""0"",""2108""
","
","
","""event"",""trial"",""time""
""fullscreenenter"",""0"",""2108""
","
","null","<p></p>","null","","","","","","","","","","","","","","","","","","","","","","","",""
"","do_trial","130","462933","0.0-74.0-0.0","""event"",""trial"",""time""
""fullscreenenter"",""0"",""2108""
","
","
","""event"",""trial"",""time""
""fullscreenenter"",""0"",""2108""
","
","716.0999999977648","","","","","","","","50","0,0,0","6","blank","285","null","0.2875733067435811","0.05704776352978222","0.5450256657478826","0","","","","","","","","",""
"","html-keyboard-response","131","463939","0.0-74.0-1.0","""event"",""trial"",""time""
""fullscreenenter"",""0"",""2108""
","
","
","""event"",""trial"",""time""
""fullscreenenter"",""0"",""2108""
","
","null","<p></p>","null","","","","","","","","","","","","","","","","","","","","","","","",""
"","do_trial","132","467902","0.0-75.0-0.0","""event"",""trial"",""time""
""fullscreenenter"",""0"",""2108""
","
","
","""event"",""trial"",""time""
""fullscreenenter"",""0"",""2108""
","
","1417.800000000745","","","","","","","","50","0,0,0","6","blank","286","null","0.2307020039237333","0.29118203830923006","0.5460778217826907","0","","","","","","","","",""
"","html-keyboard-response","133","468907","0.0-75.0-1.0","""event"",""trial"",""time""
""fullscreenenter"",""0"",""2108""
","
","
","""event"",""trial"",""time""
""fullscreenenter"",""0"",""2108""
","
","null","<p></p>","null","","","","","","","","","","","","","","","","","","","","","","","",""
"","do_recog","134","471901","0.0-76.0-0.0","""event"",""trial"",""time""
""fullscreenenter"",""0"",""2108""
","
","
","""event"",""trial"",""time""
""fullscreenenter"",""0"",""2108""
","
","1484.300000000745","","","","","","","","53","","","","287","probe-153","","","","","1","[object Object]","76","1","1","","","",""
"","html-keyboard-response","135","472903","0.0-76.0-1.0","""event"",""trial"",""time""
""fullscreenenter"",""0"",""2108""
","
","
","""event"",""trial"",""time""
""fullscreenenter"",""0"",""2108""
","
","null","<p></p>","null","","","","","","","","","","","","","","","","","","","","","","","",""
"","do_trial","136","478951","0.0-77.0-0.0","""event"",""trial"",""time""
""fullscreenenter"",""0"",""2108""
","
","
","""event"",""trial"",""time""
""fullscreenenter"",""0"",""2108""
","
","null","","","","","","","","null","0,0,1","6","blank","288","null","0.2567714320918128","0.2338468925786744","0.7834427815834687","","","","","","","","","",""
"","html-keyboard-response","137","479956","0.0-77.0-1.0","""event"",""trial"",""time""
""fullscreenenter"",""0"",""2108""
","
","
","""event"",""trial"",""time""
""fullscreenenter"",""0"",""2108""
","
","null","<p></p>","null","","","","","","","","","","","","","","","","","","","","","","","",""
"","do_trial","138","483058","0.0-78.0-0.0","""event"",""trial"",""time""
""fullscreenenter"",""0"",""2108""
","
","
","""event"",""trial"",""time""
""fullscreenenter"",""0"",""2108""
","
","558.1999999992549","","","","","","","","51","1,0,1","6","blank","289","null","0.2737650023455653","0.22554317503597707","0.7982225898143473","1","","","","","","","","",""
"","html-keyboard-response","139","484062","0.0-78.0-1.0","""event"",""trial"",""time""
""fullscreenenter"",""0"",""2108""
","
","
","""event"",""trial"",""time""
""fullscreenenter"",""0"",""2108""
","
","null","<p></p>","null","","","","","","","","","","","","","","","","","","","","","","","",""
"","do_trial","140","488058","0.0-79.0-0.0","""event"",""trial"",""time""
""fullscreenenter"",""0"",""2108""
","
","
","""event"",""trial"",""time""
""fullscreenenter"",""0"",""2108""
","
","1453.5999999977648","","","","","","","","51","0,0,1","6","blank","290","null","0.4349029856315266","0.3181330638192889","0.7797255912923947","1","","","","","","","","",""
"","html-keyboard-response","141","489061","0.0-79.0-1.0","""event"",""trial"",""time""
""fullscreenenter"",""0"",""2108""
","
","
","""event"",""trial"",""time""
""fullscreenenter"",""0"",""2108""
","
","null","<p></p>","null","","","","","","","","","","","","","","","","","","","","","","","",""
"","do_recog","142","491786","0.0-80.0-0.0","""event"",""trial"",""time""
""fullscreenenter"",""0"",""2108""
","
","
","""event"",""trial"",""time""
""fullscreenenter"",""0"",""2108""
","
","1216.8999999985099","","","","","","","","53","","","","291","probe-58","","","","","1","[object Object]","155","3","1","","","",""
"","html-keyboard-response","143","492788","0.0-80.0-1.0","""event"",""trial"",""time""
""fullscreenenter"",""0"",""2108""
","
","
","""event"",""trial"",""time""
""fullscreenenter"",""0"",""2108""
","
","null","<p></p>","null","","","","","","","","","","","","","","","","","","","","","","","",""
"","do_trial","144","495848","0.0-81.0-0.0","""event"",""trial"",""time""
""fullscreenenter"",""0"",""2108""
","
","
","""event"",""trial"",""time""
""fullscreenenter"",""0"",""2108""
","
","519.8000000007451","","","","","","","","51","1,0,1","6","blank","292","null","0.47892679300862173","0.3136796162266481","0.8745231963262272","1","","","","","","","","",""
"","html-keyboard-response","145","496855","0.0-81.0-1.0","""event"",""trial"",""time""
""fullscreenenter"",""0"",""2108""
","
","
","""event"",""trial"",""time""
""fullscreenenter"",""0"",""2108""
","
","null","<p></p>","null","","","","","","","","","","","","","","","","","","","","","","","",""
"","do_recog","146","500047","0.0-82.0-0.0","""event"",""trial"",""time""
""fullscreenenter"",""0"",""2108""
","
","
","""event"",""trial"",""time""
""fullscreenenter"",""0"",""2108""
","
","1685.1000000014901","","","","","","","","55","","","","293","probe-167","","","","","1","[object Object]","151","3","0","","","",""
"","html-keyboard-response","147","501053","0.0-82.0-1.0","""event"",""trial"",""time""
""fullscreenenter"",""0"",""2108""
","
","
","""event"",""trial"",""time""
""fullscreenenter"",""0"",""2108""
","
","null","<p></p>","null","","","","","","","","","","","","","","","","","","","","","","","",""
"","do_trial","148","505440","0.0-83.0-0.0","""event"",""trial"",""time""
""fullscreenenter"",""0"",""2108""
","
","
","""event"",""trial"",""time""
""fullscreenenter"",""0"",""2108""
","
","1841","","","","","","","","50","0,0,1","6","blank","294","null","0.6135831772668737","0.18218066597535035","0.6389936898773584","0","","","","","","","","",""
"","html-keyboard-response","149","506442","0.0-83.0-1.0","""event"",""trial"",""time""
""fullscreenenter"",""0"",""2108""
","
","
","""event"",""trial"",""time""
""fullscreenenter"",""0"",""2108""
","
","null","<p></p>","null","","","","","","","","","","","","","","","","","","","","","","","",""
"","do_trial","150","511168","0.0-84.0-0.0","""event"",""trial"",""time""
""fullscreenenter"",""0"",""2108""
","
","
","""event"",""trial"",""time""
""fullscreenenter"",""0"",""2108""
","
","2179","","","","","","","","51","1,0,0","6","blank","295","null","0.5821601204338882","0.05451728217843543","0.4606862378023888","0","","","","","","","","",""
"","html-keyboard-response","151","512170","0.0-84.0-1.0","""event"",""trial"",""time""
""fullscreenenter"",""0"",""2108""
","
","
","""event"",""trial"",""time""
""fullscreenenter"",""0"",""2108""
","
","null","<p></p>","null","","","","","","","","","","","","","","","","","","","","","","","",""
"","do_trial","152","515707","0.0-85.0-0.0","""event"",""trial"",""time""
""fullscreenenter"",""0"",""2108""
","
","
","""event"",""trial"",""time""
""fullscreenenter"",""0"",""2108""
","
","995","","","","","","","","51","1,0,0","6","blank","296","null","0.5197594085580874","0.1401498082815704","0.3256341228132776","0","","","","","","","","",""
"","html-keyboard-response","153","516713","0.0-85.0-1.0","""event"",""trial"",""time""
""fullscreenenter"",""0"",""2108""
","
","
","""event"",""trial"",""time""
""fullscreenenter"",""0"",""2108""
","
","null","<p></p>","null","","","","","","","","","","","","","","","","","","","","","","","",""
"","do_trial","154","521026","0.0-86.0-0.0","""event"",""trial"",""time""
""fullscreenenter"",""0"",""2108""
","
","
","""event"",""trial"",""time""
""fullscreenenter"",""0"",""2108""
","
","1766.5","","","","","","","","51","1,0,0","6","blank","297","null","0.5713603121573265","0.10686466751558622","0.3178105037472388","0","","","","","","","","",""
"","html-keyboard-response","155","522032","0.0-86.0-1.0","""event"",""trial"",""time""
""fullscreenenter"",""0"",""2108""
","
","
","""event"",""trial"",""time""
""fullscreenenter"",""0"",""2108""
","
","null","<p></p>","null","","","","","","","","","","","","","","","","","","","","","","","",""
"","do_trial","156","525206","0.0-87.0-0.0","""event"",""trial"",""time""
""fullscreenenter"",""0"",""2108""
","
","
","""event"",""trial"",""time""
""fullscreenenter"",""0"",""2108""
","
","629.1999999992549","","","","","","","","50","1,0,0","6","blank","298","null","0.6383456831070623","0.16104468873170308","0.2385036465150357","0","","","","","","","","",""
"","html-keyboard-response","157","526213","0.0-87.0-1.0","""event"",""trial"",""time""
""fullscreenenter"",""0"",""2108""
","
","
","""event"",""trial"",""time""
""fullscreenenter"",""0"",""2108""
","
","null","<p></p>","null","","","","","","","","","","","","","","","","","","","","","","","",""
"","do_trial","158","529868","0.0-88.0-0.0","""event"",""trial"",""time""
""fullscreenenter"",""0"",""2108""
","
","
","""event"",""trial"",""time""
""fullscreenenter"",""0"",""2108""
","
","1109","","","","","","","","51","0,0,0","6","blank","299","null","0.6412023458343119","0.10479262655329759","0.15900212912286063","0","","","","","","","","",""
"","html-keyboard-response","159","530871","0.0-88.0-1.0","""event"",""trial"",""time""
""fullscreenenter"",""0"",""2108""
","
","
","""event"",""trial"",""time""
""fullscreenenter"",""0"",""2108""
","
","null","<p></p>","null","","","","","","","","","","","","","","","","","","","","","","","",""
"","do_trial","160","533913","0.0-89.0-0.0","""event"",""trial"",""time""
""fullscreenenter"",""0"",""2108""
","
","
","""event"",""trial"",""time""
""fullscreenenter"",""0"",""2108""
","
","499.8999999985099","","","","","","","","51","0,0,0","6","blank","300","null","0.4971409714998375","0.30659747204875587","0.2101383882651665","0","","","","","","","","",""
"","html-keyboard-response","161","534918","0.0-89.0-1.0","""event"",""trial"",""time""
""fullscreenenter"",""0"",""2108""
","
","
","""event"",""trial"",""time""
""fullscreenenter"",""0"",""2108""
","
","null","<p></p>","null","","","","","","","","","","","","","","","","","","","","","","","",""
"","do_recog","162","537652","0.0-90.0-0.0","""event"",""trial"",""time""
""fullscreenenter"",""0"",""2108""
","
","
","""event"",""trial"",""time""
""fullscreenenter"",""0"",""2108""
","
","1223.5","","","","","","","","53","","","","301","probe-228","","","","","1","[object Object]","79","1","1","","","",""
"","html-keyboard-response","163","538657","0.0-90.0-1.0","""event"",""trial"",""time""
""fullscreenenter"",""0"",""2108""
","
","
","""event"",""trial"",""time""
""fullscreenenter"",""0"",""2108""
","
","null","<p></p>","null","","","","","","","","","","","","","","","","","","","","","","","",""
"","do_trial","164","543397","0.0-91.0-0.0","""event"",""trial"",""time""
""fullscreenenter"",""0"",""2108""
","
","
","""event"",""trial"",""time""
""fullscreenenter"",""0"",""2108""
","
","2197.60000000149","","","","","","","","51","1,0,0","6","blank","302","null","0.603470585365442","0.24433023879674165","0.22319261062197235","0","","","","","","","","",""
"","html-keyboard-response","165","544402","0.0-91.0-1.0","""event"",""trial"",""time""
""fullscreenenter"",""0"",""2108""
","
","
","""event"",""trial"",""time""
""fullscreenenter"",""0"",""2108""
","
","null","<p></p>","null","","","","","","","","","","","","","","","","","","","","","","","",""
"","do_trial","166","548026","0.0-92.0-0.0","""event"",""trial"",""time""
""fullscreenenter"",""0"",""2108""
","
","
","""event"",""trial"",""time""
""fullscreenenter"",""0"",""2108""
","
","1084.3999999985099","","","","","","","","51","0,0,0","6","blank","303","null","0.5106326636834337","0.14655015547629213","0.34616038414434996","0","","","","","","","","",""
"","html-keyboard-response","167","549032","0.0-92.0-1.0","""event"",""trial"",""time""
""fullscreenenter"",""0"",""2108""
","
","
","""event"",""trial"",""time""
""fullscreenenter"",""0"",""2108""
","
","null","<p></p>","null","","","","","","","","","","","","","","","","","","","","","","","",""
"","do_trial","168","552170","0.0-93.0-0.0","""event"",""trial"",""time""
""fullscreenenter"",""0"",""2108""
","
","
","""event"",""trial"",""time""
""fullscreenenter"",""0"",""2108""
","
","595.1000000014901","","","","","","","","51","0,0,0","6","blank","304","null","0.6901709910544187","0.0973701415070409","0.23805392852188942","0","","","","","","","","",""
"","html-keyboard-response","169","553172","0.0-93.0-1.0","""event"",""trial"",""time""
""fullscreenenter"",""0"",""2108""
","
","
","""event"",""trial"",""time""
""fullscreenenter"",""0"",""2108""
","
","null","<p></p>","null","","","","","","","","","","","","","","","","","","","","","","","",""
"","do_trial","170","556430","0.0-94.0-0.0","""event"",""trial"",""time""
""fullscreenenter"",""0"",""2108""
","
","
","""event"",""trial"",""time""
""fullscreenenter"",""0"",""2108""
","
","715","","","","","","","","50","1,0,0","6","blank","305","null","0.6053302245817482","0.12973638602342635","0.3214091058114133","0","","","","","","","","",""
"","html-keyboard-response","171","557432","0.0-94.0-1.0","""event"",""trial"",""time""
""fullscreenenter"",""0"",""2108""
","
","
","""event"",""trial"",""time""
""fullscreenenter"",""0"",""2108""
","
","null","<p></p>","null","","","","","","","","","","","","","","","","","","","","","","","",""
"","do_trial","172","560396","0.0-95.0-0.0","""event"",""trial"",""time""
""fullscreenenter"",""0"",""2108""
","
","
","""event"",""trial"",""time""
""fullscreenenter"",""0"",""2108""
","
","424.8999999985099","","","","","","","","51","0,0,1","6","blank","306","null","0.5016748169856678","0.09486451887956693","0.35898455496255033","1","","","","","","","","",""
"","html-keyboard-response","173","561402","0.0-95.0-1.0","""event"",""trial"",""time""
""fullscreenenter"",""0"",""2108""
","
","
","""event"",""trial"",""time""
""fullscreenenter"",""0"",""2108""
","
","null","<p></p>","null","","","","","","","","","","","","","","","","","","","","","","","",""
"","do_trial","174","564961","0.0-96.0-0.0","""event"",""trial"",""time""
""fullscreenenter"",""0"",""2108""
","
","
","""event"",""trial"",""time""
""fullscreenenter"",""0"",""2108""
","
","1016.5","","","","","","","","51","1,1,1","6","blank","307","null","0.6442738737606818","0.07991312757082883","0.2552946937838491","1","","","","","","","","",""
"","html-keyboard-response","175","565963","0.0-96.0-1.0","""event"",""trial"",""time""
""fullscreenenter"",""0"",""2108""
","
","
","""event"",""trial"",""time""
""fullscreenenter"",""0"",""2108""
","
","null","<p></p>","null","","","","","","","","","","","","","","","","","","","","","","","",""
"","do_recog","176","570429","0.0-97.0-0.0","""event"",""trial"",""time""
""fullscreenenter"",""0"",""2108""
","
","
","""event"",""trial"",""time""
""fullscreenenter"",""0"",""2108""
","
","2956.699999999255","","","","","","","","56","","","","308","probe-44","","","","","1","[object Object]","156","3","0","","","",""
"","html-keyboard-response","177","571436","0.0-97.0-1.0","""event"",""trial"",""time""
""fullscreenenter"",""0"",""2108""
","
","
","""event"",""trial"",""time""
""fullscreenenter"",""0"",""2108""
","
","null","<p></p>","null","","","","","","","","","","","","","","","","","","","","","","","",""
"","break","178","572790","0.0-98.0-0.0","""event"",""trial"",""time""
""fullscreenenter"",""0"",""2108""
","
","
","""event"",""trial"",""time""
""fullscreenenter"",""0"",""2108""
","
","1353.199999999255","<div class='center'><p>Time to take a quick break! You have 2 minutes to rest, but you can move on sooner if you'd like.</p><p> Press the <b>space bar</b> to continue.</p></div>","32","","","","","","","","","","","","","","","","","","","","","","","",""
"","do_trial","179","578837","0.0-98.0-1.0","""event"",""trial"",""time""
""fullscreenenter"",""0"",""2108""
","
","
","""event"",""trial"",""time""
""fullscreenenter"",""0"",""2108""
","
","null","","","","","","","","null","0,0,1","6","blank","309","null","0.6420883534568128","0.09755911876564877","0.2466339822544469","","","","","","","","","",""
"","html-keyboard-response","180","579844","0.0-98.0-2.0","""event"",""trial"",""time""
""fullscreenenter"",""0"",""2108""
","
","
","""event"",""trial"",""time""
""fullscreenenter"",""0"",""2108""
","
","null","<p></p>","null","","","","","","","","","","","","","","","","","","","","","","","",""
"","do_recog","181","582627","0.0-99.0-0.0","""event"",""trial"",""time""
""fullscreenenter"",""0"",""2108""
","
","
","""event"",""trial"",""time""
""fullscreenenter"",""0"",""2108""
","
","1273.5999999977648","","","","","","","","56","","","","310","probe-243","","","","","0","[object Object]","null","null","1","","","",""
"","html-keyboard-response","182","583630","0.0-99.0-1.0","""event"",""trial"",""time""
""fullscreenenter"",""0"",""2108""
","
","
","""event"",""trial"",""time""
""fullscreenenter"",""0"",""2108""
","
","null","<p></p>","null","","","","","","","","","","","","","","","","","","","","","","","",""
"","do_trial","183","586867","0.0-100.0-0.0","""event"",""trial"",""time""
""fullscreenenter"",""0"",""2108""
","
","
","""event"",""trial"",""time""
""fullscreenenter"",""0"",""2108""
","
","690.5999999977648","","","","","","","","50","1,0,0","6","blank","311","null","0.5906265144355186","0.1661667539001007","0.1604396827338381","0","","","","","","","","",""
"","html-keyboard-response","184","587870","0.0-100.0-1.0","""event"",""trial"",""time""
""fullscreenenter"",""0"",""2108""
","
","
","""event"",""trial"",""time""
""fullscreenenter"",""0"",""2108""
","
","null","<p></p>","null","","","","","","","","","","","","","","","","","","","","","","","",""
"","do_trial","185","590763","0.0-101.0-0.0","""event"",""trial"",""time""
""fullscreenenter"",""0"",""2108""
","
","
","""event"",""trial"",""time""
""fullscreenenter"",""0"",""2108""
","
","345.30000000074506","","","","","","","","49","0,0,1","6","blank","312","null","0.5209030914776928","0.20334549260729567","0.16511182800838056","0","","","","","","","","",""
"","html-keyboard-response","186","591769","0.0-101.0-1.0","""event"",""trial"",""time""
""fullscreenenter"",""0"",""2108""
","
","
","""event"",""trial"",""time""
""fullscreenenter"",""0"",""2108""
","
","null","<p></p>","null","","","","","","","","","","","","","","","","","","","","","","","",""
"","do_trial","187","594802","0.0-102.0-0.0","""event"",""trial"",""time""
""fullscreenenter"",""0"",""2108""
","
","
","""event"",""trial"",""time""
""fullscreenenter"",""0"",""2108""
","
","487.8999999985099","","","","","","","","49","1,0,1","6","blank","313","null","0.6210161465295211","0.18943578157635302","0.29763651445493","1","","","","","","","","",""
"","html-keyboard-response","188","595807","0.0-102.0-1.0","""event"",""trial"",""time""
""fullscreenenter"",""0"",""2108""
","
","
","""event"",""trial"",""time""
""fullscreenenter"",""0"",""2108""
","
","null","<p></p>","null","","","","","","","","","","","","","","","","","","","","","","","",""
"","do_trial","189","598820","0.0-103.0-0.0","""event"",""trial"",""time""
""fullscreenenter"",""0"",""2108""
","
","
","""event"",""trial"",""time""
""fullscreenenter"",""0"",""2108""
","
","473.19999999925494","","","","","","","","50","1,0,0","6","blank","314","null","0.6350865697997853","0.17382647329295128","0.28442278605888266","0","","","","","","","","",""
"","html-keyboard-response","190","599827","0.0-103.0-1.0","""event"",""trial"",""time""
""fullscreenenter"",""0"",""2108""
","
","
","""event"",""trial"",""time""
""fullscreenenter"",""0"",""2108""
","
","null","<p></p>","null","","","","","","","","","","","","","","","","","","","","","","","",""
"","do_trial","191","602681","0.0-104.0-0.0","""event"",""trial"",""time""
""fullscreenenter"",""0"",""2108""
","
","
","""event"",""trial"",""time""
""fullscreenenter"",""0"",""2108""
","
","312.3999999985099","","","","","","","","50","1,0,0","6","blank","315","null","0.6398134092885907","0.14688604371749345","0.36885899807256844","0","","","","","","","","",""
"","html-keyboard-response","192","603683","0.0-104.0-1.0","""event"",""trial"",""time""
""fullscreenenter"",""0"",""2108""
","
","
","""event"",""trial"",""time""
""fullscreenenter"",""0"",""2108""
","
","null","<p></p>","null","","","","","","","","","","","","","","","","","","","","","","","",""
"","do_trial","193","607384","0.0-105.0-0.0","""event"",""trial"",""time""
""fullscreenenter"",""0"",""2108""
","
","
","""event"",""trial"",""time""
""fullscreenenter"",""0"",""2108""
","
","1161.300000000745","","","","","","","","51","1,0,0","6","blank","316","null","0.5878787859579019","0.07748506464750192","0.21789076264733645","0","","","","","","","","",""
"","html-keyboard-response","194","608387","0.0-105.0-1.0","""event"",""trial"",""time""
""fullscreenenter"",""0"",""2108""
","
","
","""event"",""trial"",""time""
""fullscreenenter"",""0"",""2108""
","
","null","<p></p>","null","","","","","","","","","","","","","","","","","","","","","","","",""
"","do_trial","195","611978","0.0-106.0-0.0","""event"",""trial"",""time""
""fullscreenenter"",""0"",""2108""
","
","
","""event"",""trial"",""time""
""fullscreenenter"",""0"",""2108""
","
","1049.5","","","","","","","","51","1,1,0","6","blank","317","null","0.5459161378874102","0.12422725213407912","0.28119111622352244","0","","","","","","","","",""
"","html-keyboard-response","196","612981","0.0-106.0-1.0","""event"",""trial"",""time""
""fullscreenenter"",""0"",""2108""
","
","
","""event"",""trial"",""time""
""fullscreenenter"",""0"",""2108""
","
","null","<p></p>","null","","","","","","","","","","","","","","","","","","","","","","","",""
"","do_recog","197","615679","0.0-107.0-0.0","""event"",""trial"",""time""
""fullscreenenter"",""0"",""2108""
","
","
","""event"",""trial"",""time""
""fullscreenenter"",""0"",""2108""
","
","1187.699999999255","","","","","","","","53","","","","318","probe-90","","","","","1","[object Object]","33","0","1","","","",""
"","html-keyboard-response","198","616683","0.0-107.0-1.0","""event"",""trial"",""time""
""fullscreenenter"",""0"",""2108""
","
","
","""event"",""trial"",""time""
""fullscreenenter"",""0"",""2108""
","
","null","<p></p>","null","","","","","","","","","","","","","","","","","","","","","","","",""
"","do_trial","199","619912","0.0-108.0-0.0","""event"",""trial"",""time""
""fullscreenenter"",""0"",""2108""
","
","
","""event"",""trial"",""time""
""fullscreenenter"",""0"",""2108""
","
","683.1999999992549","","","","","","","","50","1,0,0","6","blank","319","null","0.6967506397630819","0.08716939777924408","0.10025935009980586","0","","","","","","","","",""
"","html-keyboard-response","200","620918","0.0-108.0-1.0","""event"",""trial"",""time""
""fullscreenenter"",""0"",""2108""
","
","
","""event"",""trial"",""time""
""fullscreenenter"",""0"",""2108""
","
","null","<p></p>","null","","","","","","","","","","","","","","","","","","","","","","","",""
"","do_recog","201","623686","0.0-109.0-0.0","""event"",""trial"",""time""
""fullscreenenter"",""0"",""2108""
","
","
","""event"",""trial"",""time""
""fullscreenenter"",""0"",""2108""
","
","1262.5","","","","","","","","53","","","","320","probe-12","","","","","1","[object Object]","39","0","1","","","",""
"","html-keyboard-response","202","624692","0.0-109.0-1.0","""event"",""trial"",""time""
""fullscreenenter"",""0"",""2108""
","
","
","""event"",""trial"",""time""
""fullscreenenter"",""0"",""2108""
","
","null","<p></p>","null","","","","","","","","","","","","","","","","","","","","","","","",""
"","do_trial","203","628755","0.0-110.0-0.0","""event"",""trial"",""time""
""fullscreenenter"",""0"",""2108""
","
","
","""event"",""trial"",""time""
""fullscreenenter"",""0"",""2108""
","
","1518.300000000745","","","","","","","","51","1,0,0","6","blank","321","null","0.6614526889511756","0.14651998040458286","0.06819615348665277","0","","","","","","","","",""
"","html-keyboard-response","204","629762","0.0-110.0-1.0","""event"",""trial"",""time""
""fullscreenenter"",""0"",""2108""
","
","
","""event"",""trial"",""time""
""fullscreenenter"",""0"",""2108""
","
","null","<p></p>","null","","","","","","","","","","","","","","","","","","","","","","","",""
"","do_trial","205","632485","0.0-111.0-0.0","""event"",""trial"",""time""
""fullscreenenter"",""0"",""2108""
","
","
","""event"",""trial"",""time""
""fullscreenenter"",""0"",""2108""
","
","176.60000000149012","","","","","","","","49","0,0,1","6","blank","322","null","0.4988476856361631","0.13623926427045388","0.2002588312731378","0","","","","","","","","",""
"","html-keyboard-response","206","633492","0.0-111.0-1.0","""event"",""trial"",""time""
""fullscreenenter"",""0"",""2108""
","
","
","""event"",""trial"",""time""
""fullscreenenter"",""0"",""2108""
","
","null","<p></p>","null","","","","","","","","","","","","","","","","","","","","","","","",""
"","do_trial","207","636087","0.0-112.0-0.0","""event"",""trial"",""time""
""fullscreenenter"",""0"",""2108""
""fullscreenexit"",""208"",""636843""
","
","
","""event"",""trial"",""time""
""fullscreenenter"",""0"",""2108""
","""event"",""trial"",""time""
""fullscreenexit"",""208"",""636843""
","50","","","","","","","","50","1,0,0","6","blank","323","null","0.5685739096473611","0.10558753303577638","0.23304858737221476","0","","","","","","","","",""
"","html-keyboard-response","208","637092","0.0-112.0-1.0","""event"",""trial"",""time""
""fullscreenenter"",""0"",""2108""
""fullscreenexit"",""208"",""636843""
","
","
","""event"",""trial"",""time""
""fullscreenenter"",""0"",""2108""
","""event"",""trial"",""time""
""fullscreenexit"",""208"",""636843""
","null","<p></p>","null","","","","","","","","","","","","","","","","","","","","","","","",""
"","do_trial","209","639817","0.0-113.0-0.0","""event"",""trial"",""time""
""fullscreenenter"",""0"",""2108""
""fullscreenexit"",""208"",""636843""
","
","
","""event"",""trial"",""time""
""fullscreenenter"",""0"",""2108""
","""event"",""trial"",""time""
""fullscreenexit"",""208"",""636843""
","178.60000000149012","","","","","","","","51","1,0,1","6","blank","324","null","0.5335394043537217","0.09564208195672301","0.34967351424068627","1","","","","","","","","",""
"","html-keyboard-response","210","640821","0.0-113.0-1.0","""event"",""trial"",""time""
""fullscreenenter"",""0"",""2108""
""fullscreenexit"",""208"",""636843""
","
","
","""event"",""trial"",""time""
""fullscreenenter"",""0"",""2108""
","""event"",""trial"",""time""
""fullscreenexit"",""208"",""636843""
","null","<p></p>","null","","","","","","","","","","","","","","","","","","","","","","","",""
"","do_trial","211","645063","0.0-114.0-0.0","""event"",""trial"",""time""
""fullscreenenter"",""0"",""2108""
""fullscreenexit"",""208"",""636843""
","
","
","""event"",""trial"",""time""
""fullscreenenter"",""0"",""2108""
","""event"",""trial"",""time""
""fullscreenexit"",""208"",""636843""
","1692.199999999255","","","","","","","","50","1,0,1","6","blank","325","null","0.6161510493038823","0.09967830988517168","0.37975610369642754","0","","","","","","","","",""
"","html-keyboard-response","212","646065","0.0-114.0-1.0","""event"",""trial"",""time""
""fullscreenenter"",""0"",""2108""
""fullscreenexit"",""208"",""636843""
","
","
","""event"",""trial"",""time""
""fullscreenenter"",""0"",""2108""
","""event"",""trial"",""time""
""fullscreenexit"",""208"",""636843""
","null","<p></p>","null","","","","","","","","","","","","","","","","","","","","","","","",""
"","do_trial","213","652112","0.0-115.0-0.0","""event"",""trial"",""time""
""fullscreenenter"",""0"",""2108""
""fullscreenexit"",""208"",""636843""
","
","
","""event"",""trial"",""time""
""fullscreenenter"",""0"",""2108""
","""event"",""trial"",""time""
""fullscreenexit"",""208"",""636843""
","null","","","","","","","","null","1,0,0","6","blank","326","null","0.4773954456230739","0.14804692215295903","0.3751635064180254","","","","","","","","","",""
"","html-keyboard-response","214","653118","0.0-115.0-1.0","""event"",""trial"",""time""
""fullscreenenter"",""0"",""2108""
""fullscreenexit"",""208"",""636843""
","
","
","""event"",""trial"",""time""
""fullscreenenter"",""0"",""2108""
","""event"",""trial"",""time""
""fullscreenexit"",""208"",""636843""
","null","<p></p>","null","","","","","","","","","","","","","","","","","","","","","","","",""
"","do_recog","215","656001","0.0-116.0-0.0","""event"",""trial"",""time""
""fullscreenenter"",""0"",""2108""
""fullscreenexit"",""208"",""636843""
","
","
","""event"",""trial"",""time""
""fullscreenenter"",""0"",""2108""
","""event"",""trial"",""time""
""fullscreenexit"",""208"",""636843""
","1377.5","","","","","","","","53","","","","327","probe-59","","","","","1","[object Object]","75","1","1","","","",""
"","html-keyboard-response","216","657003","0.0-116.0-1.0","""event"",""trial"",""time""
""fullscreenenter"",""0"",""2108""
""fullscreenexit"",""208"",""636843""
","
","
","""event"",""trial"",""time""
""fullscreenenter"",""0"",""2108""
","""event"",""trial"",""time""
""fullscreenexit"",""208"",""636843""
","null","<p></p>","null","","","","","","","","","","","","","","","","","","","","","","","",""
"","do_trial","217","660260","0.0-117.0-0.0","""event"",""trial"",""time""
""fullscreenenter"",""0"",""2108""
""fullscreenexit"",""208"",""636843""
","
","
","""event"",""trial"",""time""
""fullscreenenter"",""0"",""2108""
","""event"",""trial"",""time""
""fullscreenexit"",""208"",""636843""
","712.5","","","","","","","","50","1,1,0","6","blank","328","null","0.47672397143487216","0.13769739839626494","0.34218181738100045","1","","","","","","","","",""
"","html-keyboard-response","218","661267","0.0-117.0-1.0","""event"",""trial"",""time""
""fullscreenenter"",""0"",""2108""
""fullscreenexit"",""208"",""636843""
","
","
","""event"",""trial"",""time""
""fullscreenenter"",""0"",""2108""
","""event"",""trial"",""time""
""fullscreenexit"",""208"",""636843""
","null","<p></p>","null","","","","","","","","","","","","","","","","","","","","","","","",""
"","do_trial","219","665587","0.0-118.0-0.0","""event"",""trial"",""time""
""fullscreenenter"",""0"",""2108""
""fullscreenexit"",""208"",""636843""
","
","
","""event"",""trial"",""time""
""fullscreenenter"",""0"",""2108""
","""event"",""trial"",""time""
""fullscreenexit"",""208"",""636843""
","1774.3999999985099","","","","","","","","49","0,0,0","6","blank","329","null","0.5042782476890475","0.054332243885651776","0.33388947006839864","0","","","","","","","","",""
"","html-keyboard-response","220","666594","0.0-118.0-1.0","""event"",""trial"",""time""
""fullscreenenter"",""0"",""2108""
""fullscreenexit"",""208"",""636843""
","
","
","""event"",""trial"",""time""
""fullscreenenter"",""0"",""2108""
","""event"",""trial"",""time""
""fullscreenexit"",""208"",""636843""
","null","<p></p>","null","","","","","","","","","","","","","","","","","","","","","","","",""
"","do_trial","221","669875","0.0-119.0-0.0","""event"",""trial"",""time""
""fullscreenenter"",""0"",""2108""
""fullscreenexit"",""208"",""636843""
","
","
","""event"",""trial"",""time""
""fullscreenenter"",""0"",""2108""
","""event"",""trial"",""time""
""fullscreenexit"",""208"",""636843""
","737.1000000014901","","","","","","","","51","1,0,0","6","blank","330","null","0.5276295113333874","0.13119981158479177","0.27111790093836086","0","","","","","","","","",""
"","html-keyboard-response","222","670878","0.0-119.0-1.0","""event"",""trial"",""time""
""fullscreenenter"",""0"",""2108""
""fullscreenexit"",""208"",""636843""
","
","
","""event"",""trial"",""time""
""fullscreenenter"",""0"",""2108""
","""event"",""trial"",""time""
""fullscreenexit"",""208"",""636843""
","null","<p></p>","null","","","","","","","","","","","","","","","","","","","","","","","",""
"","do_trial","223","674565","0.0-120.0-0.0","""event"",""trial"",""time""
""fullscreenenter"",""0"",""2108""
""fullscreenexit"",""208"",""636843""
","
","
","""event"",""trial"",""time""
""fullscreenenter"",""0"",""2108""
","""event"",""trial"",""time""
""fullscreenexit"",""208"",""636843""
","1143.7999999970198","","","","","","","","49","0,0,1","6","blank","331","null","0.5236498540904974","0.17700904870514506","0.320615097651959","0","","","","","","","","",""
"","html-keyboard-response","224","675568","0.0-120.0-1.0","""event"",""trial"",""time""
""fullscreenenter"",""0"",""2108""
""fullscreenexit"",""208"",""636843""
","
","
","""event"",""trial"",""time""
""fullscreenenter"",""0"",""2108""
","""event"",""trial"",""time""
""fullscreenexit"",""208"",""636843""
","null","<p></p>","null","","","","","","","","","","","","","","","","","","","","","","","",""
"","do_trial","225","680466","0.0-121.0-0.0","""event"",""trial"",""time""
""fullscreenenter"",""0"",""2108""
""fullscreenexit"",""208"",""636843""
","
","
","""event"",""trial"",""time""
""fullscreenenter"",""0"",""2108""
","""event"",""trial"",""time""
""fullscreenexit"",""208"",""636843""
","2348.7000000029802","","","","","","","","49","0,0,0","6","blank","332","null","0.4158813563200572","0.1433386354180461","0.17458679177842526","0","","","","","","","","",""
"","html-keyboard-response","226","681467","0.0-121.0-1.0","""event"",""trial"",""time""
""fullscreenenter"",""0"",""2108""
""fullscreenexit"",""208"",""636843""
","
","
","""event"",""trial"",""time""
""fullscreenenter"",""0"",""2108""
","""event"",""trial"",""time""
""fullscreenexit"",""208"",""636843""
","null","<p></p>","null","","","","","","","","","","","","","","","","","","","","","","","",""
"","do_trial","227","685357","0.0-122.0-0.0","""event"",""trial"",""time""
""fullscreenenter"",""0"",""2108""
""fullscreenexit"",""208"",""636843""
","
","
","""event"",""trial"",""time""
""fullscreenenter"",""0"",""2108""
","""event"",""trial"",""time""
""fullscreenexit"",""208"",""636843""
","1343.3999999985099","","","","","","","","50","0,0,1","6","blank","333","null","0.5252521491424786","0.12415715667172393","0.4357700732562741","0","","","","","","","","",""
"","html-keyboard-response","228","686362","0.0-122.0-1.0","""event"",""trial"",""time""
""fullscreenenter"",""0"",""2108""
""fullscreenexit"",""208"",""636843""
","
","
","""event"",""trial"",""time""
""fullscreenenter"",""0"",""2108""
","""event"",""trial"",""time""
""fullscreenexit"",""208"",""636843""
","null","<p></p>","null","","","","","","","","","","","","","","","","","","","","","","","",""
"","do_trial","229","690367","0.0-123.0-0.0","""event"",""trial"",""time""
""fullscreenenter"",""0"",""2108""
""fullscreenexit"",""208"",""636843""
","
","
","""event"",""trial"",""time""
""fullscreenenter"",""0"",""2108""
","""event"",""trial"",""time""
""fullscreenexit"",""208"",""636843""
","1461.1000000014901","","","","","","","","51","0,1,0","6","blank","334","null","0.6626472753286369","0.05777028789064038","0.2819039680997708","0","","","","","","","","",""
"","html-keyboard-response","230","691369","0.0-123.0-1.0","""event"",""trial"",""time""
""fullscreenenter"",""0"",""2108""
""fullscreenexit"",""208"",""636843""
","
","
","""event"",""trial"",""time""
""fullscreenenter"",""0"",""2108""
","""event"",""trial"",""time""
""fullscreenexit"",""208"",""636843""
","null","<p></p>","null","","","","","","","","","","","","","","","","","","","","","","","",""
"","do_recog","231","694131","0.0-124.0-0.0","""event"",""trial"",""time""
""fullscreenenter"",""0"",""2108""
""fullscreenexit"",""208"",""636843""
","
","
","""event"",""trial"",""time""
""fullscreenenter"",""0"",""2108""
","""event"",""trial"",""time""
""fullscreenexit"",""208"",""636843""
","1251.5","","","","","","","","53","","","","335","probe-161","","","","","1","[object Object]","159","3","1","","","",""
"","html-keyboard-response","232","695133","0.0-124.0-1.0","""event"",""trial"",""time""
""fullscreenenter"",""0"",""2108""
""fullscreenexit"",""208"",""636843""
","
","
","""event"",""trial"",""time""
""fullscreenenter"",""0"",""2108""
","""event"",""trial"",""time""
""fullscreenexit"",""208"",""636843""
","null","<p></p>","null","","","","","","","","","","","","","","","","","","","","","","","",""
"","do_trial","233","698483","0.0-125.0-0.0","""event"",""trial"",""time""
""fullscreenenter"",""0"",""2108""
""fullscreenexit"",""208"",""636843""
","
","
","""event"",""trial"",""time""
""fullscreenenter"",""0"",""2108""
","""event"",""trial"",""time""
""fullscreenexit"",""208"",""636843""
","807.6000000014901","","","","","","","","49","1,0,0","6","blank","336","null","0.587187129798907","0.056546085458074165","0.2658746542683263","1","","","","","","","","",""
"","html-keyboard-response","234","699488","0.0-125.0-1.0","""event"",""trial"",""time""
""fullscreenenter"",""0"",""2108""
""fullscreenexit"",""208"",""636843""
","
","
","""event"",""trial"",""time""
""fullscreenenter"",""0"",""2108""
","""event"",""trial"",""time""
""fullscreenexit"",""208"",""636843""
","null","<p></p>","null","","","","","","","","","","","","","","","","","","","","","","","",""
"","do_trial","235","703583","0.0-126.0-0.0","""event"",""trial"",""time""
""fullscreenenter"",""0"",""2108""
""fullscreenexit"",""208"",""636843""
","
","
","""event"",""trial"",""time""
""fullscreenenter"",""0"",""2108""
","""event"",""trial"",""time""
""fullscreenexit"",""208"",""636843""
","1549.0999999977648","","","","","","","","50","1,0,0","6","blank","337","null","0.6579941762725307","0.06392978022741298","0.30479187338081365","0","","","","","","","","",""
"","html-keyboard-response","236","704589","0.0-126.0-1.0","""event"",""trial"",""time""
""fullscreenenter"",""0"",""2108""
""fullscreenexit"",""208"",""636843""
","
","
","""event"",""trial"",""time""
""fullscreenenter"",""0"",""2108""
","""event"",""trial"",""time""
""fullscreenexit"",""208"",""636843""
","null","<p></p>","null","","","","","","","","","","","","","","","","","","","","","","","",""
"","do_recog","237","707426","0.0-127.0-0.0","""event"",""trial"",""time""
""fullscreenenter"",""0"",""2108""
""fullscreenexit"",""208"",""636843""
","
","
","""event"",""trial"",""time""
""fullscreenenter"",""0"",""2108""
","""event"",""trial"",""time""
""fullscreenexit"",""208"",""636843""
","1327.300000000745","","","","","","","","53","","","","338","probe-27","","","","","1","[object Object]","117","2","1","","","",""
"","html-keyboard-response","238","708428","0.0-127.0-1.0","""event"",""trial"",""time""
""fullscreenenter"",""0"",""2108""
""fullscreenexit"",""208"",""636843""
","
","
","""event"",""trial"",""time""
""fullscreenenter"",""0"",""2108""
","""event"",""trial"",""time""
""fullscreenexit"",""208"",""636843""
","null","<p></p>","null","","","","","","","","","","","","","","","","","","","","","","","",""
"","do_trial","239","711631","0.0-128.0-0.0","""event"",""trial"",""time""
""fullscreenenter"",""0"",""2108""
""fullscreenexit"",""208"",""636843""
","
","
","""event"",""trial"",""time""
""fullscreenenter"",""0"",""2108""
","""event"",""trial"",""time""
""fullscreenexit"",""208"",""636843""
","661.1999999992549","","","","","","","","51","1,0,0","6","blank","339","null","0.6550307724275064","0.07956617729522819","0.32526940065827037","0","","","","","","","","",""
"","html-keyboard-response","240","712633","0.0-128.0-1.0","""event"",""trial"",""time""
""fullscreenenter"",""0"",""2108""
""fullscreenexit"",""208"",""636843""
","
","
","""event"",""trial"",""time""
""fullscreenenter"",""0"",""2108""
","""event"",""trial"",""time""
""fullscreenexit"",""208"",""636843""
","null","<p></p>","null","","","","","","","","","","","","","","","","","","","","","","","",""
"","do_trial","241","715935","0.0-129.0-0.0","""event"",""trial"",""time""
""fullscreenenter"",""0"",""2108""
""fullscreenexit"",""208"",""636843""
","
","
","""event"",""trial"",""time""
""fullscreenenter"",""0"",""2108""
","""event"",""trial"",""time""
""fullscreenexit"",""208"",""636843""
","755.6999999992549","","","","","","","","50","1,0,0","6","blank","340","null","0.7944514102425622","0.14212650488229037","0.16673660645514943","0","","","","","","","","",""
"","html-keyboard-response","242","716941","0.0-129.0-1.0","""event"",""trial"",""time""
""fullscreenenter"",""0"",""2108""
""fullscreenexit"",""208"",""636843""
","
","
","""event"",""trial"",""time""
""fullscreenenter"",""0"",""2108""
","""event"",""trial"",""time""
""fullscreenexit"",""208"",""636843""
","null","<p></p>","null","","","","","","","","","","","","","","","","","","","","","","","",""
"","do_trial","243","720157","0.0-130.0-0.0","""event"",""trial"",""time""
""fullscreenenter"",""0"",""2108""
""fullscreenexit"",""208"",""636843""
","
","
","""event"",""trial"",""time""
""fullscreenenter"",""0"",""2108""
","""event"",""trial"",""time""
""fullscreenexit"",""208"",""636843""
","672.5999999977648","","","","","","","","49","1,0,0","6","blank","341","null","0.6307322872843307","0.20393220729761566","0.20378323588291372","1","","","","","","","","",""
"","html-keyboard-response","244","721164","0.0-130.0-1.0","""event"",""trial"",""time""
""fullscreenenter"",""0"",""2108""
""fullscreenexit"",""208"",""636843""
","
","
","""event"",""trial"",""time""
""fullscreenenter"",""0"",""2108""
","""event"",""trial"",""time""
""fullscreenexit"",""208"",""636843""
","null","<p></p>","null","","","","","","","","","","","","","","","","","","","","","","","",""
"","do_trial","245","724080","0.0-131.0-0.0","""event"",""trial"",""time""
""fullscreenenter"",""0"",""2108""
""fullscreenexit"",""208"",""636843""
","
","
","""event"",""trial"",""time""
""fullscreenenter"",""0"",""2108""
","""event"",""trial"",""time""
""fullscreenexit"",""208"",""636843""
","373.30000000074506","","","","","","","","50","0,0,0","6","blank","342","null","0.44204743626554155","0.2027563905091452","0.23740391928538795","0","","","","","","","","",""
"","html-keyboard-response","246","725085","0.0-131.0-1.0","""event"",""trial"",""time""
""fullscreenenter"",""0"",""2108""
""fullscreenexit"",""208"",""636843""
","
","
","""event"",""trial"",""time""
""fullscreenenter"",""0"",""2108""
","""event"",""trial"",""time""
""fullscreenexit"",""208"",""636843""
","null","<p></p>","null","","","","","","","","","","","","","","","","","","","","","","","",""
"","do_trial","247","728022","0.0-132.0-0.0","""event"",""trial"",""time""
""fullscreenenter"",""0"",""2108""
""fullscreenexit"",""208"",""636843""
","
","
","""event"",""trial"",""time""
""fullscreenenter"",""0"",""2108""
","""event"",""trial"",""time""
""fullscreenexit"",""208"",""636843""
","391.5999999977648","","","","","","","","51","0,1,0","6","blank","343","null","0.3370098216800016","0.46489039426102724","0.34904343323740933","0","","","","","","","","",""
"","html-keyboard-response","248","729024","0.0-132.0-1.0","""event"",""trial"",""time""
""fullscreenenter"",""0"",""2108""
""fullscreenexit"",""208"",""636843""
","
","
","""event"",""trial"",""time""
""fullscreenenter"",""0"",""2108""
","""event"",""trial"",""time""
""fullscreenexit"",""208"",""636843""
","null","<p></p>","null","","","","","","","","","","","","","","","","","","","","","","","",""
"","do_trial","249","732245","0.0-133.0-0.0","""event"",""trial"",""time""
""fullscreenenter"",""0"",""2108""
""fullscreenexit"",""208"",""636843""
","
","
","""event"",""trial"",""time""
""fullscreenenter"",""0"",""2108""
","""event"",""trial"",""time""
""fullscreenexit"",""208"",""636843""
","679.6999999992549","","","","","","","","50","0,1,0","6","blank","344","null","0.22764454067635653","0.4100802920972511","0.3158742604664792","1","","","","","","","","",""
"","html-keyboard-response","250","733247","0.0-133.0-1.0","""event"",""trial"",""time""
""fullscreenenter"",""0"",""2108""
""fullscreenexit"",""208"",""636843""
","
","
","""event"",""trial"",""time""
""fullscreenenter"",""0"",""2108""
","""event"",""trial"",""time""
""fullscreenexit"",""208"",""636843""
","null","<p></p>","null","","","","","","","","","","","","","","","","","","","","","","","",""
"","do_recog","251","735623","0.0-134.0-0.0","""event"",""trial"",""time""
""fullscreenenter"",""0"",""2108""
""fullscreenexit"",""208"",""636843""
","
","
","""event"",""trial"",""time""
""fullscreenenter"",""0"",""2108""
","""event"",""trial"",""time""
""fullscreenexit"",""208"",""636843""
","871","","","","","","","","53","","","","345","probe-210","","","","","1","[object Object]","114","2","1","","","",""
"","html-keyboard-response","252","736625","0.0-134.0-1.0","""event"",""trial"",""time""
""fullscreenenter"",""0"",""2108""
""fullscreenexit"",""208"",""636843""
","
","
","""event"",""trial"",""time""
""fullscreenenter"",""0"",""2108""
","""event"",""trial"",""time""
""fullscreenexit"",""208"",""636843""
","null","<p></p>","null","","","","","","","","","","","","","","","","","","","","","","","",""
"","do_trial","253","741559","0.0-135.0-0.0","""event"",""trial"",""time""
""fullscreenenter"",""0"",""2108""
""fullscreenexit"",""208"",""636843""
","
","
","""event"",""trial"",""time""
""fullscreenenter"",""0"",""2108""
","""event"",""trial"",""time""
""fullscreenexit"",""208"",""636843""
","2387.60000000149","","","","","","","","49","0,1,0","6","blank","346","null","0.2877753726933162","0.5452824647164713","0.1720198636542911","0","","","","","","","","",""
"","html-keyboard-response","254","742564","0.0-135.0-1.0","""event"",""trial"",""time""
""fullscreenenter"",""0"",""2108""
""fullscreenexit"",""208"",""636843""
","
","
","""event"",""trial"",""time""
""fullscreenenter"",""0"",""2108""
","""event"",""trial"",""time""
""fullscreenexit"",""208"",""636843""
","null","<p></p>","null","","","","","","","","","","","","","","","","","","","","","","","",""
"","do_recog","255","745063","0.0-136.0-0.0","""event"",""trial"",""time""
""fullscreenenter"",""0"",""2108""
""fullscreenexit"",""208"",""636843""
","
","
","""event"",""trial"",""time""
""fullscreenenter"",""0"",""2108""
","""event"",""trial"",""time""
""fullscreenexit"",""208"",""636843""
","993.9000000022352","","","","","","","","53","","","","347","probe-86","","","","","1","[object Object]","73","1","1","","","",""
"","html-keyboard-response","256","746065","0.0-136.0-1.0","""event"",""trial"",""time""
""fullscreenenter"",""0"",""2108""
""fullscreenexit"",""208"",""636843""
","
","
","""event"",""trial"",""time""
""fullscreenenter"",""0"",""2108""
","""event"",""trial"",""time""
""fullscreenexit"",""208"",""636843""
","null","<p></p>","null","","","","","","","","","","","","","","","","","","","","","","","",""
"","do_trial","257","750173","0.0-137.0-0.0","""event"",""trial"",""time""
""fullscreenenter"",""0"",""2108""
""fullscreenexit"",""208"",""636843""
","
","
","""event"",""trial"",""time""
""fullscreenenter"",""0"",""2108""
","""event"",""trial"",""time""
""fullscreenexit"",""208"",""636843""
","1561.699999999255","","","","","","","","50","0,1,1","6","blank","348","null","0.2540788586549677","0.612891637427443","0.1476471962172968","1","","","","","","","","",""
"","html-keyboard-response","258","751180","0.0-137.0-1.0","""event"",""trial"",""time""
""fullscreenenter"",""0"",""2108""
""fullscreenexit"",""208"",""636843""
","
","
","""event"",""trial"",""time""
""fullscreenenter"",""0"",""2108""
","""event"",""trial"",""time""
""fullscreenexit"",""208"",""636843""
","null","<p></p>","null","","","","","","","","","","","","","","","","","","","","","","","",""
"","break","259","753494","0.0-138.0-0.0","""event"",""trial"",""time""
""fullscreenenter"",""0"",""2108""
""fullscreenexit"",""208"",""636843""
","
","
","""event"",""trial"",""time""
""fullscreenenter"",""0"",""2108""
","""event"",""trial"",""time""
""fullscreenexit"",""208"",""636843""
","2313.89999999851","<div class='center'><p>Time to take a quick break! You have 2 minutes to rest, but you can move on sooner if you'd like.</p><p> Press the <b>space bar</b> to continue.</p></div>","32","","","","","","","","","","","","","","","","","","","","","","","",""
"","do_recog","260","756823","0.0-138.0-1.0","""event"",""trial"",""time""
""fullscreenenter"",""0"",""2108""
""fullscreenexit"",""208"",""636843""
","
","
","""event"",""trial"",""time""
