"success","trial_type","trial_index","time_elapsed","internal_node_id","interactions","blur_events","focus_events","fullscreenenter_events","fullscreenexit_events","rt","stimulus","key_press","subject_id","participant_id","age","gender","prompt","response","choice_outcomes","context_n","context_img_id","trial_n","probe_img_id","pR_red","pR_white","pR_black","outcome","is_valid","image_to_show","probed_trial","probed_context","correct","probe","probed_trial_n","probed_context_n","context_im"
"true","fullscreen","0","3378","0.0-0.0","""event"",""trial"",""time""
""fullscreenenter"",""0"",""2550""
","
","
","""event"",""trial"",""time""
""fullscreenenter"",""0"",""2550""
","
","","","","","","","","","","","","","","","","","","","","","","","","","","",""
"","pavlovia","1","3390","0.0-1.0","""event"",""trial"",""time""
""fullscreenenter"",""0"",""2550""
","
","
","""event"",""trial"",""time""
""fullscreenenter"",""0"",""2550""
","
","","","","","","","","","","","","","","","","","","","","","","","","","","",""
"","welc_back","2","13482","0.0-2.0","""event"",""trial"",""time""
""fullscreenenter"",""0"",""2550""
","
","
","""event"",""trial"",""time""
""fullscreenenter"",""0"",""2550""
","
","null","run_exp/static/audio/clip_29_welcome_back.m4a","null","525","179","20","Female","<div class='center'><p>Welcome to day 2!</p><p> Yesterday, you were the head captain of a pirate ship. You asked your fellow pirates to rob other ships of their gold across six different islands.</p></div>","","","","","","","","","","","","","","","","","","",""
"","html-keyboard-response","3","20444","0.0-3.0","""event"",""trial"",""time""
""fullscreenenter"",""0"",""2550""
","
","
","""event"",""trial"",""time""
""fullscreenenter"",""0"",""2550""
","
","6959.5999999940395","<div class='center'><p>Welcome to day 2!</p><p> Yesterday, you were the head captain of a pirate ship. You asked your fellow pirates to rob other ships of their gold across six different islands.</p><p><b>[Press the space bar to continue]</b></p></div>","32","","","","","","","","","","","","","","","","","","","","","","","",""
"","day_1_summary_goal","4","37861","0.0-4.0","""event"",""trial"",""time""
""fullscreenenter"",""0"",""2550""
","
","
","""event"",""trial"",""time""
""fullscreenenter"",""0"",""2550""
","
","null","run_exp/static/audio/clip_30_goal_of_game.m4a","null","","","","","<div class='center'><p>Today, like yesterday, you get to pick which pirate you want to rob the next ship.</p><p>If the pirate is successful in robbing a ship, you get gold coins that look like this: </p><p><img src='run_exp/static/images/tutorial/reward.png' height='150'></p><p> If they were not successful in robbing the ship, then you will get no gold coins and you'll see a big red x like this: </p><p><img src='run_exp/static/images/tutorial/reward_no.png' height='150'></p></div>","","","","","","","","","","","","","","","","","","",""
"","html-keyboard-response","5","38308","0.0-5.0","""event"",""trial"",""time""
""fullscreenenter"",""0"",""2550""
","
","
","""event"",""trial"",""time""
""fullscreenenter"",""0"",""2550""
","
","445.80000001192093","<div class='center'><p>Today, like yesterday, you get to pick which pirate you want to rob the next ship.</p><p>If the pirate is successful in robbing a ship, you get gold coins that look like this: </p><p><img src='run_exp/static/images/tutorial/reward.png' height='150'></p><p> If they were not successful in robbing the ship, then you will get no gold coins and you'll see a big red x like this: </p><p><img src='run_exp/static/images/tutorial/reward_no.png' height='150'></p><p><b>[Press the space bar to continue]</b></p></div>","32","","","","","","","","","","","","","","","","","","","","","","","",""
"","day_1_summary_pick","6","53181","0.0-6.0","""event"",""trial"",""time""
""fullscreenenter"",""0"",""2550""
","
","
","""event"",""trial"",""time""
""fullscreenenter"",""0"",""2550""
","
","null","run_exp/static/audio/clip_31_how_to_pick_a_pirate.m4a","null","","","","","<div class='center'><p>Also, just like yesterday, you will use the 1,2,3 keys on your keyboard to pick a pirate. Press '1' to choose red beard, '2' to choose white beard, and '3' to choose black beard . You only have 3 seconds to pick a pirate, so please make a choice quickly!</p></div>","","","","","","","","","","","","","","","","","","",""
"","html-keyboard-response","7","54194","0.0-7.0","""event"",""trial"",""time""
""fullscreenenter"",""0"",""2550""
","
","
","""event"",""trial"",""time""
""fullscreenenter"",""0"",""2550""
","
","1012.5","<div class='center'><p>Also, just like yesterday, you will use the 1,2,3 keys on your keyboard to pick a pirate. Press '1' to choose red beard, '2' to choose white beard, and '3' to choose black beard . You only have 3 seconds to pick a pirate, so please make a choice quickly!</p><p><b>[Press the space bar to continue]</b></p></div>","32","","","","","","","","","","","","","","","","","","","","","","","",""
"","test_phase_begin","8","84771","0.0-8.0","""event"",""trial"",""time""
""fullscreenenter"",""0"",""2550""
","
","
","""event"",""trial"",""time""
""fullscreenenter"",""0"",""2550""
","
","null","run_exp/static/audio/clip_32_final_place.m4a","null","","","","","<div class='center'><p>You’ve arrived at the final island of your journey! Unfortunately, it’s very foggy out, so you won’t be able to see it in the distance like the other islands you've visited.</p><p>You’ll still be deciding which pirate you want to rob a ship like before. However, because of the fog, you also won’t be able to see the ship.</p><p>This means you do not have to remember the ships you rob on this island.</p><p>Unlike yesterday, you won't be visiting multiple islands today. You will stay on this island for the entire game. This game will last ~30 minutes.</p></div>","","","","","","","","","","","","","","","","","","",""
"","html-keyboard-response","9","101895","0.0-9.0","""event"",""trial"",""time""
""fullscreenenter"",""0"",""2550""
","
","
","""event"",""trial"",""time""
""fullscreenenter"",""0"",""2550""
","
","17123","<div class='center'><p>You’ve arrived at the final island of your journey! Unfortunately, it’s very foggy out, so you won’t be able to see it in the distance like the other islands you've visited.</p><p>You’ll still be deciding which pirate you want to rob a ship like before. However, because of the fog, you also won’t be able to see the ship.</p><p>This means you do not have to remember the ships you rob on this island.</p><p>Unlike yesterday, you won't be visiting multiple islands today. You will stay on this island for the entire game. This game will last ~30 minutes.</p><p><b>[Press the space bar to continue]</b></p></div>","32","","","","","","","","","","","","","","","","","","","","","","","",""
"","explain_probe_1","10","109966","0.0-10.0","""event"",""trial"",""time""
""fullscreenenter"",""0"",""2550""
","
","
","""event"",""trial"",""time""
""fullscreenenter"",""0"",""2550""
","
","null","run_exp/static/audio/clip_33_recognition_1.m4a","null","","","","","<div class='center'><p> Sometimes you’ll be shown a ship, and you will be asked if you saw this ship on a past island.</p><p> Here is an example of what you will see.</p><p><img src='run_exp/static/images/tutorial/example_recog_trial.png' height='500'></p></div>","","","","","","","","","","","","","","","","","","",""
"","html-keyboard-response","11","112040","0.0-11.0","""event"",""trial"",""time""
""fullscreenenter"",""0"",""2550""
","
","
","""event"",""trial"",""time""
""fullscreenenter"",""0"",""2550""
","
","2072","<div class='center'><p> Sometimes you’ll be shown a ship, and you will be asked if you saw this ship on a past island.</p><p> Here is an example of what you will see.</p><p><img src='run_exp/static/images/tutorial/example_recog_trial.png' height='500'></p><p><b>[Press the space bar to continue]</b></p></div>","32","","","","","","","","","","","","","","","","","","","","","","","",""
"","explain_probe_2","12","133936","0.0-12.0","""event"",""trial"",""time""
""fullscreenenter"",""0"",""2550""
","
","
","""event"",""trial"",""time""
""fullscreenenter"",""0"",""2550""
","
","null","run_exp/static/audio/clip_34_recognition_2.m4a","null","","","","","<div class='center'><p> You will press the 5, 6, 7, 8 keys on your keyboard to respond.</p><p>If you are sure you saw the ship, press <b>5</b> on your keyboard.</p><p> If you think you saw it before but aren't sure, then press <b>6</b>.</p><p> If you think you have <b>not</b> seen it before but aren't sure, then press <b>7</b>.</p><p> If you are sure you did <b>not</b> see the ship before, then press <b>8</b>.</p><p><img src='run_exp/static/images/tutorial/example_recog_trial.png' height='500'></p></div>","","","","","","","","","","","","","","","","","","",""
"","html-keyboard-response","13","134451","0.0-13.0","""event"",""trial"",""time""
""fullscreenenter"",""0"",""2550""
","
","
","""event"",""trial"",""time""
""fullscreenenter"",""0"",""2550""
","
","513.3000000119209","<div class='center'><p> You will press the 5, 6, 7, 8 keys on your keyboard to respond.</p><p>If you are sure you saw the ship, press <b>5</b> on your keyboard.</p><p> If you think you saw it before but aren't sure, then press <b>6</b>.</p><p> If you think you have <b>not</b> seen it before but aren't sure, then press <b>7</b>.</p><p> If you are sure you did <b>not</b> see the ship before, then press <b>8</b>.</p><p><img src='run_exp/static/images/tutorial/example_recog_trial.png' height='500'></p><p><b>[Press the space bar to continue]</b></p></div>","32","","","","","","","","","","","","","","","","","","","","","","","",""
"","explain_outcome","14","151869","0.0-14.0","""event"",""trial"",""time""
""fullscreenenter"",""0"",""2550""
","
","
","""event"",""trial"",""time""
""fullscreenenter"",""0"",""2550""
","
","null","run_exp/static/audio/clip_35_recognition_3.m4a","null","","","","","<div class='center'><p> If you remember correctly, then you’ll get a gold coin like this: </p><p><img src='run_exp/static/images/tutorial/reward_small.png' height='200'></p><p>If you do not remember correctly, then you'll see a red x like this: </p><p><img src='run_exp/static/images/tutorial/reward_no.png' height='200'></p><p>Importantly, when you are shown a ship, take the time to remind yourself which island you saw it on. This will help you in the next part of the study.</p></div>","","","","","","","","","","","","","","","","","","",""
"","html-keyboard-response","15","166019","0.0-15.0","""event"",""trial"",""time""
""fullscreenenter"",""0"",""2550""
","
","
","""event"",""trial"",""time""
""fullscreenenter"",""0"",""2550""
","
","14148.299999982119","<div class='center'><p> If you remember correctly, then you’ll get a gold coin like this: </p><p><img src='run_exp/static/images/tutorial/reward_small.png' height='200'></p><p>If you do not remember correctly, then you'll see a red x like this: </p><p><img src='run_exp/static/images/tutorial/reward_no.png' height='200'></p><p>Importantly, when you are shown a ship, take the time to remind yourself which island you saw it on. This will help you in the next part of the study.</p><p><b>[Press the space bar to continue]</b></p></div>","32","","","","","","","","","","","","","","","","","","","","","","","",""
"","begin_test_phase","16","182157","0.0-16.0","""event"",""trial"",""time""
""fullscreenenter"",""0"",""2550""
","
","
","""event"",""trial"",""time""
""fullscreenenter"",""0"",""2550""
","
","null","run_exp/static/audio/clip_36_begin_final.m4a","null","","","","","<div class='center'><p>Let's go over the important points again. Your job is to: </p><p>1. Pick the pirate who is best at robbing ships and will bring you back gold coins. </p><p>2. Correctly remember whether or not you saw a ship before. If you did see the ship before, remind yourself on which island you saw it. </p></div>","","","","","","","","","","","","","","","","","","",""
"","html-keyboard-response","17","183344","0.0-17.0","""event"",""trial"",""time""
""fullscreenenter"",""0"",""2550""
","
","
","""event"",""trial"",""time""
""fullscreenenter"",""0"",""2550""
","
","1108.5999999940395","<div class='center'><p>Let's go over the important points again. Your job is to: </p><p>1. Pick the pirate who is best at robbing ships and will bring you back gold coins. </p><p>2. Correctly remember whether or not you saw a ship before. If you did see the ship before, remind yourself on which island you saw it. </p><p><b>[Press the space bar to continue]</b></p></div>","32","","","","","","","","","","","","","","","","","","","","","","","",""
"","do_welcome","18","187361","0.0-18.0","""event"",""trial"",""time""
""fullscreenenter"",""0"",""2550""
","
","
","""event"",""trial"",""time""
""fullscreenenter"",""0"",""2550""
","
","null","","","","","","","","null","","","","","","","","","","","","","","","","","",""
"","do_trial","19","191852","0.0-19.0-0.0","""event"",""trial"",""time""
""fullscreenenter"",""0"",""2550""
","
","
","""event"",""trial"",""time""
""fullscreenenter"",""0"",""2550""
","
","1935.4000000059605","","","","","","","","50","0,1,1","6","blank","230","null","0.05638984685505209","0.21602421205309064","0.7062566829102204","1","","","","","","","","",""
"","html-keyboard-response","20","192858","0.0-19.0-1.0","""event"",""trial"",""time""
""fullscreenenter"",""0"",""2550""
","
","
","""event"",""trial"",""time""
""fullscreenenter"",""0"",""2550""
","
","null","<p></p>","null","","","","","","","","","","","","","","","","","","","","","","","",""
"","do_trial","21","195789","0.0-20.0-0.0","""event"",""trial"",""time""
""fullscreenenter"",""0"",""2550""
","
","
","""event"",""trial"",""time""
""fullscreenenter"",""0"",""2550""
","
","380.2000000178814","","","","","","","","50","0,0,0","6","blank","231","null","0.05773236011782081","0.31602228428087287","0.5920426579437416","0","","","","","","","","",""
"","html-keyboard-response","22","196793","0.0-20.0-1.0","""event"",""trial"",""time""
""fullscreenenter"",""0"",""2550""
","
","
","""event"",""trial"",""time""
""fullscreenenter"",""0"",""2550""
","
","null","<p></p>","null","","","","","","","","","","","","","","","","","","","","","","","",""
"","do_trial","23","199660","0.0-21.0-0.0","""event"",""trial"",""time""
""fullscreenenter"",""0"",""2550""
","
","
","""event"",""trial"",""time""
""fullscreenenter"",""0"",""2550""
","
","312.5","","","","","","","","51","0,0,0","6","blank","232","null","0.14928207138983485","0.31957457393766775","0.539950659517804","0","","","","","","","","",""
"","html-keyboard-response","24","200667","0.0-21.0-1.0","""event"",""trial"",""time""
""fullscreenenter"",""0"",""2550""
","
","
","""event"",""trial"",""time""
""fullscreenenter"",""0"",""2550""
","
","null","<p></p>","null","","","","","","","","","","","","","","","","","","","","","","","",""
"","do_trial","25","203600","0.0-22.0-0.0","""event"",""trial"",""time""
""fullscreenenter"",""0"",""2550""
","
","
","""event"",""trial"",""time""
""fullscreenenter"",""0"",""2550""
","
","372.69999998807907","","","","","","","","49","0,0,0","6","blank","233","null","0.14429043045023654","0.40510071239994255","0.5494400859199756","0","","","","","","","","",""
"","html-keyboard-response","26","204606","0.0-22.0-1.0","""event"",""trial"",""time""
""fullscreenenter"",""0"",""2550""
","
","
","""event"",""trial"",""time""
""fullscreenenter"",""0"",""2550""
","
","null","<p></p>","null","","","","","","","","","","","","","","","","","","","","","","","",""
"","do_trial","27","207443","0.0-23.0-0.0","""event"",""trial"",""time""
""fullscreenenter"",""0"",""2550""
","
","
","""event"",""trial"",""time""
""fullscreenenter"",""0"",""2550""
","
","280.59999999403954","","","","","","","","50","0,0,0","6","blank","234","null","0.16116147829990865","0.2984173711107144","0.6017275942428513","0","","","","","","","","",""
"","html-keyboard-response","28","208446","0.0-23.0-1.0","""event"",""trial"",""time""
""fullscreenenter"",""0"",""2550""
","
","
","""event"",""trial"",""time""
""fullscreenenter"",""0"",""2550""
","
","null","<p></p>","null","","","","","","","","","","","","","","","","","","","","","","","",""
"","do_trial","29","211426","0.0-24.0-0.0","""event"",""trial"",""time""
""fullscreenenter"",""0"",""2550""
","
","
","""event"",""trial"",""time""
""fullscreenenter"",""0"",""2550""
","
","423.89999997615814","","","","","","","","50","0,0,1","6","blank","235","null","0.19198323541372986","0.18101481397150512","0.44988830332935864","0","","","","","","","","",""
"","html-keyboard-response","30","212428","0.0-24.0-1.0","""event"",""trial"",""time""
""fullscreenenter"",""0"",""2550""
","
","
","""event"",""trial"",""time""
""fullscreenenter"",""0"",""2550""
","
","null","<p></p>","null","","","","","","","","","","","","","","","","","","","","","","","",""
"","do_trial","31","215067","0.0-25.0-0.0","""event"",""trial"",""time""
""fullscreenenter"",""0"",""2550""
","
","
","""event"",""trial"",""time""
""fullscreenenter"",""0"",""2550""
","
","87.80000001192093","","","","","","","","51","0,0,0","6","blank","236","null","0.18211344743729527","0.1609663532528924","0.5182768802138419","0","","","","","","","","",""
"","html-keyboard-response","32","216073","0.0-25.0-1.0","""event"",""trial"",""time""
""fullscreenenter"",""0"",""2550""
","
","
","""event"",""trial"",""time""
""fullscreenenter"",""0"",""2550""
","
","null","<p></p>","null","","","","","","","","","","","","","","","","","","","","","","","",""
"","do_trial","33","218900","0.0-26.0-0.0","""event"",""trial"",""time""
""fullscreenenter"",""0"",""2550""
","
","
","""event"",""trial"",""time""
""fullscreenenter"",""0"",""2550""
","
","262.09999999403954","","","","","","","","51","0,0,1","6","blank","237","null","0.2370900506203998","0.18517822935527456","0.4920733252015878","1","","","","","","","","",""
"","html-keyboard-response","34","219903","0.0-26.0-1.0","""event"",""trial"",""time""
""fullscreenenter"",""0"",""2550""
","
","
","""event"",""trial"",""time""
""fullscreenenter"",""0"",""2550""
","
","null","<p></p>","null","","","","","","","","","","","","","","","","","","","","","","","",""
"","do_trial","35","222831","0.0-27.0-0.0","""event"",""trial"",""time""
""fullscreenenter"",""0"",""2550""
","
","
","""event"",""trial"",""time""
""fullscreenenter"",""0"",""2550""
","
","380.80000001192093","","","","","","","","51","0,0,0","6","blank","238","null","0.19985760607992234","0.09046017383841559","0.538583026134582","0","","","","","","","","",""
"","html-keyboard-response","36","223833","0.0-27.0-1.0","""event"",""trial"",""time""
""fullscreenenter"",""0"",""2550""
","
","
","""event"",""trial"",""time""
""fullscreenenter"",""0"",""2550""
","
","null","<p></p>","null","","","","","","","","","","","","","","","","","","","","","","","",""
"","do_trial","37","226754","0.0-28.0-0.0","""event"",""trial"",""time""
""fullscreenenter"",""0"",""2550""
","
","
","""event"",""trial"",""time""
""fullscreenenter"",""0"",""2550""
","
","362.59999999403954","","","","","","","","51","0,0,1","6","blank","239","null","0.12568576905744377","0.07101363413221376","0.5818297120909359","1","","","","","","","","",""
"","html-keyboard-response","38","227760","0.0-28.0-1.0","""event"",""trial"",""time""
""fullscreenenter"",""0"",""2550""
","
","
","""event"",""trial"",""time""
""fullscreenenter"",""0"",""2550""
","
","null","<p></p>","null","","","","","","","","","","","","","","","","","","","","","","","",""
"","do_trial","39","230801","0.0-29.0-0.0","""event"",""trial"",""time""
""fullscreenenter"",""0"",""2550""
","
","
","""event"",""trial"",""time""
""fullscreenenter"",""0"",""2550""
","
","479.10000002384186","","","","","","","","51","0,0,0","6","blank","240","null","0.13406930591217323","0.07096406281558648","0.5387172315126987","0","","","","","","","","",""
"","html-keyboard-response","40","231804","0.0-29.0-1.0","""event"",""trial"",""time""
""fullscreenenter"",""0"",""2550""
","
","
","""event"",""trial"",""time""
""fullscreenenter"",""0"",""2550""
","
","null","<p></p>","null","","","","","","","","","","","","","","","","","","","","","","","",""
"","do_trial","41","235839","0.0-30.0-0.0","""event"",""trial"",""time""
""fullscreenenter"",""0"",""2550""
","
","
","""event"",""trial"",""time""
""fullscreenenter"",""0"",""2550""
","
","1481.9000000059605","","","","","","","","49","0,0,1","6","blank","241","null","0.20284452286771043","0.2168258820810877","0.6240969604770257","0","","","","","","","","",""
"","html-keyboard-response","42","236842","0.0-30.0-1.0","""event"",""trial"",""time""
""fullscreenenter"",""0"",""2550""
","
","
","""event"",""trial"",""time""
""fullscreenenter"",""0"",""2550""
","
","null","<p></p>","null","","","","","","","","","","","","","","","","","","","","","","","",""
"","do_trial","43","240252","0.0-31.0-0.0","""event"",""trial"",""time""
""fullscreenenter"",""0"",""2550""
","
","
","""event"",""trial"",""time""
""fullscreenenter"",""0"",""2550""
","
","858.1999999880791","","","","","","","","50","0,0,0","6","blank","242","null","0.2965653152759652","0.4154578825108195","0.5722976747541355","0","","","","","","","","",""
"","html-keyboard-response","44","241258","0.0-31.0-1.0","""event"",""trial"",""time""
""fullscreenenter"",""0"",""2550""
","
","
","""event"",""trial"",""time""
""fullscreenenter"",""0"",""2550""
","
","null","<p></p>","null","","","","","","","","","","","","","","","","","","","","","","","",""
"","do_trial","45","244210","0.0-32.0-0.0","""event"",""trial"",""time""
""fullscreenenter"",""0"",""2550""
","
","
","""event"",""trial"",""time""
""fullscreenenter"",""0"",""2550""
","
","383.39999997615814","","","","","","","","49","0,1,0","6","blank","243","null","0.2732463325743539","0.48756132858617185","0.46332756027497857","0","","","","","","","","",""
"","html-keyboard-response","46","245215","0.0-32.0-1.0","""event"",""trial"",""time""
""fullscreenenter"",""0"",""2550""
","
","
","""event"",""trial"",""time""
""fullscreenenter"",""0"",""2550""
","
","null","<p></p>","null","","","","","","","","","","","","","","","","","","","","","","","",""
"","do_trial","47","248281","0.0-33.0-0.0","""event"",""trial"",""time""
""fullscreenenter"",""0"",""2550""
","
","
","""event"",""trial"",""time""
""fullscreenenter"",""0"",""2550""
","
","519.5999999940395","","","","","","","","49","0,1,1","6","blank","244","null","0.23960111709510767","0.4992898471821073","0.38549219392842177","0","","","","","","","","",""
"","html-keyboard-response","48","249286","0.0-33.0-1.0","""event"",""trial"",""time""
""fullscreenenter"",""0"",""2550""
","
","
","""event"",""trial"",""time""
""fullscreenenter"",""0"",""2550""
","
","null","<p></p>","null","","","","","","","","","","","","","","","","","","","","","","","",""
"","do_recog","49","255367","0.0-34.0-0.0","""event"",""trial"",""time""
""fullscreenenter"",""0"",""2550""
","
","
","""event"",""trial"",""time""
""fullscreenenter"",""0"",""2550""
","
","null","","","","","","","","null","","","","245","probe-200","","","","","1","[object Object]","36","0","0","","","",""
"","html-keyboard-response","50","256374","0.0-34.0-1.0","""event"",""trial"",""time""
""fullscreenenter"",""0"",""2550""
","
","
","""event"",""trial"",""time""
""fullscreenenter"",""0"",""2550""
","
","null","<p></p>","null","","","","","","","","","","","","","","","","","","","","","","","",""
"","do_trial","51","261306","0.0-35.0-0.0","""event"",""trial"",""time""
""fullscreenenter"",""0"",""2550""
","
","
","""event"",""trial"",""time""
""fullscreenenter"",""0"",""2550""
","
","2373.899999976158","","","","","","","","50","0,0,0","6","blank","246","null","0.2976734440556711","0.47722526750006117","0.2738728934083704","0","","","","","","","","",""
"","html-keyboard-response","52","262308","0.0-35.0-1.0","""event"",""trial"",""time""
""fullscreenenter"",""0"",""2550""
","
","
","""event"",""trial"",""time""
""fullscreenenter"",""0"",""2550""
","
","null","<p></p>","null","","","","","","","","","","","","","","","","","","","","","","","",""
"","do_recog","53","266248","0.0-36.0-0.0","""event"",""trial"",""time""
""fullscreenenter"",""0"",""2550""
","
","
","""event"",""trial"",""time""
""fullscreenenter"",""0"",""2550""
","
","2424.5","","","","","","","","56","","","","247","probe-10","","","","","1","[object Object]","156","3","0","","","",""
"","html-keyboard-response","54","267252","0.0-36.0-1.0","""event"",""trial"",""time""
""fullscreenenter"",""0"",""2550""
","
","
","""event"",""trial"",""time""
""fullscreenenter"",""0"",""2550""
","
","null","<p></p>","null","","","","","","","","","","","","","","","","","","","","","","","",""
"","do_trial","55","270530","0.0-37.0-0.0","""event"",""trial"",""time""
""fullscreenenter"",""0"",""2550""
","
","
","""event"",""trial"",""time""
""fullscreenenter"",""0"",""2550""
","
","719.0999999940395","","","","","","","","51","0,0,0","6","blank","248","null","0.30899095552656386","0.4624596451522911","0.2797074618342091","0","","","","","","","","",""
"","html-keyboard-response","56","271533","0.0-37.0-1.0","""event"",""trial"",""time""
""fullscreenenter"",""0"",""2550""
","
","
","""event"",""trial"",""time""
""fullscreenenter"",""0"",""2550""
","
","null","<p></p>","null","","","","","","","","","","","","","","","","","","","","","","","",""
"","do_trial","57","275095","0.0-38.0-0.0","""event"",""trial"",""time""
""fullscreenenter"",""0"",""2550""
","
","
","""event"",""trial"",""time""
""fullscreenenter"",""0"",""2550""
","
","1007.2000000178814","","","","","","","","51","0,1,0","6","blank","249","null","0.28944710600756346","0.6772683559071492","0.431920111639499","0","","","","","","","","",""
"","html-keyboard-response","58","276097","0.0-38.0-1.0","""event"",""trial"",""time""
""fullscreenenter"",""0"",""2550""
","
","
","""event"",""trial"",""time""
""fullscreenenter"",""0"",""2550""
","
","null","<p></p>","null","","","","","","","","","","","","","","","","","","","","","","","",""
"","do_trial","59","279058","0.0-39.0-0.0","""event"",""trial"",""time""
""fullscreenenter"",""0"",""2550""
","
","
","""event"",""trial"",""time""
""fullscreenenter"",""0"",""2550""
","
","402.7999999821186","","","","","","","","49","0,0,0","6","blank","250","null","0.05974236884461087","0.6285917198106199","0.494056263653583","0","","","","","","","","",""
"","html-keyboard-response","60","280064","0.0-39.0-1.0","""event"",""trial"",""time""
""fullscreenenter"",""0"",""2550""
","
","
","""event"",""trial"",""time""
""fullscreenenter"",""0"",""2550""
","
","null","<p></p>","null","","","","","","","","","","","","","","","","","","","","","","","",""
"","do_trial","61","283249","0.0-40.0-0.0","""event"",""trial"",""time""
""fullscreenenter"",""0"",""2550""
","
","
","""event"",""trial"",""time""
""fullscreenenter"",""0"",""2550""
","
","627.6999999880791","","","","","","","","50","0,1,0","6","blank","251","null","0.10525301991953921","0.6508483542139168","0.35419502174911577","1","","","","","","","","",""
"","html-keyboard-response","62","284254","0.0-40.0-1.0","""event"",""trial"",""time""
""fullscreenenter"",""0"",""2550""
","
","
","""event"",""trial"",""time""
""fullscreenenter"",""0"",""2550""
","
","null","<p></p>","null","","","","","","","","","","","","","","","","","","","","","","","",""
"","do_trial","63","287253","0.0-41.0-0.0","""event"",""trial"",""time""
""fullscreenenter"",""0"",""2550""
","
","
","""event"",""trial"",""time""
""fullscreenenter"",""0"",""2550""
","
","440.7999999821186","","","","","","","","50","1,0,0","6","blank","252","null","0.08149502200311769","0.703037884961792","0.3121331399027279","0","","","","","","","","",""
"","html-keyboard-response","64","288256","0.0-41.0-1.0","""event"",""trial"",""time""
""fullscreenenter"",""0"",""2550""
","
","
","""event"",""trial"",""time""
""fullscreenenter"",""0"",""2550""
","
","null","<p></p>","null","","","","","","","","","","","","","","","","","","","","","","","",""
"","do_recog","65","291091","0.0-42.0-0.0","""event"",""trial"",""time""
""fullscreenenter"",""0"",""2550""
","
","
","""event"",""trial"",""time""
""fullscreenenter"",""0"",""2550""
","
","1320.9000000059605","","","","","","","","55","","","","253","probe-133","","","","","1","[object Object]","118","2","0","","","",""
"","html-keyboard-response","66","292097","0.0-42.0-1.0","""event"",""trial"",""time""
""fullscreenenter"",""0"",""2550""
","
","
","""event"",""trial"",""time""
""fullscreenenter"",""0"",""2550""
","
","null","<p></p>","null","","","","","","","","","","","","","","","","","","","","","","","",""
"","do_trial","67","295239","0.0-43.0-0.0","""event"",""trial"",""time""
""fullscreenenter"",""0"",""2550""
","
","
","""event"",""trial"",""time""
""fullscreenenter"",""0"",""2550""
","
","586","","","","","","","","50","0,0,0","6","blank","254","null","0.058795167504890486","0.5803148994688286","0.3309009691955795","0","","","","","","","","",""
"","html-keyboard-response","68","296243","0.0-43.0-1.0","""event"",""trial"",""time""
""fullscreenenter"",""0"",""2550""
","
","
","""event"",""trial"",""time""
""fullscreenenter"",""0"",""2550""
","
","null","<p></p>","null","","","","","","","","","","","","","","","","","","","","","","","",""
"","do_recog","69","299275","0.0-44.0-0.0","""event"",""trial"",""time""
""fullscreenenter"",""0"",""2550""
","
","
","""event"",""trial"",""time""
""fullscreenenter"",""0"",""2550""
","
","1523.300000011921","","","","","","","","55","","","","255","probe-12","","","","","1","[object Object]","195","4","0","","","",""
"","html-keyboard-response","70","300281","0.0-44.0-1.0","""event"",""trial"",""time""
""fullscreenenter"",""0"",""2550""
","
","
","""event"",""trial"",""time""
""fullscreenenter"",""0"",""2550""
","
","null","<p></p>","null","","","","","","","","","","","","","","","","","","","","","","","",""
"","do_trial","71","303792","0.0-45.0-0.0","""event"",""trial"",""time""
""fullscreenenter"",""0"",""2550""
","
","
","""event"",""trial"",""time""
""fullscreenenter"",""0"",""2550""
","
","953.0999999940395","","","","","","","","50","0,0,0","6","blank","256","null","0.059716592368885005","0.5136424849112573","0.38637086675717797","0","","","","","","","","",""
"","html-keyboard-response","72","304797","0.0-45.0-1.0","""event"",""trial"",""time""
""fullscreenenter"",""0"",""2550""
","
","
","""event"",""trial"",""time""
""fullscreenenter"",""0"",""2550""
","
","null","<p></p>","null","","","","","","","","","","","","","","","","","","","","","","","",""
"","do_recog","73","308143","0.0-46.0-0.0","""event"",""trial"",""time""
""fullscreenenter"",""0"",""2550""
","
","
","""event"",""trial"",""time""
""fullscreenenter"",""0"",""2550""
","
","1835.800000011921","","","","","","","","53","","","","257","probe-108","","","","","1","[object Object]","110","2","1","","","",""
"","html-keyboard-response","74","309147","0.0-46.0-1.0","""event"",""trial"",""time""
""fullscreenenter"",""0"",""2550""
","
","
","""event"",""trial"",""time""
""fullscreenenter"",""0"",""2550""
","
","null","<p></p>","null","","","","","","","","","","","","","","","","","","","","","","","",""
"","do_trial","75","312523","0.0-47.0-0.0","""event"",""trial"",""time""
""fullscreenenter"",""0"",""2550""
","
","
","""event"",""trial"",""time""
""fullscreenenter"",""0"",""2550""
","
","817","","","","","","","","51","1,1,1","6","blank","258","null","0.14331653473500505","0.6243884285994502","0.407410701979455","1","","","","","","","","",""
"","html-keyboard-response","76","313530","0.0-47.0-1.0","""event"",""trial"",""time""
""fullscreenenter"",""0"",""2550""
","
","
","""event"",""trial"",""time""
""fullscreenenter"",""0"",""2550""
","
","null","<p></p>","null","","","","","","","","","","","","","","","","","","","","","","","",""
"","do_recog","77","316556","0.0-48.0-0.0","""event"",""trial"",""time""
""fullscreenenter"",""0"",""2550""
","
","
","""event"",""trial"",""time""
""fullscreenenter"",""0"",""2550""
","
","1517.5","","","","","","","","55","","","","259","probe-240","","","","","0","[object Object]","null","null","1","","","",""
"","html-keyboard-response","78","317557","0.0-48.0-1.0","""event"",""trial"",""time""
""fullscreenenter"",""0"",""2550""
","
","
","""event"",""trial"",""time""
""fullscreenenter"",""0"",""2550""
","
","null","<p></p>","null","","","","","","","","","","","","","","","","","","","","","","","",""
"","do_trial","79","320572","0.0-49.0-0.0","""event"",""trial"",""time""
""fullscreenenter"",""0"",""2550""
","
","
","""event"",""trial"",""time""
""fullscreenenter"",""0"",""2550""
","
","459.39999997615814","","","","","","","","51","0,0,1","6","blank","260","null","0.27050334513548535","0.5196166955830299","0.35141456948820576","1","","","","","","","","",""
"","html-keyboard-response","80","321573","0.0-49.0-1.0","""event"",""trial"",""time""
""fullscreenenter"",""0"",""2550""
","
","
","""event"",""trial"",""time""
""fullscreenenter"",""0"",""2550""
","
","null","<p></p>","null","","","","","","","","","","","","","","","","","","","","","","","",""
"","do_recog","81","324817","0.0-50.0-0.0","""event"",""trial"",""time""
""fullscreenenter"",""0"",""2550""
","
","
","""event"",""trial"",""time""
""fullscreenenter"",""0"",""2550""
","
","1738.7999999821186","","","","","","","","55","","","","261","probe-91","","","","","1","[object Object]","33","0","0","","","",""
"","html-keyboard-response","82","325818","0.0-50.0-1.0","""event"",""trial"",""time""
""fullscreenenter"",""0"",""2550""
","
","
","""event"",""trial"",""time""
""fullscreenenter"",""0"",""2550""
","
","null","<p></p>","null","","","","","","","","","","","","","","","","","","","","","","","",""
"","do_trial","83","328788","0.0-51.0-0.0","""event"",""trial"",""time""
""fullscreenenter"",""0"",""2550""
","
","
","""event"",""trial"",""time""
""fullscreenenter"",""0"",""2550""
","
","393.80000001192093","","","","","","","","49","0,1,0","6","blank","262","null","0.23353856721351007","0.4684577318797999","0.5247620317031292","0","","","","","","","","",""
"","html-keyboard-response","84","329792","0.0-51.0-1.0","""event"",""trial"",""time""
""fullscreenenter"",""0"",""2550""
","
","
","""event"",""trial"",""time""
""fullscreenenter"",""0"",""2550""
","
","null","<p></p>","null","","","","","","","","","","","","","","","","","","","","","","","",""
"","do_recog","85","332447","0.0-52.0-0.0","""event"",""trial"",""time""
""fullscreenenter"",""0"",""2550""
","
","
","""event"",""trial"",""time""
""fullscreenenter"",""0"",""2550""
","
","1142.0999999940395","","","","","","","","55","","","","263","probe-194","","","","","1","[object Object]","30","0","0","","","",""
"","html-keyboard-response","86","333453","0.0-52.0-1.0","""event"",""trial"",""time""
""fullscreenenter"",""0"",""2550""
","
","
","""event"",""trial"",""time""
""fullscreenenter"",""0"",""2550""
","
","null","<p></p>","null","","","","","","","","","","","","","","","","","","","","","","","",""
"","do_trial","87","336438","0.0-53.0-0.0","""event"",""trial"",""time""
""fullscreenenter"",""0"",""2550""
","
","
","""event"",""trial"",""time""
""fullscreenenter"",""0"",""2550""
","
","438.90000000596046","","","","","","","","50","1,1,1","6","blank","264","null","0.11660376103570631","0.5306335543152789","0.5302148227063409","1","","","","","","","","",""
"","html-keyboard-response","88","337440","0.0-53.0-1.0","""event"",""trial"",""time""
""fullscreenenter"",""0"",""2550""
","
","
","""event"",""trial"",""time""
""fullscreenenter"",""0"",""2550""
","
","null","<p></p>","null","","","","","","","","","","","","","","","","","","","","","","","",""
"","do_recog","89","340179","0.0-54.0-0.0","""event"",""trial"",""time""
""fullscreenenter"",""0"",""2550""
","
","
","""event"",""trial"",""time""
""fullscreenenter"",""0"",""2550""
","
","1231.199999988079","","","","","","","","54","","","","265","probe-83","","","","","1","[object Object]","159","3","1","","","",""
"","html-keyboard-response","90","341184","0.0-54.0-1.0","""event"",""trial"",""time""
""fullscreenenter"",""0"",""2550""
","
","
","""event"",""trial"",""time""
""fullscreenenter"",""0"",""2550""
","
","null","<p></p>","null","","","","","","","","","","","","","","","","","","","","","","","",""
"","do_trial","91","344109","0.0-55.0-0.0","""event"",""trial"",""time""
""fullscreenenter"",""0"",""2550""
","
","
","""event"",""trial"",""time""
""fullscreenenter"",""0"",""2550""
","
","362.59999999403954","","","","","","","","51","0,0,1","6","blank","266","null","0.16387564193319765","0.5674567510912171","0.2932329310421178","1","","","","","","","","",""
"","html-keyboard-response","92","345114","0.0-55.0-1.0","""event"",""trial"",""time""
""fullscreenenter"",""0"",""2550""
","
","
","""event"",""trial"",""time""
""fullscreenenter"",""0"",""2550""
","
","null","<p></p>","null","","","","","","","","","","","","","","","","","","","","","","","",""
"","do_trial","93","347935","0.0-56.0-0.0","""event"",""trial"",""time""
""fullscreenenter"",""0"",""2550""
","
","
","""event"",""trial"",""time""
""fullscreenenter"",""0"",""2550""
","
","268.80000001192093","","","","","","","","51","0,1,0","6","blank","267","null","0.11192263817585543","0.6775600612505187","0.18311836213129504","0","","","","","","","","",""
"","html-keyboard-response","94","348942","0.0-56.0-1.0","""event"",""trial"",""time""
""fullscreenenter"",""0"",""2550""
","
","
","""event"",""trial"",""time""
""fullscreenenter"",""0"",""2550""
","
","null","<p></p>","null","","","","","","","","","","","","","","","","","","","","","","","",""
"","do_trial","95","351872","0.0-57.0-0.0","""event"",""trial"",""time""
""fullscreenenter"",""0"",""2550""
","
","
","""event"",""trial"",""time""
""fullscreenenter"",""0"",""2550""
","
","374.7999999821186","","","","","","","","51","0,1,0","6","blank","268","null","0.1523520001919193","0.645722607737261","0.19327313905238208","0","","","","","","","","",""
"","html-keyboard-response","96","352873","0.0-57.0-1.0","""event"",""trial"",""time""
""fullscreenenter"",""0"",""2550""
","
","
","""event"",""trial"",""time""
""fullscreenenter"",""0"",""2550""
","
","null","<p></p>","null","","","","","","","","","","","","","","","","","","","","","","","",""
"","break","97","388567","0.0-58.0-0.0","""event"",""trial"",""time""
""fullscreenenter"",""0"",""2550""
","
","
","""event"",""trial"",""time""
""fullscreenenter"",""0"",""2550""
","
","35691.40000000596","<div class='center'><p>Time to take a quick break! You have 2 minutes to rest, but you can move on sooner if you'd like.</p><p> Press the <b>space bar</b> to continue.</p></div>","32","","","","","","","","","","","","","","","","","","","","","","","",""
"","do_trial","98","392310","0.0-58.0-1.0","""event"",""trial"",""time""
""fullscreenenter"",""0"",""2550""
","
","
","""event"",""trial"",""time""
""fullscreenenter"",""0"",""2550""
","
","1174.4000000059605","","","","","","","","50","0,1,0","6","blank","269","null","0.09041771441389833","0.6347368927116489","0.23272681487300173","1","","","","","","","","",""
"","html-keyboard-response","99","393314","0.0-58.0-2.0","""event"",""trial"",""time""
""fullscreenenter"",""0"",""2550""
","
","
","""event"",""trial"",""time""
""fullscreenenter"",""0"",""2550""
","
","null","<p></p>","null","","","","","","","","","","","","","","","","","","","","","","","",""
"","do_trial","100","396375","0.0-59.0-0.0","""event"",""trial"",""time""
""fullscreenenter"",""0"",""2550""
","
","
","""event"",""trial"",""time""
""fullscreenenter"",""0"",""2550""
","
","506.90000000596046","","","","","","","","50","0,1,0","6","blank","270","null","0.10438014353508787","0.6586763271964332","0.2026170058088836","1","","","","","","","","",""
"","html-keyboard-response","101","397381","0.0-59.0-1.0","""event"",""trial"",""time""
""fullscreenenter"",""0"",""2550""
","
","
","""event"",""trial"",""time""
""fullscreenenter"",""0"",""2550""
","
","null","<p></p>","null","","","","","","","","","","","","","","","","","","","","","","","",""
"","do_trial","102","400390","0.0-60.0-0.0","""event"",""trial"",""time""
""fullscreenenter"",""0"",""2550""
","
","
","""event"",""trial"",""time""
""fullscreenenter"",""0"",""2550""
","
","449.80000001192093","","","","","","","","50","1,1,0","6","blank","271","null","0.2089301710941549","0.5201330748913904","0.1673433660734933","1","","","","","","","","",""
"","html-keyboard-response","103","401395","0.0-60.0-1.0","""event"",""trial"",""time""
""fullscreenenter"",""0"",""2550""
","
","
","""event"",""trial"",""time""
""fullscreenenter"",""0"",""2550""
","
","null","<p></p>","null","","","","","","","","","","","","","","","","","","","","","","","",""
"","do_recog","104","404737","0.0-61.0-0.0","""event"",""trial"",""time""
""fullscreenenter"",""0"",""2550""
","
","
","""event"",""trial"",""time""
""fullscreenenter"",""0"",""2550""
","
","1833.8999999761581","","","","","","","","55","","","","272","probe-167","","","","","1","[object Object]","116","2","0","","","",""
"","html-keyboard-response","105","405743","0.0-61.0-1.0","""event"",""trial"",""time""
""fullscreenenter"",""0"",""2550""
","
","
","""event"",""trial"",""time""
""fullscreenenter"",""0"",""2550""
","
","null","<p></p>","null","","","","","","","","","","","","","","","","","","","","","","","",""
"","do_trial","106","408755","0.0-62.0-0.0","""event"",""trial"",""time""
""fullscreenenter"",""0"",""2550""
","
","
","""event"",""trial"",""time""
""fullscreenenter"",""0"",""2550""
","
","452.40000000596046","","","","","","","","50","0,1,0","6","blank","273","null","0.19261370136568284","0.4747880742785726","0.34433781666030266","1","","","","","","","","",""
"","html-keyboard-response","107","409758","0.0-62.0-1.0","""event"",""trial"",""time""
""fullscreenenter"",""0"",""2550""
","
","
","""event"",""trial"",""time""
""fullscreenenter"",""0"",""2550""
","
","null","<p></p>","null","","","","","","","","","","","","","","","","","","","","","","","",""
"","do_trial","108","412716","0.0-63.0-0.0","""event"",""trial"",""time""
""fullscreenenter"",""0"",""2550""
","
","
","""event"",""trial"",""time""
""fullscreenenter"",""0"",""2550""
","
","396","","","","","","","","50","0,1,0","6","blank","274","null","0.07110688532623778","0.5697046294540273","0.39126351305525775","1","","","","","","","","",""
"","html-keyboard-response","109","413720","0.0-63.0-1.0","""event"",""trial"",""time""
""fullscreenenter"",""0"",""2550""
","
","
","""event"",""trial"",""time""
""fullscreenenter"",""0"",""2550""
","
","null","<p></p>","null","","","","","","","","","","","","","","","","","","","","","","","",""
"","do_trial","110","416677","0.0-64.0-0.0","""event"",""trial"",""time""
""fullscreenenter"",""0"",""2550""
","
","
","""event"",""trial"",""time""
""fullscreenenter"",""0"",""2550""
","
","393.09999999403954","","","","","","","","50","1,1,0","6","blank","275","null","0.14869100660390944","0.5986111635008823","0.3813465897887059","1","","","","","","","","",""
"","html-keyboard-response","111","417683","0.0-64.0-1.0","""event"",""trial"",""time""
""fullscreenenter"",""0"",""2550""
","
","
","""event"",""trial"",""time""
""fullscreenenter"",""0"",""2550""
","
","null","<p></p>","null","","","","","","","","","","","","","","","","","","","","","","","",""
"","do_trial","112","420587","0.0-65.0-0.0","""event"",""trial"",""time""
""fullscreenenter"",""0"",""2550""
","
","
","""event"",""trial"",""time""
""fullscreenenter"",""0"",""2550""
","
","344.59999999403954","","","","","","","","50","0,0,0","6","blank","276","null","0.14927663675968325","0.5425654517947949","0.42478500478987824","0","","","","","","","","",""
"","html-keyboard-response","113","421590","0.0-65.0-1.0","""event"",""trial"",""time""
""fullscreenenter"",""0"",""2550""
","
","
","""event"",""trial"",""time""
""fullscreenenter"",""0"",""2550""
","
","null","<p></p>","null","","","","","","","","","","","","","","","","","","","","","","","",""
"","do_trial","114","424596","0.0-66.0-0.0","""event"",""trial"",""time""
""fullscreenenter"",""0"",""2550""
","
","
","""event"",""trial"",""time""
""fullscreenenter"",""0"",""2550""
","
","448.2000000178814","","","","","","","","50","0,0,0","6","blank","277","null","0.08568054468004403","0.4521237582184793","0.38705392861124155","0","","","","","","","","",""
"","html-keyboard-response","115","425602","0.0-66.0-1.0","""event"",""trial"",""time""
""fullscreenenter"",""0"",""2550""
","
","
","""event"",""trial"",""time""
""fullscreenenter"",""0"",""2550""
","
","null","<p></p>","null","","","","","","","","","","","","","","","","","","","","","","","",""
"","do_recog","116","428793","0.0-67.0-0.0","""event"",""trial"",""time""
""fullscreenenter"",""0"",""2550""
","
","
","""event"",""trial"",""time""
""fullscreenenter"",""0"",""2550""
","
","1679.2999999821186","","","","","","","","54","","","","278","probe-110","","","","","1","[object Object]","153","3","1","","","",""
"","html-keyboard-response","117","429795","0.0-67.0-1.0","""event"",""trial"",""time""
""fullscreenenter"",""0"",""2550""
","
","
","""event"",""trial"",""time""
""fullscreenenter"",""0"",""2550""
","
","null","<p></p>","null","","","","","","","","","","","","","","","","","","","","","","","",""
"","do_trial","118","432875","0.0-68.0-0.0","""event"",""trial"",""time""
""fullscreenenter"",""0"",""2550""
","
","
","""event"",""trial"",""time""
""fullscreenenter"",""0"",""2550""
","
","521.5","","","","","","","","49","0,1,1","6","blank","279","null","0.06334559252676239","0.5708731863549777","0.4008337678599488","0","","","","","","","","",""
"","html-keyboard-response","119","433878","0.0-68.0-1.0","""event"",""trial"",""time""
""fullscreenenter"",""0"",""2550""
","
","
","""event"",""trial"",""time""
""fullscreenenter"",""0"",""2550""
","
","null","<p></p>","null","","","","","","","","","","","","","","","","","","","","","","","",""
"","do_trial","120","436923","0.0-69.0-0.0","""event"",""trial"",""time""
""fullscreenenter"",""0"",""2550""
","
","
","""event"",""trial"",""time""
""fullscreenenter"",""0"",""2550""
","
","485.2999999821186","","","","","","","","50","0,1,1","6","blank","280","null","0.1317055971257354","0.6511603044582865","0.6347131068923442","1","","","","","","","","",""
"","html-keyboard-response","121","437924","0.0-69.0-1.0","""event"",""trial"",""time""
""fullscreenenter"",""0"",""2550""
","
","
","""event"",""trial"",""time""
""fullscreenenter"",""0"",""2550""
","
","null","<p></p>","null","","","","","","","","","","","","","","","","","","","","","","","",""
"","do_recog","122","441825","0.0-70.0-0.0","""event"",""trial"",""time""
""fullscreenenter"",""0"",""2550""
","
","
","""event"",""trial"",""time""
""fullscreenenter"",""0"",""2550""
","
","2395.699999988079","","","","","","","","54","","","","281","probe-46","","","","","1","[object Object]","70","1","1","","","",""
"","html-keyboard-response","123","442831","0.0-70.0-1.0","""event"",""trial"",""time""
""fullscreenenter"",""0"",""2550""
","
","
","""event"",""trial"",""time""
""fullscreenenter"",""0"",""2550""
","
","null","<p></p>","null","","","","","","","","","","","","","","","","","","","","","","","",""
"","do_trial","124","445808","0.0-71.0-0.0","""event"",""trial"",""time""
""fullscreenenter"",""0"",""2550""
","
","
","""event"",""trial"",""time""
""fullscreenenter"",""0"",""2550""
","
","422.89999997615814","","","","","","","","50","0,0,1","6","blank","282","null","0.1513462103439725","0.599934169155897","0.6342582428199687","0","","","","","","","","",""
"","html-keyboard-response","125","446810","0.0-71.0-1.0","""event"",""trial"",""time""
""fullscreenenter"",""0"",""2550""
","
","
","""event"",""trial"",""time""
""fullscreenenter"",""0"",""2550""
","
","null","<p></p>","null","","","","","","","","","","","","","","","","","","","","","","","",""
"","do_trial","126","449752","0.0-72.0-0.0","""event"",""trial"",""time""
""fullscreenenter"",""0"",""2550""
","
","
","""event"",""trial"",""time""
""fullscreenenter"",""0"",""2550""
","
","389.2000000178814","","","","","","","","50","0,0,0","6","blank","283","null","0.2444227912735714","0.6997791626174394","0.5380785571716001","0","","","","","","","","",""
"","html-keyboard-response","127","450756","0.0-72.0-1.0","""event"",""trial"",""time""
""fullscreenenter"",""0"",""2550""
","
","
","""event"",""trial"",""time""
""fullscreenenter"",""0"",""2550""
","
","null","<p></p>","null","","","","","","","","","","","","","","","","","","","","","","","",""
"","do_trial","128","453686","0.0-73.0-0.0","""event"",""trial"",""time""
""fullscreenenter"",""0"",""2550""
","
","
","""event"",""trial"",""time""
""fullscreenenter"",""0"",""2550""
","
","375.09999999403954","","","","","","","","50","0,1,1","6","blank","284","null","0.16056967805128103","0.7357625412453881","0.41431954578411456","1","","","","","","","","",""
"","html-keyboard-response","129","454688","0.0-73.0-1.0","""event"",""trial"",""time""
""fullscreenenter"",""0"",""2550""
","
","
","""event"",""trial"",""time""
""fullscreenenter"",""0"",""2550""
","
","null","<p></p>","null","","","","","","","","","","","","","","","","","","","","","","","",""
"","do_trial","130","457628","0.0-74.0-0.0","""event"",""trial"",""time""
""fullscreenenter"",""0"",""2550""
","
","
","""event"",""trial"",""time""
""fullscreenenter"",""0"",""2550""
","
","383.09999999403954","","","","","","","","50","0,1,1","6","blank","285","null","0.11485681427507587","0.7203218399216959","0.463900055188633","1","","","","","","","","",""
"","html-keyboard-response","131","458631","0.0-74.0-1.0","""event"",""trial"",""time""
""fullscreenenter"",""0"",""2550""
","
","
","""event"",""trial"",""time""
""fullscreenenter"",""0"",""2550""
","
","null","<p></p>","null","","","","","","","","","","","","","","","","","","","","","","","",""
"","do_recog","132","461865","0.0-75.0-0.0","""event"",""trial"",""time""
""fullscreenenter"",""0"",""2550""
","
","
","""event"",""trial"",""time""
""fullscreenenter"",""0"",""2550""
","
","1725.800000011921","","","","","","","","54","","","","286","probe-157","","","","","1","[object Object]","113","2","1","","","",""
"","html-keyboard-response","133","462868","0.0-75.0-1.0","""event"",""trial"",""time""
""fullscreenenter"",""0"",""2550""
","
","
","""event"",""trial"",""time""
""fullscreenenter"",""0"",""2550""
","
","null","<p></p>","null","","","","","","","","","","","","","","","","","","","","","","","",""
"","do_trial","134","465905","0.0-76.0-0.0","""event"",""trial"",""time""
""fullscreenenter"",""0"",""2550""
","
","
","""event"",""trial"",""time""
""fullscreenenter"",""0"",""2550""
","
","477.19999998807907","","","","","","","","50","0,1,0","6","blank","287","null","0.11183122840279952","0.6588784267060682","0.3277622107031117","1","","","","","","","","",""
"","html-keyboard-response","135","466907","0.0-76.0-1.0","""event"",""trial"",""time""
""fullscreenenter"",""0"",""2550""
","
","
","""event"",""trial"",""time""
""fullscreenenter"",""0"",""2550""
","
","null","<p></p>","null","","","","","","","","","","","","","","","","","","","","","","","",""
"","do_recog","136","469812","0.0-77.0-0.0","""event"",""trial"",""time""
""fullscreenenter"",""0"",""2550""
","
","
","""event"",""trial"",""time""
""fullscreenenter"",""0"",""2550""
","
","1392.4000000059605","","","","","","","","54","","","","288","probe-125","","","","","1","[object Object]","77","1","1","","","",""
"","html-keyboard-response","137","470815","0.0-77.0-1.0","""event"",""trial"",""time""
""fullscreenenter"",""0"",""2550""
","
","
","""event"",""trial"",""time""
""fullscreenenter"",""0"",""2550""
","
","null","<p></p>","null","","","","","","","","","","","","","","","","","","","","","","","",""
"","do_trial","138","473869","0.0-78.0-0.0","""event"",""trial"",""time""
""fullscreenenter"",""0"",""2550""
","
","
","""event"",""trial"",""time""
""fullscreenenter"",""0"",""2550""
","
","500.40000000596046","","","","","","","","50","0,1,1","6","blank","289","null","0.11572109975884792","0.6911593186476201","0.37009525516548974","1","","","","","","","","",""
"","html-keyboard-response","139","474873","0.0-78.0-1.0","""event"",""trial"",""time""
""fullscreenenter"",""0"",""2550""
","
","
","""event"",""trial"",""time""
""fullscreenenter"",""0"",""2550""
","
","null","<p></p>","null","","","","","","","","","","","","","","","","","","","","","","","",""
"","do_trial","140","477990","0.0-79.0-0.0","""event"",""trial"",""time""
""fullscreenenter"",""0"",""2550""
","
","
","""event"",""trial"",""time""
""fullscreenenter"",""0"",""2550""
","
","559.6999999880791","","","","","","","","50","0,0,0","6","blank","290","null","0.21649929882714097","0.5418526607911793","0.4188586637390006","0","","","","","","","","",""
"","html-keyboard-response","141","478995","0.0-79.0-1.0","""event"",""trial"",""time""
""fullscreenenter"",""0"",""2550""
","
","
","""event"",""trial"",""time""
""fullscreenenter"",""0"",""2550""
","
","null","<p></p>","null","","","","","","","","","","","","","","","","","","","","","","","",""
"","do_recog","142","481892","0.0-80.0-0.0","""event"",""trial"",""time""
""fullscreenenter"",""0"",""2550""
","
","
","""event"",""trial"",""time""
""fullscreenenter"",""0"",""2550""
","
","1388","","","","","","","","55","","","","291","probe-35","","","","","1","[object Object]","117","2","0","","","",""
"","html-keyboard-response","143","482896","0.0-80.0-1.0","""event"",""trial"",""time""
""fullscreenenter"",""0"",""2550""
","
","
","""event"",""trial"",""time""
""fullscreenenter"",""0"",""2550""
","
","null","<p></p>","null","","","","","","","","","","","","","","","","","","","","","","","",""
"","do_trial","144","485842","0.0-81.0-0.0","""event"",""trial"",""time""
""fullscreenenter"",""0"",""2550""
","
","
","""event"",""trial"",""time""
""fullscreenenter"",""0"",""2550""
","
","388","","","","","","","","50","1,0,0","6","blank","292","null","0.1340225443987625","0.5246668198527763","0.3929615507135143","0","","","","","","","","",""
"","html-keyboard-response","145","486849","0.0-81.0-1.0","""event"",""trial"",""time""
""fullscreenenter"",""0"",""2550""
","
","
","""event"",""trial"",""time""
""fullscreenenter"",""0"",""2550""
","
","null","<p></p>","null","","","","","","","","","","","","","","","","","","","","","","","",""
"","do_trial","146","490250","0.0-82.0-0.0","""event"",""trial"",""time""
""fullscreenenter"",""0"",""2550""
","
","
","""event"",""trial"",""time""
""fullscreenenter"",""0"",""2550""
","
","845.6999999880791","","","","","","","","50","1,1,0","6","blank","293","null","0.20633536345321882","0.6965654026311576","0.46113727932388743","1","","","","","","","","",""
"","html-keyboard-response","147","491257","0.0-82.0-1.0","""event"",""trial"",""time""
""fullscreenenter"",""0"",""2550""
","
","
","""event"",""trial"",""time""
""fullscreenenter"",""0"",""2550""
","
","null","<p></p>","null","","","","","","","","","","","","","","","","","","","","","","","",""
"","do_trial","148","494391","0.0-83.0-0.0","""event"",""trial"",""time""
""fullscreenenter"",""0"",""2550""
","
","
","""event"",""trial"",""time""
""fullscreenenter"",""0"",""2550""
","
","571","","","","","","","","50","0,1,1","6","blank","294","null","0.2906149394801068","0.7517604359018438","0.45773571074608327","1","","","","","","","","",""
"","html-keyboard-response","149","495396","0.0-83.0-1.0","""event"",""trial"",""time""
""fullscreenenter"",""0"",""2550""
","
","
","""event"",""trial"",""time""
""fullscreenenter"",""0"",""2550""
","
","null","<p></p>","null","","","","","","","","","","","","","","","","","","","","","","","",""
"","do_trial","150","498395","0.0-84.0-0.0","""event"",""trial"",""time""
""fullscreenenter"",""0"",""2550""
","
","
","""event"",""trial"",""time""
""fullscreenenter"",""0"",""2550""
","
","437.7000000178814","","","","","","","","50","0,1,1","6","blank","295","null","0.3070827110025522","0.8717891379162974","0.3037506420367017","1","","","","","","","","",""
"","html-keyboard-response","151","499401","0.0-84.0-1.0","""event"",""trial"",""time""
""fullscreenenter"",""0"",""2550""
","
","
","""event"",""trial"",""time""
""fullscreenenter"",""0"",""2550""
","
","null","<p></p>","null","","","","","","","","","","","","","","","","","","","","","","","",""
"","do_trial","152","502830","0.0-85.0-0.0","""event"",""trial"",""time""
""fullscreenenter"",""0"",""2550""
","
","
","""event"",""trial"",""time""
""fullscreenenter"",""0"",""2550""
","
","873.2000000178814","","","","","","","","50","0,1,1","6","blank","296","null","0.3094112348264297","0.89150531516287","0.3351903475022369","1","","","","","","","","",""
"","html-keyboard-response","153","503837","0.0-85.0-1.0","""event"",""trial"",""time""
""fullscreenenter"",""0"",""2550""
","
","
","""event"",""trial"",""time""
""fullscreenenter"",""0"",""2550""
","
","null","<p></p>","null","","","","","","","","","","","","","","","","","","","","","","","",""
"","do_trial","154","506854","0.0-86.0-0.0","""event"",""trial"",""time""
""fullscreenenter"",""0"",""2550""
","
","
","""event"",""trial"",""time""
""fullscreenenter"",""0"",""2550""
","
","462.5","","","","","","","","50","1,0,0","6","blank","297","null","0.3268763176377955","0.5667376701257242","0.08933970852342099","0","","","","","","","","",""
"","html-keyboard-response","155","507860","0.0-86.0-1.0","""event"",""trial"",""time""
""fullscreenenter"",""0"",""2550""
","
","
","""event"",""trial"",""time""
""fullscreenenter"",""0"",""2550""
","
","null","<p></p>","null","","","","","","","","","","","","","","","","","","","","","","","",""
"","do_recog","156","511433","0.0-87.0-0.0","""event"",""trial"",""time""
""fullscreenenter"",""0"",""2550""
","
","
","""event"",""trial"",""time""
""fullscreenenter"",""0"",""2550""
","
","2062.9000000059605","","","","","","","","53","","","","298","probe-64","","","","","1","[object Object]","197","4","1","","","",""
"","html-keyboard-response","157","512437","0.0-87.0-1.0","""event"",""trial"",""time""
""fullscreenenter"",""0"",""2550""
","
","
","""event"",""trial"",""time""
""fullscreenenter"",""0"",""2550""
","
","null","<p></p>","null","","","","","","","","","","","","","","","","","","","","","","","",""
"","do_trial","158","515521","0.0-88.0-0.0","""event"",""trial"",""time""
""fullscreenenter"",""0"",""2550""
","
","
","""event"",""trial"",""time""
""fullscreenenter"",""0"",""2550""
","
","526.8000000119209","","","","","","","","50","1,0,0","6","blank","299","null","0.4281609777289656","0.4298551233229894","0.13564467203402208","0","","","","","","","","",""
"","html-keyboard-response","159","516528","0.0-88.0-1.0","""event"",""trial"",""time""
""fullscreenenter"",""0"",""2550""
","
","
","""event"",""trial"",""time""
""fullscreenenter"",""0"",""2550""
","
","null","<p></p>","null","","","","","","","","","","","","","","","","","","","","","","","",""
"","do_trial","160","519661","0.0-89.0-0.0","""event"",""trial"",""time""
""fullscreenenter"",""0"",""2550""
","
","
","""event"",""trial"",""time""
""fullscreenenter"",""0"",""2550""
","
","572.0999999940395","","","","","","","","50","0,1,0","6","blank","300","null","0.41122176623423673","0.47006370547453363","0.1214019049026245","1","","","","","","","","",""
"","html-keyboard-response","161","520665","0.0-89.0-1.0","""event"",""trial"",""time""
""fullscreenenter"",""0"",""2550""
","
","
","""event"",""trial"",""time""
""fullscreenenter"",""0"",""2550""
","
","null","<p></p>","null","","","","","","","","","","","","","","","","","","","","","","","",""
"","do_recog","162","523904","0.0-90.0-0.0","""event"",""trial"",""time""
""fullscreenenter"",""0"",""2550""
","
","
","""event"",""trial"",""time""
""fullscreenenter"",""0"",""2550""
","
","1730","","","","","","","","55","","","","301","probe-235","","","","","0","[object Object]","null","null","1","","","",""
"","html-keyboard-response","163","524907","0.0-90.0-1.0","""event"",""trial"",""time""
""fullscreenenter"",""0"",""2550""
","
","
","""event"",""trial"",""time""
""fullscreenenter"",""0"",""2550""
","
","null","<p></p>","null","","","","","","","","","","","","","","","","","","","","","","","",""
"","do_trial","164","528189","0.0-91.0-0.0","""event"",""trial"",""time""
""fullscreenenter"",""0"",""2550""
","
","
","""event"",""trial"",""time""
""fullscreenenter"",""0"",""2550""
","
","725.1000000238419","","","","","","","","50","0,1,0","6","blank","302","null","0.42479617825985927","0.3162539998010357","0.213546130714278","1","","","","","","","","",""
"","html-keyboard-response","165","529196","0.0-91.0-1.0","""event"",""trial"",""time""
""fullscreenenter"",""0"",""2550""
","
","
","""event"",""trial"",""time""
""fullscreenenter"",""0"",""2550""
","
","null","<p></p>","null","","","","","","","","","","","","","","","","","","","","","","","",""
"","do_trial","166","532170","0.0-92.0-0.0","""event"",""trial"",""time""
""fullscreenenter"",""0"",""2550""
","
","
","""event"",""trial"",""time""
""fullscreenenter"",""0"",""2550""
","
","420.09999999403954","","","","","","","","50","0,0,0","6","blank","303","null","0.4995884220852312","0.20264664468080898","0.1943176832263439","0","","","","","","","","",""
"","html-keyboard-response","167","533173","0.0-92.0-1.0","""event"",""trial"",""time""
""fullscreenenter"",""0"",""2550""
","
","
","""event"",""trial"",""time""
""fullscreenenter"",""0"",""2550""
","
","null","<p></p>","null","","","","","","","","","","","","","","","","","","","","","","","",""
"","do_trial","168","536805","0.0-93.0-0.0","""event"",""trial"",""time""
""fullscreenenter"",""0"",""2550""
","
","
","""event"",""trial"",""time""
""fullscreenenter"",""0"",""2550""
","
","1079.5999999940395","","","","","","","","50","1,1,0","6","blank","304","null","0.5827436397401976","0.2790277638433989","0.2182483756848348","1","","","","","","","","",""
"","html-keyboard-response","169","537811","0.0-93.0-1.0","""event"",""trial"",""time""
""fullscreenenter"",""0"",""2550""
","
","
","""event"",""trial"",""time""
""fullscreenenter"",""0"",""2550""
","
","null","<p></p>","null","","","","","","","","","","","","","","","","","","","","","","","",""
"","do_trial","170","541239","0.0-94.0-0.0","""event"",""trial"",""time""
""fullscreenenter"",""0"",""2550""
","
","
","""event"",""trial"",""time""
""fullscreenenter"",""0"",""2550""
","
","873","","","","","","","","50","1,0,0","6","blank","305","null","0.6218936298833818","0.3484717211736832","0.2499509431330946","0","","","","","","","","",""
"","html-keyboard-response","171","542245","0.0-94.0-1.0","""event"",""trial"",""time""
""fullscreenenter"",""0"",""2550""
","
","
","""event"",""trial"",""time""
""fullscreenenter"",""0"",""2550""
","
","null","<p></p>","null","","","","","","","","","","","","","","","","","","","","","","","",""
"","do_trial","172","545084","0.0-95.0-0.0","""event"",""trial"",""time""
""fullscreenenter"",""0"",""2550""
","
","
","""event"",""trial"",""time""
""fullscreenenter"",""0"",""2550""
","
","285.09999999403954","","","","","","","","50","1,0,1","6","blank","306","null","0.713719410339487","0.21320693698866755","0.3111775329623815","0","","","","","","","","",""
"","html-keyboard-response","173","546089","0.0-95.0-1.0","""event"",""trial"",""time""
""fullscreenenter"",""0"",""2550""
","
","
","""event"",""trial"",""time""
""fullscreenenter"",""0"",""2550""
","
","null","<p></p>","null","","","","","","","","","","","","","","","","","","","","","","","",""
"","do_trial","174","549089","0.0-96.0-0.0","""event"",""trial"",""time""
""fullscreenenter"",""0"",""2550""
","
","
","""event"",""trial"",""time""
""fullscreenenter"",""0"",""2550""
","
","444.30000001192093","","","","","","","","50","1,1,1","6","blank","307","null","0.5345061134861356","0.06837467088941786","0.2613662589880166","1","","","","","","","","",""
"","html-keyboard-response","175","550095","0.0-96.0-1.0","""event"",""trial"",""time""
""fullscreenenter"",""0"",""2550""
","
","
","""event"",""trial"",""time""
""fullscreenenter"",""0"",""2550""
","
","null","<p></p>","null","","","","","","","","","","","","","","","","","","","","","","","",""
"","do_recog","176","553580","0.0-97.0-0.0","""event"",""trial"",""time""
""fullscreenenter"",""0"",""2550""
","
","
","""event"",""trial"",""time""
""fullscreenenter"",""0"",""2550""
","
","1974.699999988079","","","","","","","","54","","","","308","probe-140","","","","","1","[object Object]","114","2","1","","","",""
"","html-keyboard-response","177","554583","0.0-97.0-1.0","""event"",""trial"",""time""
""fullscreenenter"",""0"",""2550""
","
","
","""event"",""trial"",""time""
""fullscreenenter"",""0"",""2550""
","
","null","<p></p>","null","","","","","","","","","","","","","","","","","","","","","","","",""
"","break","178","585138","0.0-98.0-0.0","""event"",""trial"",""time""
""fullscreenenter"",""0"",""2550""
","
","
","""event"",""trial"",""time""
""fullscreenenter"",""0"",""2550""
","
","30534.59999999404","<div class='center'><p>Time to take a quick break! You have 2 minutes to rest, but you can move on sooner if you'd like.</p><p> Press the <b>space bar</b> to continue.</p></div>","32","","","","","","","","","","","","","","","","","","","","","","","",""
"","do_trial","179","590334","0.0-98.0-1.0","""event"",""trial"",""time""
""fullscreenenter"",""0"",""2550""
","
","
","""event"",""trial"",""time""
""fullscreenenter"",""0"",""2550""
","
","2624.5","","","","","","","","50","0,0,0","6","blank","309","null","0.6120135013901289","0.16397125457521278","0.28215686353103236","0","","","","","","","","",""
"","html-keyboard-response","180","591341","0.0-98.0-2.0","""event"",""trial"",""time""
""fullscreenenter"",""0"",""2550""
","
","
","""event"",""trial"",""time""
""fullscreenenter"",""0"",""2550""
","
","null","<p></p>","null","","","","","","","","","","","","","","","","","","","","","","","",""
"","do_recog","181","594578","0.0-99.0-0.0","""event"",""trial"",""time""
""fullscreenenter"",""0"",""2550""
","
","
","""event"",""trial"",""time""
""fullscreenenter"",""0"",""2550""
","
","1726.7999999821186","","","","","","","","55","","","","310","probe-207","","","","","1","[object Object]","112","2","0","","","",""
"","html-keyboard-response","182","595585","0.0-99.0-1.0","""event"",""trial"",""time""
""fullscreenenter"",""0"",""2550""
","
","
","""event"",""trial"",""time""
""fullscreenenter"",""0"",""2550""
","
","null","<p></p>","null","","","","","","","","","","","","","","","","","","","","","","","",""
"","do_trial","183","599093","0.0-100.0-0.0","""event"",""trial"",""time""
""fullscreenenter"",""0"",""2550""
","
","
","""event"",""trial"",""time""
""fullscreenenter"",""0"",""2550""
","
","948.8999999761581","","","","","","","","50","1,0,1","6","blank","311","null","0.719453981248293","0.10086819124365598","0.30336791486964765","0","","","","","","","","",""
"","html-keyboard-response","184","600095","0.0-100.0-1.0","""event"",""trial"",""time""
""fullscreenenter"",""0"",""2550""
","
","
","""event"",""trial"",""time""
""fullscreenenter"",""0"",""2550""
","
","null","<p></p>","null","","","","","","","","","","","","","","","","","","","","","","","",""
"","do_recog","185","603239","0.0-101.0-0.0","""event"",""trial"",""time""
""fullscreenenter"",""0"",""2550""
","
","
","""event"",""trial"",""time""
""fullscreenenter"",""0"",""2550""
","
","1636.4000000059605","","","","","","","","54","","","","312","probe-213","","","","","1","[object Object]","74","1","1","","","",""
"","html-keyboard-response","186","604241","0.0-101.0-1.0","""event"",""trial"",""time""
""fullscreenenter"",""0"",""2550""
","
","
","""event"",""trial"",""time""
""fullscreenenter"",""0"",""2550""
","
","null","<p></p>","null","","","","","","","","","","","","","","","","","","","","","","","",""
"","do_trial","187","607884","0.0-102.0-0.0","""event"",""trial"",""time""
""fullscreenenter"",""0"",""2550""
","
","
","""event"",""trial"",""time""
""fullscreenenter"",""0"",""2550""
","
","1070.5999999940395","","","","","","","","50","0,0,0","6","blank","313","null","0.645890055416075","0.22738988750064312","0.2836952165817143","0","","","","","","","","",""
"","html-keyboard-response","188","608885","0.0-102.0-1.0","""event"",""trial"",""time""
""fullscreenenter"",""0"",""2550""
","
","
","""event"",""trial"",""time""
""fullscreenenter"",""0"",""2550""
","
","null","<p></p>","null","","","","","","","","","","","","","","","","","","","","","","","",""
"","do_trial","189","611846","0.0-103.0-0.0","""event"",""trial"",""time""
""fullscreenenter"",""0"",""2550""
","
","
","""event"",""trial"",""time""
""fullscreenenter"",""0"",""2550""
","
","404.10000002384186","","","","","","","","50","0,0,1","6","blank","314","null","0.5657899924702686","0.19237382265473635","0.33986332665828334","0","","","","","","","","",""
"","html-keyboard-response","190","612852","0.0-103.0-1.0","""event"",""trial"",""time""
""fullscreenenter"",""0"",""2550""
","
","
","""event"",""trial"",""time""
""fullscreenenter"",""0"",""2550""
","
","null","<p></p>","null","","","","","","","","","","","","","","","","","","","","","","","",""
"","do_trial","191","616324","0.0-104.0-0.0","""event"",""trial"",""time""
""fullscreenenter"",""0"",""2550""
","
","
","""event"",""trial"",""time""
""fullscreenenter"",""0"",""2550""
","
","916","","","","","","","","50","1,0,1","6","blank","315","null","0.5628101624883207","0.14069539959522603","0.2767077988646273","0","","","","","","","","",""
"","html-keyboard-response","192","617329","0.0-104.0-1.0","""event"",""trial"",""time""
""fullscreenenter"",""0"",""2550""
","
","
","""event"",""trial"",""time""
""fullscreenenter"",""0"",""2550""
","
","null","<p></p>","null","","","","","","","","","","","","","","","","","","","","","","","",""
"","do_trial","193","620262","0.0-105.0-0.0","""event"",""trial"",""time""
""fullscreenenter"",""0"",""2550""
","
","
","""event"",""trial"",""time""
""fullscreenenter"",""0"",""2550""
","
","372.30000001192093","","","","","","","","50","1,0,1","6","blank","316","null","0.6503935872310116","0.18291487563929695","0.3677554051154023","0","","","","","","","","",""
"","html-keyboard-response","194","621266","0.0-105.0-1.0","""event"",""trial"",""time""
""fullscreenenter"",""0"",""2550""
","
","
","""event"",""trial"",""time""
""fullscreenenter"",""0"",""2550""
","
","null","<p></p>","null","","","","","","","","","","","","","","","","","","","","","","","",""
"","do_trial","195","624563","0.0-106.0-0.0","""event"",""trial"",""time""
""fullscreenenter"",""0"",""2550""
","
","
","""event"",""trial"",""time""
""fullscreenenter"",""0"",""2550""
","
","740.1999999880791","","","","","","","","51","0,1,1","6","blank","317","null","0.6884690301148918","0.09817640871162675","0.4689528767528705","1","","","","","","","","",""
"","html-keyboard-response","196","625569","0.0-106.0-1.0","""event"",""trial"",""time""
""fullscreenenter"",""0"",""2550""
","
","
","""event"",""trial"",""time""
""fullscreenenter"",""0"",""2550""
","
","null","<p></p>","null","","","","","","","","","","","","","","","","","","","","","","","",""
"","do_recog","197","628911","0.0-107.0-0.0","""event"",""trial"",""time""
""fullscreenenter"",""0"",""2550""
","
","
","""event"",""trial"",""time""
""fullscreenenter"",""0"",""2550""
","
","1833.5999999940395","","","","","","","","54","","","","318","probe-245","","","","","0","[object Object]","null","null","0","","","",""
"","html-keyboard-response","198","629914","0.0-107.0-1.0","""event"",""trial"",""time""
""fullscreenenter"",""0"",""2550""
","
","
","""event"",""trial"",""time""
""fullscreenenter"",""0"",""2550""
","
","null","<p></p>","null","","","","","","","","","","","","","","","","","","","","","","","",""
"","do_trial","199","633443","0.0-108.0-0.0","""event"",""trial"",""time""
""fullscreenenter"",""0"",""2550""
","
","
","""event"",""trial"",""time""
""fullscreenenter"",""0"",""2550""
","
","974.5","","","","","","","","50","0,0,0","6","blank","319","null","0.6463395506709934","0.05234423749936492","0.5138673026657385","0","","","","","","","","",""
"","html-keyboard-response","200","634447","0.0-108.0-1.0","""event"",""trial"",""time""
""fullscreenenter"",""0"",""2550""
","
","
","""event"",""trial"",""time""
""fullscreenenter"",""0"",""2550""
","
","null","<p></p>","null","","","","","","","","","","","","","","","","","","","","","","","",""
"","do_recog","201","638001","0.0-109.0-0.0","""event"",""trial"",""time""
""fullscreenenter"",""0"",""2550""
","
","
","""event"",""trial"",""time""
""fullscreenenter"",""0"",""2550""
","
","2041.7000000178814","","","","","","","","54","","","","320","probe-184","","","","","1","[object Object]","151","3","1","","","",""
"","html-keyboard-response","202","639004","0.0-109.0-1.0","""event"",""trial"",""time""
""fullscreenenter"",""0"",""2550""
","
","
","""event"",""trial"",""time""
""fullscreenenter"",""0"",""2550""
","
","null","<p></p>","null","","","","","","","","","","","","","","","","","","","","","","","",""
"","do_trial","203","642219","0.0-110.0-0.0","""event"",""trial"",""time""
""fullscreenenter"",""0"",""2550""
","
","
","""event"",""trial"",""time""
""fullscreenenter"",""0"",""2550""
","
","659","","","","","","","","49","0,0,1","6","blank","321","null","0.5770265983544276","0.13042675564463704","0.49888964373999267","0","","","","","","","","",""
"","html-keyboard-response","204","643225","0.0-110.0-1.0","""event"",""trial"",""time""
""fullscreenenter"",""0"",""2550""
","
","
","""event"",""trial"",""time""
""fullscreenenter"",""0"",""2550""
","
","null","<p></p>","null","","","","","","","","","","","","","","","","","","","","","","","",""
"","do_trial","205","646291","0.0-111.0-0.0","""event"",""trial"",""time""
""fullscreenenter"",""0"",""2550""
","
","
","""event"",""trial"",""time""
""fullscreenenter"",""0"",""2550""
","
","510.5","","","","","","","","50","0,0,1","6","blank","322","null","0.7490034852680307","0.0697680738408009","0.3938083027831141","0","","","","","","","","",""
"","html-keyboard-response","206","647298","0.0-111.0-1.0","""event"",""trial"",""time""
""fullscreenenter"",""0"",""2550""
","
","
","""event"",""trial"",""time""
""fullscreenenter"",""0"",""2550""
","
","null","<p></p>","null","","","","","","","","","","","","","","","","","","","","","","","",""
"","do_trial","207","650704","0.0-112.0-0.0","""event"",""trial"",""time""
""fullscreenenter"",""0"",""2550""
","
","
","""event"",""trial"",""time""
""fullscreenenter"",""0"",""2550""
","
","850.1999999880791","","","","","","","","51","1,1,0","6","blank","323","null","0.6277215827272757","0.16243384093451455","0.30459479306749276","0","","","","","","","","",""
"","html-keyboard-response","208","651708","0.0-112.0-1.0","""event"",""trial"",""time""
""fullscreenenter"",""0"",""2550""
","
","
","""event"",""trial"",""time""
""fullscreenenter"",""0"",""2550""
","
","null","<p></p>","null","","","","","","","","","","","","","","","","","","","","","","","",""
"","do_trial","209","654797","0.0-113.0-0.0","""event"",""trial"",""time""
""fullscreenenter"",""0"",""2550""
","
","
","""event"",""trial"",""time""
""fullscreenenter"",""0"",""2550""
","
","535.5999999940395","","","","","","","","51","1,0,0","6","blank","324","null","0.6601091890532306","0.1797946098444715","0.21578323936739874","0","","","","","","","","",""
"","html-keyboard-response","210","655802","0.0-113.0-1.0","""event"",""trial"",""time""
""fullscreenenter"",""0"",""2550""
","
","
","""event"",""trial"",""time""
""fullscreenenter"",""0"",""2550""
","
","null","<p></p>","null","","","","","","","","","","","","","","","","","","","","","","","",""
"","do_trial","211","659025","0.0-114.0-0.0","""event"",""trial"",""time""
""fullscreenenter"",""0"",""2550""
","
","
","""event"",""trial"",""time""
""fullscreenenter"",""0"",""2550""
","
","669.3999999761581","","","","","","","","51","1,0,0","6","blank","325","null","0.62561172855875","0.1280573036328016","0.3348500446096738","0","","","","","","","","",""
"","html-keyboard-response","212","660032","0.0-114.0-1.0","""event"",""trial"",""time""
""fullscreenenter"",""0"",""2550""
","
","
","""event"",""trial"",""time""
""fullscreenenter"",""0"",""2550""
","
","null","<p></p>","null","","","","","","","","","","","","","","","","","","","","","","","",""
"","do_recog","213","663634","0.0-115.0-0.0","""event"",""trial"",""time""
""fullscreenenter"",""0"",""2550""
","
","
","""event"",""trial"",""time""
""fullscreenenter"",""0"",""2550""
","
","2090.9000000059605","","","","","","","","54","","","","326","probe-72","","","","","1","[object Object]","75","1","1","","","",""
"","html-keyboard-response","214","664636","0.0-115.0-1.0","""event"",""trial"",""time""
""fullscreenenter"",""0"",""2550""
","
","
","""event"",""trial"",""time""
""fullscreenenter"",""0"",""2550""
","
","null","<p></p>","null","","","","","","","","","","","","","","","","","","","","","","","",""
"","do_trial","215","668278","0.0-116.0-0.0","""event"",""trial"",""time""
""fullscreenenter"",""0"",""2550""
","
","
","""event"",""trial"",""time""
""fullscreenenter"",""0"",""2550""
","
","1087.5999999940395","","","","","","","","49","0,0,0","6","blank","327","null","0.5949597142225221","0.11118432459630545","0.3682405489581798","0","","","","","","","","",""
"","html-keyboard-response","216","669284","0.0-116.0-1.0","""event"",""trial"",""time""
""fullscreenenter"",""0"",""2550""
","
","
","""event"",""trial"",""time""
""fullscreenenter"",""0"",""2550""
","
","null","<p></p>","null","","","","","","","","","","","","","","","","","","","","","","","",""
"","do_recog","217","672358","0.0-117.0-0.0","""event"",""trial"",""time""
""fullscreenenter"",""0"",""2550""
","
","
","""event"",""trial"",""time""
""fullscreenenter"",""0"",""2550""
","
","1564.5999999940395","","","","","","","","55","","","","328","probe-233","","","","","0","[object Object]","null","null","1","","","",""
"","html-keyboard-response","218","673362","0.0-117.0-1.0","""event"",""trial"",""time""
""fullscreenenter"",""0"",""2550""
","
","
","""event"",""trial"",""time""
""fullscreenenter"",""0"",""2550""
","
","null","<p></p>","null","","","","","","","","","","","","","","","","","","","","","","","",""
"","do_trial","219","677323","0.0-118.0-0.0","""event"",""trial"",""time""
""fullscreenenter"",""0"",""2550""
","
","
","""event"",""trial"",""time""
""fullscreenenter"",""0"",""2550""
","
","1405.800000011921","","","","","","","","50","0,0,1","6","blank","329","null","0.6265536283384501","0.05854690213270076","0.32192232786671776","0","","","","","","","","",""
"","html-keyboard-response","220","678328","0.0-118.0-1.0","""event"",""trial"",""time""
""fullscreenenter"",""0"",""2550""
","
","
","""event"",""trial"",""time""
""fullscreenenter"",""0"",""2550""
","
","null","<p></p>","null","","","","","","","","","","","","","","","","","","","","","","","",""
"","do_trial","221","681350","0.0-119.0-0.0","""event"",""trial"",""time""
""fullscreenenter"",""0"",""2550""
","
","
","""event"",""trial"",""time""
""fullscreenenter"",""0"",""2550""
","
","461.10000002384186","","","","","","","","50","1,0,0","6","blank","330","null","0.45678575199302013","0.05216308214459049","0.2355329412245984","0","","","","","","","","",""
"","html-keyboard-response","222","682356","0.0-119.0-1.0","""event"",""trial"",""time""
""fullscreenenter"",""0"",""2550""
","
","
","""event"",""trial"",""time""
""fullscreenenter"",""0"",""2550""
","
","null","<p></p>","null","","","","","","","","","","","","","","","","","","","","","","","",""
"","do_trial","223","685646","0.0-120.0-0.0","""event"",""trial"",""time""
""fullscreenenter"",""0"",""2550""
","
","
","""event"",""trial"",""time""
""fullscreenenter"",""0"",""2550""
","
","734.5","","","","","","","","50","1,0,1","6","blank","331","null","0.5809346310748278","0.16284132261221657","0.28062854002705545","0","","","","","","","","",""
"","html-keyboard-response","224","686653","0.0-120.0-1.0","""event"",""trial"",""time""
""fullscreenenter"",""0"",""2550""
","
","
","""event"",""trial"",""time""
""fullscreenenter"",""0"",""2550""
","
","null","<p></p>","null","","","","","","","","","","","","","","","","","","","","","","","",""
"","do_recog","225","692667","0.0-121.0-0.0","""event"",""trial"",""time""
""fullscreenenter"",""0"",""2550""
","
","
","""event"",""trial"",""time""
""fullscreenenter"",""0"",""2550""
","
","null","","","","","","","","null","","","","332","probe-231","","","","","0","[object Object]","null","null","0","","","",""
"","html-keyboard-response","226","693670","0.0-121.0-1.0","""event"",""trial"",""time""
""fullscreenenter"",""0"",""2550""
","
","
","""event"",""trial"",""time""
""fullscreenenter"",""0"",""2550""
","
","null","<p></p>","null","","","","","","","","","","","","","","","","","","","","","","","",""
"","do_trial","227","697146","0.0-122.0-0.0","""event"",""trial"",""time""
""fullscreenenter"",""0"",""2550""
","
","
","""event"",""trial"",""time""
""fullscreenenter"",""0"",""2550""
","
","917","","","","","","","","50","1,0,0","6","blank","333","null","0.5916713191274018","0.07189825418677652","0.12399979585005298","0","","","","","","","","",""
"","html-keyboard-response","228","698152","0.0-122.0-1.0","""event"",""trial"",""time""
""fullscreenenter"",""0"",""2550""
","
","
","""event"",""trial"",""time""
""fullscreenenter"",""0"",""2550""
","
","null","<p></p>","null","","","","","","","","","","","","","","","","","","","","","","","",""
"","do_trial","229","701266","0.0-123.0-0.0","""event"",""trial"",""time""
""fullscreenenter"",""0"",""2550""
","
","
","""event"",""trial"",""time""
""fullscreenenter"",""0"",""2550""
","
","566.5","","","","","","","","49","1,0,0","6","blank","334","null","0.5064219211939139","0.12592912127291536","0.3186149569847138","1","","","","","","","","",""
"","html-keyboard-response","230","702269","0.0-123.0-1.0","""event"",""trial"",""time""
""fullscreenenter"",""0"",""2550""
","
","
","""event"",""trial"",""time""
""fullscreenenter"",""0"",""2550""
","
","null","<p></p>","null","","","","","","","","","","","","","","","","","","","","","","","",""
"","do_trial","231","705542","0.0-124.0-0.0","""event"",""trial"",""time""
""fullscreenenter"",""0"",""2550""
","
","
","""event"",""trial"",""time""
""fullscreenenter"",""0"",""2550""
","
","715","","","","","","","","49","1,0,0","6","blank","335","null","0.5191207426982415","0.2600535957487334","0.29549512976834197","1","","","","","","","","",""
"","html-keyboard-response","232","706547","0.0-124.0-1.0","""event"",""trial"",""time""
""fullscreenenter"",""0"",""2550""
","
","
","""event"",""trial"",""time""
""fullscreenenter"",""0"",""2550""
","
","null","<p></p>","null","","","","","","","","","","","","","","","","","","","","","","","",""
"","do_trial","233","710400","0.0-125.0-0.0","""event"",""trial"",""time""
""fullscreenenter"",""0"",""2550""
","
","
","""event"",""trial"",""time""
""fullscreenenter"",""0"",""2550""
","
","1293.5999999940395","","","","","","","","49","0,0,0","6","blank","336","null","0.5363690190731611","0.24267872164771906","0.4031505077948796","0","","","","","","","","",""
"","html-keyboard-response","234","711406","0.0-125.0-1.0","""event"",""trial"",""time""
""fullscreenenter"",""0"",""2550""
","
","
","""event"",""trial"",""time""
""fullscreenenter"",""0"",""2550""
","
","null","<p></p>","null","","","","","","","","","","","","","","","","","","","","","","","",""
"","do_trial","235","714604","0.0-126.0-0.0","""event"",""trial"",""time""
""fullscreenenter"",""0"",""2550""
","
","
","""event"",""trial"",""time""
""fullscreenenter"",""0"",""2550""
","
","643.7000000178814","","","","","","","","49","0,0,1","6","blank","337","null","0.4857558423432821","0.2302087030868023","0.4528800907738411","0","","","","","","","","",""
"","html-keyboard-response","236","715608","0.0-126.0-1.0","""event"",""trial"",""time""
""fullscreenenter"",""0"",""2550""
","
","
","""event"",""trial"",""time""
""fullscreenenter"",""0"",""2550""
","
","null","<p></p>","null","","","","","","","","","","","","","","","","","","","","","","","",""
"","do_trial","237","719330","0.0-127.0-0.0","""event"",""trial"",""time""
""fullscreenenter"",""0"",""2550""
","
","
","""event"",""trial"",""time""
""fullscreenenter"",""0"",""2550""
","
","1168.5999999940395","","","","","","","","49","0,0,0","6","blank","338","null","0.4876168857635176","0.05965070438218881","0.31025553667730005","0","","","","","","","","",""
"","html-keyboard-response","238","720337","0.0-127.0-1.0","""event"",""trial"",""time""
""fullscreenenter"",""0"",""2550""
","
","
","""event"",""trial"",""time""
""fullscreenenter"",""0"",""2550""
","
","null","<p></p>","null","","","","","","","","","","","","","","","","","","","","","","","",""
"","do_recog","239","723819","0.0-128.0-0.0","""event"",""trial"",""time""
""fullscreenenter"",""0"",""2550""
","
","
","""event"",""trial"",""time""
""fullscreenenter"",""0"",""2550""
","
","1972.9000000059605","","","","","","","","54","","","","339","probe-87","","","","","1","[object Object]","198","4","1","","","",""
"","html-keyboard-response","240","724825","0.0-128.0-1.0","""event"",""trial"",""time""
""fullscreenenter"",""0"",""2550""
","
","
","""event"",""trial"",""time""
""fullscreenenter"",""0"",""2550""
","
","null","<p></p>","null","","","","","","","","","","","","","","","","","","","","","","","",""
"","do_trial","241","728305","0.0-129.0-0.0","""event"",""trial"",""time""
""fullscreenenter"",""0"",""2550""
","
","
","""event"",""trial"",""time""
""fullscreenenter"",""0"",""2550""
","
","925.2000000178814","","","","","","","","50","0,0,0","6","blank","340","null","0.513343123321445","0.11238667448075436","0.27558569368408287","0","","","","","","","","",""
"","html-keyboard-response","242","729308","0.0-129.0-1.0","""event"",""trial"",""time""
""fullscreenenter"",""0"",""2550""
","
","
","""event"",""trial"",""time""
""fullscreenenter"",""0"",""2550""
","
","null","<p></p>","null","","","","","","","","","","","","","","","","","","","","","","","",""
"","do_recog","243","732576","0.0-130.0-0.0","""event"",""trial"",""time""
""fullscreenenter"",""0"",""2550""
","
","
","""event"",""trial"",""time""
""fullscreenenter"",""0"",""2550""
","
","1757.2999999821186","","","","","","","","54","","","","341","probe-04","","","","","1","[object Object]","31","0","1","","","",""
"","html-keyboard-response","244","733579","0.0-130.0-1.0","""event"",""trial"",""time""
""fullscreenenter"",""0"",""2550""
","
","
","""event"",""trial"",""time""
""fullscreenenter"",""0"",""2550""
","
","null","<p></p>","null","","","","","","","","","","","","","","","","","","","","","","","",""
"","do_trial","245","737151","0.0-131.0-0.0","""event"",""trial"",""time""
""fullscreenenter"",""0"",""2550""
","
","
","""event"",""trial"",""time""
""fullscreenenter"",""0"",""2550""
","
","1020.1999999880791","","","","","","","","49","1,0,1","6","blank","342","null","0.39575818458817635","0.10838450986603951","0.40952118867084375","1","","","","","","","","",""
"","html-keyboard-response","246","738153","0.0-131.0-1.0","""event"",""trial"",""time""
""fullscreenenter"",""0"",""2550""
","
","
","""event"",""trial"",""time""
""fullscreenenter"",""0"",""2550""
","
","null","<p></p>","null","","","","","","","","","","","","","","","","","","","","","","","",""
"","do_trial","247","742282","0.0-132.0-0.0","""event"",""trial"",""time""
""fullscreenenter"",""0"",""2550""
","
","
","""event"",""trial"",""time""
""fullscreenenter"",""0"",""2550""
","
","1568.7999999821186","","","","","","","","49","1,0,0","6","blank","343","null","0.41640901841651906","0.09705165271419128","0.29344403147413967","1","","","","","","","","",""
"","html-keyboard-response","248","743288","0.0-132.0-1.0","""event"",""trial"",""time""
""fullscreenenter"",""0"",""2550""
","
","
","""event"",""trial"",""time""
""fullscreenenter"",""0"",""2550""
","
","null","<p></p>","null","","","","","","","","","","","","","","","","","","","","","","","",""
"","do_trial","249","747007","0.0-133.0-0.0","""event"",""trial"",""time""
""fullscreenenter"",""0"",""2550""
","
","
","""event"",""trial"",""time""
""fullscreenenter"",""0"",""2550""
","
","1161","","","","","","","","49","1,0,0","6","blank","344","null","0.45116522239336465","0.06960478141385668","0.3492440679102083","1","","","","","","","","",""
"","html-keyboard-response","250","748010","0.0-133.0-1.0","""event"",""trial"",""time""
""fullscreenenter"",""0"",""2550""
","
","
","""event"",""trial"",""time""
""fullscreenenter"",""0"",""2550""
","
","null","<p></p>","null","","","","","","","","","","","","","","","","","","","","","","","",""
"","do_trial","251","752228","0.0-134.0-0.0","""event"",""trial"",""time""
""fullscreenenter"",""0"",""2550""
","
","
","""event"",""trial"",""time""
""fullscreenenter"",""0"",""2550""
","
","1659.0999999940395","","","","","","","","49","0,0,0","6","blank","345","null","0.5807244383772755","0.11441178601329605","0.41080361468493864","0","","","","","","","","",""
"","html-keyboard-response","252","753231","0.0-134.0-1.0","""event"",""trial"",""time""
""fullscreenenter"",""0"",""2550""
","
","
","""event"",""trial"",""time""
""fullscreenenter"",""0"",""2550""
","
","null","<p></p>","null","","","","","","","","","","","","","","","","","","","","","","","",""
"","do_trial","253","756751","0.0-135.0-0.0","""event"",""trial"",""time""
""fullscreenenter"",""0"",""2550""
","
","
","""event"",""trial"",""time""
""fullscreenenter"",""0"",""2550""
","
","954.9000000059605","","","","","","","","49","1,0,0","6","blank","346","null","0.5014300269763632","0.0620220866627455","0.41010846300452874","1","","","","","","","","",""
"","html-keyboard-response","254","757758","0.0-135.0-1.0","""event"",""trial"",""time""
""fullscreenenter"",""0"",""2550""
","
","
","""event"",""trial"",""time""
""fullscreenenter"",""0"",""2550""
","
","null","<p></p>","null","","","","","","","","","","","","","","","","","","","","","","","",""
"","do_trial","255","761024","0.0-136.0-0.0","""event"",""trial"",""time""
""fullscreenenter"",""0"",""2550""
","
","
","""event"",""trial"",""time""
""fullscreenenter"",""0"",""2550""
","
","706.3000000119209","","","","","","","","49","1,0,1","6","blank","347","null","0.6719823077057664","0.09679833577849647","0.3674700583705451","1","","","","","","","","",""
"","html-keyboard-response","256","762030","0.0-136.0-1.0","""event"",""trial"",""time""
""fullscreenenter"",""0"",""2550""
","
","
","""event"",""trial"",""time""
""fullscreenenter"",""0"",""2550""
","
","null","<p></p>","null","","","","","","","","","","","","","","","","","","","","","","","",""
"","do_recog","257","765449","0.0-137.0-0.0","""event"",""trial"",""time""
""fullscreenenter"",""0"",""2550""
","
","
","""event"",""trial"",""time""
""fullscreenenter"",""0"",""2550""
","
","1907.300000011921","","","","","","","","54","","","","348","probe-19","","","","","1","[object Object]","115","2","1","","","",""
"","html-keyboard-response","258","766452","0.0-137.0-1.0","""event"",""trial"",""time""
""fullscreenenter"",""0"",""2550""
","
","
","""event"",""trial"",""time""
""fullscreenenter"",""0"",""2550""
","
","null","<p></p>","null","","","","","","","","","","","","","","","","","","","","","","","",""
"","break","259","775466","0.0-138.0-0.0","""event"",""trial"",""time""
""fullscreenenter"",""0"",""2550""
","
","
","""event"",""trial"",""time""
""fullscreenenter"",""0"",""2550""
","
","9013","<div class='center'><p>Time to take a quick break! You have 2 minutes to rest, but you can move on sooner if you'd like.</p><p> Press the <b>space bar</b> to continue.</p></div>","32","","","","","","","","","","","","","","","","","","","","","","","",""
"","do_trial","260","781531","0.0-138.0-1.0","""event"",""trial"",""time""
""fullscreenenter"",""0"",""2550""
","
","
","""event"",""trial"",""time""
""fullscreenenter"",""0"",""2550""
","
","null","","","","","","","","null","1,0,0","6","blank","349","null","0.6476235243423161","0.2580059586955638","0.3034712151242333","","","","","","","","","",""
"","html-keyboard-response","261","782537","0.0-138.0-2.0","""event"",""trial"",""time""
""fullscreenenter"",""0"",""2550""
","
","
","""event"",""trial"",""time""
""fullscreenenter"",""0"",""2550""
","
","null","<p></p>","null","","","","","","","","","","","","","","","","","","","","","","","",""
"","do_recog","262","786081","0.0-139.0-0.0","""event"",""trial"",""time""
""fullscreenenter"",""0"",""2550""
","
","
","""event"",""trial"",""time""
""fullscreenenter"",""0"",""2550""
","
","2035.300000011921","","","","","","","","55","","","","350","probe-76","","","","","1","[object Object]","192","4","0","","","",""
"","html-keyboard-response","263","787088","0.0-139.0-1.0","""event"",""trial"",""time""
""fullscreenenter"",""0"",""2550""
","
","
","""event"",""trial"",""time""
""fullscreenenter"",""0"",""2550""
","
","null","<p></p>","null","","","","","","","","","","","","","","","","","","","","","","","",""
"","do_trial","264","790210","0.0-140.0-0.0","""event"",""trial"",""time""
""fullscreenenter"",""0"",""2550""
","
","
","""event"",""trial"",""time""
""fullscreenenter"",""0"",""2550""
","
","565.1999999880791","","","","","","","","49","0,1,1","6","blank","351","null","0.4248360179126914","0.383048106066059","0.30310683317768994","0","","","","","","","","",""
"","html-keyboard-response","265","791215","0.0-140.0-1.0","""event"",""trial"",""time""
""fullscreenenter"",""0"",""2550""
","
","
","""event"",""trial"",""time""
""fullscreenenter"",""0"",""2550""
","
","null","<p></p>","null","","","","","","","","","","","","","","","","","","","","","","","",""
"","do_trial","266","794235","0.0-141.0-0.0","""event"",""trial"",""time""
""fullscreenenter"",""0"",""2550""
","
","
","""event"",""trial"",""time""
""fullscreenenter"",""0"",""2550""
","
","459.40000000596046","","","","","","","","49","1,1,0","6","blank","352","null","0.38104092724691885","0.4558260443303642","0.2135847028552215","1","","","","","","","","",""
"","html-keyboard-response","267","795240","0.0-141.0-1.0","""event"",""trial"",""time""
""fullscreenenter"",""0"",""2550""
","
","
","""event"",""trial"",""time""
""fullscreenenter"",""0"",""2550""
","
","null","<p></p>","null","","","","","","","","","","","","","","","","","","","","","","","",""
"","do_trial","268","798306","0.0-142.0-0.0","""event"",""trial"",""time""
""fullscreenenter"",""0"",""2550""
","
","
","""event"",""trial"",""time""
""fullscreenenter"",""0"",""2550""
","
","508.69999998807907","","","","","","","","49","0,1,1","6","blank","353","null","0.29633121228548887","0.46767453166290984","0.3328210087531221","0","","","","","","","","",""
"","html-keyboard-response","269","799311","0.0-142.0-1.0","""event"",""trial"",""time""
""fullscreenenter"",""0"",""2550""
","
","
","""event"",""trial"",""time""
""fullscreenenter"",""0"",""2550""
","
","null","<p></p>","null","","","","","","","","","","","","","","","","","","","","","","","",""
"","do_recog","270","802663","0.0-143.0-0.0","""event"",""trial"",""time""
""fullscreenenter"",""0"",""2550""
","
","
","""event"",""trial"",""time""
""fullscreenenter"",""0"",""2550""
","
","1841.9000000059605","","","","","","","","53","","","","354","probe-37","","","","","1","[object Object]","150","3","1","","","",""
"","html-keyboard-response","271","803668","0.0-143.0-1.0","""event"",""trial"",""time""
""fullscreenenter"",""0"",""2550""
","
","
","""event"",""trial"",""time""
""fullscreenenter"",""0"",""2550""
","
","null","<p></p>","null","","","","","","","","","","","","","","","","","","","","","","","",""
"","do_trial","272","807490","0.0-144.0-0.0","""event"",""trial"",""time""
""fullscreenenter"",""0"",""2550""
","
","
","""event"",""trial"",""time""
""fullscreenenter"",""0"",""2550""
","
","1266.0999999940395","","","","","","","","51","0,1,1","6","blank","355","null","0.14686734519685973","0.4857640128510849","0.27826123722237855","1","","","","","","","","",""
"","html-keyboard-response","273","808497","0.0-144.0-1.0","""event"",""trial"",""time""
""fullscreenenter"",""0"",""2550""
","
","
","""event"",""trial"",""time""
""fullscreenenter"",""0"",""2550""
","
","null","<p></p>","null","","","","","","","","","","","","","","","","","","","","","","","",""
"","do_trial","274","811654","0.0-145.0-0.0","""event"",""trial"",""time""
""fullscreenenter"",""0"",""2550""
","
","
","""event"",""trial"",""time""
""fullscreenenter"",""0"",""2550""
","
","598.5","","","","","","","","51","0,0,0","6","blank","356","null","0.13893318817056954","0.5288549544205011","0.21390087581553466","0","","","","","","","","",""
"","html-keyboard-response","275","812661","0.0-145.0-1.0","""event"",""trial"",""time""
""fullscreenenter"",""0"",""2550""
","
","
","""event"",""trial"",""time""
""fullscreenenter"",""0"",""2550""
","
","null","<p></p>","null","","","","","","","","","","","","","","","","","","","","","","","",""
"","do_trial","276","815566","0.0-146.0-0.0","""event"",""trial"",""time""
""fullscreenenter"",""0"",""2550""
","
","
","""event"",""trial"",""time""
""fullscreenenter"",""0"",""2550""
","
","350.5","","","","","","","","51","0,1,0","6","blank","357","null","0.1489309146836243","0.601246879826269","0.1287877039447694","0","","","","","","","","",""
"","html-keyboard-response","277","816573","0.0-146.0-1.0","""event"",""trial"",""time""
""fullscreenenter"",""0"",""2550""
","
","
","""event"",""trial"",""time""
""fullscreenenter"",""0"",""2550""
","
