"success","trial_type","trial_index","time_elapsed","internal_node_id","interactions","blur_events","focus_events","fullscreenenter_events","fullscreenexit_events","rt","stimulus","key_press","subject_id","participant_id","age","gender","prompt","response","choice_outcomes","context_n","context_img_id","trial_n","probe_img_id","pR_red","pR_white","pR_black","outcome","is_valid","image_to_show","probed_trial","probed_context","correct","probe","probed_trial_n","probed_context_n","context_im"
"true","fullscreen","0","3409","0.0-0.0","""event"",""trial"",""time""
""fullscreenenter"",""0"",""2416""
","
","
","""event"",""trial"",""time""
""fullscreenenter"",""0"",""2416""
","
","","","","","","","","","","","","","","","","","","","","","","","","","","",""
"","pavlovia","1","3419","0.0-1.0","""event"",""trial"",""time""
""fullscreenenter"",""0"",""2416""
","
","
","""event"",""trial"",""time""
""fullscreenenter"",""0"",""2416""
","
","","","","","","","","","","","","","","","","","","","","","","","","","","",""
"","welc_back","2","13218","0.0-2.0","""event"",""trial"",""time""
""fullscreenenter"",""0"",""2416""
","
","
","""event"",""trial"",""time""
""fullscreenenter"",""0"",""2416""
","
","null","run_exp/static/audio/clip_29_welcome_back.m4a","null","1954","433","23","Male","<div class='center'><p>Welcome to day 2!</p><p> Yesterday, you were the head captain of a pirate ship. You asked your fellow pirates to rob other ships of their gold across six different islands.</p></div>","","","","","","","","","","","","","","","","","","",""
"","html-keyboard-response","3","14476","0.0-3.0","""event"",""trial"",""time""
""fullscreenenter"",""0"",""2416""
","
","
","""event"",""trial"",""time""
""fullscreenenter"",""0"",""2416""
","
","1252.6999988555908","<div class='center'><p>Welcome to day 2!</p><p> Yesterday, you were the head captain of a pirate ship. You asked your fellow pirates to rob other ships of their gold across six different islands.</p><p><b>[Press the space bar to continue]</b></p></div>","32","","","","","","","","","","","","","","","","","","","","","","","",""
"","day_1_summary_goal","4","31696","0.0-4.0","""event"",""trial"",""time""
""fullscreenenter"",""0"",""2416""
","
","
","""event"",""trial"",""time""
""fullscreenenter"",""0"",""2416""
","
","null","run_exp/static/audio/clip_30_goal_of_game.m4a","null","","","","","<div class='center'><p>Today, like yesterday, you get to pick which pirate you want to rob the next ship.</p><p>If the pirate is successful in robbing a ship, you get gold coins that look like this: </p><p><img src='run_exp/static/images/tutorial/reward.png' height='150'></p><p> If they were not successful in robbing the ship, then you will get no gold coins and you'll see a big red x like this: </p><p><img src='run_exp/static/images/tutorial/reward_no.png' height='150'></p></div>","","","","","","","","","","","","","","","","","","",""
"","html-keyboard-response","5","32650","0.0-5.0","""event"",""trial"",""time""
""fullscreenenter"",""0"",""2416""
","
","
","""event"",""trial"",""time""
""fullscreenenter"",""0"",""2416""
","
","951.5","<div class='center'><p>Today, like yesterday, you get to pick which pirate you want to rob the next ship.</p><p>If the pirate is successful in robbing a ship, you get gold coins that look like this: </p><p><img src='run_exp/static/images/tutorial/reward.png' height='150'></p><p> If they were not successful in robbing the ship, then you will get no gold coins and you'll see a big red x like this: </p><p><img src='run_exp/static/images/tutorial/reward_no.png' height='150'></p><p><b>[Press the space bar to continue]</b></p></div>","32","","","","","","","","","","","","","","","","","","","","","","","",""
"","day_1_summary_pick","6","47375","0.0-6.0","""event"",""trial"",""time""
""fullscreenenter"",""0"",""2416""
","
","
","""event"",""trial"",""time""
""fullscreenenter"",""0"",""2416""
","
","null","run_exp/static/audio/clip_31_how_to_pick_a_pirate.m4a","null","","","","","<div class='center'><p>Also, just like yesterday, you will use the 1,2,3 keys on your keyboard to pick a pirate. Press '1' to choose red beard, '2' to choose white beard, and '3' to choose black beard . You only have 3 seconds to pick a pirate, so please make a choice quickly!</p></div>","","","","","","","","","","","","","","","","","","",""
"","html-keyboard-response","7","48714","0.0-7.0","""event"",""trial"",""time""
""fullscreenenter"",""0"",""2416""
","
","
","""event"",""trial"",""time""
""fullscreenenter"",""0"",""2416""
","
","1336.6999988555908","<div class='center'><p>Also, just like yesterday, you will use the 1,2,3 keys on your keyboard to pick a pirate. Press '1' to choose red beard, '2' to choose white beard, and '3' to choose black beard . You only have 3 seconds to pick a pirate, so please make a choice quickly!</p><p><b>[Press the space bar to continue]</b></p></div>","32","","","","","","","","","","","","","","","","","","","","","","","",""
"","test_phase_begin","8","79136","0.0-8.0","""event"",""trial"",""time""
""fullscreenenter"",""0"",""2416""
","
","
","""event"",""trial"",""time""
""fullscreenenter"",""0"",""2416""
","
","null","run_exp/static/audio/clip_32_final_place.m4a","null","","","","","<div class='center'><p>You’ve arrived at the final island of your journey! Unfortunately, it’s very foggy out, so you won’t be able to see it in the distance like the other islands you've visited.</p><p>You’ll still be deciding which pirate you want to rob a ship like before. However, because of the fog, you also won’t be able to see the ship.</p><p>This means you do not have to remember the ships you rob on this island.</p><p>Unlike yesterday, you won't be visiting multiple islands today. You will stay on this island for the entire game. This game will last ~30 minutes.</p></div>","","","","","","","","","","","","","","","","","","",""
"","html-keyboard-response","9","79594","0.0-9.0","""event"",""trial"",""time""
""fullscreenenter"",""0"",""2416""
","
","
","""event"",""trial"",""time""
""fullscreenenter"",""0"",""2416""
","
","456.5","<div class='center'><p>You’ve arrived at the final island of your journey! Unfortunately, it’s very foggy out, so you won’t be able to see it in the distance like the other islands you've visited.</p><p>You’ll still be deciding which pirate you want to rob a ship like before. However, because of the fog, you also won’t be able to see the ship.</p><p>This means you do not have to remember the ships you rob on this island.</p><p>Unlike yesterday, you won't be visiting multiple islands today. You will stay on this island for the entire game. This game will last ~30 minutes.</p><p><b>[Press the space bar to continue]</b></p></div>","32","","","","","","","","","","","","","","","","","","","","","","","",""
"","explain_probe_1","10","87316","0.0-10.0","""event"",""trial"",""time""
""fullscreenenter"",""0"",""2416""
","
","
","""event"",""trial"",""time""
""fullscreenenter"",""0"",""2416""
","
","null","run_exp/static/audio/clip_33_recognition_1.m4a","null","","","","","<div class='center'><p> Sometimes you’ll be shown a ship, and you will be asked if you saw this ship on a past island.</p><p> Here is an example of what you will see.</p><p><img src='run_exp/static/images/tutorial/example_recog_trial.png' height='500'></p></div>","","","","","","","","","","","","","","","","","","",""
"","html-keyboard-response","11","88249","0.0-11.0","""event"",""trial"",""time""
""fullscreenenter"",""0"",""2416""
","
","
","""event"",""trial"",""time""
""fullscreenenter"",""0"",""2416""
","
","931.2999992370605","<div class='center'><p> Sometimes you’ll be shown a ship, and you will be asked if you saw this ship on a past island.</p><p> Here is an example of what you will see.</p><p><img src='run_exp/static/images/tutorial/example_recog_trial.png' height='500'></p><p><b>[Press the space bar to continue]</b></p></div>","32","","","","","","","","","","","","","","","","","","","","","","","",""
"","explain_probe_2","12","109976","0.0-12.0","""event"",""trial"",""time""
""fullscreenenter"",""0"",""2416""
","
","
","""event"",""trial"",""time""
""fullscreenenter"",""0"",""2416""
","
","null","run_exp/static/audio/clip_34_recognition_2.m4a","null","","","","","<div class='center'><p> You will press the 5, 6, 7, 8 keys on your keyboard to respond.</p><p>If you are sure you saw the ship, press <b>5</b> on your keyboard.</p><p> If you think you saw it before but aren't sure, then press <b>6</b>.</p><p> If you think you have <b>not</b> seen it before but aren't sure, then press <b>7</b>.</p><p> If you are sure you did <b>not</b> see the ship before, then press <b>8</b>.</p><p><img src='run_exp/static/images/tutorial/example_recog_trial.png' height='500'></p></div>","","","","","","","","","","","","","","","","","","",""
"","html-keyboard-response","13","111322","0.0-13.0","""event"",""trial"",""time""
""fullscreenenter"",""0"",""2416""
","
","
","""event"",""trial"",""time""
""fullscreenenter"",""0"",""2416""
","
","1342.8000011444092","<div class='center'><p> You will press the 5, 6, 7, 8 keys on your keyboard to respond.</p><p>If you are sure you saw the ship, press <b>5</b> on your keyboard.</p><p> If you think you saw it before but aren't sure, then press <b>6</b>.</p><p> If you think you have <b>not</b> seen it before but aren't sure, then press <b>7</b>.</p><p> If you are sure you did <b>not</b> see the ship before, then press <b>8</b>.</p><p><img src='run_exp/static/images/tutorial/example_recog_trial.png' height='500'></p><p><b>[Press the space bar to continue]</b></p></div>","32","","","","","","","","","","","","","","","","","","","","","","","",""
"","explain_outcome","14","128536","0.0-14.0","""event"",""trial"",""time""
""fullscreenenter"",""0"",""2416""
","
","
","""event"",""trial"",""time""
""fullscreenenter"",""0"",""2416""
","
","null","run_exp/static/audio/clip_35_recognition_3.m4a","null","","","","","<div class='center'><p> If you remember correctly, then you’ll get a gold coin like this: </p><p><img src='run_exp/static/images/tutorial/reward_small.png' height='200'></p><p>If you do not remember correctly, then you'll see a red x like this: </p><p><img src='run_exp/static/images/tutorial/reward_no.png' height='200'></p><p>Importantly, when you are shown a ship, take the time to remind yourself which island you saw it on. This will help you in the next part of the study.</p></div>","","","","","","","","","","","","","","","","","","",""
"","html-keyboard-response","15","129546","0.0-15.0","""event"",""trial"",""time""
""fullscreenenter"",""0"",""2416""
","
","
","""event"",""trial"",""time""
""fullscreenenter"",""0"",""2416""
","
","1007.1000003814697","<div class='center'><p> If you remember correctly, then you’ll get a gold coin like this: </p><p><img src='run_exp/static/images/tutorial/reward_small.png' height='200'></p><p>If you do not remember correctly, then you'll see a red x like this: </p><p><img src='run_exp/static/images/tutorial/reward_no.png' height='200'></p><p>Importantly, when you are shown a ship, take the time to remind yourself which island you saw it on. This will help you in the next part of the study.</p><p><b>[Press the space bar to continue]</b></p></div>","32","","","","","","","","","","","","","","","","","","","","","","","",""
"","begin_test_phase","16","145396","0.0-16.0","""event"",""trial"",""time""
""fullscreenenter"",""0"",""2416""
","
","
","""event"",""trial"",""time""
""fullscreenenter"",""0"",""2416""
","
","null","run_exp/static/audio/clip_36_begin_final.m4a","null","","","","","<div class='center'><p>Let's go over the important points again. Your job is to: </p><p>1. Pick the pirate who is best at robbing ships and will bring you back gold coins. </p><p>2. Correctly remember whether or not you saw a ship before. If you did see the ship before, remind yourself on which island you saw it. </p></div>","","","","","","","","","","","","","","","","","","",""
"","html-keyboard-response","17","145899","0.0-17.0","""event"",""trial"",""time""
""fullscreenenter"",""0"",""2416""
","
","
","""event"",""trial"",""time""
""fullscreenenter"",""0"",""2416""
","
","439.4000015258789","<div class='center'><p>Let's go over the important points again. Your job is to: </p><p>1. Pick the pirate who is best at robbing ships and will bring you back gold coins. </p><p>2. Correctly remember whether or not you saw a ship before. If you did see the ship before, remind yourself on which island you saw it. </p><p><b>[Press the space bar to continue]</b></p></div>","32","","","","","","","","","","","","","","","","","","","","","","","",""
"","do_welcome","18","149911","0.0-18.0","""event"",""trial"",""time""
""fullscreenenter"",""0"",""2416""
","
","
","""event"",""trial"",""time""
""fullscreenenter"",""0"",""2416""
","
","null","","","","","","","","null","","","","","","","","","","","","","","","","","",""
"","do_trial","19","153360","0.0-19.0-0.0","""event"",""trial"",""time""
""fullscreenenter"",""0"",""2416""
","
","
","""event"",""trial"",""time""
""fullscreenenter"",""0"",""2416""
","
","861.3000011444092","","","","","","","","50","0,0,1","6","blank","230","null","0.30984565491698945","0.05632070914877826","0.32935406807156603","0","","","","","","","","",""
"","html-keyboard-response","20","154380","0.0-19.0-1.0","""event"",""trial"",""time""
""fullscreenenter"",""0"",""2416""
","
","
","""event"",""trial"",""time""
""fullscreenenter"",""0"",""2416""
","
","null","<p></p>","null","","","","","","","","","","","","","","","","","","","","","","","",""
"","do_trial","21","157339","0.0-20.0-0.0","""event"",""trial"",""time""
""fullscreenenter"",""0"",""2416""
","
","
","""event"",""trial"",""time""
""fullscreenenter"",""0"",""2416""
","
","363.8999996185303","","","","","","","","51","1,0,1","6","blank","231","null","0.24456981515324142","0.1832675771503536","0.3473747723198003","1","","","","","","","","",""
"","html-keyboard-response","22","158359","0.0-20.0-1.0","""event"",""trial"",""time""
""fullscreenenter"",""0"",""2416""
","
","
","""event"",""trial"",""time""
""fullscreenenter"",""0"",""2416""
","
","null","<p></p>","null","","","","","","","","","","","","","","","","","","","","","","","",""
"","do_trial","23","161268","0.0-21.0-0.0","""event"",""trial"",""time""
""fullscreenenter"",""0"",""2416""
","
","
","""event"",""trial"",""time""
""fullscreenenter"",""0"",""2416""
","
","332.29999923706055","","","","","","","","51","1,0,1","6","blank","232","null","0.3566756726868572","0.0973572565965939","0.5165448045724872","1","","","","","","","","",""
"","html-keyboard-response","24","162292","0.0-21.0-1.0","""event"",""trial"",""time""
""fullscreenenter"",""0"",""2416""
","
","
","""event"",""trial"",""time""
""fullscreenenter"",""0"",""2416""
","
","null","<p></p>","null","","","","","","","","","","","","","","","","","","","","","","","",""
"","do_trial","25","165119","0.0-22.0-0.0","""event"",""trial"",""time""
""fullscreenenter"",""0"",""2416""
","
","
","""event"",""trial"",""time""
""fullscreenenter"",""0"",""2416""
","
","260.3000011444092","","","","","","","","51","1,0,1","6","blank","233","null","0.20162292283832273","0.12547934413640316","0.4541358398391651","1","","","","","","","","",""
"","html-keyboard-response","26","166135","0.0-22.0-1.0","""event"",""trial"",""time""
""fullscreenenter"",""0"",""2416""
","
","
","""event"",""trial"",""time""
""fullscreenenter"",""0"",""2416""
","
","null","<p></p>","null","","","","","","","","","","","","","","","","","","","","","","","",""
"","do_trial","27","169052","0.0-23.0-0.0","""event"",""trial"",""time""
""fullscreenenter"",""0"",""2416""
","
","
","""event"",""trial"",""time""
""fullscreenenter"",""0"",""2416""
","
","339.8999996185303","","","","","","","","51","1,0,1","6","blank","234","null","0.3640144829409088","0.18028455852935532","0.4603007282476454","1","","","","","","","","",""
"","html-keyboard-response","28","170067","0.0-23.0-1.0","""event"",""trial"",""time""
""fullscreenenter"",""0"",""2416""
","
","
","""event"",""trial"",""time""
""fullscreenenter"",""0"",""2416""
","
","null","<p></p>","null","","","","","","","","","","","","","","","","","","","","","","","",""
"","do_trial","29","172947","0.0-24.0-0.0","""event"",""trial"",""time""
""fullscreenenter"",""0"",""2416""
","
","
","""event"",""trial"",""time""
""fullscreenenter"",""0"",""2416""
","
","313.8999996185303","","","","","","","","51","1,0,0","6","blank","235","null","0.3435490402116174","0.09535776893654559","0.6077901232885661","0","","","","","","","","",""
"","html-keyboard-response","30","173951","0.0-24.0-1.0","""event"",""trial"",""time""
""fullscreenenter"",""0"",""2416""
","
","
","""event"",""trial"",""time""
""fullscreenenter"",""0"",""2416""
","
","null","<p></p>","null","","","","","","","","","","","","","","","","","","","","","","","",""
"","do_trial","31","176853","0.0-25.0-0.0","""event"",""trial"",""time""
""fullscreenenter"",""0"",""2416""
","
","
","""event"",""trial"",""time""
""fullscreenenter"",""0"",""2416""
","
","321.3999996185303","","","","","","","","51","0,0,1","6","blank","236","null","0.33343643083979757","0.07885339740633393","0.741711216185652","1","","","","","","","","",""
"","html-keyboard-response","32","177867","0.0-25.0-1.0","""event"",""trial"",""time""
""fullscreenenter"",""0"",""2416""
","
","
","""event"",""trial"",""time""
""fullscreenenter"",""0"",""2416""
","
","null","<p></p>","null","","","","","","","","","","","","","","","","","","","","","","","",""
"","do_trial","33","180767","0.0-26.0-0.0","""event"",""trial"",""time""
""fullscreenenter"",""0"",""2416""
","
","
","""event"",""trial"",""time""
""fullscreenenter"",""0"",""2416""
","
","318.1000003814697","","","","","","","","51","0,0,1","6","blank","237","null","0.4556375805257112","0.12804355227984224","0.5191703551280817","1","","","","","","","","",""
"","html-keyboard-response","34","181783","0.0-26.0-1.0","""event"",""trial"",""time""
""fullscreenenter"",""0"",""2416""
","
","
","""event"",""trial"",""time""
""fullscreenenter"",""0"",""2416""
","
","null","<p></p>","null","","","","","","","","","","","","","","","","","","","","","","","",""
"","do_trial","35","184650","0.0-27.0-0.0","""event"",""trial"",""time""
""fullscreenenter"",""0"",""2416""
","
","
","""event"",""trial"",""time""
""fullscreenenter"",""0"",""2416""
","
","299","","","","","","","","51","1,0,1","6","blank","238","null","0.44217576064413044","0.05533655983583505","0.45172965938346316","1","","","","","","","","",""
"","html-keyboard-response","36","185667","0.0-27.0-1.0","""event"",""trial"",""time""
""fullscreenenter"",""0"",""2416""
","
","
","""event"",""trial"",""time""
""fullscreenenter"",""0"",""2416""
","
","null","<p></p>","null","","","","","","","","","","","","","","","","","","","","","","","",""
"","do_trial","37","188603","0.0-28.0-0.0","""event"",""trial"",""time""
""fullscreenenter"",""0"",""2416""
","
","
","""event"",""trial"",""time""
""fullscreenenter"",""0"",""2416""
","
","352","","","","","","","","51","1,0,0","6","blank","239","null","0.4541761936292561","0.10964223339785825","0.44773204095650415","0","","","","","","","","",""
"","html-keyboard-response","38","189617","0.0-28.0-1.0","""event"",""trial"",""time""
""fullscreenenter"",""0"",""2416""
","
","
","""event"",""trial"",""time""
""fullscreenenter"",""0"",""2416""
","
","null","<p></p>","null","","","","","","","","","","","","","","","","","","","","","","","",""
"","do_trial","39","192585","0.0-29.0-0.0","""event"",""trial"",""time""
""fullscreenenter"",""0"",""2416""
","
","
","""event"",""trial"",""time""
""fullscreenenter"",""0"",""2416""
","
","386.4000015258789","","","","","","","","51","0,0,1","6","blank","240","null","0.4899251184938012","0.17810618264743888","0.46550989873443854","1","","","","","","","","",""
"","html-keyboard-response","40","193600","0.0-29.0-1.0","""event"",""trial"",""time""
""fullscreenenter"",""0"",""2416""
","
","
","""event"",""trial"",""time""
""fullscreenenter"",""0"",""2416""
","
","null","<p></p>","null","","","","","","","","","","","","","","","","","","","","","","","",""
"","do_trial","41","196501","0.0-30.0-0.0","""event"",""trial"",""time""
""fullscreenenter"",""0"",""2416""
","
","
","""event"",""trial"",""time""
""fullscreenenter"",""0"",""2416""
","
","319.8999996185303","","","","","","","","51","0,0,0","6","blank","241","null","0.42293555701215385","0.12983504976187082","0.48504039049325154","0","","","","","","","","",""
"","html-keyboard-response","42","197516","0.0-30.0-1.0","""event"",""trial"",""time""
""fullscreenenter"",""0"",""2416""
","
","
","""event"",""trial"",""time""
""fullscreenenter"",""0"",""2416""
","
","null","<p></p>","null","","","","","","","","","","","","","","","","","","","","","","","",""
"","do_recog","43","203537","0.0-31.0-0.0","""event"",""trial"",""time""
""fullscreenenter"",""0"",""2416""
","
","
","""event"",""trial"",""time""
""fullscreenenter"",""0"",""2416""
","
","null","","","","","","","","null","","","","242","probe-119","","","","","1","[object Object]","190","4","0","","","",""
"","html-keyboard-response","44","204555","0.0-31.0-1.0","""event"",""trial"",""time""
""fullscreenenter"",""0"",""2416""
","
","
","""event"",""trial"",""time""
""fullscreenenter"",""0"",""2416""
","
","null","<p></p>","null","","","","","","","","","","","","","","","","","","","","","","","",""
"","do_trial","45","208001","0.0-32.0-0.0","""event"",""trial"",""time""
""fullscreenenter"",""0"",""2416""
","
","
","""event"",""trial"",""time""
""fullscreenenter"",""0"",""2416""
","
","865.6999988555908","","","","","","","","51","0,0,0","6","blank","243","null","0.3966893423506032","0.24351632157568315","0.44834240167470024","0","","","","","","","","",""
"","html-keyboard-response","46","209017","0.0-32.0-1.0","""event"",""trial"",""time""
""fullscreenenter"",""0"",""2416""
","
","
","""event"",""trial"",""time""
""fullscreenenter"",""0"",""2416""
","
","null","<p></p>","null","","","","","","","","","","","","","","","","","","","","","","","",""
"","do_recog","47","212471","0.0-33.0-0.0","""event"",""trial"",""time""
""fullscreenenter"",""0"",""2416""
","
","
","""event"",""trial"",""time""
""fullscreenenter"",""0"",""2416""
","
","1927","","","","","","","","56","","","","244","probe-225","","","","","1","[object Object]","197","4","0","","","",""
"","html-keyboard-response","48","213485","0.0-33.0-1.0","""event"",""trial"",""time""
""fullscreenenter"",""0"",""2416""
","
","
","""event"",""trial"",""time""
""fullscreenenter"",""0"",""2416""
","
","null","<p></p>","null","","","","","","","","","","","","","","","","","","","","","","","",""
"","do_trial","49","216818","0.0-34.0-0.0","""event"",""trial"",""time""
""fullscreenenter"",""0"",""2416""
","
","
","""event"",""trial"",""time""
""fullscreenenter"",""0"",""2416""
","
","743","","","","","","","","51","1,1,0","6","blank","245","null","0.42280954254745257","0.14492042869549335","0.27524196001695656","0","","","","","","","","",""
"","html-keyboard-response","50","217834","0.0-34.0-1.0","""event"",""trial"",""time""
""fullscreenenter"",""0"",""2416""
","
","
","""event"",""trial"",""time""
""fullscreenenter"",""0"",""2416""
","
","null","<p></p>","null","","","","","","","","","","","","","","","","","","","","","","","",""
"","do_trial","51","220943","0.0-35.0-0.0","""event"",""trial"",""time""
""fullscreenenter"",""0"",""2416""
","
","
","""event"",""trial"",""time""
""fullscreenenter"",""0"",""2416""
","
","513.3999996185303","","","","","","","","49","0,0,0","6","blank","246","null","0.4080012597911611","0.18300218539094462","0.13307134889114158","0","","","","","","","","",""
"","html-keyboard-response","52","221960","0.0-35.0-1.0","""event"",""trial"",""time""
""fullscreenenter"",""0"",""2416""
","
","
","""event"",""trial"",""time""
""fullscreenenter"",""0"",""2416""
","
","null","<p></p>","null","","","","","","","","","","","","","","","","","","","","","","","",""
"","do_trial","53","224865","0.0-36.0-0.0","""event"",""trial"",""time""
""fullscreenenter"",""0"",""2416""
","
","
","""event"",""trial"",""time""
""fullscreenenter"",""0"",""2416""
","
","335","","","","","","","","50","0,0,0","6","blank","247","null","0.4974493484005686","0.16661442380770886","0.2988134568601231","0","","","","","","","","",""
"","html-keyboard-response","54","225881","0.0-36.0-1.0","""event"",""trial"",""time""
""fullscreenenter"",""0"",""2416""
","
","
","""event"",""trial"",""time""
""fullscreenenter"",""0"",""2416""
","
","null","<p></p>","null","","","","","","","","","","","","","","","","","","","","","","","",""
"","do_trial","55","228864","0.0-37.0-0.0","""event"",""trial"",""time""
""fullscreenenter"",""0"",""2416""
","
","
","""event"",""trial"",""time""
""fullscreenenter"",""0"",""2416""
","
","391.3999996185303","","","","","","","","51","0,0,0","6","blank","248","null","0.6496404968801364","0.10046708619535717","0.31785357520726804","0","","","","","","","","",""
"","html-keyboard-response","56","229876","0.0-37.0-1.0","""event"",""trial"",""time""
""fullscreenenter"",""0"",""2416""
","
","
","""event"",""trial"",""time""
""fullscreenenter"",""0"",""2416""
","
","null","<p></p>","null","","","","","","","","","","","","","","","","","","","","","","","",""
"","do_trial","57","233235","0.0-38.0-0.0","""event"",""trial"",""time""
""fullscreenenter"",""0"",""2416""
","
","
","""event"",""trial"",""time""
""fullscreenenter"",""0"",""2416""
","
","781.7999992370605","","","","","","","","50","0,0,0","6","blank","249","null","0.5261921092788883","0.11001244381687549","0.20389247899891658","0","","","","","","","","",""
"","html-keyboard-response","58","234252","0.0-38.0-1.0","""event"",""trial"",""time""
""fullscreenenter"",""0"",""2416""
","
","
","""event"",""trial"",""time""
""fullscreenenter"",""0"",""2416""
","
","null","<p></p>","null","","","","","","","","","","","","","","","","","","","","","","","",""
"","do_trial","59","237131","0.0-39.0-0.0","""event"",""trial"",""time""
""fullscreenenter"",""0"",""2416""
","
","
","""event"",""trial"",""time""
""fullscreenenter"",""0"",""2416""
","
","293.3999996185303","","","","","","","","49","0,0,0","6","blank","250","null","0.5749699079802294","0.19965214794146424","0.23481059001580817","0","","","","","","","","",""
"","html-keyboard-response","60","238136","0.0-39.0-1.0","""event"",""trial"",""time""
""fullscreenenter"",""0"",""2416""
","
","
","""event"",""trial"",""time""
""fullscreenenter"",""0"",""2416""
","
","null","<p></p>","null","","","","","","","","","","","","","","","","","","","","","","","",""
"","do_trial","61","241003","0.0-40.0-0.0","""event"",""trial"",""time""
""fullscreenenter"",""0"",""2416""
","
","
","""event"",""trial"",""time""
""fullscreenenter"",""0"",""2416""
","
","291.5999984741211","","","","","","","","50","1,0,0","6","blank","251","null","0.6304925748437906","0.14091008198687122","0.24760188042107828","0","","","","","","","","",""
"","html-keyboard-response","62","242019","0.0-40.0-1.0","""event"",""trial"",""time""
""fullscreenenter"",""0"",""2416""
","
","
","""event"",""trial"",""time""
""fullscreenenter"",""0"",""2416""
","
","null","<p></p>","null","","","","","","","","","","","","","","","","","","","","","","","",""
"","do_recog","63","245517","0.0-41.0-0.0","""event"",""trial"",""time""
""fullscreenenter"",""0"",""2416""
","
","
","""event"",""trial"",""time""
""fullscreenenter"",""0"",""2416""
","
","1972.3999996185303","","","","","","","","54","","","","252","probe-255","","","","","0","[object Object]","null","null","0","","","",""
"","html-keyboard-response","64","246533","0.0-41.0-1.0","""event"",""trial"",""time""
""fullscreenenter"",""0"",""2416""
","
","
","""event"",""trial"",""time""
""fullscreenenter"",""0"",""2416""
","
","null","<p></p>","null","","","","","","","","","","","","","","","","","","","","","","","",""
"","do_trial","65","250402","0.0-42.0-0.0","""event"",""trial"",""time""
""fullscreenenter"",""0"",""2416""
","
","
","""event"",""trial"",""time""
""fullscreenenter"",""0"",""2416""
","
","1300","","","","","","","","50","1,0,0","6","blank","253","null","0.4755182549935006","0.09179865472971038","0.3236686374137315","0","","","","","","","","",""
"","html-keyboard-response","66","251417","0.0-42.0-1.0","""event"",""trial"",""time""
""fullscreenenter"",""0"",""2416""
","
","
","""event"",""trial"",""time""
""fullscreenenter"",""0"",""2416""
","
","null","<p></p>","null","","","","","","","","","","","","","","","","","","","","","","","",""
"","do_recog","67","254792","0.0-43.0-0.0","""event"",""trial"",""time""
""fullscreenenter"",""0"",""2416""
","
","
","""event"",""trial"",""time""
""fullscreenenter"",""0"",""2416""
","
","1862.8999996185303","","","","","","","","54","","","","254","probe-15","","","","","1","[object Object]","118","2","1","","","",""
"","html-keyboard-response","68","255800","0.0-43.0-1.0","""event"",""trial"",""time""
""fullscreenenter"",""0"",""2416""
","
","
","""event"",""trial"",""time""
""fullscreenenter"",""0"",""2416""
","
","null","<p></p>","null","","","","","","","","","","","","","","","","","","","","","","","",""
"","do_trial","69","259103","0.0-44.0-0.0","""event"",""trial"",""time""
""fullscreenenter"",""0"",""2416""
","
","
","""event"",""trial"",""time""
""fullscreenenter"",""0"",""2416""
","
","719.6000003814697","","","","","","","","51","0,1,1","6","blank","255","null","0.722133360216226","0.08209100686184798","0.36971090902518483","1","","","","","","","","",""
"","html-keyboard-response","70","260118","0.0-44.0-1.0","""event"",""trial"",""time""
""fullscreenenter"",""0"",""2416""
","
","
","""event"",""trial"",""time""
""fullscreenenter"",""0"",""2416""
","
","null","<p></p>","null","","","","","","","","","","","","","","","","","","","","","","","",""
"","do_recog","71","263003","0.0-45.0-0.0","""event"",""trial"",""time""
""fullscreenenter"",""0"",""2416""
","
","
","""event"",""trial"",""time""
""fullscreenenter"",""0"",""2416""
","
","1370.1000003814697","","","","","","","","54","","","","256","probe-32","","","","","1","[object Object]","78","1","1","","","",""
"","html-keyboard-response","72","264010","0.0-45.0-1.0","""event"",""trial"",""time""
""fullscreenenter"",""0"",""2416""
","
","
","""event"",""trial"",""time""
""fullscreenenter"",""0"",""2416""
","
","null","<p></p>","null","","","","","","","","","","","","","","","","","","","","","","","",""
"","do_trial","73","267285","0.0-46.0-0.0","""event"",""trial"",""time""
""fullscreenenter"",""0"",""2416""
","
","
","""event"",""trial"",""time""
""fullscreenenter"",""0"",""2416""
","
","693.1000003814697","","","","","","","","51","1,0,0","6","blank","257","null","0.7178629896517742","0.14066144441401318","0.514947029293401","0","","","","","","","","",""
"","html-keyboard-response","74","268303","0.0-46.0-1.0","""event"",""trial"",""time""
""fullscreenenter"",""0"",""2416""
","
","
","""event"",""trial"",""time""
""fullscreenenter"",""0"",""2416""
","
","null","<p></p>","null","","","","","","","","","","","","","","","","","","","","","","","",""
"","do_trial","75","271185","0.0-47.0-0.0","""event"",""trial"",""time""
""fullscreenenter"",""0"",""2416""
","
","
","""event"",""trial"",""time""
""fullscreenenter"",""0"",""2416""
","
","307","","","","","","","","51","0,0,1","6","blank","258","null","0.6933068791943476","0.15605172830945033","0.39392640216120406","1","","","","","","","","",""
"","html-keyboard-response","76","272200","0.0-47.0-1.0","""event"",""trial"",""time""
""fullscreenenter"",""0"",""2416""
","
","
","""event"",""trial"",""time""
""fullscreenenter"",""0"",""2416""
","
","null","<p></p>","null","","","","","","","","","","","","","","","","","","","","","","","",""
"","do_trial","77","275103","0.0-48.0-0.0","""event"",""trial"",""time""
""fullscreenenter"",""0"",""2416""
","
","
","""event"",""trial"",""time""
""fullscreenenter"",""0"",""2416""
","
","311.5","","","","","","","","51","1,1,0","6","blank","259","null","0.7455886217371506","0.3343815626761501","0.4249633219820884","0","","","","","","","","",""
"","html-keyboard-response","78","276111","0.0-48.0-1.0","""event"",""trial"",""time""
""fullscreenenter"",""0"",""2416""
","
","
","""event"",""trial"",""time""
""fullscreenenter"",""0"",""2416""
","
","null","<p></p>","null","","","","","","","","","","","","","","","","","","","","","","","",""
"","do_trial","79","278968","0.0-49.0-0.0","""event"",""trial"",""time""
""fullscreenenter"",""0"",""2416""
","
","
","""event"",""trial"",""time""
""fullscreenenter"",""0"",""2416""
","
","280.4000015258789","","","","","","","","51","0,0,0","6","blank","260","null","0.612485567410726","0.3239611480921448","0.3876103013165335","0","","","","","","","","",""
"","html-keyboard-response","80","279983","0.0-49.0-1.0","""event"",""trial"",""time""
""fullscreenenter"",""0"",""2416""
","
","
","""event"",""trial"",""time""
""fullscreenenter"",""0"",""2416""
","
","null","<p></p>","null","","","","","","","","","","","","","","","","","","","","","","","",""
"","do_recog","81","283157","0.0-50.0-0.0","""event"",""trial"",""time""
""fullscreenenter"",""0"",""2416""
","
","
","""event"",""trial"",""time""
""fullscreenenter"",""0"",""2416""
","
","1649","","","","","","","","53","","","","261","probe-210","","","","","1","[object Object]","30","0","1","","","",""
"","html-keyboard-response","82","284169","0.0-50.0-1.0","""event"",""trial"",""time""
""fullscreenenter"",""0"",""2416""
","
","
","""event"",""trial"",""time""
""fullscreenenter"",""0"",""2416""
","
","null","<p></p>","null","","","","","","","","","","","","","","","","","","","","","","","",""
"","do_trial","83","287508","0.0-51.0-0.0","""event"",""trial"",""time""
""fullscreenenter"",""0"",""2416""
","
","
","""event"",""trial"",""time""
""fullscreenenter"",""0"",""2416""
","
","757.8000011444092","","","","","","","","50","0,1,1","6","blank","262","null","0.6775207503860139","0.31647748347150717","0.33279540862726675","1","","","","","","","","",""
"","html-keyboard-response","84","288516","0.0-51.0-1.0","""event"",""trial"",""time""
""fullscreenenter"",""0"",""2416""
","
","
","""event"",""trial"",""time""
""fullscreenenter"",""0"",""2416""
","
","null","<p></p>","null","","","","","","","","","","","","","","","","","","","","","","","",""
"","do_recog","85","292169","0.0-52.0-0.0","""event"",""trial"",""time""
""fullscreenenter"",""0"",""2416""
","
","
","""event"",""trial"",""time""
""fullscreenenter"",""0"",""2416""
","
","2138.900001525879","","","","","","","","55","","","","263","probe-47","","","","","1","[object Object]","193","4","0","","","",""
"","html-keyboard-response","86","293183","0.0-52.0-1.0","""event"",""trial"",""time""
""fullscreenenter"",""0"",""2416""
","
","
","""event"",""trial"",""time""
""fullscreenenter"",""0"",""2416""
","
","null","<p></p>","null","","","","","","","","","","","","","","","","","","","","","","","",""
"","do_trial","87","296334","0.0-53.0-0.0","""event"",""trial"",""time""
""fullscreenenter"",""0"",""2416""
","
","
","""event"",""trial"",""time""
""fullscreenenter"",""0"",""2416""
","
","570.3000011444092","","","","","","","","50","1,0,1","6","blank","264","null","0.6388933304758303","0.20617847045179966","0.38949506803495304","0","","","","","","","","",""
"","html-keyboard-response","88","297341","0.0-53.0-1.0","""event"",""trial"",""time""
""fullscreenenter"",""0"",""2416""
","
","
","""event"",""trial"",""time""
""fullscreenenter"",""0"",""2416""
","
","null","<p></p>","null","","","","","","","","","","","","","","","","","","","","","","","",""
"","do_trial","89","300501","0.0-54.0-0.0","""event"",""trial"",""time""
""fullscreenenter"",""0"",""2416""
","
","
","""event"",""trial"",""time""
""fullscreenenter"",""0"",""2416""
","
","578.8000011444092","","","","","","","","50","0,0,0","6","blank","265","null","0.573677276400633","0.09911252552802992","0.46580867171127494","0","","","","","","","","",""
"","html-keyboard-response","90","301518","0.0-54.0-1.0","""event"",""trial"",""time""
""fullscreenenter"",""0"",""2416""
","
","
","""event"",""trial"",""time""
""fullscreenenter"",""0"",""2416""
","
","null","<p></p>","null","","","","","","","","","","","","","","","","","","","","","","","",""
"","do_trial","91","304388","0.0-55.0-0.0","""event"",""trial"",""time""
""fullscreenenter"",""0"",""2416""
","
","
","""event"",""trial"",""time""
""fullscreenenter"",""0"",""2416""
","
","295.5","","","","","","","","49","1,0,1","6","blank","266","null","0.5569203344003872","0.10331493953145725","0.48606690763992455","1","","","","","","","","",""
"","html-keyboard-response","92","305401","0.0-55.0-1.0","""event"",""trial"",""time""
""fullscreenenter"",""0"",""2416""
","
","
","""event"",""trial"",""time""
""fullscreenenter"",""0"",""2416""
","
","null","<p></p>","null","","","","","","","","","","","","","","","","","","","","","","","",""
"","do_trial","93","308806","0.0-56.0-0.0","""event"",""trial"",""time""
""fullscreenenter"",""0"",""2416""
","
","
","""event"",""trial"",""time""
""fullscreenenter"",""0"",""2416""
","
","786.6000003814697","","","","","","","","49","1,0,0","6","blank","267","null","0.6225586665538443","0.10058767367407434","0.45314879386956664","1","","","","","","","","",""
"","html-keyboard-response","94","309817","0.0-56.0-1.0","""event"",""trial"",""time""
""fullscreenenter"",""0"",""2416""
","
","
","""event"",""trial"",""time""
""fullscreenenter"",""0"",""2416""
","
","null","<p></p>","null","","","","","","","","","","","","","","","","","","","","","","","",""
"","do_recog","95","312718","0.0-57.0-0.0","""event"",""trial"",""time""
""fullscreenenter"",""0"",""2416""
","
","
","""event"",""trial"",""time""
""fullscreenenter"",""0"",""2416""
","
","1382.1000003814697","","","","","","","","53","","","","268","probe-109","","","","","1","[object Object]","76","1","1","","","",""
"","html-keyboard-response","96","313733","0.0-57.0-1.0","""event"",""trial"",""time""
""fullscreenenter"",""0"",""2416""
","
","
","""event"",""trial"",""time""
""fullscreenenter"",""0"",""2416""
","
","null","<p></p>","null","","","","","","","","","","","","","","","","","","","","","","","",""
"","break","97","314907","0.0-58.0-0.0","""event"",""trial"",""time""
""fullscreenenter"",""0"",""2416""
","
","
","""event"",""trial"",""time""
""fullscreenenter"",""0"",""2416""
","
","1171.5","<div class='center'><p>Time to take a quick break! You have 2 minutes to rest, but you can move on sooner if you'd like.</p><p> Press the <b>space bar</b> to continue.</p></div>","32","","","","","","","","","","","","","","","","","","","","","","","",""
"","do_trial","98","318134","0.0-58.0-1.0","""event"",""trial"",""time""
""fullscreenenter"",""0"",""2416""
","
","
","""event"",""trial"",""time""
""fullscreenenter"",""0"",""2416""
","
","656.6000003814697","","","","","","","","49","1,0,0","6","blank","269","null","0.6858613360364844","0.29838012386556056","0.45451629511330516","1","","","","","","","","",""
"","html-keyboard-response","99","319150","0.0-58.0-2.0","""event"",""trial"",""time""
""fullscreenenter"",""0"",""2416""
","
","
","""event"",""trial"",""time""
""fullscreenenter"",""0"",""2416""
","
","null","<p></p>","null","","","","","","","","","","","","","","","","","","","","","","","",""
"","do_trial","100","322061","0.0-59.0-0.0","""event"",""trial"",""time""
""fullscreenenter"",""0"",""2416""
","
","
","""event"",""trial"",""time""
""fullscreenenter"",""0"",""2416""
","
","322.1000003814697","","","","","","","","49","1,0,0","6","blank","270","null","0.7200185738803037","0.20996435069906713","0.4841077210162545","1","","","","","","","","",""
"","html-keyboard-response","101","323069","0.0-59.0-1.0","""event"",""trial"",""time""
""fullscreenenter"",""0"",""2416""
","
","
","""event"",""trial"",""time""
""fullscreenenter"",""0"",""2416""
","
","null","<p></p>","null","","","","","","","","","","","","","","","","","","","","","","","",""
"","do_trial","102","325954","0.0-60.0-0.0","""event"",""trial"",""time""
""fullscreenenter"",""0"",""2416""
","
","
","""event"",""trial"",""time""
""fullscreenenter"",""0"",""2416""
","
","320.3999996185303","","","","","","","","49","1,0,0","6","blank","271","null","0.7849356580803626","0.09571149713552457","0.38688302218425874","1","","","","","","","","",""
"","html-keyboard-response","103","326968","0.0-60.0-1.0","""event"",""trial"",""time""
""fullscreenenter"",""0"",""2416""
","
","
","""event"",""trial"",""time""
""fullscreenenter"",""0"",""2416""
","
","null","<p></p>","null","","","","","","","","","","","","","","","","","","","","","","","",""
"","do_trial","104","329951","0.0-61.0-0.0","""event"",""trial"",""time""
""fullscreenenter"",""0"",""2416""
","
","
","""event"",""trial"",""time""
""fullscreenenter"",""0"",""2416""
","
","421.1000003814697","","","","","","","","49","0,0,0","6","blank","272","null","0.7083516320137413","0.09698604615422869","0.29860756224291757","0","","","","","","","","",""
"","html-keyboard-response","105","330966","0.0-61.0-1.0","""event"",""trial"",""time""
""fullscreenenter"",""0"",""2416""
","
","
","""event"",""trial"",""time""
""fullscreenenter"",""0"",""2416""
","
","null","<p></p>","null","","","","","","","","","","","","","","","","","","","","","","","",""
"","do_trial","106","333796","0.0-62.0-0.0","""event"",""trial"",""time""
""fullscreenenter"",""0"",""2416""
","
","
","""event"",""trial"",""time""
""fullscreenenter"",""0"",""2416""
","
","260.8999996185303","","","","","","","","49","0,0,0","6","blank","273","null","0.6519772235521336","0.05068655122097284","0.3251179973693411","0","","","","","","","","",""
"","html-keyboard-response","107","334812","0.0-62.0-1.0","""event"",""trial"",""time""
""fullscreenenter"",""0"",""2416""
","
","
","""event"",""trial"",""time""
""fullscreenenter"",""0"",""2416""
","
","null","<p></p>","null","","","","","","","","","","","","","","","","","","","","","","","",""
"","do_recog","108","338052","0.0-63.0-0.0","""event"",""trial"",""time""
""fullscreenenter"",""0"",""2416""
","
","
","""event"",""trial"",""time""
""fullscreenenter"",""0"",""2416""
","
","1716.2000007629395","","","","","","","","55","","","","274","probe-251","","","","","0","[object Object]","null","null","1","","","",""
"","html-keyboard-response","109","339066","0.0-63.0-1.0","""event"",""trial"",""time""
""fullscreenenter"",""0"",""2416""
","
","
","""event"",""trial"",""time""
""fullscreenenter"",""0"",""2416""
","
","null","<p></p>","null","","","","","","","","","","","","","","","","","","","","","","","",""
"","do_trial","110","342318","0.0-64.0-0.0","""event"",""trial"",""time""
""fullscreenenter"",""0"",""2416""
","
","
","""event"",""trial"",""time""
""fullscreenenter"",""0"",""2416""
","
","657.6000003814697","","","","","","","","51","0,0,0","6","blank","275","null","0.640222502531965","0.11522396269307791","0.30324514654295376","0","","","","","","","","",""
"","html-keyboard-response","111","343333","0.0-64.0-1.0","""event"",""trial"",""time""
""fullscreenenter"",""0"",""2416""
","
","
","""event"",""trial"",""time""
""fullscreenenter"",""0"",""2416""
","
","null","<p></p>","null","","","","","","","","","","","","","","","","","","","","","","","",""
"","do_trial","112","346268","0.0-65.0-0.0","""event"",""trial"",""time""
""fullscreenenter"",""0"",""2416""
","
","
","""event"",""trial"",""time""
""fullscreenenter"",""0"",""2416""
","
","326.1000003814697","","","","","","","","51","1,0,0","6","blank","276","null","0.7443197148880912","0.06704883020053429","0.21830701650962936","0","","","","","","","","",""
"","html-keyboard-response","113","347277","0.0-65.0-1.0","""event"",""trial"",""time""
""fullscreenenter"",""0"",""2416""
","
","
","""event"",""trial"",""time""
""fullscreenenter"",""0"",""2416""
","
","null","<p></p>","null","","","","","","","","","","","","","","","","","","","","","","","",""
"","do_trial","114","350204","0.0-66.0-0.0","""event"",""trial"",""time""
""fullscreenenter"",""0"",""2416""
","
","
","""event"",""trial"",""time""
""fullscreenenter"",""0"",""2416""
","
","346.70000076293945","","","","","","","","50","1,0,0","6","blank","277","null","0.7224554211435209","0.0917214504115626","0.3541453884166668","0","","","","","","","","",""
"","html-keyboard-response","115","351219","0.0-66.0-1.0","""event"",""trial"",""time""
""fullscreenenter"",""0"",""2416""
","
","
","""event"",""trial"",""time""
""fullscreenenter"",""0"",""2416""
","
","null","<p></p>","null","","","","","","","","","","","","","","","","","","","","","","","",""
"","do_trial","116","354053","0.0-67.0-0.0","""event"",""trial"",""time""
""fullscreenenter"",""0"",""2416""
","
","
","""event"",""trial"",""time""
""fullscreenenter"",""0"",""2416""
","
","250.89999961853027","","","","","","","","50","1,0,1","6","blank","278","null","0.6301640884038602","0.09962601763072425","0.3827528586350713","0","","","","","","","","",""
"","html-keyboard-response","117","355068","0.0-67.0-1.0","""event"",""trial"",""time""
""fullscreenenter"",""0"",""2416""
","
","
","""event"",""trial"",""time""
""fullscreenenter"",""0"",""2416""
","
","null","<p></p>","null","","","","","","","","","","","","","","","","","","","","","","","",""
"","do_trial","118","357901","0.0-68.0-0.0","""event"",""trial"",""time""
""fullscreenenter"",""0"",""2416""
","
","
","""event"",""trial"",""time""
""fullscreenenter"",""0"",""2416""
","
","249.89999961853027","","","","","","","","49","0,0,0","6","blank","279","null","0.5508860219995514","0.22665769141056286","0.3732118242332694","0","","","","","","","","",""
"","html-keyboard-response","119","358906","0.0-68.0-1.0","""event"",""trial"",""time""
""fullscreenenter"",""0"",""2416""
","
","
","""event"",""trial"",""time""
""fullscreenenter"",""0"",""2416""
","
","null","<p></p>","null","","","","","","","","","","","","","","","","","","","","","","","",""
"","do_recog","120","362035","0.0-69.0-0.0","""event"",""trial"",""time""
""fullscreenenter"",""0"",""2416""
","
","
","""event"",""trial"",""time""
""fullscreenenter"",""0"",""2416""
","
","1604.7999992370605","","","","","","","","54","","","","280","probe-42","","","","","1","[object Object]","37","0","1","","","",""
"","html-keyboard-response","121","363050","0.0-69.0-1.0","""event"",""trial"",""time""
""fullscreenenter"",""0"",""2416""
","
","
","""event"",""trial"",""time""
""fullscreenenter"",""0"",""2416""
","
","null","<p></p>","null","","","","","","","","","","","","","","","","","","","","","","","",""
"","do_trial","122","366201","0.0-70.0-0.0","""event"",""trial"",""time""
""fullscreenenter"",""0"",""2416""
","
","
","""event"",""trial"",""time""
""fullscreenenter"",""0"",""2416""
","
","572.6000003814697","","","","","","","","50","1,1,0","6","blank","281","null","0.5990386688713742","0.22459962771963343","0.3144712170889308","1","","","","","","","","",""
"","html-keyboard-response","123","367217","0.0-70.0-1.0","""event"",""trial"",""time""
""fullscreenenter"",""0"",""2416""
","
","
","""event"",""trial"",""time""
""fullscreenenter"",""0"",""2416""
","
","null","<p></p>","null","","","","","","","","","","","","","","","","","","","","","","","",""
"","do_trial","124","370034","0.0-71.0-0.0","""event"",""trial"",""time""
""fullscreenenter"",""0"",""2416""
","
","
","""event"",""trial"",""time""
""fullscreenenter"",""0"",""2416""
","
","243","","","","","","","","50","1,0,0","6","blank","282","null","0.6019776998010287","0.15390693460765204","0.3562762392106849","0","","","","","","","","",""
"","html-keyboard-response","125","371050","0.0-71.0-1.0","""event"",""trial"",""time""
""fullscreenenter"",""0"",""2416""
","
","
","""event"",""trial"",""time""
""fullscreenenter"",""0"",""2416""
","
","null","<p></p>","null","","","","","","","","","","","","","","","","","","","","","","","",""
"","do_trial","126","373904","0.0-72.0-0.0","""event"",""trial"",""time""
""fullscreenenter"",""0"",""2416""
","
","
","""event"",""trial"",""time""
""fullscreenenter"",""0"",""2416""
","
","273.70000076293945","","","","","","","","50","1,0,0","6","blank","283","null","0.5418941482338692","0.09329171817706045","0.3382036816434269","0","","","","","","","","",""
"","html-keyboard-response","127","374917","0.0-72.0-1.0","""event"",""trial"",""time""
""fullscreenenter"",""0"",""2416""
","
","
","""event"",""trial"",""time""
""fullscreenenter"",""0"",""2416""
","
","null","<p></p>","null","","","","","","","","","","","","","","","","","","","","","","","",""
"","do_trial","128","377789","0.0-73.0-0.0","""event"",""trial"",""time""
""fullscreenenter"",""0"",""2416""
","
","
","""event"",""trial"",""time""
""fullscreenenter"",""0"",""2416""
","
","279.8999996185303","","","","","","","","51","1,0,0","6","blank","284","null","0.5672056859453026","0.13088533944654243","0.3735642952309428","0","","","","","","","","",""
"","html-keyboard-response","129","378800","0.0-73.0-1.0","""event"",""trial"",""time""
""fullscreenenter"",""0"",""2416""
","
","
","""event"",""trial"",""time""
""fullscreenenter"",""0"",""2416""
","
","null","<p></p>","null","","","","","","","","","","","","","","","","","","","","","","","",""
"","do_recog","130","381851","0.0-74.0-0.0","""event"",""trial"",""time""
""fullscreenenter"",""0"",""2416""
","
","
","""event"",""trial"",""time""
""fullscreenenter"",""0"",""2416""
","
","1535.1000003814697","","","","","","","","55","","","","285","probe-244","","","","","0","[object Object]","null","null","1","","","",""
"","html-keyboard-response","131","382854","0.0-74.0-1.0","""event"",""trial"",""time""
""fullscreenenter"",""0"",""2416""
","
","
","""event"",""trial"",""time""
""fullscreenenter"",""0"",""2416""
","
","null","<p></p>","null","","","","","","","","","","","","","","","","","","","","","","","",""
"","do_trial","132","386672","0.0-75.0-0.0","""event"",""trial"",""time""
""fullscreenenter"",""0"",""2416""
","
","
","""event"",""trial"",""time""
""fullscreenenter"",""0"",""2416""
","
","1251.7999992370605","","","","","","","","51","0,0,0","6","blank","286","null","0.6621535766281896","0.13439151187248546","0.4256386194068502","0","","","","","","","","",""
"","html-keyboard-response","133","387684","0.0-75.0-1.0","""event"",""trial"",""time""
""fullscreenenter"",""0"",""2416""
","
","
","""event"",""trial"",""time""
""fullscreenenter"",""0"",""2416""
","
","null","<p></p>","null","","","","","","","","","","","","","","","","","","","","","","","",""
"","do_recog","134","390889","0.0-76.0-0.0","""event"",""trial"",""time""
""fullscreenenter"",""0"",""2416""
","
","
","""event"",""trial"",""time""
""fullscreenenter"",""0"",""2416""
","
","1691.6000003814697","","","","","","","","55","","","","287","probe-168","","","","","1","[object Object]","114","2","0","","","",""
"","html-keyboard-response","135","391900","0.0-76.0-1.0","""event"",""trial"",""time""
""fullscreenenter"",""0"",""2416""
","
","
","""event"",""trial"",""time""
""fullscreenenter"",""0"",""2416""
","
","null","<p></p>","null","","","","","","","","","","","","","","","","","","","","","","","",""
"","do_trial","136","395434","0.0-77.0-0.0","""event"",""trial"",""time""
""fullscreenenter"",""0"",""2416""
","
","
","""event"",""trial"",""time""
""fullscreenenter"",""0"",""2416""
","
","947.5999984741211","","","","","","","","49","0,0,1","6","blank","288","null","0.6680829111103113","0.09468429810233771","0.3871419634129687","0","","","","","","","","",""
"","html-keyboard-response","137","396435","0.0-77.0-1.0","""event"",""trial"",""time""
""fullscreenenter"",""0"",""2416""
","
","
","""event"",""trial"",""time""
""fullscreenenter"",""0"",""2416""
","
","null","<p></p>","null","","","","","","","","","","","","","","","","","","","","","","","",""
"","do_trial","138","399284","0.0-78.0-0.0","""event"",""trial"",""time""
""fullscreenenter"",""0"",""2416""
","
","
","""event"",""trial"",""time""
""fullscreenenter"",""0"",""2416""
","
","271.1000003814697","","","","","","","","49","1,1,1","6","blank","289","null","0.5700740474893519","0.12824560029679463","0.5118995555389061","1","","","","","","","","",""
"","html-keyboard-response","139","400300","0.0-78.0-1.0","""event"",""trial"",""time""
""fullscreenenter"",""0"",""2416""
","
","
","""event"",""trial"",""time""
""fullscreenenter"",""0"",""2416""
","
","null","<p></p>","null","","","","","","","","","","","","","","","","","","","","","","","",""
"","do_trial","140","403218","0.0-79.0-0.0","""event"",""trial"",""time""
""fullscreenenter"",""0"",""2416""
","
","
","""event"",""trial"",""time""
""fullscreenenter"",""0"",""2416""
","
","317.79999923706055","","","","","","","","49","1,1,0","6","blank","290","null","0.7282027435640732","0.11396614286687658","0.34951856060172487","1","","","","","","","","",""
"","html-keyboard-response","141","404227","0.0-79.0-1.0","""event"",""trial"",""time""
""fullscreenenter"",""0"",""2416""
","
","
","""event"",""trial"",""time""
""fullscreenenter"",""0"",""2416""
","
","null","<p></p>","null","","","","","","","","","","","","","","","","","","","","","","","",""
"","do_trial","142","407178","0.0-80.0-0.0","""event"",""trial"",""time""
""fullscreenenter"",""0"",""2416""
","
","
","""event"",""trial"",""time""
""fullscreenenter"",""0"",""2416""
","
","356.1999988555908","","","","","","","","49","0,0,1","6","blank","291","null","0.6231949329422541","0.05743203742316333","0.389835902242395","0","","","","","","","","",""
"","html-keyboard-response","143","408184","0.0-80.0-1.0","""event"",""trial"",""time""
""fullscreenenter"",""0"",""2416""
","
","
","""event"",""trial"",""time""
""fullscreenenter"",""0"",""2416""
","
","null","<p></p>","null","","","","","","","","","","","","","","","","","","","","","","","",""
"","do_recog","144","411102","0.0-81.0-0.0","""event"",""trial"",""time""
""fullscreenenter"",""0"",""2416""
","
","
","""event"",""trial"",""time""
""fullscreenenter"",""0"",""2416""
","
","1398.8999996185303","","","","","","","","54","","","","292","probe-228","","","","","1","[object Object]","151","3","1","","","",""
"","html-keyboard-response","145","412118","0.0-81.0-1.0","""event"",""trial"",""time""
""fullscreenenter"",""0"",""2416""
","
","
","""event"",""trial"",""time""
""fullscreenenter"",""0"",""2416""
","
","null","<p></p>","null","","","","","","","","","","","","","","","","","","","","","","","",""
"","do_trial","146","415119","0.0-82.0-0.0","""event"",""trial"",""time""
""fullscreenenter"",""0"",""2416""
","
","
","""event"",""trial"",""time""
""fullscreenenter"",""0"",""2416""
","
","418.5","","","","","","","","49","0,0,0","6","blank","293","null","0.681614813471973","0.1058366655105938","0.2330562300886923","0","","","","","","","","",""
"","html-keyboard-response","147","416133","0.0-82.0-1.0","""event"",""trial"",""time""
""fullscreenenter"",""0"",""2416""
","
","
","""event"",""trial"",""time""
""fullscreenenter"",""0"",""2416""
","
","null","<p></p>","null","","","","","","","","","","","","","","","","","","","","","","","",""
"","do_trial","148","419250","0.0-83.0-0.0","""event"",""trial"",""time""
""fullscreenenter"",""0"",""2416""
","
","
","""event"",""trial"",""time""
""fullscreenenter"",""0"",""2416""
","
","532.7000007629395","","","","","","","","49","0,0,0","6","blank","294","null","0.7354493543353489","0.13026767258181773","0.14564671296524423","0","","","","","","","","",""
"","html-keyboard-response","149","420266","0.0-83.0-1.0","""event"",""trial"",""time""
""fullscreenenter"",""0"",""2416""
","
","
","""event"",""trial"",""time""
""fullscreenenter"",""0"",""2416""
","
","null","<p></p>","null","","","","","","","","","","","","","","","","","","","","","","","",""
"","do_trial","150","422852","0.0-84.0-0.0","""event"",""trial"",""time""
""fullscreenenter"",""0"",""2416""
","
","
","""event"",""trial"",""time""
""fullscreenenter"",""0"",""2416""
","
","0.10000038146972656","","","","","","","","50","0,1,0","6","blank","295","null","0.5350652815260853","0.41689426890826364","0.13152349994314844","1","","","","","","","","",""
"","html-keyboard-response","151","423864","0.0-84.0-1.0","""event"",""trial"",""time""
""fullscreenenter"",""0"",""2416""
","
","
","""event"",""trial"",""time""
""fullscreenenter"",""0"",""2416""
","
","null","<p></p>","null","","","","","","","","","","","","","","","","","","","","","","","",""
"","do_trial","152","426771","0.0-85.0-0.0","""event"",""trial"",""time""
""fullscreenenter"",""0"",""2416""
","
","
","""event"",""trial"",""time""
""fullscreenenter"",""0"",""2416""
","
","334.8999996185303","","","","","","","","50","0,0,0","6","blank","296","null","0.3655187069350756","0.4397941795140392","0.24127633628934264","0","","","","","","","","",""
"","html-keyboard-response","153","427782","0.0-85.0-1.0","""event"",""trial"",""time""
""fullscreenenter"",""0"",""2416""
","
","
","""event"",""trial"",""time""
""fullscreenenter"",""0"",""2416""
","
","null","<p></p>","null","","","","","","","","","","","","","","","","","","","","","","","",""
"","do_trial","154","430684","0.0-86.0-0.0","""event"",""trial"",""time""
""fullscreenenter"",""0"",""2416""
","
","
","""event"",""trial"",""time""
""fullscreenenter"",""0"",""2416""
","
","309","","","","","","","","50","0,0,1","6","blank","297","null","0.35075990944598034","0.5042595402356194","0.2861109189960318","0","","","","","","","","",""
"","html-keyboard-response","155","431700","0.0-86.0-1.0","""event"",""trial"",""time""
""fullscreenenter"",""0"",""2416""
","
","
","""event"",""trial"",""time""
""fullscreenenter"",""0"",""2416""
","
","null","<p></p>","null","","","","","","","","","","","","","","","","","","","","","","","",""
"","do_recog","156","434534","0.0-87.0-0.0","""event"",""trial"",""time""
""fullscreenenter"",""0"",""2416""
","
","
","""event"",""trial"",""time""
""fullscreenenter"",""0"",""2416""
","
","1307.3999996185303","","","","","","","","55","","","","298","probe-134","","","","","1","[object Object]","38","0","0","","","",""
"","html-keyboard-response","157","435550","0.0-87.0-1.0","""event"",""trial"",""time""
""fullscreenenter"",""0"",""2416""
","
","
","""event"",""trial"",""time""
""fullscreenenter"",""0"",""2416""
","
","null","<p></p>","null","","","","","","","","","","","","","","","","","","","","","","","",""
"","do_trial","158","438487","0.0-88.0-0.0","""event"",""trial"",""time""
""fullscreenenter"",""0"",""2416""
","
","
","""event"",""trial"",""time""
""fullscreenenter"",""0"",""2416""
","
","352.6999988555908","","","","","","","","50","1,1,0","6","blank","299","null","0.2319871811736143","0.6656979884897151","0.20521706916247107","1","","","","","","","","",""
"","html-keyboard-response","159","439500","0.0-88.0-1.0","""event"",""trial"",""time""
""fullscreenenter"",""0"",""2416""
","
","
","""event"",""trial"",""time""
""fullscreenenter"",""0"",""2416""
","
","null","<p></p>","null","","","","","","","","","","","","","","","","","","","","","","","",""
"","do_trial","160","442384","0.0-89.0-0.0","""event"",""trial"",""time""
""fullscreenenter"",""0"",""2416""
","
","
","""event"",""trial"",""time""
""fullscreenenter"",""0"",""2416""
","
","299.8000011444092","","","","","","","","50","0,0,1","6","blank","300","null","0.20666824570412143","0.6279483423187218","0.2740909278612533","0","","","","","","","","",""
"","html-keyboard-response","161","443400","0.0-89.0-1.0","""event"",""trial"",""time""
""fullscreenenter"",""0"",""2416""
","
","
","""event"",""trial"",""time""
""fullscreenenter"",""0"",""2416""
","
","null","<p></p>","null","","","","","","","","","","","","","","","","","","","","","","","",""
"","do_trial","162","446301","0.0-90.0-0.0","""event"",""trial"",""time""
""fullscreenenter"",""0"",""2416""
","
","
","""event"",""trial"",""time""
""fullscreenenter"",""0"",""2416""
","
","325.5999984741211","","","","","","","","50","0,0,0","6","blank","301","null","0.10816272601938667","0.6917236398822777","0.2168542837251253","0","","","","","","","","",""
"","html-keyboard-response","163","447316","0.0-90.0-1.0","""event"",""trial"",""time""
""fullscreenenter"",""0"",""2416""
","
","
","""event"",""trial"",""time""
""fullscreenenter"",""0"",""2416""
","
","null","<p></p>","null","","","","","","","","","","","","","","","","","","","","","","","",""
"","do_trial","164","450184","0.0-91.0-0.0","""event"",""trial"",""time""
""fullscreenenter"",""0"",""2416""
","
","
","""event"",""trial"",""time""
""fullscreenenter"",""0"",""2416""
","
","286.9000015258789","","","","","","","","51","0,1,0","6","blank","302","null","0.0888118230871903","0.5627931739119957","0.21859546511701208","0","","","","","","","","",""
"","html-keyboard-response","165","451200","0.0-91.0-1.0","""event"",""trial"",""time""
""fullscreenenter"",""0"",""2416""
","
","
","""event"",""trial"",""time""
""fullscreenenter"",""0"",""2416""
","
","null","<p></p>","null","","","","","","","","","","","","","","","","","","","","","","","",""
"","do_recog","166","454318","0.0-92.0-0.0","""event"",""trial"",""time""
""fullscreenenter"",""0"",""2416""
","
","
","""event"",""trial"",""time""
""fullscreenenter"",""0"",""2416""
","
","1599.5","","","","","","","","54","","","","303","probe-52","","","","","1","[object Object]","198","4","1","","","",""
"","html-keyboard-response","167","455331","0.0-92.0-1.0","""event"",""trial"",""time""
""fullscreenenter"",""0"",""2416""
","
","
","""event"",""trial"",""time""
""fullscreenenter"",""0"",""2416""
","
","null","<p></p>","null","","","","","","","","","","","","","","","","","","","","","","","",""
"","do_trial","168","458364","0.0-93.0-0.0","""event"",""trial"",""time""
""fullscreenenter"",""0"",""2416""
","
","
","""event"",""trial"",""time""
""fullscreenenter"",""0"",""2416""
","
","471.79999923706055","","","","","","","","49","0,1,0","6","blank","304","null","0.19094048466195","0.5858315483916043","0.2551792203827679","0","","","","","","","","",""
"","html-keyboard-response","169","459378","0.0-93.0-1.0","""event"",""trial"",""time""
""fullscreenenter"",""0"",""2416""
","
","
","""event"",""trial"",""time""
""fullscreenenter"",""0"",""2416""
","
","null","<p></p>","null","","","","","","","","","","","","","","","","","","","","","","","",""
"","do_recog","170","462867","0.0-94.0-0.0","""event"",""trial"",""time""
""fullscreenenter"",""0"",""2416""
","
","
","""event"",""trial"",""time""
""fullscreenenter"",""0"",""2416""
","
","1964.2000007629395","","","","","","","","55","","","","305","probe-35","","","","","1","[object Object]","71","1","0","","","",""
"","html-keyboard-response","171","463883","0.0-94.0-1.0","""event"",""trial"",""time""
""fullscreenenter"",""0"",""2416""
","
","
","""event"",""trial"",""time""
""fullscreenenter"",""0"",""2416""
","
","null","<p></p>","null","","","","","","","","","","","","","","","","","","","","","","","",""
"","do_trial","172","466956","0.0-95.0-0.0","""event"",""trial"",""time""
""fullscreenenter"",""0"",""2416""
","
","
","""event"",""trial"",""time""
""fullscreenenter"",""0"",""2416""
","
","487.79999923706055","","","","","","","","49","0,0,0","6","blank","306","null","0.1844174958046515","0.5205485869051565","0.25202566258674547","0","","","","","","","","",""
"","html-keyboard-response","173","467966","0.0-95.0-1.0","""event"",""trial"",""time""
""fullscreenenter"",""0"",""2416""
","
","
","""event"",""trial"",""time""
""fullscreenenter"",""0"",""2416""
","
","null","<p></p>","null","","","","","","","","","","","","","","","","","","","","","","","",""
"","do_recog","174","470884","0.0-96.0-0.0","""event"",""trial"",""time""
""fullscreenenter"",""0"",""2416""
","
","
","""event"",""trial"",""time""
""fullscreenenter"",""0"",""2416""
","
","1393","","","","","","","","54","","","","307","probe-104","","","","","1","[object Object]","150","3","1","","","",""
"","html-keyboard-response","175","471900","0.0-96.0-1.0","""event"",""trial"",""time""
""fullscreenenter"",""0"",""2416""
","
","
","""event"",""trial"",""time""
""fullscreenenter"",""0"",""2416""
","
","null","<p></p>","null","","","","","","","","","","","","","","","","","","","","","","","",""
"","do_trial","176","475334","0.0-97.0-0.0","""event"",""trial"",""time""
""fullscreenenter"",""0"",""2416""
","
","
","""event"",""trial"",""time""
""fullscreenenter"",""0"",""2416""
","
","850.1000003814697","","","","","","","","50","0,1,0","6","blank","308","null","0.05547707697437302","0.5453233957397917","0.224504010264193","1","","","","","","","","",""
"","html-keyboard-response","177","476350","0.0-97.0-1.0","""event"",""trial"",""time""
""fullscreenenter"",""0"",""2416""
","
","
","""event"",""trial"",""time""
""fullscreenenter"",""0"",""2416""
","
","null","<p></p>","null","","","","","","","","","","","","","","","","","","","","","","","",""
"","break","178","477403","0.0-98.0-0.0","""event"",""trial"",""time""
""fullscreenenter"",""0"",""2416""
","
","
","""event"",""trial"",""time""
""fullscreenenter"",""0"",""2416""
","
","1051.2000007629395","<div class='center'><p>Time to take a quick break! You have 2 minutes to rest, but you can move on sooner if you'd like.</p><p> Press the <b>space bar</b> to continue.</p></div>","32","","","","","","","","","","","","","","","","","","","","","","","",""
"","do_trial","179","480672","0.0-98.0-1.0","""event"",""trial"",""time""
""fullscreenenter"",""0"",""2416""
","
","
","""event"",""trial"",""time""
""fullscreenenter"",""0"",""2416""
","
","665.2000007629395","","","","","","","","50","0,1,0","6","blank","309","null","0.11272714714375275","0.657890536207894","0.24825874785009064","1","","","","","","","","",""
"","html-keyboard-response","180","481689","0.0-98.0-2.0","""event"",""trial"",""time""
""fullscreenenter"",""0"",""2416""
","
","
","""event"",""trial"",""time""
""fullscreenenter"",""0"",""2416""
","
","null","<p></p>","null","","","","","","","","","","","","","","","","","","","","","","","",""
"","do_trial","181","484578","0.0-99.0-0.0","""event"",""trial"",""time""
""fullscreenenter"",""0"",""2416""
","
","
","""event"",""trial"",""time""
""fullscreenenter"",""0"",""2416""
","
","301.8000011444092","","","","","","","","50","0,1,0","6","blank","310","null","0.1514992690857594","0.6136831706570249","0.4140978916278158","1","","","","","","","","",""
"","html-keyboard-response","182","485584","0.0-99.0-1.0","""event"",""trial"",""time""
""fullscreenenter"",""0"",""2416""
","
","
","""event"",""trial"",""time""
""fullscreenenter"",""0"",""2416""
","
","null","<p></p>","null","","","","","","","","","","","","","","","","","","","","","","","",""
"","do_recog","183","488569","0.0-100.0-0.0","""event"",""trial"",""time""
""fullscreenenter"",""0"",""2416""
","
","
","""event"",""trial"",""time""
""fullscreenenter"",""0"",""2416""
","
","1470.5","","","","","","","","54","","","","311","probe-16","","","","","1","[object Object]","31","0","1","","","",""
"","html-keyboard-response","184","489584","0.0-100.0-1.0","""event"",""trial"",""time""
""fullscreenenter"",""0"",""2416""
","
","
","""event"",""trial"",""time""
""fullscreenenter"",""0"",""2416""
","
","null","<p></p>","null","","","","","","","","","","","","","","","","","","","","","","","",""
"","do_trial","185","492685","0.0-101.0-0.0","""event"",""trial"",""time""
""fullscreenenter"",""0"",""2416""
","
","
","""event"",""trial"",""time""
""fullscreenenter"",""0"",""2416""
","
","514.1000003814697","","","","","","","","50","0,1,0","6","blank","312","null","0.06858709849446354","0.6376804884869707","0.28827814635028254","1","","","","","","","","",""
"","html-keyboard-response","186","493698","0.0-101.0-1.0","""event"",""trial"",""time""
""fullscreenenter"",""0"",""2416""
","
","
","""event"",""trial"",""time""
""fullscreenenter"",""0"",""2416""
","
","null","<p></p>","null","","","","","","","","","","","","","","","","","","","","","","","",""
"","do_trial","187","496551","0.0-102.0-0.0","""event"",""trial"",""time""
""fullscreenenter"",""0"",""2416""
","
","
","""event"",""trial"",""time""
""fullscreenenter"",""0"",""2416""
","
","274.5","","","","","","","","50","0,1,1","6","blank","313","null","0.13495127465454998","0.5920418925955843","0.41550445717883044","1","","","","","","","","",""
"","html-keyboard-response","188","497557","0.0-102.0-1.0","""event"",""trial"",""time""
""fullscreenenter"",""0"",""2416""
","
","
","""event"",""trial"",""time""
""fullscreenenter"",""0"",""2416""
","
","null","<p></p>","null","","","","","","","","","","","","","","","","","","","","","","","",""
"","do_trial","189","500454","0.0-103.0-0.0","""event"",""trial"",""time""
""fullscreenenter"",""0"",""2416""
","
","
","""event"",""trial"",""time""
""fullscreenenter"",""0"",""2416""
","
","310.8000011444092","","","","","","","","50","0,0,0","6","blank","314","null","0.2562209714710744","0.5385059036827483","0.4380547167352811","0","","","","","","","","",""
"","html-keyboard-response","190","501466","0.0-103.0-1.0","""event"",""trial"",""time""
""fullscreenenter"",""0"",""2416""
","
","
","""event"",""trial"",""time""
""fullscreenenter"",""0"",""2416""
","
","null","<p></p>","null","","","","","","","","","","","","","","","","","","","","","","","",""
"","do_trial","191","504344","0.0-104.0-0.0","""event"",""trial"",""time""
""fullscreenenter"",""0"",""2416""
","
","
","""event"",""trial"",""time""
""fullscreenenter"",""0"",""2416""
","
","297.5","","","","","","","","50","1,0,1","6","blank","315","null","0.254113343856377","0.6439451325774378","0.3885248317051697","0","","","","","","","","",""
"","html-keyboard-response","192","505353","0.0-104.0-1.0","""event"",""trial"",""time""
""fullscreenenter"",""0"",""2416""
","
","
","""event"",""trial"",""time""
""fullscreenenter"",""0"",""2416""
","
","null","<p></p>","null","","","","","","","","","","","","","","","","","","","","","","","",""
"","do_trial","193","509053","0.0-105.0-0.0","""event"",""trial"",""time""
""fullscreenenter"",""0"",""2416""
","
","
","""event"",""trial"",""time""
""fullscreenenter"",""0"",""2416""
","
","1045.1000003814697","","","","","","","","49","0,1,0","6","blank","316","null","0.1870685708090436","0.7082262895013861","0.39019869950227604","0","","","","","","","","",""
"","html-keyboard-response","194","510068","0.0-105.0-1.0","""event"",""trial"",""time""
""fullscreenenter"",""0"",""2416""
","
","
","""event"",""trial"",""time""
""fullscreenenter"",""0"",""2416""
","
","null","<p></p>","null","","","","","","","","","","","","","","","","","","","","","","","",""
"","do_trial","195","513036","0.0-106.0-0.0","""event"",""trial"",""time""
""fullscreenenter"",""0"",""2416""
","
","
","""event"",""trial"",""time""
""fullscreenenter"",""0"",""2416""
","
","375.20000076293945","","","","","","","","49","1,1,1","6","blank","317","null","0.10786965856230196","0.5613075822952192","0.4832480749994338","1","","","","","","","","",""
"","html-keyboard-response","196","514038","0.0-106.0-1.0","""event"",""trial"",""time""
""fullscreenenter"",""0"",""2416""
","
","
","""event"",""trial"",""time""
""fullscreenenter"",""0"",""2416""
","
","null","<p></p>","null","","","","","","","","","","","","","","","","","","","","","","","",""
"","do_recog","197","516735","0.0-107.0-0.0","""event"",""trial"",""time""
""fullscreenenter"",""0"",""2416""
","
","
","""event"",""trial"",""time""
""fullscreenenter"",""0"",""2416""
","
","1176.3999996185303","","","","","","","","54","","","","318","probe-200","","","","","1","[object Object]","77","1","1","","","",""
"","html-keyboard-response","198","517749","0.0-107.0-1.0","""event"",""trial"",""time""
""fullscreenenter"",""0"",""2416""
","
","
","""event"",""trial"",""time""
""fullscreenenter"",""0"",""2416""
","
","null","<p></p>","null","","","","","","","","","","","","","","","","","","","","","","","",""
"","do_trial","199","520884","0.0-108.0-0.0","""event"",""trial"",""time""
""fullscreenenter"",""0"",""2416""
","
","
","""event"",""trial"",""time""
""fullscreenenter"",""0"",""2416""
","
","552.5","","","","","","","","49","0,0,0","6","blank","319","null","0.15143516449658775","0.44099844434214036","0.3390985687273407","0","","","","","","","","",""
"","html-keyboard-response","200","521900","0.0-108.0-1.0","""event"",""trial"",""time""
""fullscreenenter"",""0"",""2416""
","
","
","""event"",""trial"",""time""
""fullscreenenter"",""0"",""2416""
","
","null","<p></p>","null","","","","","","","","","","","","","","","","","","","","","","","",""
"","do_recog","201","524568","0.0-109.0-0.0","""event"",""trial"",""time""
""fullscreenenter"",""0"",""2416""
","
","
","""event"",""trial"",""time""
""fullscreenenter"",""0"",""2416""
","
","1155.1000003814697","","","","","","","","54","","","","320","probe-94","","","","","1","[object Object]","70","1","1","","","",""
"","html-keyboard-response","202","525582","0.0-109.0-1.0","""event"",""trial"",""time""
""fullscreenenter"",""0"",""2416""
","
","
","""event"",""trial"",""time""
""fullscreenenter"",""0"",""2416""
","
","null","<p></p>","null","","","","","","","","","","","","","","","","","","","","","","","",""
"","do_trial","203","528649","0.0-110.0-0.0","""event"",""trial"",""time""
""fullscreenenter"",""0"",""2416""
","
","
","""event"",""trial"",""time""
""fullscreenenter"",""0"",""2416""
","
","475.5","","","","","","","","49","0,0,1","6","blank","321","null","0.07452842906605238","0.5250523318091811","0.32359857304353074","0","","","","","","","","",""
"","html-keyboard-response","204","529666","0.0-110.0-1.0","""event"",""trial"",""time""
""fullscreenenter"",""0"",""2416""
","
","
","""event"",""trial"",""time""
""fullscreenenter"",""0"",""2416""
","
","null","<p></p>","null","","","","","","","","","","","","","","","","","","","","","","","",""
"","do_trial","205","532618","0.0-111.0-0.0","""event"",""trial"",""time""
""fullscreenenter"",""0"",""2416""
","
","
","""event"",""trial"",""time""
""fullscreenenter"",""0"",""2416""
","
","368.79999923706055","","","","","","","","51","0,1,0","6","blank","322","null","0.0872114069938633","0.4888792842905213","0.17598960104355063","0","","","","","","","","",""
"","html-keyboard-response","206","533633","0.0-111.0-1.0","""event"",""trial"",""time""
""fullscreenenter"",""0"",""2416""
","
","
","""event"",""trial"",""time""
""fullscreenenter"",""0"",""2416""
","
","null","<p></p>","null","","","","","","","","","","","","","","","","","","","","","","","",""
"","do_trial","207","536468","0.0-112.0-0.0","""event"",""trial"",""time""
""fullscreenenter"",""0"",""2416""
","
","
","""event"",""trial"",""time""
""fullscreenenter"",""0"",""2416""
","
","263.20000076293945","","","","","","","","51","0,0,0","6","blank","323","null","0.20666438870451131","0.5625946721323132","0.20358380262738063","0","","","","","","","","",""
"","html-keyboard-response","208","537473","0.0-112.0-1.0","""event"",""trial"",""time""
""fullscreenenter"",""0"",""2416""
","
","
","""event"",""trial"",""time""
""fullscreenenter"",""0"",""2416""
","
","null","<p></p>","null","","","","","","","","","","","","","","","","","","","","","","","",""
"","do_trial","209","540402","0.0-113.0-0.0","""event"",""trial"",""time""
""fullscreenenter"",""0"",""2416""
","
","
","""event"",""trial"",""time""
""fullscreenenter"",""0"",""2416""
","
","356.3999996185303","","","","","","","","50","1,0,1","6","blank","324","null","0.17581940085361095","0.45890198226309503","0.2482935587952532","0","","","","","","","","",""
"","html-keyboard-response","210","541416","0.0-113.0-1.0","""event"",""trial"",""time""
""fullscreenenter"",""0"",""2416""
","
","
","""event"",""trial"",""time""
""fullscreenenter"",""0"",""2416""
","
","null","<p></p>","null","","","","","","","","","","","","","","","","","","","","","","","",""
"","do_recog","211","544133","0.0-114.0-0.0","""event"",""trial"",""time""
""fullscreenenter"",""0"",""2416""
","
","
","""event"",""trial"",""time""
""fullscreenenter"",""0"",""2416""
","
","1190.6000003814697","","","","","","","","54","","","","325","probe-178","","","","","1","[object Object]","79","1","1","","","",""
"","html-keyboard-response","212","545139","0.0-114.0-1.0","""event"",""trial"",""time""
""fullscreenenter"",""0"",""2416""
","
","
","""event"",""trial"",""time""
""fullscreenenter"",""0"",""2416""
","
","null","<p></p>","null","","","","","","","","","","","","","","","","","","","","","","","",""
"","do_trial","213","548066","0.0-115.0-0.0","""event"",""trial"",""time""
""fullscreenenter"",""0"",""2416""
","
","
","""event"",""trial"",""time""
""fullscreenenter"",""0"",""2416""
","
","357.3999996185303","","","","","","","","49","0,1,0","6","blank","326","null","0.07844408562173322","0.4961390363580494","0.2614209609160754","0","","","","","","","","",""
"","html-keyboard-response","214","549069","0.0-115.0-1.0","""event"",""trial"",""time""
""fullscreenenter"",""0"",""2416""
","
","
","""event"",""trial"",""time""
""fullscreenenter"",""0"",""2416""
","
","null","<p></p>","null","","","","","","","","","","","","","","","","","","","","","","","",""
"","do_trial","215","551949","0.0-116.0-0.0","""event"",""trial"",""time""
""fullscreenenter"",""0"",""2416""
","
","
","""event"",""trial"",""time""
""fullscreenenter"",""0"",""2416""
","
","285.79999923706055","","","","","","","","49","1,1,0","6","blank","327","null","0.07787960765113724","0.5036735550583746","0.26861708987914","1","","","","","","","","",""
"","html-keyboard-response","216","552966","0.0-116.0-1.0","""event"",""trial"",""time""
""fullscreenenter"",""0"",""2416""
","
","
","""event"",""trial"",""time""
""fullscreenenter"",""0"",""2416""
","
","null","<p></p>","null","","","","","","","","","","","","","","","","","","","","","","","",""
"","do_trial","217","555839","0.0-117.0-0.0","""event"",""trial"",""time""
""fullscreenenter"",""0"",""2416""
","
","
","""event"",""trial"",""time""
""fullscreenenter"",""0"",""2416""
","
","290.6999988555908","","","","","","","","49","1,0,0","6","blank","328","null","0.11211459392437007","0.5639972645491207","0.20559457529033373","1","","","","","","","","",""
"","html-keyboard-response","218","556848","0.0-117.0-1.0","""event"",""trial"",""time""
""fullscreenenter"",""0"",""2416""
","
","
","""event"",""trial"",""time""
""fullscreenenter"",""0"",""2416""
","
","null","<p></p>","null","","","","","","","","","","","","","","","","","","","","","","","",""
"","do_trial","219","559742","0.0-118.0-0.0","""event"",""trial"",""time""
""fullscreenenter"",""0"",""2416""
","
","
","""event"",""trial"",""time""
""fullscreenenter"",""0"",""2416""
","
","324.1000003814697","","","","","","","","49","1,0,0","6","blank","329","null","0.18355546528046304","0.5757031365995635","0.18284723241437367","1","","","","","","","","",""
"","html-keyboard-response","220","560751","0.0-118.0-1.0","""event"",""trial"",""time""
""fullscreenenter"",""0"",""2416""
","
","
","""event"",""trial"",""time""
""fullscreenenter"",""0"",""2416""
","
","null","<p></p>","null","","","","","","","","","","","","","","","","","","","","","","","",""
"","do_recog","221","563384","0.0-119.0-0.0","""event"",""trial"",""time""
""fullscreenenter"",""0"",""2416""
","
","
","""event"",""trial"",""time""
""fullscreenenter"",""0"",""2416""
","
","1119.7999992370605","","","","","","","","54","","","","330","probe-248","","","","","0","[object Object]","null","null","0","","","",""
"","html-keyboard-response","222","564392","0.0-119.0-1.0","""event"",""trial"",""time""
""fullscreenenter"",""0"",""2416""
","
","
","""event"",""trial"",""time""
""fullscreenenter"",""0"",""2416""
","
","null","<p></p>","null","","","","","","","","","","","","","","","","","","","","","","","",""
"","do_trial","223","567541","0.0-120.0-0.0","""event"",""trial"",""time""
""fullscreenenter"",""0"",""2416""
","
","
","""event"",""trial"",""time""
""fullscreenenter"",""0"",""2416""
","
","560.5","","","","","","","","49","1,0,0","6","blank","331","null","0.06696959873747797","0.735801533723293","0.32129592477142077","1","","","","","","","","",""
"","html-keyboard-response","224","568547","0.0-120.0-1.0","""event"",""trial"",""time""
""fullscreenenter"",""0"",""2416""
","
","
","""event"",""trial"",""time""
""fullscreenenter"",""0"",""2416""
","
","null","<p></p>","null","","","","","","","","","","","","","","","","","","","","","","","",""
"","do_recog","225","571046","0.0-121.0-0.0","""event"",""trial"",""time""
""fullscreenenter"",""0"",""2416""
","
","
","""event"",""trial"",""time""
""fullscreenenter"",""0"",""2416""
","
","987.1999988555908","","","","","","","","55","","","","332","probe-232","","","","","0","[object Object]","null","null","1","","","",""
"","html-keyboard-response","226","572050","0.0-121.0-1.0","""event"",""trial"",""time""
""fullscreenenter"",""0"",""2416""
","
","
","""event"",""trial"",""time""
""fullscreenenter"",""0"",""2416""
","
","null","<p></p>","null","","","","","","","","","","","","","","","","","","","","","","","",""
"","do_trial","227","575152","0.0-122.0-0.0","""event"",""trial"",""time""
""fullscreenenter"",""0"",""2416""
","
","
","""event"",""trial"",""time""
""fullscreenenter"",""0"",""2416""
","
","524.2999992370605","","","","","","","","49","0,1,0","6","blank","333","null","0.06001568026843195","0.7749556547132903","0.2038840658124156","0","","","","","","","","",""
"","html-keyboard-response","228","576169","0.0-122.0-1.0","""event"",""trial"",""time""
""fullscreenenter"",""0"",""2416""
","
","
","""event"",""trial"",""time""
""fullscreenenter"",""0"",""2416""
","
","null","<p></p>","null","","","","","","","","","","","","","","","","","","","","","","","",""
"","do_trial","229","579084","0.0-123.0-0.0","""event"",""trial"",""time""
""fullscreenenter"",""0"",""2416""
","
","
","""event"",""trial"",""time""
""fullscreenenter"",""0"",""2416""
","
","332.5","","","","","","","","49","0,0,0","6","blank","334","null","0.08834236002710412","0.6149163167404964","0.3999190296773819","0","","","","","","","","",""
"","html-keyboard-response","230","580100","0.0-123.0-1.0","""event"",""trial"",""time""
""fullscreenenter"",""0"",""2416""
","
","
","""event"",""trial"",""time""
""fullscreenenter"",""0"",""2416""
","
","null","<p></p>","null","","","","","","","","","","","","","","","","","","","","","","","",""
"","do_trial","231","582969","0.0-124.0-0.0","""event"",""trial"",""time""
""fullscreenenter"",""0"",""2416""
","
","
","""event"",""trial"",""time""
""fullscreenenter"",""0"",""2416""
","
","289.5","","","","","","","","50","0,1,1","6","blank","335","null","0.12294648067489261","0.6690657941758816","0.5156591751276163","1","","","","","","","","",""
"","html-keyboard-response","232","583982","0.0-124.0-1.0","""event"",""trial"",""time""
""fullscreenenter"",""0"",""2416""
","
","
","""event"",""trial"",""time""
""fullscreenenter"",""0"",""2416""
","
","null","<p></p>","null","","","","","","","","","","","","","","","","","","","","","","","",""
"","do_trial","233","586911","0.0-125.0-0.0","""event"",""trial"",""time""
""fullscreenenter"",""0"",""2416""
","
","
","""event"",""trial"",""time""
""fullscreenenter"",""0"",""2416""
","
","347","","","","","","","","50","1,0,0","6","blank","336","null","0.1775571232151369","0.6616274571245337","0.4156961002976434","0","","","","","","","","",""
"","html-keyboard-response","234","587925","0.0-125.0-1.0","""event"",""trial"",""time""
""fullscreenenter"",""0"",""2416""
","
","
","""event"",""trial"",""time""
""fullscreenenter"",""0"",""2416""
","
","null","<p></p>","null","","","","","","","","","","","","","","","","","","","","","","","",""
"","do_trial","235","590738","0.0-126.0-0.0","""event"",""trial"",""time""
""fullscreenenter"",""0"",""2416""
","
","
","""event"",""trial"",""time""
""fullscreenenter"",""0"",""2416""
","
","233.5","","","","","","","","50","0,1,0","6","blank","337","null","0.06988400398807033","0.7616252186642046","0.3897021777948","1","","","","","","","","",""
"","html-keyboard-response","236","591749","0.0-126.0-1.0","""event"",""trial"",""time""
""fullscreenenter"",""0"",""2416""
","
","
","""event"",""trial"",""time""
""fullscreenenter"",""0"",""2416""
","
","null","<p></p>","null","","","","","","","","","","","","","","","","","","","","","","","",""
"","do_trial","237","594623","0.0-127.0-0.0","""event"",""trial"",""time""
""fullscreenenter"",""0"",""2416""
","
","
","""event"",""trial"",""time""
""fullscreenenter"",""0"",""2416""
","
","310.0999984741211","","","","","","","","50","0,0,0","6","blank","338","null","0.1166559720996192","0.608360802082562","0.14322054617379948","0","","","","","","","","",""
"","html-keyboard-response","238","595632","0.0-127.0-1.0","""event"",""trial"",""time""
""fullscreenenter"",""0"",""2416""
","
","
","""event"",""trial"",""time""
""fullscreenenter"",""0"",""2416""
","
","null","<p></p>","null","","","","","","","","","","","","","","","","","","","","","","","",""
"","do_recog","239","598318","0.0-128.0-0.0","""event"",""trial"",""time""
""fullscreenenter"",""0"",""2416""
","
","
","""event"",""trial"",""time""
""fullscreenenter"",""0"",""2416""
","
","1166.6000003814697","","","","","","","","54","","","","339","probe-62","","","","","1","[object Object]","74","1","1","","","",""
"","html-keyboard-response","240","599333","0.0-128.0-1.0","""event"",""trial"",""time""
""fullscreenenter"",""0"",""2416""
","
","
","""event"",""trial"",""time""
""fullscreenenter"",""0"",""2416""
","
","null","<p></p>","null","","","","","","","","","","","","","","","","","","","","","","","",""
"","do_trial","241","602451","0.0-129.0-0.0","""event"",""trial"",""time""
""fullscreenenter"",""0"",""2416""
","
","
","""event"",""trial"",""time""
""fullscreenenter"",""0"",""2416""
","
","541.5","","","","","","","","50","0,1,0","6","blank","340","null","0.11679579355789908","0.5799345341759838","0.12542158896852673","1","","","","","","","","",""
"","html-keyboard-response","242","603466","0.0-129.0-1.0","""event"",""trial"",""time""
""fullscreenenter"",""0"",""2416""
","
","
","""event"",""trial"",""time""
""fullscreenenter"",""0"",""2416""
","
","null","<p></p>","null","","","","","","","","","","","","","","","","","","","","","","","",""
"","do_recog","243","606321","0.0-130.0-0.0","""event"",""trial"",""time""
""fullscreenenter"",""0"",""2416""
","
","
","""event"",""trial"",""time""
""fullscreenenter"",""0"",""2416""
","
","1332.1999988555908","","","","","","","","54","","","","341","probe-180","","","","","1","[object Object]","72","1","1","","","",""
"","html-keyboard-response","244","607338","0.0-130.0-1.0","""event"",""trial"",""time""
""fullscreenenter"",""0"",""2416""
","
","
","""event"",""trial"",""time""
""fullscreenenter"",""0"",""2416""
","
","null","<p></p>","null","","","","","","","","","","","","","","","","","","","","","","","",""
"","do_trial","245","610502","0.0-131.0-0.0","""event"",""trial"",""time""
""fullscreenenter"",""0"",""2416""
","
","
","""event"",""trial"",""time""
""fullscreenenter"",""0"",""2416""
","
","579","","","","","","","","50","0,0,0","6","blank","342","null","0.08853746641748572","0.6296747402283743","0.19627330991430608","0","","","","","","","","",""
"","html-keyboard-response","246","611517","0.0-131.0-1.0","""event"",""trial"",""time""
""fullscreenenter"",""0"",""2416""
","
","
","""event"",""trial"",""time""
""fullscreenenter"",""0"",""2416""
","
","null","<p></p>","null","","","","","","","","","","","","","","","","","","","","","","","",""
"","do_trial","247","614418","0.0-132.0-0.0","""event"",""trial"",""time""
""fullscreenenter"",""0"",""2416""
","
","
","""event"",""trial"",""time""
""fullscreenenter"",""0"",""2416""
","
","333.8000011444092","","","","","","","","50","1,1,0","6","blank","343","null","0.22564899001667513","0.7280035503152406","0.2581877731934356","1","","","","","","","","",""
"","html-keyboard-response","248","615433","0.0-132.0-1.0","""event"",""trial"",""time""
""fullscreenenter"",""0"",""2416""
","
","
","""event"",""trial"",""time""
""fullscreenenter"",""0"",""2416""
","
","null","<p></p>","null","","","","","","","","","","","","","","","","","","","","","","","",""
"","do_recog","249","618077","0.0-133.0-0.0","""event"",""trial"",""time""
""fullscreenenter"",""0"",""2416""
","
","
","""event"",""trial"",""time""
""fullscreenenter"",""0"",""2416""
","
","1125.599998474121","","","","","","","","55","","","","344","probe-253","","","","","0","[object Object]","null","null","1","","","",""
"","html-keyboard-response","250","619081","0.0-133.0-1.0","""event"",""trial"",""time""
""fullscreenenter"",""0"",""2416""
","
","
","""event"",""trial"",""time""
""fullscreenenter"",""0"",""2416""
","
","null","<p></p>","null","","","","","","","","","","","","","","","","","","","","","","","",""
"","do_trial","251","622137","0.0-134.0-0.0","""event"",""trial"",""time""
""fullscreenenter"",""0"",""2416""
","
","
","""event"",""trial"",""time""
""fullscreenenter"",""0"",""2416""
","
","462.8000011444092","","","","","","","","50","0,0,0","6","blank","345","null","0.10589340882462954","0.6863778687231773","0.28682586028821494","0","","","","","","","","",""
"","html-keyboard-response","252","623150","0.0-134.0-1.0","""event"",""trial"",""time""
""fullscreenenter"",""0"",""2416""
","
","
","""event"",""trial"",""time""
""fullscreenenter"",""0"",""2416""
","
","null","<p></p>","null","","","","","","","","","","","","","","","","","","","","","","","",""
"","do_trial","253","626068","0.0-135.0-0.0","""event"",""trial"",""time""
""fullscreenenter"",""0"",""2416""
","
","
","""event"",""trial"",""time""
""fullscreenenter"",""0"",""2416""
","
","343.1000003814697","","","","","","","","50","0,1,1","6","blank","346","null","0.07284737068822757","0.7323739116899486","0.18058611730127844","1","","","","","","","","",""
"","html-keyboard-response","254","627083","0.0-135.0-1.0","""event"",""trial"",""time""
""fullscreenenter"",""0"",""2416""
","
","
","""event"",""trial"",""time""
""fullscreenenter"",""0"",""2416""
","
","null","<p></p>","null","","","","","","","","","","","","","","","","","","","","","","","",""
"","do_recog","255","629684","0.0-136.0-0.0","""event"",""trial"",""time""
""fullscreenenter"",""0"",""2416""
","
","
","""event"",""trial"",""time""
""fullscreenenter"",""0"",""2416""
","
","1074.8999996185303","","","","","","","","54","","","","347","probe-128","","","","","1","[object Object]","192","4","1","","","",""
"","html-keyboard-response","256","630699","0.0-136.0-1.0","""event"",""trial"",""time""
""fullscreenenter"",""0"",""2416""
","
","
","""event"",""trial"",""time""
""fullscreenenter"",""0"",""2416""
","
","null","<p></p>","null","","","","","","","","","","","","","","","","","","","","","","","",""
"","do_trial","257","633717","0.0-137.0-0.0","""event"",""trial"",""time""
""fullscreenenter"",""0"",""2416""
","
","
","""event"",""trial"",""time""
""fullscreenenter"",""0"",""2416""
","
","453.70000076293945","","","","","","","","50","0,1,0","6","blank","348","null","0.1678732200957915","0.8355644909800617","0.22725987133700923","1","","","","","","","","",""
"","html-keyboard-response","258","634720","0.0-137.0-1.0","""event"",""trial"",""time""
""fullscreenenter"",""0"",""2416""
","
","
","""event"",""trial"",""time""
""fullscreenenter"",""0"",""2416""
","
","null","<p></p>","null","","","","","","","","","","","","","","","","","","","","","","","",""
"","break","259","635610","0.0-138.0-0.0","""event"",""trial"",""time""
""fullscreenenter"",""0"",""2416""
","
","
","""event"",""trial"",""time""
""fullscreenenter"",""0"",""2416""
","
","888.4000015258789","<div class='center'><p>Time to take a quick break! You have 2 minutes to rest, but you can move on sooner if you'd like.</p><p> Press the <b>space bar</b> to continue.</p></div>","32","","","","","","","","","","","","","","","","","","","","","","","",""
"","do_trial","260","638773","0.0-138.0-1.0","""event"",""trial"",""time""
""fullscreenenter"",""0"",""2416""
","
","
","""event"",""trial"",""time""
""fullscreenenter"",""0"",""2416""
","
","592.2000007629395","","","","","","","","50","0,0,0","6","blank","349","null","0.5170572505627259","0.5258770984664097","0.15981057800692544","0","","","","","","","","",""
"","html-keyboard-response","261","639784","0.0-138.0-2.0","""event"",""trial"",""time""
""fullscreenenter"",""0"",""2416""
","
","
","""event"",""trial"",""time""
""fullscreenenter"",""0"",""2416""
","
","null","<p></p>","null","","","","","","","","","","","","","","","","","","","","","","","",""
"","do_recog","262","642454","0.0-139.0-0.0","""event"",""trial"",""time""
""fullscreenenter"",""0"",""2416""
","
","
","""event"",""trial"",""time""
""fullscreenenter"",""0"",""2416""
","
","1142","","","","","","","","54","","","","350","probe-83","","","","","1","[object Object]","155","3","1","","","",""
"","html-keyboard-response","263","643466","0.0-139.0-1.0","""event"",""trial"",""time""
""fullscreenenter"",""0"",""2416""
","
","
","""event"",""trial"",""time""
""fullscreenenter"",""0"",""2416""
","
","null","<p></p>","null","","","","","","","","","","","","","","","","","","","","","","","",""
"","do_trial","264","646434","0.0-140.0-0.0","""event"",""trial"",""time""
""fullscreenenter"",""0"",""2416""
","
","
","""event"",""trial"",""time""
""fullscreenenter"",""0"",""2416""
","
","401.3999996185303","","","","","","","","50","0,0,0","6","blank","351","null","0.5703001451913395","0.17377899219027448","0.12143545300397829","0","","","","","","","","",""
"","html-keyboard-response","265","647447","0.0-140.0-1.0","""event"",""trial"",""time""
""fullscreenenter"",""0"",""2416""
","
","
","""event"",""trial"",""time""
""fullscreenenter"",""0"",""2416""
","
","null","<p></p>","null","","","","","","","","","","","","","","","","","","","","","","","",""
"","do_recog","266","650121","0.0-141.0-0.0","""event"",""trial"",""time""
""fullscreenenter"",""0"",""2416""
","
","
","""event"",""trial"",""time""
""fullscreenenter"",""0"",""2416""
","
","1160.1000003814697","","","","","","","","55","","","","352","probe-205","","","","","1","[object Object]","159","3","0","","","",""
"","html-keyboard-response","267","651133","0.0-141.0-1.0","""event"",""trial"",""time""
""fullscreenenter"",""0"",""2416""
","
","
","""event"",""trial"",""time""
""fullscreenenter"",""0"",""2416""
","
","null","<p></p>","null","","","","","","","","","","","","","","","","","","","","","","","",""
"","do_trial","268","655327","0.0-142.0-0.0","""event"",""trial"",""time""
""fullscreenenter"",""0"",""2416""
","
","
","""event"",""trial"",""time""
""fullscreenenter"",""0"",""2416""
","
","1619.7000007629395","","","","","","","","50","0,0,0","6","blank","353","null","0.5341472509438214","0.1685619001535342","0.05289410360094281","0","","","","","","","","",""
"","html-keyboard-response","269","656336","0.0-142.0-1.0","""event"",""trial"",""time""
""fullscreenenter"",""0"",""2416""
","
","
","""event"",""trial"",""time""
""fullscreenenter"",""0"",""2416""
","
","null","<p></p>","null","","","","","","","","","","","","","","","","","","","","","","","",""
"","do_trial","270","659168","0.0-143.0-0.0","""event"",""trial"",""time""
""fullscreenenter"",""0"",""2416""
","
","
","""event"",""trial"",""time""
""fullscreenenter"",""0"",""2416""
","
","263.70000076293945","","","","","","","","51","1,1,0","6","blank","354","null","0.4592363100139593","0.2546892395174062","0.11182852002400372","0","","","","","","","","",""
"","html-keyboard-response","271","660183","0.0-143.0-1.0","""event"",""trial"",""time""
""fullscreenenter"",""0"",""2416""
","
","
","""event"",""trial"",""time""
""fullscreenenter"",""0"",""2416""
","
","null","<p></p>","null","","","","","","","","","","","","","","","","","","","","","","","",""
"","do_trial","272","663027","0.0-144.0-0.0","""event"",""trial"",""time""
""fullscreenenter"",""0"",""2416""
","
","
","""event"",""trial"",""time""
""fullscreenenter"",""0"",""2416""
","
","257.8000011444092","","","","","","","","49","0,0,0","6","blank","355","null","0.46972532674551737","0.2881165373881694","0.11252299928870016","0","","","","","","","","",""
"","html-keyboard-response","273","664034","0.0-144.0-1.0","""event"",""trial"",""time""
""fullscreenenter"",""0"",""2416""
","
","
","""event"",""trial"",""time""
""fullscreenenter"",""0"",""2416""
","
","null","<p></p>","null","","","","","","","","","","","","","","","","","","","","","","","",""
"","do_trial","274","666867","0.0-145.0-0.0","""event"",""trial"",""time""
""fullscreenenter"",""0"",""2416""
","
","
","""event"",""trial"",""time""
""fullscreenenter"",""0"",""2416""
","
","255.60000038146973","","","","","","","","49","1,0,0","6","blank","356","null","0.37523779309154237","0.3113801689418019","0.18935201054520473","1","","","","","","","","",""
"","html-keyboard-response","275","667885","0.0-145.0-1.0","""event"",""trial"",""time""
""fullscreenenter"",""0"",""2416""
","
","
","""event"",""trial"",""time""
""fullscreenenter"",""0"",""2416""
","
","null","<p></p>","null","","","","","","","","","","","","","","","","","","","","","","","",""
"","do_trial","276","670704","0.0-146.0-0.0","""event"",""trial"",""time""
""fullscreenenter"",""0"",""2416""
","
","
","""event"",""trial"",""time""
""fullscreenenter"",""0"",""2416""
","
","252.89999961853027","","","","","","","","49","0,0,0","6","blank","357","null","0.5067383646041587","0.37137395985934196","0.10364513785885106","0","","","","","","","","",""
"","html-keyboard-response","277","671716","0.0-146.0-1.0","""event"",""trial"",""time""
""fullscreenenter"",""0"",""2416""
","
","
","""event"",""trial"",""time""
""fullscreenenter"",""0"",""2416""
","
