"success","trial_type","trial_index","time_elapsed","internal_node_id","interactions","blur_events","focus_events","fullscreenenter_events","fullscreenexit_events","rt","stimulus","key_press","subject_id","participant_id","age","gender","prompt","response","choice_outcomes","context_n","context_img_id","trial_n","probe_img_id","pR_red","pR_white","pR_black","outcome","is_valid","image_to_show","probed_trial","probed_context","correct","probe","probed_trial_n","probed_context_n","context_im"
"true","fullscreen","0","4431","0.0-0.0","""event"",""trial"",""time""
""fullscreenenter"",""0"",""3443""
","
","
","""event"",""trial"",""time""
""fullscreenenter"",""0"",""3443""
","
","","","","","","","","","","","","","","","","","","","","","","","","","","",""
"","pavlovia","1","4438","0.0-1.0","""event"",""trial"",""time""
""fullscreenenter"",""0"",""3443""
","
","
","""event"",""trial"",""time""
""fullscreenenter"",""0"",""3443""
","
","","","","","","","","","","","","","","","","","","","","","","","","","","",""
"","welc_back","2","14273","0.0-2.0","""event"",""trial"",""time""
""fullscreenenter"",""0"",""3443""
","
","
","""event"",""trial"",""time""
""fullscreenenter"",""0"",""3443""
","
","null","run_exp/static/audio/clip_29_welcome_back.m4a","null","404","247","17","Male","<div class='center'><p>Welcome to day 2!</p><p> Yesterday, you were the head captain of a pirate ship. You asked your fellow pirates to rob other ships of their gold across six different islands.</p></div>","","","","","","","","","","","","","","","","","","",""
"","html-keyboard-response","3","15544","0.0-3.0","""event"",""trial"",""time""
""fullscreenenter"",""0"",""3443""
","
","
","""event"",""trial"",""time""
""fullscreenenter"",""0"",""3443""
","
","1268.7999999523163","<div class='center'><p>Welcome to day 2!</p><p> Yesterday, you were the head captain of a pirate ship. You asked your fellow pirates to rob other ships of their gold across six different islands.</p><p><b>[Press the space bar to continue]</b></p></div>","32","","","","","","","","","","","","","","","","","","","","","","","",""
"","day_1_summary_goal","4","32746","0.0-4.0","""event"",""trial"",""time""
""fullscreenenter"",""0"",""3443""
","
","
","""event"",""trial"",""time""
""fullscreenenter"",""0"",""3443""
","
","null","run_exp/static/audio/clip_30_goal_of_game.m4a","null","","","","","<div class='center'><p>Today, like yesterday, you get to pick which pirate you want to rob the next ship.</p><p>If the pirate is successful in robbing a ship, you get gold coins that look like this: </p><p><img src='run_exp/static/images/tutorial/reward.png' height='150'></p><p> If they were not successful in robbing the ship, then you will get no gold coins and you'll see a big red x like this: </p><p><img src='run_exp/static/images/tutorial/reward_no.png' height='150'></p></div>","","","","","","","","","","","","","","","","","","",""
"","html-keyboard-response","5","33088","0.0-5.0","""event"",""trial"",""time""
""fullscreenenter"",""0"",""3443""
","
","
","""event"",""trial"",""time""
""fullscreenenter"",""0"",""3443""
","
","338.09999990463257","<div class='center'><p>Today, like yesterday, you get to pick which pirate you want to rob the next ship.</p><p>If the pirate is successful in robbing a ship, you get gold coins that look like this: </p><p><img src='run_exp/static/images/tutorial/reward.png' height='150'></p><p> If they were not successful in robbing the ship, then you will get no gold coins and you'll see a big red x like this: </p><p><img src='run_exp/static/images/tutorial/reward_no.png' height='150'></p><p><b>[Press the space bar to continue]</b></p></div>","32","","","","","","","","","","","","","","","","","","","","","","","",""
"","day_1_summary_pick","6","47765","0.0-6.0","""event"",""trial"",""time""
""fullscreenenter"",""0"",""3443""
","
","
","""event"",""trial"",""time""
""fullscreenenter"",""0"",""3443""
","
","null","run_exp/static/audio/clip_31_how_to_pick_a_pirate.m4a","null","","","","","<div class='center'><p>Also, just like yesterday, you will use the 1,2,3 keys on your keyboard to pick a pirate. Press '1' to choose red beard, '2' to choose white beard, and '3' to choose black beard . You only have 3 seconds to pick a pirate, so please make a choice quickly!</p></div>","","","","","","","","","","","","","","","","","","",""
"","html-keyboard-response","7","48840","0.0-7.0","""event"",""trial"",""time""
""fullscreenenter"",""0"",""3443""
","
","
","""event"",""trial"",""time""
""fullscreenenter"",""0"",""3443""
","
","1073.7999999523163","<div class='center'><p>Also, just like yesterday, you will use the 1,2,3 keys on your keyboard to pick a pirate. Press '1' to choose red beard, '2' to choose white beard, and '3' to choose black beard . You only have 3 seconds to pick a pirate, so please make a choice quickly!</p><p><b>[Press the space bar to continue]</b></p></div>","32","","","","","","","","","","","","","","","","","","","","","","","",""
"","test_phase_begin","8","79230","0.0-8.0","""event"",""trial"",""time""
""fullscreenenter"",""0"",""3443""
","
","
","""event"",""trial"",""time""
""fullscreenenter"",""0"",""3443""
","
","null","run_exp/static/audio/clip_32_final_place.m4a","null","","","","","<div class='center'><p>You’ve arrived at the final island of your journey! Unfortunately, it’s very foggy out, so you won’t be able to see it in the distance like the other islands you've visited.</p><p>You’ll still be deciding which pirate you want to rob a ship like before. However, because of the fog, you also won’t be able to see the ship.</p><p>This means you do not have to remember the ships you rob on this island.</p><p>Unlike yesterday, you won't be visiting multiple islands today. You will stay on this island for the entire game. This game will last ~30 minutes.</p></div>","","","","","","","","","","","","","","","","","","",""
"","html-keyboard-response","9","80687","0.0-9.0","""event"",""trial"",""time""
""fullscreenenter"",""0"",""3443""
","
","
","""event"",""trial"",""time""
""fullscreenenter"",""0"",""3443""
","
","1456","<div class='center'><p>You’ve arrived at the final island of your journey! Unfortunately, it’s very foggy out, so you won’t be able to see it in the distance like the other islands you've visited.</p><p>You’ll still be deciding which pirate you want to rob a ship like before. However, because of the fog, you also won’t be able to see the ship.</p><p>This means you do not have to remember the ships you rob on this island.</p><p>Unlike yesterday, you won't be visiting multiple islands today. You will stay on this island for the entire game. This game will last ~30 minutes.</p><p><b>[Press the space bar to continue]</b></p></div>","32","","","","","","","","","","","","","","","","","","","","","","","",""
"","explain_probe_1","10","88383","0.0-10.0","""event"",""trial"",""time""
""fullscreenenter"",""0"",""3443""
","
","
","""event"",""trial"",""time""
""fullscreenenter"",""0"",""3443""
","
","null","run_exp/static/audio/clip_33_recognition_1.m4a","null","","","","","<div class='center'><p> Sometimes you’ll be shown a ship, and you will be asked if you saw this ship on a past island.</p><p> Here is an example of what you will see.</p><p><img src='run_exp/static/images/tutorial/example_recog_trial.png' height='500'></p></div>","","","","","","","","","","","","","","","","","","",""
"","html-keyboard-response","11","90853","0.0-11.0","""event"",""trial"",""time""
""fullscreenenter"",""0"",""3443""
","
","
","""event"",""trial"",""time""
""fullscreenenter"",""0"",""3443""
","
","2467.5","<div class='center'><p> Sometimes you’ll be shown a ship, and you will be asked if you saw this ship on a past island.</p><p> Here is an example of what you will see.</p><p><img src='run_exp/static/images/tutorial/example_recog_trial.png' height='500'></p><p><b>[Press the space bar to continue]</b></p></div>","32","","","","","","","","","","","","","","","","","","","","","","","",""
"","explain_probe_2","12","112553","0.0-12.0","""event"",""trial"",""time""
""fullscreenenter"",""0"",""3443""
","
","
","""event"",""trial"",""time""
""fullscreenenter"",""0"",""3443""
","
","null","run_exp/static/audio/clip_34_recognition_2.m4a","null","","","","","<div class='center'><p> You will press the 5, 6, 7, 8 keys on your keyboard to respond.</p><p>If you are sure you saw the ship, press <b>5</b> on your keyboard.</p><p> If you think you saw it before but aren't sure, then press <b>6</b>.</p><p> If you think you have <b>not</b> seen it before but aren't sure, then press <b>7</b>.</p><p> If you are sure you did <b>not</b> see the ship before, then press <b>8</b>.</p><p><img src='run_exp/static/images/tutorial/example_recog_trial.png' height='500'></p></div>","","","","","","","","","","","","","","","","","","",""
"","html-keyboard-response","13","112960","0.0-13.0","""event"",""trial"",""time""
""fullscreenenter"",""0"",""3443""
","
","
","""event"",""trial"",""time""
""fullscreenenter"",""0"",""3443""
","
","405","<div class='center'><p> You will press the 5, 6, 7, 8 keys on your keyboard to respond.</p><p>If you are sure you saw the ship, press <b>5</b> on your keyboard.</p><p> If you think you saw it before but aren't sure, then press <b>6</b>.</p><p> If you think you have <b>not</b> seen it before but aren't sure, then press <b>7</b>.</p><p> If you are sure you did <b>not</b> see the ship before, then press <b>8</b>.</p><p><img src='run_exp/static/images/tutorial/example_recog_trial.png' height='500'></p><p><b>[Press the space bar to continue]</b></p></div>","32","","","","","","","","","","","","","","","","","","","","","","","",""
"","explain_outcome","14","130153","0.0-14.0","""event"",""trial"",""time""
""fullscreenenter"",""0"",""3443""
","
","
","""event"",""trial"",""time""
""fullscreenenter"",""0"",""3443""
","
","null","run_exp/static/audio/clip_35_recognition_3.m4a","null","","","","","<div class='center'><p> If you remember correctly, then you’ll get a gold coin like this: </p><p><img src='run_exp/static/images/tutorial/reward_small.png' height='200'></p><p>If you do not remember correctly, then you'll see a red x like this: </p><p><img src='run_exp/static/images/tutorial/reward_no.png' height='200'></p><p>Importantly, when you are shown a ship, take the time to remind yourself which island you saw it on. This will help you in the next part of the study.</p></div>","","","","","","","","","","","","","","","","","","",""
"","html-keyboard-response","15","130672","0.0-15.0","""event"",""trial"",""time""
""fullscreenenter"",""0"",""3443""
","
","
","""event"",""trial"",""time""
""fullscreenenter"",""0"",""3443""
","
","517.2000000476837","<div class='center'><p> If you remember correctly, then you’ll get a gold coin like this: </p><p><img src='run_exp/static/images/tutorial/reward_small.png' height='200'></p><p>If you do not remember correctly, then you'll see a red x like this: </p><p><img src='run_exp/static/images/tutorial/reward_no.png' height='200'></p><p>Importantly, when you are shown a ship, take the time to remind yourself which island you saw it on. This will help you in the next part of the study.</p><p><b>[Press the space bar to continue]</b></p></div>","32","","","","","","","","","","","","","","","","","","","","","","","",""
"","begin_test_phase","16","146494","0.0-16.0","""event"",""trial"",""time""
""fullscreenenter"",""0"",""3443""
","
","
","""event"",""trial"",""time""
""fullscreenenter"",""0"",""3443""
","
","null","run_exp/static/audio/clip_36_begin_final.m4a","null","","","","","<div class='center'><p>Let's go over the important points again. Your job is to: </p><p>1. Pick the pirate who is best at robbing ships and will bring you back gold coins. </p><p>2. Correctly remember whether or not you saw a ship before. If you did see the ship before, remind yourself on which island you saw it. </p></div>","","","","","","","","","","","","","","","","","","",""
"","html-keyboard-response","17","147149","0.0-17.0","""event"",""trial"",""time""
""fullscreenenter"",""0"",""3443""
","
","
","""event"",""trial"",""time""
""fullscreenenter"",""0"",""3443""
","
","620.0999999046326","<div class='center'><p>Let's go over the important points again. Your job is to: </p><p>1. Pick the pirate who is best at robbing ships and will bring you back gold coins. </p><p>2. Correctly remember whether or not you saw a ship before. If you did see the ship before, remind yourself on which island you saw it. </p><p><b>[Press the space bar to continue]</b></p></div>","32","","","","","","","","","","","","","","","","","","","","","","","",""
"","do_welcome","18","151163","0.0-18.0","""event"",""trial"",""time""
""fullscreenenter"",""0"",""3443""
","
","
","""event"",""trial"",""time""
""fullscreenenter"",""0"",""3443""
","
","null","","","","","","","","null","","","","","","","","","","","","","","","","","",""
"","do_trial","19","155403","0.0-19.0-0.0","""event"",""trial"",""time""
""fullscreenenter"",""0"",""3443""
","
","
","""event"",""trial"",""time""
""fullscreenenter"",""0"",""3443""
","
","1682.1000000238419","","","","","","","","49","1,1,1","6","blank","230","null","0.26669508113911167","0.6768793491267696","0.13192728907680512","1","","","","","","","","",""
"","html-keyboard-response","20","156412","0.0-19.0-1.0","""event"",""trial"",""time""
""fullscreenenter"",""0"",""3443""
","
","
","""event"",""trial"",""time""
""fullscreenenter"",""0"",""3443""
","
","null","<p></p>","null","","","","","","","","","","","","","","","","","","","","","","","",""
"","do_trial","21","158974","0.0-20.0-0.0","""event"",""trial"",""time""
""fullscreenenter"",""0"",""3443""
","
","
","""event"",""trial"",""time""
""fullscreenenter"",""0"",""3443""
","
","5.300000071525574","","","","","","","","49","0,1,0","6","blank","231","null","0.42054848770692543","0.6338307833666136","0.09149189083752735","0","","","","","","","","",""
"","html-keyboard-response","22","159978","0.0-20.0-1.0","""event"",""trial"",""time""
""fullscreenenter"",""0"",""3443""
","
","
","""event"",""trial"",""time""
""fullscreenenter"",""0"",""3443""
","
","null","<p></p>","null","","","","","","","","","","","","","","","","","","","","","","","",""
"","do_trial","23","162686","0.0-21.0-0.0","""event"",""trial"",""time""
""fullscreenenter"",""0"",""3443""
","
","
","""event"",""trial"",""time""
""fullscreenenter"",""0"",""3443""
","
","150.5","","","","","","","","49","0,1,0","6","blank","232","null","0.2931570596375946","0.6726336452687031","0.10983556171096848","0","","","","","","","","",""
"","html-keyboard-response","24","163691","0.0-21.0-1.0","""event"",""trial"",""time""
""fullscreenenter"",""0"",""3443""
","
","
","""event"",""trial"",""time""
""fullscreenenter"",""0"",""3443""
","
","null","<p></p>","null","","","","","","","","","","","","","","","","","","","","","","","",""
"","do_trial","25","166250","0.0-22.0-0.0","""event"",""trial"",""time""
""fullscreenenter"",""0"",""3443""
","
","
","""event"",""trial"",""time""
""fullscreenenter"",""0"",""3443""
","
","1.5999999046325684","","","","","","","","51","1,0,0","6","blank","233","null","0.25137020830640244","0.6399645043706377","0.15730608555390774","0","","","","","","","","",""
"","html-keyboard-response","26","167254","0.0-22.0-1.0","""event"",""trial"",""time""
""fullscreenenter"",""0"",""3443""
","
","
","""event"",""trial"",""time""
""fullscreenenter"",""0"",""3443""
","
","null","<p></p>","null","","","","","","","","","","","","","","","","","","","","","","","",""
"","do_trial","27","169934","0.0-23.0-0.0","""event"",""trial"",""time""
""fullscreenenter"",""0"",""3443""
","
","
","""event"",""trial"",""time""
""fullscreenenter"",""0"",""3443""
","
","123.89999997615814","","","","","","","","50","1,1,0","6","blank","234","null","0.3143417196626335","0.7849810576599978","0.14109770742250213","1","","","","","","","","",""
"","html-keyboard-response","28","170938","0.0-23.0-1.0","""event"",""trial"",""time""
""fullscreenenter"",""0"",""3443""
","
","
","""event"",""trial"",""time""
""fullscreenenter"",""0"",""3443""
","
","null","<p></p>","null","","","","","","","","","","","","","","","","","","","","","","","",""
"","do_trial","29","174036","0.0-24.0-0.0","""event"",""trial"",""time""
""fullscreenenter"",""0"",""3443""
","
","
","""event"",""trial"",""time""
""fullscreenenter"",""0"",""3443""
","
","542.2999999523163","","","","","","","","50","0,1,1","6","blank","235","null","0.29876039285888834","0.8327875900269288","0.18140245826205564","1","","","","","","","","",""
"","html-keyboard-response","30","175041","0.0-24.0-1.0","""event"",""trial"",""time""
""fullscreenenter"",""0"",""3443""
","
","
","""event"",""trial"",""time""
""fullscreenenter"",""0"",""3443""
","
","null","<p></p>","null","","","","","","","","","","","","","","","","","","","","","","","",""
"","do_trial","31","177754","0.0-25.0-0.0","""event"",""trial"",""time""
""fullscreenenter"",""0"",""3443""
","
","
","""event"",""trial"",""time""
""fullscreenenter"",""0"",""3443""
","
","159.89999997615814","","","","","","","","50","0,0,0","6","blank","236","null","0.3273464853981878","0.7627894369975375","0.21304921070751984","0","","","","","","","","",""
"","html-keyboard-response","32","178759","0.0-25.0-1.0","""event"",""trial"",""time""
""fullscreenenter"",""0"",""3443""
","
","
","""event"",""trial"",""time""
""fullscreenenter"",""0"",""3443""
","
","null","<p></p>","null","","","","","","","","","","","","","","","","","","","","","","","",""
"","do_trial","33","181334","0.0-26.0-0.0","""event"",""trial"",""time""
""fullscreenenter"",""0"",""3443""
","
","
","""event"",""trial"",""time""
""fullscreenenter"",""0"",""3443""
","
","21.5","","","","","","","","50","0,1,0","6","blank","237","null","0.1894708932718263","0.6719651553060486","0.16992011022574954","1","","","","","","","","",""
"","html-keyboard-response","34","182338","0.0-26.0-1.0","""event"",""trial"",""time""
""fullscreenenter"",""0"",""3443""
","
","
","""event"",""trial"",""time""
""fullscreenenter"",""0"",""3443""
","
","null","<p></p>","null","","","","","","","","","","","","","","","","","","","","","","","",""
"","do_trial","35","184945","0.0-27.0-0.0","""event"",""trial"",""time""
""fullscreenenter"",""0"",""3443""
","
","
","""event"",""trial"",""time""
""fullscreenenter"",""0"",""3443""
","
","55.299999952316284","","","","","","","","50","0,0,0","6","blank","238","null","0.19393812490401338","0.7858101363141263","0.14483997882099886","0","","","","","","","","",""
"","html-keyboard-response","36","185950","0.0-27.0-1.0","""event"",""trial"",""time""
""fullscreenenter"",""0"",""3443""
","
","
","""event"",""trial"",""time""
""fullscreenenter"",""0"",""3443""
","
","null","<p></p>","null","","","","","","","","","","","","","","","","","","","","","","","",""
"","do_trial","37","188568","0.0-28.0-0.0","""event"",""trial"",""time""
""fullscreenenter"",""0"",""3443""
","
","
","""event"",""trial"",""time""
""fullscreenenter"",""0"",""3443""
","
","64.39999997615814","","","","","","","","50","1,0,1","6","blank","239","null","0.19381147930836606","0.7394612546897991","0.1584968415754223","0","","","","","","","","",""
"","html-keyboard-response","38","189573","0.0-28.0-1.0","""event"",""trial"",""time""
""fullscreenenter"",""0"",""3443""
","
","
","""event"",""trial"",""time""
""fullscreenenter"",""0"",""3443""
","
","null","<p></p>","null","","","","","","","","","","","","","","","","","","","","","","","",""
"","do_trial","39","192229","0.0-29.0-0.0","""event"",""trial"",""time""
""fullscreenenter"",""0"",""3443""
","
","
","""event"",""trial"",""time""
""fullscreenenter"",""0"",""3443""
","
","101","","","","","","","","51","0,0,1","6","blank","240","null","0.30853070471110783","0.6288539501101386","0.15966876679458097","1","","","","","","","","",""
"","html-keyboard-response","40","193233","0.0-29.0-1.0","""event"",""trial"",""time""
""fullscreenenter"",""0"",""3443""
","
","
","""event"",""trial"",""time""
""fullscreenenter"",""0"",""3443""
","
","null","<p></p>","null","","","","","","","","","","","","","","","","","","","","","","","",""
"","do_trial","41","195809","0.0-30.0-0.0","""event"",""trial"",""time""
""fullscreenenter"",""0"",""3443""
","
","
","""event"",""trial"",""time""
""fullscreenenter"",""0"",""3443""
","
","40.5","","","","","","","","51","0,1,0","6","blank","241","null","0.2665325048613887","0.6080472755620161","0.08518856012473768","0","","","","","","","","",""
"","html-keyboard-response","42","196813","0.0-30.0-1.0","""event"",""trial"",""time""
""fullscreenenter"",""0"",""3443""
","
","
","""event"",""trial"",""time""
""fullscreenenter"",""0"",""3443""
","
","null","<p></p>","null","","","","","","","","","","","","","","","","","","","","","","","",""
"","do_recog","43","202830","0.0-31.0-0.0","""event"",""trial"",""time""
""fullscreenenter"",""0"",""3443""
","
","
","""event"",""trial"",""time""
""fullscreenenter"",""0"",""3443""
","
","null","","","","","","","","null","","","","242","probe-45","","","","","1","[object Object]","34","0","0","","","",""
"","html-keyboard-response","44","203833","0.0-31.0-1.0","""event"",""trial"",""time""
""fullscreenenter"",""0"",""3443""
","
","
","""event"",""trial"",""time""
""fullscreenenter"",""0"",""3443""
","
","null","<p></p>","null","","","","","","","","","","","","","","","","","","","","","","","",""
"","do_trial","45","207077","0.0-32.0-0.0","""event"",""trial"",""time""
""fullscreenenter"",""0"",""3443""
","
","
","""event"",""trial"",""time""
""fullscreenenter"",""0"",""3443""
","
","691.8999999761581","","","","","","","","50","1,1,1","6","blank","243","null","0.4469766707485542","0.40356156304097035","0.16514349069117482","1","","","","","","","","",""
"","html-keyboard-response","46","208081","0.0-32.0-1.0","""event"",""trial"",""time""
""fullscreenenter"",""0"",""3443""
","
","
","""event"",""trial"",""time""
""fullscreenenter"",""0"",""3443""
","
","null","<p></p>","null","","","","","","","","","","","","","","","","","","","","","","","",""
"","do_recog","47","211914","0.0-33.0-0.0","""event"",""trial"",""time""
""fullscreenenter"",""0"",""3443""
","
","
","""event"",""trial"",""time""
""fullscreenenter"",""0"",""3443""
","
","2323.2999999523163","","","","","","","","53","","","","244","probe-211","","","","","1","[object Object]","115","2","1","","","",""
"","html-keyboard-response","48","212919","0.0-33.0-1.0","""event"",""trial"",""time""
""fullscreenenter"",""0"",""3443""
","
","
","""event"",""trial"",""time""
""fullscreenenter"",""0"",""3443""
","
","null","<p></p>","null","","","","","","","","","","","","","","","","","","","","","","","",""
"","do_trial","49","216149","0.0-34.0-0.0","""event"",""trial"",""time""
""fullscreenenter"",""0"",""3443""
","
","
","""event"",""trial"",""time""
""fullscreenenter"",""0"",""3443""
","
","674.2000000476837","","","","","","","","49","1,0,0","6","blank","245","null","0.571190274892469","0.21894417132009833","0.2836894029966885","1","","","","","","","","",""
"","html-keyboard-response","50","217153","0.0-34.0-1.0","""event"",""trial"",""time""
""fullscreenenter"",""0"",""3443""
","
","
","""event"",""trial"",""time""
""fullscreenenter"",""0"",""3443""
","
","null","<p></p>","null","","","","","","","","","","","","","","","","","","","","","","","",""
"","do_trial","51","219897","0.0-35.0-0.0","""event"",""trial"",""time""
""fullscreenenter"",""0"",""3443""
","
","
","""event"",""trial"",""time""
""fullscreenenter"",""0"",""3443""
","
","189.90000009536743","","","","","","","","50","0,0,1","6","blank","246","null","0.6906455349828703","0.11187971974071453","0.2939234425765707","0","","","","","","","","",""
"","html-keyboard-response","52","220901","0.0-35.0-1.0","""event"",""trial"",""time""
""fullscreenenter"",""0"",""3443""
","
","
","""event"",""trial"",""time""
""fullscreenenter"",""0"",""3443""
","
","null","<p></p>","null","","","","","","","","","","","","","","","","","","","","","","","",""
"","do_trial","53","223461","0.0-36.0-0.0","""event"",""trial"",""time""
""fullscreenenter"",""0"",""3443""
","
","
","""event"",""trial"",""time""
""fullscreenenter"",""0"",""3443""
","
","4.5","","","","","","","","49","1,0,0","6","blank","247","null","0.789765487778247","0.1558101332122072","0.17290489178366372","1","","","","","","","","",""
"","html-keyboard-response","54","224468","0.0-36.0-1.0","""event"",""trial"",""time""
""fullscreenenter"",""0"",""3443""
","
","
","""event"",""trial"",""time""
""fullscreenenter"",""0"",""3443""
","
","null","<p></p>","null","","","","","","","","","","","","","","","","","","","","","","","",""
"","do_trial","55","227453","0.0-37.0-0.0","""event"",""trial"",""time""
""fullscreenenter"",""0"",""3443""
","
","
","""event"",""trial"",""time""
""fullscreenenter"",""0"",""3443""
","
","430.7999999523163","","","","","","","","49","0,0,0","6","blank","248","null","0.6722091921587622","0.17079833230638705","0.05134899997180106","0","","","","","","","","",""
"","html-keyboard-response","56","228457","0.0-37.0-1.0","""event"",""trial"",""time""
""fullscreenenter"",""0"",""3443""
","
","
","""event"",""trial"",""time""
""fullscreenenter"",""0"",""3443""
","
","null","<p></p>","null","","","","","","","","","","","","","","","","","","","","","","","",""
"","do_trial","57","231185","0.0-38.0-0.0","""event"",""trial"",""time""
""fullscreenenter"",""0"",""3443""
","
","
","""event"",""trial"",""time""
""fullscreenenter"",""0"",""3443""
","
","177.19999992847443","","","","","","","","51","1,0,0","6","blank","249","null","0.7628652418451668","0.09378614598493218","0.22292673844691394","0","","","","","","","","",""
"","html-keyboard-response","58","232189","0.0-38.0-1.0","""event"",""trial"",""time""
""fullscreenenter"",""0"",""3443""
","
","
","""event"",""trial"",""time""
""fullscreenenter"",""0"",""3443""
","
","null","<p></p>","null","","","","","","","","","","","","","","","","","","","","","","","",""
"","do_trial","59","234745","0.0-39.0-0.0","""event"",""trial"",""time""
""fullscreenenter"",""0"",""3443""
","
","
","""event"",""trial"",""time""
""fullscreenenter"",""0"",""3443""
","
","0.10000002384185791","","","","","","","","49","1,0,0","6","blank","250","null","0.6175362178181241","0.13019073945192086","0.1601528466653879","1","","","","","","","","",""
"","html-keyboard-response","60","235749","0.0-39.0-1.0","""event"",""trial"",""time""
""fullscreenenter"",""0"",""3443""
","
","
","""event"",""trial"",""time""
""fullscreenenter"",""0"",""3443""
","
","null","<p></p>","null","","","","","","","","","","","","","","","","","","","","","","","",""
"","do_recog","61","239777","0.0-40.0-0.0","""event"",""trial"",""time""
""fullscreenenter"",""0"",""3443""
","
","
","""event"",""trial"",""time""
""fullscreenenter"",""0"",""3443""
","
","2514.899999976158","","","","","","","","54","","","","251","probe-21","","","","","1","[object Object]","153","3","1","","","",""
"","html-keyboard-response","62","240781","0.0-40.0-1.0","""event"",""trial"",""time""
""fullscreenenter"",""0"",""3443""
","
","
","""event"",""trial"",""time""
""fullscreenenter"",""0"",""3443""
","
","null","<p></p>","null","","","","","","","","","","","","","","","","","","","","","","","",""
"","do_trial","63","243333","0.0-41.0-0.0","""event"",""trial"",""time""
""fullscreenenter"",""0"",""3443""
","
","
","""event"",""trial"",""time""
""fullscreenenter"",""0"",""3443""
","
","0.10000002384185791","","","","","","","","49","1,0,0","6","blank","252","null","0.5669275271676175","0.22162419774479403","0.0943229814104425","1","","","","","","","","",""
"","html-keyboard-response","64","244337","0.0-41.0-1.0","""event"",""trial"",""time""
""fullscreenenter"",""0"",""3443""
","
","
","""event"",""trial"",""time""
""fullscreenenter"",""0"",""3443""
","
","null","<p></p>","null","","","","","","","","","","","","","","","","","","","","","","","",""
"","do_trial","65","247053","0.0-42.0-0.0","""event"",""trial"",""time""
""fullscreenenter"",""0"",""3443""
","
","
","""event"",""trial"",""time""
""fullscreenenter"",""0"",""3443""
","
","163.30000007152557","","","","","","","","50","1,0,0","6","blank","253","null","0.558297151296842","0.11097408197751538","0.18140284680077048","0","","","","","","","","",""
"","html-keyboard-response","66","248057","0.0-42.0-1.0","""event"",""trial"",""time""
""fullscreenenter"",""0"",""3443""
","
","
","""event"",""trial"",""time""
""fullscreenenter"",""0"",""3443""
","
","null","<p></p>","null","","","","","","","","","","","","","","","","","","","","","","","",""
"","do_trial","67","250641","0.0-43.0-0.0","""event"",""trial"",""time""
""fullscreenenter"",""0"",""3443""
","
","
","""event"",""trial"",""time""
""fullscreenenter"",""0"",""3443""
","
","26.199999928474426","","","","","","","","49","0,0,0","6","blank","254","null","0.43153383803156403","0.1095843476854094","0.19116304270668913","0","","","","","","","","",""
"","html-keyboard-response","68","251648","0.0-43.0-1.0","""event"",""trial"",""time""
""fullscreenenter"",""0"",""3443""
","
","
","""event"",""trial"",""time""
""fullscreenenter"",""0"",""3443""
","
","null","<p></p>","null","","","","","","","","","","","","","","","","","","","","","","","",""
"","do_trial","69","254353","0.0-44.0-0.0","""event"",""trial"",""time""
""fullscreenenter"",""0"",""3443""
","
","
","""event"",""trial"",""time""
""fullscreenenter"",""0"",""3443""
","
","147","","","","","","","","49","1,0,0","6","blank","255","null","0.48060378684821986","0.15854227687487765","0.19808110423908204","1","","","","","","","","",""
"","html-keyboard-response","70","255357","0.0-44.0-1.0","""event"",""trial"",""time""
""fullscreenenter"",""0"",""3443""
","
","
","""event"",""trial"",""time""
""fullscreenenter"",""0"",""3443""
","
","null","<p></p>","null","","","","","","","","","","","","","","","","","","","","","","","",""
"","do_trial","71","257907","0.0-45.0-0.0","""event"",""trial"",""time""
""fullscreenenter"",""0"",""3443""
","
","
","""event"",""trial"",""time""
""fullscreenenter"",""0"",""3443""
","
","0","","","","","","","","49","1,0,0","6","blank","256","null","0.5700938686862497","0.08972072444054238","0.288124182749915","1","","","","","","","","",""
"","html-keyboard-response","72","258911","0.0-45.0-1.0","""event"",""trial"",""time""
""fullscreenenter"",""0"",""3443""
","
","
","""event"",""trial"",""time""
""fullscreenenter"",""0"",""3443""
","
","null","<p></p>","null","","","","","","","","","","","","","","","","","","","","","","","",""
"","do_recog","73","262685","0.0-46.0-0.0","""event"",""trial"",""time""
""fullscreenenter"",""0"",""3443""
","
","
","""event"",""trial"",""time""
""fullscreenenter"",""0"",""3443""
","
","2264.5","","","","","","","","53","","","","257","probe-221","","","","","1","[object Object]","74","1","1","","","",""
"","html-keyboard-response","74","263688","0.0-46.0-1.0","""event"",""trial"",""time""
""fullscreenenter"",""0"",""3443""
","
","
","""event"",""trial"",""time""
""fullscreenenter"",""0"",""3443""
","
","null","<p></p>","null","","","","","","","","","","","","","","","","","","","","","","","",""
"","do_trial","75","266667","0.0-47.0-0.0","""event"",""trial"",""time""
""fullscreenenter"",""0"",""3443""
","
","
","""event"",""trial"",""time""
""fullscreenenter"",""0"",""3443""
","
","427.39999997615814","","","","","","","","49","0,0,0","6","blank","258","null","0.4821019088599735","0.11824268675496445","0.20526828660553542","0","","","","","","","","",""
"","html-keyboard-response","76","267670","0.0-47.0-1.0","""event"",""trial"",""time""
""fullscreenenter"",""0"",""3443""
","
","
","""event"",""trial"",""time""
""fullscreenenter"",""0"",""3443""
","
","null","<p></p>","null","","","","","","","","","","","","","","","","","","","","","","","",""
"","do_recog","77","273685","0.0-48.0-0.0","""event"",""trial"",""time""
""fullscreenenter"",""0"",""3443""
","
","
","""event"",""trial"",""time""
""fullscreenenter"",""0"",""3443""
","
","null","","","","","","","","null","","","","259","probe-88","","","","","1","[object Object]","72","1","0","","","",""
"","html-keyboard-response","78","274688","0.0-48.0-1.0","""event"",""trial"",""time""
""fullscreenenter"",""0"",""3443""
","
","
","""event"",""trial"",""time""
""fullscreenenter"",""0"",""3443""
","
","null","<p></p>","null","","","","","","","","","","","","","","","","","","","","","","","",""
"","do_trial","79","277699","0.0-49.0-0.0","""event"",""trial"",""time""
""fullscreenenter"",""0"",""3443""
","
","
","""event"",""trial"",""time""
""fullscreenenter"",""0"",""3443""
","
","456.60000002384186","","","","","","","","50","1,0,0","6","blank","260","null","0.5925633880247176","0.11633479940308492","0.2739318797461585","0","","","","","","","","",""
"","html-keyboard-response","80","278703","0.0-49.0-1.0","""event"",""trial"",""time""
""fullscreenenter"",""0"",""3443""
","
","
","""event"",""trial"",""time""
""fullscreenenter"",""0"",""3443""
","
","null","<p></p>","null","","","","","","","","","","","","","","","","","","","","","","","",""
"","do_recog","81","282727","0.0-50.0-0.0","""event"",""trial"",""time""
""fullscreenenter"",""0"",""3443""
","
","
","""event"",""trial"",""time""
""fullscreenenter"",""0"",""3443""
","
","2512.7999999523163","","","","","","","","53","","","","261","probe-202","","","","","1","[object Object]","35","0","1","","","",""
"","html-keyboard-response","82","283730","0.0-50.0-1.0","""event"",""trial"",""time""
""fullscreenenter"",""0"",""3443""
","
","
","""event"",""trial"",""time""
""fullscreenenter"",""0"",""3443""
","
","null","<p></p>","null","","","","","","","","","","","","","","","","","","","","","","","",""
"","do_trial","83","286314","0.0-51.0-0.0","""event"",""trial"",""time""
""fullscreenenter"",""0"",""3443""
","
","
","""event"",""trial"",""time""
""fullscreenenter"",""0"",""3443""
","
","27.899999976158142","","","","","","","","49","0,0,1","6","blank","262","null","0.5237467278246438","0.16769265424331653","0.25191470239079766","0","","","","","","","","",""
"","html-keyboard-response","84","287318","0.0-51.0-1.0","""event"",""trial"",""time""
""fullscreenenter"",""0"",""3443""
","
","
","""event"",""trial"",""time""
""fullscreenenter"",""0"",""3443""
","
","null","<p></p>","null","","","","","","","","","","","","","","","","","","","","","","","",""
"","do_recog","85","291214","0.0-52.0-0.0","""event"",""trial"",""time""
""fullscreenenter"",""0"",""3443""
","
","
","""event"",""trial"",""time""
""fullscreenenter"",""0"",""3443""
","
","2384.899999976158","","","","","","","","53","","","","263","probe-99","","","","","1","[object Object]","152","3","1","","","",""
"","html-keyboard-response","86","292217","0.0-52.0-1.0","""event"",""trial"",""time""
""fullscreenenter"",""0"",""3443""
","
","
","""event"",""trial"",""time""
""fullscreenenter"",""0"",""3443""
","
","null","<p></p>","null","","","","","","","","","","","","","","","","","","","","","","","",""
"","do_trial","87","295205","0.0-53.0-0.0","""event"",""trial"",""time""
""fullscreenenter"",""0"",""3443""
","
","
","""event"",""trial"",""time""
""fullscreenenter"",""0"",""3443""
","
","432.2000000476837","","","","","","","","49","0,0,1","6","blank","264","null","0.553650455503474","0.19316107842714844","0.2600062759444831","0","","","","","","","","",""
"","html-keyboard-response","88","296209","0.0-53.0-1.0","""event"",""trial"",""time""
""fullscreenenter"",""0"",""3443""
","
","
","""event"",""trial"",""time""
""fullscreenenter"",""0"",""3443""
","
","null","<p></p>","null","","","","","","","","","","","","","","","","","","","","","","","",""
"","do_trial","89","298753","0.0-54.0-0.0","""event"",""trial"",""time""
""fullscreenenter"",""0"",""3443""
","
","
","""event"",""trial"",""time""
""fullscreenenter"",""0"",""3443""
","
","0.10000002384185791","","","","","","","","51","1,0,0","6","blank","265","null","0.5041473648809035","0.24074306832982614","0.12975749290294394","0","","","","","","","","",""
"","html-keyboard-response","90","299757","0.0-54.0-1.0","""event"",""trial"",""time""
""fullscreenenter"",""0"",""3443""
","
","
","""event"",""trial"",""time""
""fullscreenenter"",""0"",""3443""
","
","null","<p></p>","null","","","","","","","","","","","","","","","","","","","","","","","",""
"","do_recog","91","303657","0.0-55.0-0.0","""event"",""trial"",""time""
""fullscreenenter"",""0"",""3443""
","
","
","""event"",""trial"",""time""
""fullscreenenter"",""0"",""3443""
","
","2387.2000000476837","","","","","","","","53","","","","266","probe-133","","","","","1","[object Object]","114","2","1","","","",""
"","html-keyboard-response","92","304661","0.0-55.0-1.0","""event"",""trial"",""time""
""fullscreenenter"",""0"",""3443""
","
","
","""event"",""trial"",""time""
""fullscreenenter"",""0"",""3443""
","
","null","<p></p>","null","","","","","","","","","","","","","","","","","","","","","","","",""
"","do_trial","93","308024","0.0-56.0-0.0","""event"",""trial"",""time""
""fullscreenenter"",""0"",""3443""
","
","
","""event"",""trial"",""time""
""fullscreenenter"",""0"",""3443""
","
","810.3999999761581","","","","","","","","50","0,0,0","6","blank","267","null","0.4717173906858056","0.1642773897703456","0.15806179828742567","0","","","","","","","","",""
"","html-keyboard-response","94","309028","0.0-56.0-1.0","""event"",""trial"",""time""
""fullscreenenter"",""0"",""3443""
","
","
","""event"",""trial"",""time""
""fullscreenenter"",""0"",""3443""
","
","null","<p></p>","null","","","","","","","","","","","","","","","","","","","","","","","",""
"","do_recog","95","313085","0.0-57.0-0.0","""event"",""trial"",""time""
""fullscreenenter"",""0"",""3443""
","
","
","""event"",""trial"",""time""
""fullscreenenter"",""0"",""3443""
","
","2546.5","","","","","","","","55","","","","268","probe-155","","","","","1","[object Object]","39","0","0","","","",""
"","html-keyboard-response","96","314088","0.0-57.0-1.0","""event"",""trial"",""time""
""fullscreenenter"",""0"",""3443""
","
","
","""event"",""trial"",""time""
""fullscreenenter"",""0"",""3443""
","
","null","<p></p>","null","","","","","","","","","","","","","","","","","","","","","","","",""
"","break","97","315676","0.0-58.0-0.0","""event"",""trial"",""time""
""fullscreenenter"",""0"",""3443""
","
","
","""event"",""trial"",""time""
""fullscreenenter"",""0"",""3443""
","
","1585.3999999761581","<div class='center'><p>Time to take a quick break! You have 2 minutes to rest, but you can move on sooner if you'd like.</p><p> Press the <b>space bar</b> to continue.</p></div>","32","","","","","","","","","","","","","","","","","","","","","","","",""
"","do_trial","98","321731","0.0-58.0-1.0","""event"",""trial"",""time""
""fullscreenenter"",""0"",""3443""
","
","
","""event"",""trial"",""time""
""fullscreenenter"",""0"",""3443""
","
","null","","","","","","","","null","1,1,0","6","blank","269","null","0.5669653496298794","0.18961556616905673","0.2254389852484231","","","","","","","","","",""
"","html-keyboard-response","99","322736","0.0-58.0-2.0","""event"",""trial"",""time""
""fullscreenenter"",""0"",""3443""
","
","
","""event"",""trial"",""time""
""fullscreenenter"",""0"",""3443""
","
","null","<p></p>","null","","","","","","","","","","","","","","","","","","","","","","","",""
"","do_trial","100","325596","0.0-59.0-0.0","""event"",""trial"",""time""
""fullscreenenter"",""0"",""3443""
","
","
","""event"",""trial"",""time""
""fullscreenenter"",""0"",""3443""
","
","308.40000009536743","","","","","","","","51","1,1,1","6","blank","270","null","0.6406989564354996","0.17096801592125746","0.3016419724927152","1","","","","","","","","",""
"","html-keyboard-response","101","326600","0.0-59.0-1.0","""event"",""trial"",""time""
""fullscreenenter"",""0"",""3443""
","
","
","""event"",""trial"",""time""
""fullscreenenter"",""0"",""3443""
","
","null","<p></p>","null","","","","","","","","","","","","","","","","","","","","","","","",""
"","do_trial","102","329176","0.0-60.0-0.0","""event"",""trial"",""time""
""fullscreenenter"",""0"",""3443""
","
","
","""event"",""trial"",""time""
""fullscreenenter"",""0"",""3443""
","
","19.600000023841858","","","","","","","","51","1,0,0","6","blank","271","null","0.670433547542689","0.07147949292587628","0.20088323379185682","0","","","","","","","","",""
"","html-keyboard-response","103","330180","0.0-60.0-1.0","""event"",""trial"",""time""
""fullscreenenter"",""0"",""3443""
","
","
","""event"",""trial"",""time""
""fullscreenenter"",""0"",""3443""
","
","null","<p></p>","null","","","","","","","","","","","","","","","","","","","","","","","",""
"","do_trial","104","333079","0.0-61.0-0.0","""event"",""trial"",""time""
""fullscreenenter"",""0"",""3443""
","
","
","""event"",""trial"",""time""
""fullscreenenter"",""0"",""3443""
","
","344.5","","","","","","","","51","1,1,0","6","blank","272","null","0.7234554390700617","0.10219415431203252","0.2667269946319088","0","","","","","","","","",""
"","html-keyboard-response","105","334084","0.0-61.0-1.0","""event"",""trial"",""time""
""fullscreenenter"",""0"",""3443""
","
","
","""event"",""trial"",""time""
""fullscreenenter"",""0"",""3443""
","
","null","<p></p>","null","","","","","","","","","","","","","","","","","","","","","","","",""
"","do_trial","106","336772","0.0-62.0-0.0","""event"",""trial"",""time""
""fullscreenenter"",""0"",""3443""
","
","
","""event"",""trial"",""time""
""fullscreenenter"",""0"",""3443""
","
","129.39999997615814","","","","","","","","49","0,0,1","6","blank","273","null","0.5668159619041332","0.07510359615175287","0.3035394877594029","0","","","","","","","","",""
"","html-keyboard-response","107","337776","0.0-62.0-1.0","""event"",""trial"",""time""
""fullscreenenter"",""0"",""3443""
","
","
","""event"",""trial"",""time""
""fullscreenenter"",""0"",""3443""
","
","null","<p></p>","null","","","","","","","","","","","","","","","","","","","","","","","",""
"","do_trial","108","340344","0.0-63.0-0.0","""event"",""trial"",""time""
""fullscreenenter"",""0"",""3443""
","
","
","""event"",""trial"",""time""
""fullscreenenter"",""0"",""3443""
","
","14.899999976158142","","","","","","","","49","1,0,0","6","blank","274","null","0.5205672479046727","0.09896335961916722","0.30908015020961976","1","","","","","","","","",""
"","html-keyboard-response","109","341348","0.0-63.0-1.0","""event"",""trial"",""time""
""fullscreenenter"",""0"",""3443""
","
","
","""event"",""trial"",""time""
""fullscreenenter"",""0"",""3443""
","
","null","<p></p>","null","","","","","","","","","","","","","","","","","","","","","","","",""
"","do_trial","110","344024","0.0-64.0-0.0","""event"",""trial"",""time""
""fullscreenenter"",""0"",""3443""
","
","
","""event"",""trial"",""time""
""fullscreenenter"",""0"",""3443""
","
","121.80000007152557","","","","","","","","49","1,0,0","6","blank","275","null","0.5896698237627255","0.05626044200148294","0.2883643013010788","1","","","","","","","","",""
"","html-keyboard-response","111","345028","0.0-64.0-1.0","""event"",""trial"",""time""
""fullscreenenter"",""0"",""3443""
","
","
","""event"",""trial"",""time""
""fullscreenenter"",""0"",""3443""
","
","null","<p></p>","null","","","","","","","","","","","","","","","","","","","","","","","",""
"","do_recog","112","348688","0.0-65.0-0.0","""event"",""trial"",""time""
""fullscreenenter"",""0"",""3443""
","
","
","""event"",""trial"",""time""
""fullscreenenter"",""0"",""3443""
","
","2148.600000023842","","","","","","","","53","","","","276","probe-171","","","","","1","[object Object]","110","2","1","","","",""
"","html-keyboard-response","113","349692","0.0-65.0-1.0","""event"",""trial"",""time""
""fullscreenenter"",""0"",""3443""
","
","
","""event"",""trial"",""time""
""fullscreenenter"",""0"",""3443""
","
","null","<p></p>","null","","","","","","","","","","","","","","","","","","","","","","","",""
"","do_trial","114","353056","0.0-66.0-0.0","""event"",""trial"",""time""
""fullscreenenter"",""0"",""3443""
","
","
","""event"",""trial"",""time""
""fullscreenenter"",""0"",""3443""
","
","812.7999999523163","","","","","","","","50","1,1,0","6","blank","277","null","0.5329445439589343","0.05773764386584476","0.2621479784629069","1","","","","","","","","",""
"","html-keyboard-response","115","354059","0.0-66.0-1.0","""event"",""trial"",""time""
""fullscreenenter"",""0"",""3443""
","
","
","""event"",""trial"",""time""
""fullscreenenter"",""0"",""3443""
","
","null","<p></p>","null","","","","","","","","","","","","","","","","","","","","","","","",""
"","do_trial","116","356644","0.0-67.0-0.0","""event"",""trial"",""time""
""fullscreenenter"",""0"",""3443""
","
","
","""event"",""trial"",""time""
""fullscreenenter"",""0"",""3443""
","
","62.300000071525574","","","","","","","","49","1,1,1","6","blank","278","null","0.5200575146556224","0.302640275303987","0.40615323494918926","1","","","","","","","","",""
"","html-keyboard-response","117","357647","0.0-67.0-1.0","""event"",""trial"",""time""
""fullscreenenter"",""0"",""3443""
","
","
","""event"",""trial"",""time""
""fullscreenenter"",""0"",""3443""
","
","null","<p></p>","null","","","","","","","","","","","","","","","","","","","","","","","",""
"","do_trial","118","360244","0.0-68.0-0.0","""event"",""trial"",""time""
""fullscreenenter"",""0"",""3443""
","
","
","""event"",""trial"",""time""
""fullscreenenter"",""0"",""3443""
","
","45.89999997615814","","","","","","","","49","1,1,0","6","blank","279","null","0.5169306501330897","0.26868496229387634","0.5554272030011411","1","","","","","","","","",""
"","html-keyboard-response","119","361248","0.0-68.0-1.0","""event"",""trial"",""time""
""fullscreenenter"",""0"",""3443""
","
","
","""event"",""trial"",""time""
""fullscreenenter"",""0"",""3443""
","
","null","<p></p>","null","","","","","","","","","","","","","","","","","","","","","","","",""
"","do_trial","120","363800","0.0-69.0-0.0","""event"",""trial"",""time""
""fullscreenenter"",""0"",""3443""
","
","
","""event"",""trial"",""time""
""fullscreenenter"",""0"",""3443""
","
","0.2999999523162842","","","","","","","","49","0,0,0","6","blank","280","null","0.4442283210750316","0.2758909199760236","0.5017011441708766","0","","","","","","","","",""
"","html-keyboard-response","121","364804","0.0-69.0-1.0","""event"",""trial"",""time""
""fullscreenenter"",""0"",""3443""
","
","
","""event"",""trial"",""time""
""fullscreenenter"",""0"",""3443""
","
","null","<p></p>","null","","","","","","","","","","","","","","","","","","","","","","","",""
"","do_recog","122","368524","0.0-70.0-0.0","""event"",""trial"",""time""
""fullscreenenter"",""0"",""3443""
","
","
","""event"",""trial"",""time""
""fullscreenenter"",""0"",""3443""
","
","2207.2000000476837","","","","","","","","53","","","","281","probe-201","","","","","1","[object Object]","198","4","1","","","",""
"","html-keyboard-response","123","369527","0.0-70.0-1.0","""event"",""trial"",""time""
""fullscreenenter"",""0"",""3443""
","
","
","""event"",""trial"",""time""
""fullscreenenter"",""0"",""3443""
","
","null","<p></p>","null","","","","","","","","","","","","","","","","","","","","","","","",""
"","do_trial","124","372309","0.0-71.0-0.0","""event"",""trial"",""time""
""fullscreenenter"",""0"",""3443""
","
","
","""event"",""trial"",""time""
""fullscreenenter"",""0"",""3443""
","
","224.69999992847443","","","","","","","","49","0,1,0","6","blank","282","null","0.455343489879223","0.18816321264754926","0.45097358004826993","0","","","","","","","","",""
"","html-keyboard-response","125","373315","0.0-71.0-1.0","""event"",""trial"",""time""
""fullscreenenter"",""0"",""3443""
","
","
","""event"",""trial"",""time""
""fullscreenenter"",""0"",""3443""
","
","null","<p></p>","null","","","","","","","","","","","","","","","","","","","","","","","",""
"","do_recog","126","376416","0.0-72.0-0.0","""event"",""trial"",""time""
""fullscreenenter"",""0"",""3443""
","
","
","""event"",""trial"",""time""
""fullscreenenter"",""0"",""3443""
","
","1594.1000000238419","","","","","","","","53","","","","283","probe-148","","","","","1","[object Object]","119","2","1","","","",""
"","html-keyboard-response","127","377419","0.0-72.0-1.0","""event"",""trial"",""time""
""fullscreenenter"",""0"",""3443""
","
","
","""event"",""trial"",""time""
""fullscreenenter"",""0"",""3443""
","
","null","<p></p>","null","","","","","","","","","","","","","","","","","","","","","","","",""
"","do_trial","128","380699","0.0-73.0-0.0","""event"",""trial"",""time""
""fullscreenenter"",""0"",""3443""
","
","
","""event"",""trial"",""time""
""fullscreenenter"",""0"",""3443""
","
","726.1999999284744","","","","","","","","50","1,0,0","6","blank","284","null","0.5879418839293191","0.18235771149561683","0.31371930737827125","0","","","","","","","","",""
"","html-keyboard-response","129","381703","0.0-73.0-1.0","""event"",""trial"",""time""
""fullscreenenter"",""0"",""3443""
","
","
","""event"",""trial"",""time""
""fullscreenenter"",""0"",""3443""
","
","null","<p></p>","null","","","","","","","","","","","","","","","","","","","","","","","",""
"","do_trial","130","384359","0.0-74.0-0.0","""event"",""trial"",""time""
""fullscreenenter"",""0"",""3443""
","
","
","""event"",""trial"",""time""
""fullscreenenter"",""0"",""3443""
","
","97.80000007152557","","","","","","","","49","0,1,0","6","blank","285","null","0.6541918901914662","0.16231960230585776","0.27943814184670146","0","","","","","","","","",""
"","html-keyboard-response","131","385363","0.0-74.0-1.0","""event"",""trial"",""time""
""fullscreenenter"",""0"",""3443""
","
","
","""event"",""trial"",""time""
""fullscreenenter"",""0"",""3443""
","
","null","<p></p>","null","","","","","","","","","","","","","","","","","","","","","","","",""
"","do_trial","132","388039","0.0-75.0-0.0","""event"",""trial"",""time""
""fullscreenenter"",""0"",""3443""
","
","
","""event"",""trial"",""time""
""fullscreenenter"",""0"",""3443""
","
","121.60000002384186","","","","","","","","49","0,0,0","6","blank","286","null","0.675931045362808","0.20675361040109524","0.3371059667632716","0","","","","","","","","",""
"","html-keyboard-response","133","389043","0.0-75.0-1.0","""event"",""trial"",""time""
""fullscreenenter"",""0"",""3443""
","
","
","""event"",""trial"",""time""
""fullscreenenter"",""0"",""3443""
","
","null","<p></p>","null","","","","","","","","","","","","","","","","","","","","","","","",""
"","do_trial","134","391643","0.0-76.0-0.0","""event"",""trial"",""time""
""fullscreenenter"",""0"",""3443""
","
","
","""event"",""trial"",""time""
""fullscreenenter"",""0"",""3443""
","
","45.09999990463257","","","","","","","","50","0,0,0","6","blank","287","null","0.609658251794689","0.19305391199096428","0.24258681651664016","0","","","","","","","","",""
"","html-keyboard-response","135","392647","0.0-76.0-1.0","""event"",""trial"",""time""
""fullscreenenter"",""0"",""3443""
","
","
","""event"",""trial"",""time""
""fullscreenenter"",""0"",""3443""
","
","null","<p></p>","null","","","","","","","","","","","","","","","","","","","","","","","",""
"","do_trial","136","395267","0.0-77.0-0.0","""event"",""trial"",""time""
""fullscreenenter"",""0"",""3443""
","
","
","""event"",""trial"",""time""
""fullscreenenter"",""0"",""3443""
","
","62.5","","","","","","","","51","0,0,0","6","blank","288","null","0.6757290871700748","0.09983501813421139","0.2943032760358839","0","","","","","","","","",""
"","html-keyboard-response","137","396274","0.0-77.0-1.0","""event"",""trial"",""time""
""fullscreenenter"",""0"",""3443""
","
","
","""event"",""trial"",""time""
""fullscreenenter"",""0"",""3443""
","
","null","<p></p>","null","","","","","","","","","","","","","","","","","","","","","","","",""
"","do_recog","138","402291","0.0-78.0-0.0","""event"",""trial"",""time""
""fullscreenenter"",""0"",""3443""
","
","
","""event"",""trial"",""time""
""fullscreenenter"",""0"",""3443""
","
","null","","","","","","","","null","","","","289","probe-47","","","","","1","[object Object]","156","3","0","","","",""
"","html-keyboard-response","139","403295","0.0-78.0-1.0","""event"",""trial"",""time""
""fullscreenenter"",""0"",""3443""
","
","
","""event"",""trial"",""time""
""fullscreenenter"",""0"",""3443""
","
","null","<p></p>","null","","","","","","","","","","","","","","","","","","","","","","","",""
"","do_trial","140","406075","0.0-79.0-0.0","""event"",""trial"",""time""
""fullscreenenter"",""0"",""3443""
","
","
","""event"",""trial"",""time""
""fullscreenenter"",""0"",""3443""
","
","220.69999992847443","","","","","","","","49","1,0,1","6","blank","290","null","0.5910623659036428","0.1815797550455616","0.31601818029929024","1","","","","","","","","",""
"","html-keyboard-response","141","407079","0.0-79.0-1.0","""event"",""trial"",""time""
""fullscreenenter"",""0"",""3443""
","
","
","""event"",""trial"",""time""
""fullscreenenter"",""0"",""3443""
","
","null","<p></p>","null","","","","","","","","","","","","","","","","","","","","","","","",""
"","do_recog","142","410367","0.0-80.0-0.0","""event"",""trial"",""time""
""fullscreenenter"",""0"",""3443""
","
","
","""event"",""trial"",""time""
""fullscreenenter"",""0"",""3443""
","
","1773.9000000953674","","","","","","","","53","","","","291","probe-168","","","","","1","[object Object]","151","3","1","","","",""
"","html-keyboard-response","143","411375","0.0-80.0-1.0","""event"",""trial"",""time""
""fullscreenenter"",""0"",""3443""
","
","
","""event"",""trial"",""time""
""fullscreenenter"",""0"",""3443""
","
","null","<p></p>","null","","","","","","","","","","","","","","","","","","","","","","","",""
"","do_trial","144","414279","0.0-81.0-0.0","""event"",""trial"",""time""
""fullscreenenter"",""0"",""3443""
","
","
","""event"",""trial"",""time""
""fullscreenenter"",""0"",""3443""
","
","352.39999997615814","","","","","","","","50","0,0,0","6","blank","292","null","0.5390371331343836","0.14823490040529752","0.22503895692434192","0","","","","","","","","",""
"","html-keyboard-response","145","415284","0.0-81.0-1.0","""event"",""trial"",""time""
""fullscreenenter"",""0"",""3443""
","
","
","""event"",""trial"",""time""
""fullscreenenter"",""0"",""3443""
","
","null","<p></p>","null","","","","","","","","","","","","","","","","","","","","","","","",""
"","do_recog","146","419007","0.0-82.0-0.0","""event"",""trial"",""time""
""fullscreenenter"",""0"",""3443""
","
","
","""event"",""trial"",""time""
""fullscreenenter"",""0"",""3443""
","
","2215.600000023842","","","","","","","","56","","","","293","probe-232","","","","","0","[object Object]","null","null","1","","","",""
"","html-keyboard-response","147","420013","0.0-82.0-1.0","""event"",""trial"",""time""
""fullscreenenter"",""0"",""3443""
","
","
","""event"",""trial"",""time""
""fullscreenenter"",""0"",""3443""
","
","null","<p></p>","null","","","","","","","","","","","","","","","","","","","","","","","",""
"","do_trial","148","422843","0.0-83.0-0.0","""event"",""trial"",""time""
""fullscreenenter"",""0"",""3443""
","
","
","""event"",""trial"",""time""
""fullscreenenter"",""0"",""3443""
","
","273.10000002384186","","","","","","","","49","0,1,0","6","blank","294","null","0.514347640341516","0.30534190504787484","0.30122328034139123","0","","","","","","","","",""
"","html-keyboard-response","149","423847","0.0-83.0-1.0","""event"",""trial"",""time""
""fullscreenenter"",""0"",""3443""
","
","
","""event"",""trial"",""time""
""fullscreenenter"",""0"",""3443""
","
","null","<p></p>","null","","","","","","","","","","","","","","","","","","","","","","","",""
"","do_trial","150","426433","0.0-84.0-0.0","""event"",""trial"",""time""
""fullscreenenter"",""0"",""3443""
","
","
","""event"",""trial"",""time""
""fullscreenenter"",""0"",""3443""
","
","31.899999976158142","","","","","","","","49","1,0,0","6","blank","295","null","0.5803634105306936","0.20154405571673564","0.39551455516810874","1","","","","","","","","",""
"","html-keyboard-response","151","427439","0.0-84.0-1.0","""event"",""trial"",""time""
""fullscreenenter"",""0"",""3443""
","
","
","""event"",""trial"",""time""
""fullscreenenter"",""0"",""3443""
","
","null","<p></p>","null","","","","","","","","","","","","","","","","","","","","","","","",""
"","do_trial","152","430267","0.0-85.0-0.0","""event"",""trial"",""time""
""fullscreenenter"",""0"",""3443""
","
","
","""event"",""trial"",""time""
""fullscreenenter"",""0"",""3443""
","
","273.39999997615814","","","","","","","","49","0,0,0","6","blank","296","null","0.5362329021989253","0.28954438704618923","0.38804612058843346","0","","","","","","","","",""
"","html-keyboard-response","153","431274","0.0-85.0-1.0","""event"",""trial"",""time""
""fullscreenenter"",""0"",""3443""
","
","
","""event"",""trial"",""time""
""fullscreenenter"",""0"",""3443""
","
","null","<p></p>","null","","","","","","","","","","","","","","","","","","","","","","","",""
"","do_recog","154","435099","0.0-86.0-0.0","""event"",""trial"",""time""
""fullscreenenter"",""0"",""3443""
","
","
","""event"",""trial"",""time""
""fullscreenenter"",""0"",""3443""
","
","2314.3000000715256","","","","","","","","53","","","","297","probe-122","","","","","1","[object Object]","75","1","1","","","",""
"","html-keyboard-response","155","436107","0.0-86.0-1.0","""event"",""trial"",""time""
""fullscreenenter"",""0"",""3443""
","
","
","""event"",""trial"",""time""
""fullscreenenter"",""0"",""3443""
","
","null","<p></p>","null","","","","","","","","","","","","","","","","","","","","","","","",""
"","do_trial","156","439075","0.0-87.0-0.0","""event"",""trial"",""time""
""fullscreenenter"",""0"",""3443""
","
","
","""event"",""trial"",""time""
""fullscreenenter"",""0"",""3443""
","
","414.5","","","","","","","","50","0,0,0","6","blank","298","null","0.45556097002127344","0.40607301223949366","0.17323944067744873","0","","","","","","","","",""
"","html-keyboard-response","157","440078","0.0-87.0-1.0","""event"",""trial"",""time""
""fullscreenenter"",""0"",""3443""
","
","
","""event"",""trial"",""time""
""fullscreenenter"",""0"",""3443""
","
","null","<p></p>","null","","","","","","","","","","","","","","","","","","","","","","","",""
"","do_recog","158","443175","0.0-88.0-0.0","""event"",""trial"",""time""
""fullscreenenter"",""0"",""3443""
","
","
","""event"",""trial"",""time""
""fullscreenenter"",""0"",""3443""
","
","1588.8999999761581","","","","","","","","56","","","","299","probe-67","","","","","1","[object Object]","191","4","0","","","",""
"","html-keyboard-response","159","444182","0.0-88.0-1.0","""event"",""trial"",""time""
""fullscreenenter"",""0"",""3443""
","
","
","""event"",""trial"",""time""
""fullscreenenter"",""0"",""3443""
","
","null","<p></p>","null","","","","","","","","","","","","","","","","","","","","","","","",""
"","do_trial","160","447159","0.0-89.0-0.0","""event"",""trial"",""time""
""fullscreenenter"",""0"",""3443""
","
","
","""event"",""trial"",""time""
""fullscreenenter"",""0"",""3443""
","
","418.8000000715256","","","","","","","","49","0,0,0","6","blank","300","null","0.4783235915427072","0.5597743586598125","0.05036299761709904","0","","","","","","","","",""
"","html-keyboard-response","161","448165","0.0-89.0-1.0","""event"",""trial"",""time""
""fullscreenenter"",""0"",""3443""
","
","
","""event"",""trial"",""time""
""fullscreenenter"",""0"",""3443""
","
","null","<p></p>","null","","","","","","","","","","","","","","","","","","","","","","","",""
"","do_trial","162","450819","0.0-90.0-0.0","""event"",""trial"",""time""
""fullscreenenter"",""0"",""3443""
","
","
","""event"",""trial"",""time""
""fullscreenenter"",""0"",""3443""
","
","100.90000009536743","","","","","","","","49","1,1,0","6","blank","301","null","0.27159989458775774","0.5810515709580948","0.15703363868897588","1","","","","","","","","",""
"","html-keyboard-response","163","451823","0.0-90.0-1.0","""event"",""trial"",""time""
""fullscreenenter"",""0"",""3443""
","
","
","""event"",""trial"",""time""
""fullscreenenter"",""0"",""3443""
","
","null","<p></p>","null","","","","","","","","","","","","","","","","","","","","","","","",""
"","do_trial","164","454640","0.0-91.0-0.0","""event"",""trial"",""time""
""fullscreenenter"",""0"",""3443""
","
","
","""event"",""trial"",""time""
""fullscreenenter"",""0"",""3443""
","
","261.89999997615814","","","","","","","","49","0,0,0","6","blank","302","null","0.36004617275603784","0.5427842191980052","0.10695577058519976","0","","","","","","","","",""
"","html-keyboard-response","165","455642","0.0-91.0-1.0","""event"",""trial"",""time""
""fullscreenenter"",""0"",""3443""
","
","
","""event"",""trial"",""time""
""fullscreenenter"",""0"",""3443""
","
","null","<p></p>","null","","","","","","","","","","","","","","","","","","","","","","","",""
"","do_trial","166","458640","0.0-92.0-0.0","""event"",""trial"",""time""
""fullscreenenter"",""0"",""3443""
","
","
","""event"",""trial"",""time""
""fullscreenenter"",""0"",""3443""
","
","443.09999990463257","","","","","","","","50","1,0,0","6","blank","303","null","0.2833297084682708","0.49641234758266406","0.08600128636583275","0","","","","","","","","",""
"","html-keyboard-response","167","459646","0.0-92.0-1.0","""event"",""trial"",""time""
""fullscreenenter"",""0"",""3443""
","
","
","""event"",""trial"",""time""
""fullscreenenter"",""0"",""3443""
","
","null","<p></p>","null","","","","","","","","","","","","","","","","","","","","","","","",""
"","do_trial","168","462562","0.0-93.0-0.0","""event"",""trial"",""time""
""fullscreenenter"",""0"",""3443""
","
","
","""event"",""trial"",""time""
""fullscreenenter"",""0"",""3443""
","
","363.2999999523163","","","","","","","","49","0,0,0","6","blank","304","null","0.1815048022235433","0.5604417070834306","0.208045513676312","0","","","","","","","","",""
"","html-keyboard-response","169","463566","0.0-93.0-1.0","""event"",""trial"",""time""
""fullscreenenter"",""0"",""3443""
","
","
","""event"",""trial"",""time""
""fullscreenenter"",""0"",""3443""
","
","null","<p></p>","null","","","","","","","","","","","","","","","","","","","","","","","",""
"","do_trial","170","466454","0.0-94.0-0.0","""event"",""trial"",""time""
""fullscreenenter"",""0"",""3443""
","
","
","""event"",""trial"",""time""
""fullscreenenter"",""0"",""3443""
","
","332.5","","","","","","","","51","0,1,0","6","blank","305","null","0.0825753700866764","0.5543108806782565","0.1609292395417436","0","","","","","","","","",""
"","html-keyboard-response","171","467458","0.0-94.0-1.0","""event"",""trial"",""time""
""fullscreenenter"",""0"",""3443""
","
","
","""event"",""trial"",""time""
""fullscreenenter"",""0"",""3443""
","
","null","<p></p>","null","","","","","","","","","","","","","","","","","","","","","","","",""
"","do_trial","172","470302","0.0-95.0-0.0","""event"",""trial"",""time""
""fullscreenenter"",""0"",""3443""
","
","
","""event"",""trial"",""time""
""fullscreenenter"",""0"",""3443""
","
","290.59999990463257","","","","","","","","51","1,1,1","6","blank","306","null","0.3439099823418782","0.5051719619833576","0.20605129434609332","1","","","","","","","","",""
"","html-keyboard-response","173","471308","0.0-95.0-1.0","""event"",""trial"",""time""
""fullscreenenter"",""0"",""3443""
","
","
","""event"",""trial"",""time""
""fullscreenenter"",""0"",""3443""
","
","null","<p></p>","null","","","","","","","","","","","","","","","","","","","","","","","",""
"","do_recog","174","474786","0.0-96.0-0.0","""event"",""trial"",""time""
""fullscreenenter"",""0"",""3443""
","
","
","""event"",""trial"",""time""
""fullscreenenter"",""0"",""3443""
","
","1968.5","","","","","","","","56","","","","307","probe-233","","","","","0","[object Object]","null","null","1","","","",""
"","html-keyboard-response","175","475790","0.0-96.0-1.0","""event"",""trial"",""time""
""fullscreenenter"",""0"",""3443""
","
","
","""event"",""trial"",""time""
""fullscreenenter"",""0"",""3443""
","
","null","<p></p>","null","","","","","","","","","","","","","","","","","","","","","","","",""
"","do_trial","176","478626","0.0-97.0-0.0","""event"",""trial"",""time""
""fullscreenenter"",""0"",""3443""
","
","
","""event"",""trial"",""time""
""fullscreenenter"",""0"",""3443""
","
","282.2000000476837","","","","","","","","51","0,0,0","6","blank","308","null","0.33716541359003493","0.5169255078761623","0.1583649468000192","0","","","","","","","","",""
"","html-keyboard-response","177","479631","0.0-97.0-1.0","""event"",""trial"",""time""
""fullscreenenter"",""0"",""3443""
","
","
","""event"",""trial"",""time""
""fullscreenenter"",""0"",""3443""
","
","null","<p></p>","null","","","","","","","","","","","","","","","","","","","","","","","",""
"","break","178","480556","0.0-98.0-0.0","""event"",""trial"",""time""
""fullscreenenter"",""0"",""3443""
","
","
","""event"",""trial"",""time""
""fullscreenenter"",""0"",""3443""
","
","921.8000000715256","<div class='center'><p>Time to take a quick break! You have 2 minutes to rest, but you can move on sooner if you'd like.</p><p> Press the <b>space bar</b> to continue.</p></div>","32","","","","","","","","","","","","","","","","","","","","","","","",""
"","do_recog","179","485035","0.0-98.0-1.0","""event"",""trial"",""time""
""fullscreenenter"",""0"",""3443""
","
","
","""event"",""trial"",""time""
""fullscreenenter"",""0"",""3443""
","
","2971.600000023842","","","","","","","","54","","","","309","probe-136","","","","","1","[object Object]","113","2","1","","","",""
"","html-keyboard-response","180","486038","0.0-98.0-2.0","""event"",""trial"",""time""
""fullscreenenter"",""0"",""3443""
","
","
","""event"",""trial"",""time""
""fullscreenenter"",""0"",""3443""
","
","null","<p></p>","null","","","","","","","","","","","","","","","","","","","","","","","",""
"","do_trial","181","489334","0.0-99.0-0.0","""event"",""trial"",""time""
""fullscreenenter"",""0"",""3443""
","
","
","""event"",""trial"",""time""
""fullscreenenter"",""0"",""3443""
","
","737.7000000476837","","","","","","","","49","0,0,0","6","blank","310","null","0.3116306686242197","0.497211029618073","0.15411649561626262","0","","","","","","","","",""
"","html-keyboard-response","182","490338","0.0-99.0-1.0","""event"",""trial"",""time""
""fullscreenenter"",""0"",""3443""
","
","
","""event"",""trial"",""time""
""fullscreenenter"",""0"",""3443""
","
","null","<p></p>","null","","","","","","","","","","","","","","","","","","","","","","","",""
"","do_recog","183","493284","0.0-100.0-0.0","""event"",""trial"",""time""
""fullscreenenter"",""0"",""3443""
","
","
","""event"",""trial"",""time""
""fullscreenenter"",""0"",""3443""
","
","1431.7999999523163","","","","","","","","56","","","","311","probe-127","","","","","1","[object Object]","117","2","0","","","",""
"","html-keyboard-response","184","494290","0.0-100.0-1.0","""event"",""trial"",""time""
""fullscreenenter"",""0"",""3443""
","
","
","""event"",""trial"",""time""
""fullscreenenter"",""0"",""3443""
","
","null","<p></p>","null","","","","","","","","","","","","","","","","","","","","","","","",""
"","do_trial","185","497258","0.0-101.0-0.0","""event"",""trial"",""time""
""fullscreenenter"",""0"",""3443""
","
","
","""event"",""trial"",""time""
""fullscreenenter"",""0"",""3443""
","
","415.2999999523163","","","","","","","","49","0,1,0","6","blank","312","null","0.28770235068889405","0.6614054662025692","0.23213939176061502","0","","","","","","","","",""
"","html-keyboard-response","186","498266","0.0-101.0-1.0","""event"",""trial"",""time""
""fullscreenenter"",""0"",""3443""
","
","
","""event"",""trial"",""time""
""fullscreenenter"",""0"",""3443""
","
","null","<p></p>","null","","","","","","","","","","","","","","","","","","","","","","","",""
"","do_trial","187","500818","0.0-102.0-0.0","""event"",""trial"",""time""
""fullscreenenter"",""0"",""3443""
","
","
","""event"",""trial"",""time""
""fullscreenenter"",""0"",""3443""
","
","0.09999990463256836","","","","","","","","50","0,1,0","6","blank","313","null","0.1856786445704787","0.5774400413705767","0.2304726049838209","1","","","","","","","","",""
"","html-keyboard-response","188","501825","0.0-102.0-1.0","""event"",""trial"",""time""
""fullscreenenter"",""0"",""3443""
","
","
","""event"",""trial"",""time""
""fullscreenenter"",""0"",""3443""
","
","null","<p></p>","null","","","","","","","","","","","","","","","","","","","","","","","",""
"","do_trial","189","504650","0.0-103.0-0.0","""event"",""trial"",""time""
""fullscreenenter"",""0"",""3443""
","
","
","""event"",""trial"",""time""
""fullscreenenter"",""0"",""3443""
","
","271","","","","","","","","50","0,1,0","6","blank","314","null","0.3812548922163218","0.6725912840223989","0.22104995994122018","1","","","","","","","","",""
"","html-keyboard-response","190","505653","0.0-103.0-1.0","""event"",""trial"",""time""
""fullscreenenter"",""0"",""3443""
","
","
","""event"",""trial"",""time""
""fullscreenenter"",""0"",""3443""
","
","null","<p></p>","null","","","","","","","","","","","","","","","","","","","","","","","",""
"","do_trial","191","508558","0.0-104.0-0.0","""event"",""trial"",""time""
""fullscreenenter"",""0"",""3443""
","
","
","""event"",""trial"",""time""
""fullscreenenter"",""0"",""3443""
","
","356","","","","","","","","50","0,0,1","6","blank","315","null","0.4210537336427333","0.5488259655291393","0.2774586055189725","0","","","","","","","","",""
"","html-keyboard-response","192","509565","0.0-104.0-1.0","""event"",""trial"",""time""
""fullscreenenter"",""0"",""3443""
","
","
","""event"",""trial"",""time""
""fullscreenenter"",""0"",""3443""
","
","null","<p></p>","null","","","","","","","","","","","","","","","","","","","","","","","",""
"","do_trial","193","512470","0.0-105.0-0.0","""event"",""trial"",""time""
""fullscreenenter"",""0"",""3443""
","
","
","""event"",""trial"",""time""
""fullscreenenter"",""0"",""3443""
","
","348.2000000476837","","","","","","","","50","0,0,0","6","blank","316","null","0.20401861336293045","0.4934016314430862","0.19788058941594833","0","","","","","","","","",""
"","html-keyboard-response","194","513477","0.0-105.0-1.0","""event"",""trial"",""time""
""fullscreenenter"",""0"",""3443""
","
","
","""event"",""trial"",""time""
""fullscreenenter"",""0"",""3443""
","
","null","<p></p>","null","","","","","","","","","","","","","","","","","","","","","","","",""
"","do_recog","195","517246","0.0-106.0-0.0","""event"",""trial"",""time""
""fullscreenenter"",""0"",""3443""
","
","
","""event"",""trial"",""time""
""fullscreenenter"",""0"",""3443""
","
","2258.2000000476837","","","","","","","","53","","","","317","probe-27","","","","","1","[object Object]","190","4","1","","","",""
"","html-keyboard-response","196","518250","0.0-106.0-1.0","""event"",""trial"",""time""
""fullscreenenter"",""0"",""3443""
","
","
","""event"",""trial"",""time""
""fullscreenenter"",""0"",""3443""
","
","null","<p></p>","null","","","","","","","","","","","","","","","","","","","","","","","",""
"","do_trial","197","520806","0.0-107.0-0.0","""event"",""trial"",""time""
""fullscreenenter"",""0"",""3443""
","
","
","""event"",""trial"",""time""
""fullscreenenter"",""0"",""3443""
","
","0.19999992847442627","","","","","","","","49","0,1,1","6","blank","318","null","0.36745046406686493","0.5767632134670475","0.21804963931989427","0","","","","","","","","",""
"","html-keyboard-response","198","521810","0.0-107.0-1.0","""event"",""trial"",""time""
""fullscreenenter"",""0"",""3443""
","
","
","""event"",""trial"",""time""
""fullscreenenter"",""0"",""3443""
","
","null","<p></p>","null","","","","","","","","","","","","","","","","","","","","","","","",""
"","do_trial","199","524390","0.0-108.0-0.0","""event"",""trial"",""time""
""fullscreenenter"",""0"",""3443""
","
","
","""event"",""trial"",""time""
""fullscreenenter"",""0"",""3443""
","
","28.600000023841858","","","","","","","","49","0,1,0","6","blank","319","null","0.42006467356975025","0.49942194940807083","0.2137005942838724","0","","","","","","","","",""
"","html-keyboard-response","200","525393","0.0-108.0-1.0","""event"",""trial"",""time""
""fullscreenenter"",""0"",""3443""
","
","
","""event"",""trial"",""time""
""fullscreenenter"",""0"",""3443""
","
","null","<p></p>","null","","","","","","","","","","","","","","","","","","","","","","","",""
"","do_trial","201","528126","0.0-109.0-0.0","""event"",""trial"",""time""
""fullscreenenter"",""0"",""3443""
","
","
","""event"",""trial"",""time""
""fullscreenenter"",""0"",""3443""
","
","178","","","","","","","","51","1,0,0","6","blank","320","null","0.4690561580247518","0.6451499619318588","0.17768003285096587","0","","","","","","","","",""
"","html-keyboard-response","202","529133","0.0-109.0-1.0","""event"",""trial"",""time""
""fullscreenenter"",""0"",""3443""
","
","
","""event"",""trial"",""time""
""fullscreenenter"",""0"",""3443""
","
","null","<p></p>","null","","","","","","","","","","","","","","","","","","","","","","","",""
"","do_recog","203","532133","0.0-110.0-0.0","""event"",""trial"",""time""
""fullscreenenter"",""0"",""3443""
","
","
","""event"",""trial"",""time""
""fullscreenenter"",""0"",""3443""
","
","1486.1000000238419","","","","","","","","53","","","","321","probe-166","","","","","1","[object Object]","193","4","1","","","",""
"","html-keyboard-response","204","533138","0.0-110.0-1.0","""event"",""trial"",""time""
""fullscreenenter"",""0"",""3443""
","
","
","""event"",""trial"",""time""
""fullscreenenter"",""0"",""3443""
","
","null","<p></p>","null","","","","","","","","","","","","","","","","","","","","","","","",""
"","do_trial","205","536258","0.0-111.0-0.0","""event"",""trial"",""time""
""fullscreenenter"",""0"",""3443""
","
","
","""event"",""trial"",""time""
""fullscreenenter"",""0"",""3443""
","
","559.3000000715256","","","","","","","","51","0,1,0","6","blank","322","null","0.3639239928783245","0.5382986983297546","0.05284907070293777","0","","","","","","","","",""
"","html-keyboard-response","206","537265","0.0-111.0-1.0","""event"",""trial"",""time""
""fullscreenenter"",""0"",""3443""
","
","
","""event"",""trial"",""time""
""fullscreenenter"",""0"",""3443""
","
","null","<p></p>","null","","","","","","","","","","","","","","","","","","","","","","","",""
"","do_trial","207","540054","0.0-112.0-0.0","""event"",""trial"",""time""
""fullscreenenter"",""0"",""3443""
","
","
","""event"",""trial"",""time""
""fullscreenenter"",""0"",""3443""
","
","233","","","","","","","","50","0,1,0","6","blank","323","null","0.32457918677800335","0.5044854733439545","0.1270548490301569","1","","","","","","","","",""
"","html-keyboard-response","208","541057","0.0-112.0-1.0","""event"",""trial"",""time""
""fullscreenenter"",""0"",""3443""
","
","
","""event"",""trial"",""time""
""fullscreenenter"",""0"",""3443""
","
","null","<p></p>","null","","","","","","","","","","","","","","","","","","","","","","","",""
"","do_trial","209","543858","0.0-113.0-0.0","""event"",""trial"",""time""
""fullscreenenter"",""0"",""3443""
","
","
","""event"",""trial"",""time""
""fullscreenenter"",""0"",""3443""
","
","243.5","","","","","","","","50","1,0,0","6","blank","324","null","0.30245501918679024","0.42293279825898916","0.07476971558790046","0","","","","","","","","",""
"","html-keyboard-response","210","544865","0.0-113.0-1.0","""event"",""trial"",""time""
""fullscreenenter"",""0"",""3443""
","
","
","""event"",""trial"",""time""
""fullscreenenter"",""0"",""3443""
","
","null","<p></p>","null","","","","","","","","","","","","","","","","","","","","","","","",""
"","do_trial","211","547670","0.0-114.0-0.0","""event"",""trial"",""time""
""fullscreenenter"",""0"",""3443""
","
","
","""event"",""trial"",""time""
""fullscreenenter"",""0"",""3443""
","
","250.20000004768372","","","","","","","","49","0,0,0","6","blank","325","null","0.2941924057703537","0.5822190446158689","0.11516810282561546","0","","","","","","","","",""
"","html-keyboard-response","212","548673","0.0-114.0-1.0","""event"",""trial"",""time""
""fullscreenenter"",""0"",""3443""
","
","
","""event"",""trial"",""time""
""fullscreenenter"",""0"",""3443""
","
","null","<p></p>","null","","","","","","","","","","","","","","","","","","","","","","","",""
"","do_trial","213","551426","0.0-115.0-0.0","""event"",""trial"",""time""
""fullscreenenter"",""0"",""3443""
","
","
","""event"",""trial"",""time""
""fullscreenenter"",""0"",""3443""
","
","194.79999995231628","","","","","","","","49","0,0,0","6","blank","326","null","0.2793657829825461","0.5652754446348746","0.08550556472836997","0","","","","","","","","",""
"","html-keyboard-response","214","552433","0.0-115.0-1.0","""event"",""trial"",""time""
""fullscreenenter"",""0"",""3443""
","
","
","""event"",""trial"",""time""
""fullscreenenter"",""0"",""3443""
","
","null","<p></p>","null","","","","","","","","","","","","","","","","","","","","","","","",""
"","do_recog","215","555442","0.0-116.0-0.0","""event"",""trial"",""time""
""fullscreenenter"",""0"",""3443""
","
","
","""event"",""trial"",""time""
""fullscreenenter"",""0"",""3443""
","
","1497.6000000238419","","","","","","","","53","","","","327","probe-18","","","","","1","[object Object]","32","0","1","","","",""
"","html-keyboard-response","216","556445","0.0-116.0-1.0","""event"",""trial"",""time""
""fullscreenenter"",""0"",""3443""
","
","
","""event"",""trial"",""time""
""fullscreenenter"",""0"",""3443""
","
","null","<p></p>","null","","","","","","","","","","","","","","","","","","","","","","","",""
"","do_trial","217","559405","0.0-117.0-0.0","""event"",""trial"",""time""
""fullscreenenter"",""0"",""3443""
","
","
","""event"",""trial"",""time""
""fullscreenenter"",""0"",""3443""
","
","406.1999999284744","","","","","","","","50","1,1,0","6","blank","328","null","0.2419749230166523","0.45613565652189314","0.09962046727797585","1","","","","","","","","",""
"","html-keyboard-response","218","560409","0.0-117.0-1.0","""event"",""trial"",""time""
""fullscreenenter"",""0"",""3443""
","
","
","""event"",""trial"",""time""
""fullscreenenter"",""0"",""3443""
","
","null","<p></p>","null","","","","","","","","","","","","","","","","","","","","","","","",""
"","do_trial","219","563021","0.0-118.0-0.0","""event"",""trial"",""time""
""fullscreenenter"",""0"",""3443""
","
","
","""event"",""trial"",""time""
""fullscreenenter"",""0"",""3443""
","
","55.10000002384186","","","","","","","","50","0,0,0","6","blank","329","null","0.19878436319131493","0.35110926563335404","0.12561974460913264","0","","","","","","","","",""
"","html-keyboard-response","220","564025","0.0-118.0-1.0","""event"",""trial"",""time""
""fullscreenenter"",""0"",""3443""
","
","
","""event"",""trial"",""time""
""fullscreenenter"",""0"",""3443""
","
","null","<p></p>","null","","","","","","","","","","","","","","","","","","","","","","","",""
"","do_trial","221","566657","0.0-119.0-0.0","""event"",""trial"",""time""
""fullscreenenter"",""0"",""3443""
","
","
","""event"",""trial"",""time""
""fullscreenenter"",""0"",""3443""
","
","79.89999997615814","","","","","","","","51","0,1,0","6","blank","330","null","0.2214830821658796","0.3672815534041914","0.11109207625449258","0","","","","","","","","",""
"","html-keyboard-response","222","567662","0.0-119.0-1.0","""event"",""trial"",""time""
""fullscreenenter"",""0"",""3443""
","
","
","""event"",""trial"",""time""
""fullscreenenter"",""0"",""3443""
","
","null","<p></p>","null","","","","","","","","","","","","","","","","","","","","","","","",""
"","do_trial","223","570253","0.0-120.0-0.0","""event"",""trial"",""time""
""fullscreenenter"",""0"",""3443""
","
","
","""event"",""trial"",""time""
""fullscreenenter"",""0"",""3443""
","
","36.5","","","","","","","","49","0,1,0","6","blank","331","null","0.2571929921825495","0.5522246629515136","0.14621173098880008","0","","","","","","","","",""
"","html-keyboard-response","224","571257","0.0-120.0-1.0","""event"",""trial"",""time""
""fullscreenenter"",""0"",""3443""
","
","
","""event"",""trial"",""time""
""fullscreenenter"",""0"",""3443""
","
","null","<p></p>","null","","","","","","","","","","","","","","","","","","","","","","","",""
"","do_trial","225","574033","0.0-121.0-0.0","""event"",""trial"",""time""
""fullscreenenter"",""0"",""3443""
","
","
","""event"",""trial"",""time""
""fullscreenenter"",""0"",""3443""
","
","217.89999997615814","","","","","","","","49","0,0,0","6","blank","332","null","0.19639522860067352","0.5188285950504558","0.08604069445466472","0","","","","","","","","",""
"","html-keyboard-response","226","575040","0.0-121.0-1.0","""event"",""trial"",""time""
""fullscreenenter"",""0"",""3443""
","
","
","""event"",""trial"",""time""
""fullscreenenter"",""0"",""3443""
","
","null","<p></p>","null","","","","","","","","","","","","","","","","","","","","","","","",""
"","do_trial","227","578353","0.0-122.0-0.0","""event"",""trial"",""time""
""fullscreenenter"",""0"",""3443""
","
","
","""event"",""trial"",""time""
""fullscreenenter"",""0"",""3443""
","
","755.5","","","","","","","","50","0,1,0","6","blank","333","null","0.08852477397762298","0.6271176162922972","0.09153867431662631","1","","","","","","","","",""
"","html-keyboard-response","228","579360","0.0-122.0-1.0","""event"",""trial"",""time""
""fullscreenenter"",""0"",""3443""
","
","
","""event"",""trial"",""time""
""fullscreenenter"",""0"",""3443""
","
","null","<p></p>","null","","","","","","","","","","","","","","","","","","","","","","","",""
"","do_recog","229","582371","0.0-123.0-0.0","""event"",""trial"",""time""
""fullscreenenter"",""0"",""3443""
","
","
","""event"",""trial"",""time""
""fullscreenenter"",""0"",""3443""
","
","1499.5","","","","","","","","53","","","","334","probe-205","","","","","1","[object Object]","38","0","1","","","",""
"","html-keyboard-response","230","583377","0.0-123.0-1.0","""event"",""trial"",""time""
""fullscreenenter"",""0"",""3443""
","
","
","""event"",""trial"",""time""
""fullscreenenter"",""0"",""3443""
","
","null","<p></p>","null","","","","","","","","","","","","","","","","","","","","","","","",""
"","do_trial","231","586149","0.0-124.0-0.0","""event"",""trial"",""time""
""fullscreenenter"",""0"",""3443""
","
","
","""event"",""trial"",""time""
""fullscreenenter"",""0"",""3443""
","
","214.29999995231628","","","","","","","","51","0,1,0","6","blank","335","null","0.18360613384241417","0.5985262508693311","0.06046963353689796","0","","","","","","","","",""
"","html-keyboard-response","232","587153","0.0-124.0-1.0","""event"",""trial"",""time""
""fullscreenenter"",""0"",""3443""
","
","
","""event"",""trial"",""time""
""fullscreenenter"",""0"",""3443""
","
","null","<p></p>","null","","","","","","","","","","","","","","","","","","","","","","","",""
"","do_trial","233","590873","0.0-125.0-0.0","""event"",""trial"",""time""
""fullscreenenter"",""0"",""3443""
","
","
","""event"",""trial"",""time""
""fullscreenenter"",""0"",""3443""
","
","1166.2000000476837","","","","","","","","50","0,0,0","6","blank","336","null","0.05340545378930145","0.5712017985994068","0.15617251052378447","0","","","","","","","","",""
"","html-keyboard-response","234","591877","0.0-125.0-1.0","""event"",""trial"",""time""
""fullscreenenter"",""0"",""3443""
","
","
","""event"",""trial"",""time""
""fullscreenenter"",""0"",""3443""
","
","null","<p></p>","null","","","","","","","","","","","","","","","","","","","","","","","",""
"","do_trial","235","594785","0.0-126.0-0.0","""event"",""trial"",""time""
""fullscreenenter"",""0"",""3443""
","
","
","""event"",""trial"",""time""
""fullscreenenter"",""0"",""3443""
","
","349.60000002384186","","","","","","","","49","0,1,0","6","blank","337","null","0.16456057253606524","0.6857378743336487","0.09396732387123287","0","","","","","","","","",""
"","html-keyboard-response","236","595788","0.0-126.0-1.0","""event"",""trial"",""time""
""fullscreenenter"",""0"",""3443""
","
","
","""event"",""trial"",""time""
""fullscreenenter"",""0"",""3443""
","
","null","<p></p>","null","","","","","","","","","","","","","","","","","","","","","","","",""
"","do_trial","237","598564","0.0-127.0-0.0","""event"",""trial"",""time""
""fullscreenenter"",""0"",""3443""
","
","
","""event"",""trial"",""time""
""fullscreenenter"",""0"",""3443""
","
","226.39999997615814","","","","","","","","49","1,0,1","6","blank","338","null","0.29561242759555545","0.7048484691775189","0.13933908052922822","1","","","","","","","","",""
"","html-keyboard-response","238","599568","0.0-127.0-1.0","""event"",""trial"",""time""
""fullscreenenter"",""0"",""3443""
","
","
","""event"",""trial"",""time""
""fullscreenenter"",""0"",""3443""
","
","null","<p></p>","null","","","","","","","","","","","","","","","","","","","","","","","",""
"","do_trial","239","602237","0.0-128.0-0.0","""event"",""trial"",""time""
""fullscreenenter"",""0"",""3443""
","
","
","""event"",""trial"",""time""
""fullscreenenter"",""0"",""3443""
","
","112.20000004768372","","","","","","","","49","0,1,0","6","blank","339","null","0.330534190741047","0.8906243469503669","0.06416798899129676","0","","","","","","","","",""
"","html-keyboard-response","240","603240","0.0-128.0-1.0","""event"",""trial"",""time""
""fullscreenenter"",""0"",""3443""
","
","
","""event"",""trial"",""time""
""fullscreenenter"",""0"",""3443""
","
","null","<p></p>","null","","","","","","","","","","","","","","","","","","","","","","","",""
"","do_trial","241","605857","0.0-129.0-0.0","""event"",""trial"",""time""
""fullscreenenter"",""0"",""3443""
","
","
","""event"",""trial"",""time""
""fullscreenenter"",""0"",""3443""
","
","58.39999997615814","","","","","","","","49","0,1,0","6","blank","340","null","0.1966241828594788","0.7134891927953134","0.0603860161187853","0","","","","","","","","",""
"","html-keyboard-response","242","606864","0.0-129.0-1.0","""event"",""trial"",""time""
""fullscreenenter"",""0"",""3443""
","
","
","""event"",""trial"",""time""
""fullscreenenter"",""0"",""3443""
","
","null","<p></p>","null","","","","","","","","","","","","","","","","","","","","","","","",""
"","do_recog","243","609987","0.0-130.0-0.0","""event"",""trial"",""time""
""fullscreenenter"",""0"",""3443""
","
","
","""event"",""trial"",""time""
""fullscreenenter"",""0"",""3443""
","
","1614.5","","","","","","","","56","","","","341","probe-115","","","","","1","[object Object]","70","1","0","","","",""
"","html-keyboard-response","244","610991","0.0-130.0-1.0","""event"",""trial"",""time""
""fullscreenenter"",""0"",""3443""
","
","
","""event"",""trial"",""time""
""fullscreenenter"",""0"",""3443""
","
","null","<p></p>","null","","","","","","","","","","","","","","","","","","","","","","","",""
"","do_trial","245","613957","0.0-131.0-0.0","""event"",""trial"",""time""
""fullscreenenter"",""0"",""3443""
","
","
","""event"",""trial"",""time""
""fullscreenenter"",""0"",""3443""
","
","411","","","","","","","","49","1,0,0","6","blank","342","null","0.33832580443613475","0.56794807805311","0.060268700902310644","1","","","","","","","","",""
"","html-keyboard-response","246","614964","0.0-131.0-1.0","""event"",""trial"",""time""
""fullscreenenter"",""0"",""3443""
","
","
","""event"",""trial"",""time""
""fullscreenenter"",""0"",""3443""
","
","null","<p></p>","null","","","","","","","","","","","","","","","","","","","","","","","",""
"","do_recog","247","618272","0.0-132.0-0.0","""event"",""trial"",""time""
""fullscreenenter"",""0"",""3443""
","
","
","""event"",""trial"",""time""
""fullscreenenter"",""0"",""3443""
","
","1794.2000000476837","","","","","","","","53","","","","343","probe-151","","","","","1","[object Object]","155","3","1","","","",""
"","html-keyboard-response","248","619277","0.0-132.0-1.0","""event"",""trial"",""time""
""fullscreenenter"",""0"",""3443""
","
","
","""event"",""trial"",""time""
""fullscreenenter"",""0"",""3443""
","
","null","<p></p>","null","","","","","","","","","","","","","","","","","","","","","","","",""
"","do_trial","249","622133","0.0-133.0-0.0","""event"",""trial"",""time""
""fullscreenenter"",""0"",""3443""
","
","
","""event"",""trial"",""time""
""fullscreenenter"",""0"",""3443""
","
","303.10000002384186","","","","","","","","50","0,1,0","6","blank","344","null","0.49815979175882574","0.7871132777177866","0.06049192502990931","1","","","","","","","","",""
"","html-keyboard-response","250","623137","0.0-133.0-1.0","""event"",""trial"",""time""
""fullscreenenter"",""0"",""3443""
","
","
","""event"",""trial"",""time""
""fullscreenenter"",""0"",""3443""
","
","null","<p></p>","null","","","","","","","","","","","","","","","","","","","","","","","",""
"","do_trial","251","625933","0.0-134.0-0.0","""event"",""trial"",""time""
""fullscreenenter"",""0"",""3443""
","
","
","""event"",""trial"",""time""
""fullscreenenter"",""0"",""3443""
","
","240.69999992847443","","","","","","","","50","1,1,0","6","blank","345","null","0.3572333973194361","0.9120152739571121","0.05340009568483961","1","","","","","","","","",""
"","html-keyboard-response","252","626937","0.0-134.0-1.0","""event"",""trial"",""time""
""fullscreenenter"",""0"",""3443""
","
","
","""event"",""trial"",""time""
""fullscreenenter"",""0"",""3443""
","
","null","<p></p>","null","","","","","","","","","","","","","","","","","","","","","","","",""
"","do_recog","253","631237","0.0-135.0-0.0","""event"",""trial"",""time""
""fullscreenenter"",""0"",""3443""
","
","
","""event"",""trial"",""time""
""fullscreenenter"",""0"",""3443""
","
","2787.600000023842","","","","","","","","54","","","","346","probe-227","","","","","1","[object Object]","112","2","1","","","",""
"","html-keyboard-response","254","632241","0.0-135.0-1.0","""event"",""trial"",""time""
""fullscreenenter"",""0"",""3443""
","
","
","""event"",""trial"",""time""
""fullscreenenter"",""0"",""3443""
","
","null","<p></p>","null","","","","","","","","","","","","","","","","","","","","","","","",""
"","do_trial","255","635265","0.0-136.0-0.0","""event"",""trial"",""time""
""fullscreenenter"",""0"",""3443""
","
","
","""event"",""trial"",""time""
""fullscreenenter"",""0"",""3443""
","
","465.8000000715256","","","","","","","","49","0,1,0","6","blank","347","null","0.3321768242580773","0.8397661354080697","0.12128279079452617","0","","","","","","","","",""
"","html-keyboard-response","256","636272","0.0-136.0-1.0","""event"",""trial"",""time""
""fullscreenenter"",""0"",""3443""
","
","
","""event"",""trial"",""time""
""fullscreenenter"",""0"",""3443""
","
","null","<p></p>","null","","","","","","","","","","","","","","","","","","","","","","","",""
"","do_trial","257","639044","0.0-137.0-0.0","""event"",""trial"",""time""
""fullscreenenter"",""0"",""3443""
","
","
","""event"",""trial"",""time""
""fullscreenenter"",""0"",""3443""
","
","222.19999992847443","","","","","","","","50","0,1,1","6","blank","348","null","0.28027579503662053","0.7436922345636121","0.10822194457745682","1","","","","","","","","",""
"","html-keyboard-response","258","640048","0.0-137.0-1.0","""event"",""trial"",""time""
""fullscreenenter"",""0"",""3443""
","
","
","""event"",""trial"",""time""
""fullscreenenter"",""0"",""3443""
","
","null","<p></p>","null","","","","","","","","","","","","","","","","","","","","","","","",""
"","break","259","640731","0.0-138.0-0.0","""event"",""trial"",""time""
""fullscreenenter"",""0"",""3443""
","
","
","""event"",""trial"",""time""
""fullscreenenter"",""0"",""3443""
","
","679.6999999284744","<div class='center'><p>Time to take a quick break! You have 2 minutes to rest, but you can move on sooner if you'd like.</p><p> Press the <b>space bar</b> to continue.</p></div>","32","","","","","","","","","","","","","","","","","","","","","","","",""
"","do_trial","260","643900","0.0-138.0-1.0","""event"",""trial"",""time""
""fullscreenenter"",""0"",""3443""
","
","
","""event"",""trial"",""time""
""fullscreenenter"",""0"",""3443""
","
","616.8000000715256","","","","","","","","50","0,0,0","6","blank","349","null","0.3829501372176289","0.489552673244743","0.2853775383989636","0","","","","","","","","",""
"","html-keyboard-response","261","644904","0.0-138.0-2.0","""event"",""trial"",""time""
""fullscreenenter"",""0"",""3443""
","
","
","""event"",""trial"",""time""
""fullscreenenter"",""0"",""3443""
","
","null","<p></p>","null","","","","","","","","","","","","","","","","","","","","","","","",""
"","do_trial","262","647528","0.0-139.0-0.0","""event"",""trial"",""time""
""fullscreenenter"",""0"",""3443""
","
","
","""event"",""trial"",""time""
""fullscreenenter"",""0"",""3443""
","
","69.5","","","","","","","","49","1,0,0","6","blank","350","null","0.4973705409303131","0.3138722287269092","0.36106453627626195","1","","","","","","","","",""
"","html-keyboard-response","263","648532","0.0-139.0-1.0","""event"",""trial"",""time""
""fullscreenenter"",""0"",""3443""
","
","
","""event"",""trial"",""time""
""fullscreenenter"",""0"",""3443""
","
","null","<p></p>","null","","","","","","","","","","","","","","","","","","","","","","","",""
"","do_trial","264","651308","0.0-140.0-0.0","""event"",""trial"",""time""
""fullscreenenter"",""0"",""3443""
","
","
","""event"",""trial"",""time""
""fullscreenenter"",""0"",""3443""
","
","223","","","","","","","","49","0,1,0","6","blank","351","null","0.6746692561134853","0.17962884516089211","0.2202910537867177","0","","","","","","","","",""
"","html-keyboard-response","265","652312","0.0-140.0-1.0","""event"",""trial"",""time""
""fullscreenenter"",""0"",""3443""
","
","
","""event"",""trial"",""time""
""fullscreenenter"",""0"",""3443""
","
","null","<p></p>","null","","","","","","","","","","","","","","","","","","","","","","","",""
"","do_recog","266","655664","0.0-141.0-0.0","""event"",""trial"",""time""
""fullscreenenter"",""0"",""3443""
","
","
","""event"",""trial"",""time""
""fullscreenenter"",""0"",""3443""
","
","1839.2999999523163","","","","","","","","53","","","","352","probe-17","","","","","1","[object Object]","158","3","1","","","",""
"","html-keyboard-response","267","656668","0.0-141.0-1.0","""event"",""trial"",""time""
""fullscreenenter"",""0"",""3443""
","
","
","""event"",""trial"",""time""
""fullscreenenter"",""0"",""3443""
","
","null","<p></p>","null","","","","","","","","","","","","","","","","","","","","","","","",""
"","do_trial","268","659768","0.0-142.0-0.0","""event"",""trial"",""time""
""fullscreenenter"",""0"",""3443""
","
","
","""event"",""trial"",""time""
""fullscreenenter"",""0"",""3443""
","
","546","","","","","","","","51","0,0,1","6","blank","353","null","0.6469231067317506","0.20403077209844597","0.40186130692155714","1","","","","","","","","",""
"","html-keyboard-response","269","660772","0.0-142.0-1.0","""event"",""trial"",""time""
""fullscreenenter"",""0"",""3443""
","
","
","""event"",""trial"",""time""
""fullscreenenter"",""0"",""3443""
","
","null","<p></p>","null","","","","","","","","","","","","","","","","","","","","","","","",""
"","do_trial","270","663364","0.0-143.0-0.0","""event"",""trial"",""time""
""fullscreenenter"",""0"",""3443""
","
","
","""event"",""trial"",""time""
""fullscreenenter"",""0"",""3443""
","
","35.700000047683716","","","","","","","","50","0,1,1","6","blank","354","null","0.5333147792147223","0.2293643443510232","0.34399977332009485","1","","","","","","","","",""
"","html-keyboard-response","271","664370","0.0-143.0-1.0","""event"",""trial"",""time""
""fullscreenenter"",""0"",""3443""
","
","
","""event"",""trial"",""time""
""fullscreenenter"",""0"",""3443""
","
","null","<p></p>","null","","","","","","","","","","","","","","","","","","","","","","","",""
"","do_trial","272","666952","0.0-144.0-0.0","""event"",""trial"",""time""
""fullscreenenter"",""0"",""3443""
","
","
","""event"",""trial"",""time""
""fullscreenenter"",""0"",""3443""
","
","28.600000023841858","","","","","","","","49","1,0,1","6","blank","355","null","0.5222541183566032","0.24736731735171197","0.29419016930398867","1","","","","","","","","",""
"","html-keyboard-response","273","667956","0.0-144.0-1.0","""event"",""trial"",""time""
""fullscreenenter"",""0"",""3443""
","
","
","""event"",""trial"",""time""
""fullscreenenter"",""0"",""3443""
","
","null","<p></p>","null","","","","","","","","","","","","","","","","","","","","","","","",""
"","do_trial","274","670512","0.0-145.0-0.0","""event"",""trial"",""time""
""fullscreenenter"",""0"",""3443""
","
","
","""event"",""trial"",""time""
""fullscreenenter"",""0"",""3443""
","
","0","","","","","","","","51","0,0,1","6","blank","356","null","0.5183780469693701","0.11361481241693873","0.4062043893281036","1","","","","","","","","",""
"","html-keyboard-response","275","671516","0.0-145.0-1.0","""event"",""trial"",""time""
""fullscreenenter"",""0"",""3443""
","
","
","""event"",""trial"",""time""
""fullscreenenter"",""0"",""3443""
","
","null","<p></p>","null","","","","","","","","","","","","","","","","","","","","","","","",""
"","do_trial","276","674156","0.0-146.0-0.0","""event"",""trial"",""time""
""fullscreenenter"",""0"",""3443""
","
","
","""event"",""trial"",""time""
""fullscreenenter"",""0"",""3443""
","
","85.10000002384186","","","","","","","","50","1,0,0","6","blank","357","null","0.4663570844619567","0.0681399406085879","0.49564174048516935","0","","","","","","","","",""
"","html-keyboard-response","277","675163","0.0-146.0-1.0","""event"",""trial"",""time""
""fullscreenenter"",""0"",""3443""
","
","
","""event"",""trial"",""time""
""fullscreenenter"",""0"",""3443""
","
