success,trial_type,trial_index,time_elapsed,internal_node_id,rt,stimulus,subject_id,key_press,response,choice_outcomes,context_n,context_img_id,trial_n,probe_img_id,pR_red,pR_white,pR_black,outcome,is_valid,image_to_show,probed_trial,probed_context,correct,context_id
TRUE,fullscreen,0,3359,0.0-0.0,,,,,,,,,,,,,,,,,,,,
,pavlovia,1,3362,0.0-1.0,,,,,,,,,,,,,,,,,,,,
,html-keyboard-response,2,6542,0.0-2.0,3179.6,"<div class='center'><p>Like yesterday,as the head captain of the ship, you have one important things to do: </p><b><p> Pick the pirate who you think will be most successful at robbing the next ship.</p></b><p>This is important in determining how much bonus money you’ll win.</p><br><p>The game will start by showing you the pirates. First pick a pirate using the <b> 1, 2, 3 </b> buttons on your keyboard. </p><p> Press <b>'1'</b> to choose red beard, <b>'2'</b> to choose white beard, and <b>'3'</b> to choose black beard</p><p> You only have 3 seconds to pick a pirate, so please make a choice quickly! If you are too slow, you’ll have to wait a bit during the time out.</p><p> Don’t feel rushed, but please do try to make a choice every time.</p><p>How good a pirate is at robbing a ship will change depending on the place they are in and how good the defenses are of the ship.</p><p><b>[Press the space bar to begin the practice game]</b></p></div>",614fa5614fcc70a595204146,32,,,,,,,,,,,,,,,,
,html-keyboard-response,3,7679,0.0-3.0,1136,"<div class='center'><p>You’ve arrived at the final island of your journey! Unfortunately, it’s very foggy out, so you won’t be able to see it in the distance like the previous islands you've visited.</p><p>You’ll still be deciding which pirate you want to rob a ship like before. However, because of the fog, you also won’t be able to see the ship.</p><p>This means you do not have to remember the ships you rob on this island.</p><p><b>[Press the space bar to continue]</b></p></div>",,32,,,,,,,,,,,,,,,,
,html-keyboard-response,4,15687,0.0-4.0,8007.9,"<div class='center'><p> Sometimes you’ll be shown a ship, and you will be asked if you saw this ship on a past island.</p><p> Here is an example of what you will see.</p><p><b>[Press the space bar to continue]</b></p><p><img src='run_exp/static/images/tutorial/example_recog_trial.png' height='500'></p></div>",,32,,,,,,,,,,,,,,,,
,html-keyboard-response,5,21484,0.0-5.0,5795.9,"<div class='center'><p> You will press the 5, 6, 7, 8 buttons on your keyboard to respond.</p><p>If you are very sure saw the ship, press <b>5</b> on your keyboard.</p><p> If you think you  saw it before but are not sure, then press <b>6</b>.</p><p> If you think you have not seen it before but are not sure, then press <b>7</b>.</p><p> If you are sure you did not see the ship before, then press <b>8</b>.</p><p><b>[Press the space bar to continue]</b></p><p><img src='run_exp/static/images/tutorial/example_recog_trial.png' height='500'></p></div>",,32,,,,,,,,,,,,,,,,
,html-keyboard-response,6,25750,0.0-6.0,4265,"<div class='center'><p> If you remember correctly, then you’ll get a gold coin like this: </p><p><img src='run_exp/static/images/tutorial/reward_small.png' height='200'></p><p>If you do not remember correctly, then you'll see a red x like this: </p><p><img src='run_exp/static/images/tutorial/reward_no.png' height='200'></p><p>Importantly, when you are shown a ship, take the time to remind yourself which island you saw it on. This will help you in the next part of the study.</p><p><b>[Press the space bar to continue]</b></p></div>",,32,,,,,,,,,,,,,,,,
,html-keyboard-response,7,34540,0.0-7.0,8799.2,"<div class='center'><p>Let's go over the important points again. Your job is to: </p><p>1. Pick the pirate who is best at robbing ships and will bring you back gold coins. </p><p>2. Correctly remember whether or not you saw a ship before. If you did see the ship before, remind yourself on which island you saw the ship. </p><p><b>[Press the space bar to begin the next part of the study]</b></p></div>",,32,,,,,,,,,,,,,,,,
,do_welcome,8,36078,0.0-8.0,null,,,,null,,,,,,,,,,,,,,,
,do_trial,9,41465,0.0-9.0-0.0,2844.4,,,,49,"1,0,0",6,blank,230,null,0.731948203,0.321362028,0.312695359,1,,,,,,
,html-keyboard-response,10,42488,0.0-9.0-1.0,null,<p></p>,,null,,,,,,,,,,,,,,,,
,do_trial,11,46871,0.0-10.0-0.0,1854.1,,,,49,"1,1,1",6,blank,231,null,0.767959822,0.373244966,0.341283967,1,,,,,,
,html-keyboard-response,12,47882,0.0-10.0-1.0,null,<p></p>,,null,,,,,,,,,,,,,,,,
,do_trial,13,50681,0.0-11.0-0.0,266.9,,,,49,"1,0,0",6,blank,232,null,0.629542445,0.105760362,0.293696881,1,,,,,,
,html-keyboard-response,14,51686,0.0-11.0-1.0,null,<p></p>,,null,,,,,,,,,,,,,,,,
,do_trial,15,54478,0.0-12.0-0.0,254.6,,,,49,"0,0,1",6,blank,233,null,0.589350857,0.091716066,0.322810739,0,,,,,,
,html-keyboard-response,16,55488,0.0-12.0-1.0,null,<p></p>,,null,,,,,,,,,,,,,,,,
,do_trial,17,58433,0.0-13.0-0.0,409.4,,,,49,"1,0,0",6,blank,234,null,0.556219278,0.14879636,0.341658101,1,,,,,,
,html-keyboard-response,18,59434,0.0-13.0-1.0,null,<p></p>,,null,,,,,,,,,,,,,,,,
,do_trial,19,62728,0.0-14.0-0.0,756.3,,,,49,"1,0,0",6,blank,235,null,0.67101727,0.185950919,0.430863623,1,,,,,,
,html-keyboard-response,20,63736,0.0-14.0-1.0,null,<p></p>,,null,,,,,,,,,,,,,,,,
,do_trial,21,66512,0.0-15.0-0.0,232.8,,,,49,"1,0,0",6,blank,236,null,0.647145573,0.239673407,0.472085039,1,,,,,,
,html-keyboard-response,22,67519,0.0-15.0-1.0,null,<p></p>,,null,,,,,,,,,,,,,,,,
,do_trial,23,70704,0.0-16.0-0.0,655.1,,,,49,"0,0,1",6,blank,237,null,0.748142223,0.150657084,0.35705938,0,,,,,,
,html-keyboard-response,24,71708,0.0-16.0-1.0,null,<p></p>,,null,,,,,,,,,,,,,,,,
,do_trial,25,74929,0.0-17.0-0.0,690,,,,49,"1,0,0",6,blank,238,null,0.868769829,0.129445563,0.268886806,1,,,,,,
,html-keyboard-response,26,75940,0.0-17.0-1.0,null,<p></p>,,null,,,,,,,,,,,,,,,,
,do_trial,27,78808,0.0-18.0-0.0,335,,,,49,"1,0,0",6,blank,239,null,0.608146382,0.151914176,0.229769508,1,,,,,,
,html-keyboard-response,28,79822,0.0-18.0-1.0,null,<p></p>,,null,,,,,,,,,,,,,,,,
,do_trial,29,83113,0.0-19.0-0.0,766.3,,,,49,"1,0,0",6,blank,240,null,0.565817937,0.143340685,0.22162099,1,,,,,,
,html-keyboard-response,30,84126,0.0-19.0-1.0,null,<p></p>,,null,,,,,,,,,,,,,,,,
,do_recog,31,90157,0.0-20.0-0.0,null,,,,null,,,,241,probe-27,,,,,1,[object Object],160,4,0,
,html-keyboard-response,32,91168,0.0-20.0-1.0,null,<p></p>,,null,,,,,,,,,,,,,,,,
,do_trial,33,94834,0.0-21.0-0.0,1128.4,,,,49,"1,0,0",6,blank,242,null,0.75390015,0.199325737,0.103407639,1,,,,,,
,html-keyboard-response,34,95846,0.0-21.0-1.0,null,<p></p>,,null,,,,,,,,,,,,,,,,
,do_trial,35,98649,0.0-22.0-0.0,271.3,,,,49,"0,1,0",6,blank,243,null,0.556581943,0.169869895,0.343546024,0,,,,,,
,html-keyboard-response,36,99664,0.0-22.0-1.0,null,<p></p>,,null,,,,,,,,,,,,,,,,
,do_recog,37,104008,0.0-23.0-0.0,2832.5,,,,56,,,,244,probe-221,,,,,1,[object Object],167,4,0,
,html-keyboard-response,38,105016,0.0-23.0-1.0,null,<p></p>,,null,,,,,,,,,,,,,,,,
,do_trial,39,108768,0.0-24.0-0.0,1222.8,,,,49,"0,1,0",6,blank,245,null,0.39873914,0.288558421,0.559056084,0,,,,,,
,html-keyboard-response,40,109786,0.0-24.0-1.0,null,<p></p>,,null,,,,,,,,,,,,,,,,
,do_trial,41,112808,0.0-25.0-0.0,485.6,,,,50,"0,0,0",6,blank,246,null,0.293689854,0.28722565,0.453372774,0,,,,,,
,html-keyboard-response,42,113819,0.0-25.0-1.0,null,<p></p>,,null,,,,,,,,,,,,,,,,
,do_trial,43,116669,0.0-26.0-0.0,313.3,,,,51,"0,0,0",6,blank,247,null,0.146232934,0.248903125,0.37760213,0,,,,,,
,html-keyboard-response,44,117670,0.0-26.0-1.0,null,<p></p>,,null,,,,,,,,,,,,,,,,
,do_trial,45,120550,0.0-27.0-0.0,349.7,,,,49,"1,0,0",6,blank,248,null,0.179239181,0.196588558,0.599295432,1,,,,,,
,html-keyboard-response,46,121552,0.0-27.0-1.0,null,<p></p>,,null,,,,,,,,,,,,,,,,
,do_trial,47,124474,0.0-28.0-0.0,390.7,,,,49,"1,1,1",6,blank,249,null,0.19786243,0.295488563,0.484149628,1,,,,,,
,html-keyboard-response,48,125483,0.0-28.0-1.0,null,<p></p>,,null,,,,,,,,,,,,,,,,
,do_trial,49,128367,0.0-29.0-0.0,345.2,,,,49,"0,0,1",6,blank,250,null,0.117994268,0.1716783,0.512774136,0,,,,,,
,html-keyboard-response,50,129384,0.0-29.0-1.0,null,<p></p>,,null,,,,,,,,,,,,,,,,
,do_recog,51,133114,0.0-30.0-0.0,2225.1,,,,53,,,,251,probe-23,,,,,1,[object Object],126,3,1,
,html-keyboard-response,52,134121,0.0-30.0-1.0,null,<p></p>,,null,,,,,,,,,,,,,,,,
,do_trial,53,137721,0.0-31.0-0.0,1069.8,,,,49,"0,0,0",6,blank,252,null,0.14185845,0.13101944,0.411628729,0,,,,,,
,html-keyboard-response,54,138737,0.0-31.0-1.0,null,<p></p>,,null,,,,,,,,,,,,,,,,
,do_recog,55,142758,0.0-32.0-0.0,2513.4,,,,56,,,,253,probe-25,,,,,1,[object Object],164,4,0,
,html-keyboard-response,56,143765,0.0-32.0-1.0,null,<p></p>,,null,,,,,,,,,,,,,,,,
,do_trial,57,146745,0.0-33.0-0.0,440.1,,,,49,"0,0,0",6,blank,254,null,0.055177491,0.285337253,0.481790747,0,,,,,,
,html-keyboard-response,58,147761,0.0-33.0-1.0,null,<p></p>,,null,,,,,,,,,,,,,,,,
,do_trial,59,150858,0.0-34.0-0.0,562.6,,,,49,"0,1,0",6,blank,255,null,0.074899903,0.275253291,0.48922918,0,,,,,,
,html-keyboard-response,60,151871,0.0-34.0-1.0,null,<p></p>,,null,,,,,,,,,,,,,,,,
,do_recog,61,155379,0.0-35.0-0.0,2000.9,,,,53,,,,256,probe-68,,,,,1,[object Object],124,3,1,
,html-keyboard-response,62,156386,0.0-35.0-1.0,null,<p></p>,,null,,,,,,,,,,,,,,,,
,do_trial,63,160321,0.0-36.0-0.0,1407.4,,,,49,"1,0,1",6,blank,257,null,0.066092912,0.30046151,0.542078511,1,,,,,,
,html-keyboard-response,64,161331,0.0-36.0-1.0,null,<p></p>,,null,,,,,,,,,,,,,,,,
,do_trial,65,164310,0.0-37.0-0.0,451,,,,49,"0,0,0",6,blank,258,null,0.144874912,0.338025174,0.444393925,0,,,,,,
,html-keyboard-response,66,165319,0.0-37.0-1.0,null,<p></p>,,null,,,,,,,,,,,,,,,,
,do_trial,67,168518,0.0-38.0-0.0,661.4,,,,50,"0,0,0",6,blank,259,null,0.127937786,0.335782195,0.415412406,0,,,,,,
,html-keyboard-response,68,169527,0.0-38.0-1.0,null,<p></p>,,null,,,,,,,,,,,,,,,,
,do_trial,69,173069,0.0-39.0-0.0,1005,,,,49,"0,0,0",6,blank,260,null,0.051883618,0.304691678,0.361041639,0,,,,,,
,html-keyboard-response,70,174080,0.0-39.0-1.0,null,<p></p>,,null,,,,,,,,,,,,,,,,
,do_trial,71,178496,0.0-40.0-0.0,1888.9,,,,51,"1,0,0",6,blank,261,null,0.112243613,0.42464913,0.465085575,0,,,,,,
,html-keyboard-response,72,179512,0.0-40.0-1.0,null,<p></p>,,null,,,,,,,,,,,,,,,,
,do_trial,73,183071,0.0-41.0-0.0,1027.3,,,,49,"0,0,0",6,blank,262,null,0.060255237,0.160711471,0.595968774,0,,,,,,
,html-keyboard-response,74,184076,0.0-41.0-1.0,null,<p></p>,,null,,,,,,,,,,,,,,,,
,do_recog,75,187716,0.0-42.0-0.0,2135.1,,,,53,,,,263,probe-49,,,,,1,[object Object],87,2,1,
,html-keyboard-response,76,188726,0.0-42.0-1.0,null,<p></p>,,null,,,,,,,,,,,,,,,,
,do_trial,77,192278,0.0-43.0-0.0,1021,,,,49,"0,1,0",6,blank,264,null,0.14020369,0.290402222,0.614256069,0,,,,,,
,html-keyboard-response,78,193286,0.0-43.0-1.0,null,<p></p>,,null,,,,,,,,,,,,,,,,
,do_trial,79,196089,0.0-44.0-0.0,265.5,,,,50,"0,1,1",6,blank,265,null,0.197510746,0.155598634,0.608337085,1,,,,,,
,html-keyboard-response,80,197093,0.0-44.0-1.0,null,<p></p>,,null,,,,,,,,,,,,,,,,
,do_trial,81,199859,0.0-45.0-0.0,230.2,,,,50,"0,0,0",6,blank,266,null,0.170593112,0.235232002,0.599071566,0,,,,,,
,html-keyboard-response,82,200863,0.0-45.0-1.0,null,<p></p>,,null,,,,,,,,,,,,,,,,
,do_trial,83,203713,0.0-46.0-0.0,316,,,,49,"0,0,0",6,blank,267,null,0.097827767,0.319464103,0.537680929,0,,,,,,
,html-keyboard-response,84,204728,0.0-46.0-1.0,null,<p></p>,,null,,,,,,,,,,,,,,,,
,do_trial,85,207806,0.0-47.0-0.0,540.7,,,,49,"0,0,1",6,blank,268,null,0.066672916,0.238089416,0.609270866,0,,,,,,
,html-keyboard-response,86,208810,0.0-47.0-1.0,null,<p></p>,,null,,,,,,,,,,,,,,,,
,do_trial,87,212088,0.0-48.0-0.0,738.4,,,,49,"0,0,0",6,blank,269,null,0.142769226,0.231469012,0.59527573,0,,,,,,
,html-keyboard-response,88,213097,0.0-48.0-1.0,null,<p></p>,,null,,,,,,,,,,,,,,,,
,do_recog,89,216348,0.0-49.0-0.0,1741.1,,,,56,,,,270,probe-210,,,,,1,[object Object],208,5,0,
,html-keyboard-response,90,217361,0.0-49.0-1.0,null,<p></p>,,null,,,,,,,,,,,,,,,,
,do_trial,91,220400,0.0-50.0-0.0,512,,,,49,"0,1,0",6,blank,271,null,0.285345388,0.236650492,0.499614591,0,,,,,,
,html-keyboard-response,92,221415,0.0-50.0-1.0,null,<p></p>,,null,,,,,,,,,,,,,,,,
,do_trial,93,224101,0.0-51.0-0.0,156.2,,,,50,"1,0,1",6,blank,272,null,0.084781744,0.158993123,0.52054194,0,,,,,,
,html-keyboard-response,94,225105,0.0-51.0-1.0,null,<p></p>,,null,,,,,,,,,,,,,,,,
,do_trial,95,227971,0.0-52.0-0.0,331.3,,,,51,"0,0,0",6,blank,273,null,0.144901984,0.193614617,0.455363759,0,,,,,,
,html-keyboard-response,96,228987,0.0-52.0-1.0,null,<p></p>,,null,,,,,,,,,,,,,,,,
,do_trial,97,231661,0.0-53.0-0.0,134.7,,,,49,"0,0,0",6,blank,274,null,0.079878412,0.249591029,0.451136645,0,,,,,,
,html-keyboard-response,98,232664,0.0-53.0-1.0,null,<p></p>,,null,,,,,,,,,,,,,,,,
,do_recog,99,236136,0.0-54.0-0.0,1967.6,,,,53,,,,275,probe-22,,,,,1,[object Object],163,4,1,
,html-keyboard-response,100,237153,0.0-54.0-1.0,null,<p></p>,,null,,,,,,,,,,,,,,,,
,do_trial,101,241030,0.0-55.0-0.0,1347.6,,,,49,"0,0,1",6,blank,276,null,0.105466687,0.281294284,0.500962734,0,,,,,,
,html-keyboard-response,102,242032,0.0-55.0-1.0,null,<p></p>,,null,,,,,,,,,,,,,,,,
,do_trial,103,245710,0.0-56.0-0.0,1147.4,,,,49,"0,0,0",6,blank,277,null,0.192787452,0.229852143,0.373328819,0,,,,,,
,html-keyboard-response,104,246724,0.0-56.0-1.0,null,<p></p>,,null,,,,,,,,,,,,,,,,
,do_trial,105,251562,0.0-57.0-0.0,2304.6,,,,50,"0,0,0",6,blank,278,null,0.102167608,0.190235461,0.460957579,0,,,,,,
,html-keyboard-response,106,252573,0.0-57.0-1.0,null,<p></p>,,null,,,,,,,,,,,,,,,,
,do_trial,107,258630,0.0-58.0-0.0,null,,,,null,"0,0,1",6,blank,279,null,0.076583068,0.284223129,0.496039668,,,,,,,
,html-keyboard-response,108,259646,0.0-58.0-1.0,null,<p></p>,,null,,,,,,,,,,,,,,,,
,do_trial,109,263374,0.0-59.0-0.0,1189.5,,,,49,"0,1,1",6,blank,280,null,0.067951775,0.374315994,0.546624496,0,,,,,,
,html-keyboard-response,110,264385,0.0-59.0-1.0,null,<p></p>,,null,,,,,,,,,,,,,,,,
,do_trial,111,267126,0.0-60.0-0.0,211.1,,,,49,"0,1,1",6,blank,281,null,0.147094999,0.361112171,0.638859323,0,,,,,,
,html-keyboard-response,112,268130,0.0-60.0-1.0,null,<p></p>,,null,,,,,,,,,,,,,,,,
,do_trial,113,271357,0.0-61.0-0.0,685.6,,,,51,"1,1,0",6,blank,282,null,0.052347553,0.423228823,0.559756374,0,,,,,,
,html-keyboard-response,114,272374,0.0-61.0-1.0,null,<p></p>,,null,,,,,,,,,,,,,,,,
,do_recog,115,275603,0.0-62.0-0.0,1725,,,,53,,,,283,probe-199,,,,,1,[object Object],168,4,1,
,html-keyboard-response,116,276617,0.0-62.0-1.0,null,<p></p>,,null,,,,,,,,,,,,,,,,
,do_trial,117,280965,0.0-63.0-0.0,1820.6,,,,49,"0,1,0",6,blank,284,null,0.18796894,0.499573581,0.631340599,0,,,,,,
,html-keyboard-response,118,281969,0.0-63.0-1.0,null,<p></p>,,null,,,,,,,,,,,,,,,,
,do_trial,119,284845,0.0-64.0-0.0,335.9,,,,50,"0,1,0",6,blank,285,null,0.078413402,0.284053538,0.528445129,1,,,,,,
,html-keyboard-response,120,285858,0.0-64.0-1.0,null,<p></p>,,null,,,,,,,,,,,,,,,,
,do_trial,121,288788,0.0-65.0-0.0,388.4,,,,49,"0,1,1",6,blank,286,null,0.108634741,0.388513687,0.584663036,0,,,,,,
,html-keyboard-response,122,289802,0.0-65.0-1.0,null,<p></p>,,null,,,,,,,,,,,,,,,,
,do_trial,123,293232,0.0-66.0-0.0,902,,,,49,"0,0,1",6,blank,287,null,0.055580869,0.242141629,0.668441,0,,,,,,
,html-keyboard-response,124,294242,0.0-66.0-1.0,null,<p></p>,,null,,,,,,,,,,,,,,,,
,do_trial,125,297203,0.0-67.0-0.0,429.2,,,,49,"0,1,1",6,blank,288,null,0.144304073,0.319099201,0.620381446,0,,,,,,
,html-keyboard-response,126,298213,0.0-67.0-1.0,null,<p></p>,,null,,,,,,,,,,,,,,,,
,do_trial,127,301338,0.0-68.0-0.0,601.4,,,,50,"0,1,1",6,blank,289,null,0.07402668,0.285096269,0.711568575,1,,,,,,
,html-keyboard-response,128,302343,0.0-68.0-1.0,null,<p></p>,,null,,,,,,,,,,,,,,,,
,do_recog,129,305859,0.0-69.0-0.0,2002,,,,53,,,,290,probe-208,,,,,1,[object Object],202,5,1,
,html-keyboard-response,130,306865,0.0-69.0-1.0,null,<p></p>,,null,,,,,,,,,,,,,,,,
,do_trial,131,311665,0.0-70.0-0.0,2263.7,,,,49,"0,1,0",6,blank,291,null,0.151799031,0.355147027,0.565961765,0,,,,,,
,html-keyboard-response,132,312668,0.0-70.0-1.0,null,<p></p>,,null,,,,,,,,,,,,,,,,
,do_trial,133,316406,0.0-71.0-0.0,1204.8,,,,49,"0,1,1",6,blank,292,null,0.282540932,0.533350117,0.516875275,0,,,,,,
,html-keyboard-response,134,317421,0.0-71.0-1.0,null,<p></p>,,null,,,,,,,,,,,,,,,,
,do_trial,135,320332,0.0-72.0-0.0,369.2,,,,50,"0,0,0",6,blank,293,null,0.295793451,0.53396231,0.226091351,0,,,,,,
,html-keyboard-response,136,321341,0.0-72.0-1.0,null,<p></p>,,null,,,,,,,,,,,,,,,,
,do_trial,137,323980,0.0-73.0-0.0,108.5,,,,51,"0,0,0",6,blank,294,null,0.082891302,0.585074216,0.206849829,0,,,,,,
,html-keyboard-response,138,324984,0.0-73.0-1.0,null,<p></p>,,null,,,,,,,,,,,,,,,,
,do_recog,139,328168,0.0-74.0-0.0,1677.9,,,,53,,,,295,probe-35,,,,,1,[object Object],89,2,1,
,html-keyboard-response,140,329169,0.0-74.0-1.0,null,<p></p>,,null,,,,,,,,,,,,,,,,
,do_trial,141,332281,0.0-75.0-0.0,579.8,,,,50,"0,1,0",6,blank,296,null,0.063066176,0.628291425,0.055460839,1,,,,,,
,html-keyboard-response,142,333290,0.0-75.0-1.0,null,<p></p>,,null,,,,,,,,,,,,,,,,
,do_trial,143,336095,0.0-76.0-0.0,266.7,,,,51,"0,1,0",6,blank,297,null,0.233267348,0.638981188,0.170197691,0,,,,,,
,html-keyboard-response,144,337099,0.0-76.0-1.0,null,<p></p>,,null,,,,,,,,,,,,,,,,
,do_trial,145,339930,0.0-77.0-0.0,304.6,,,,50,"1,0,0",6,blank,298,null,0.329141748,0.554167862,0.180068989,0,,,,,,
,html-keyboard-response,146,340956,0.0-77.0-1.0,null,<p></p>,,null,,,,,,,,,,,,,,,,
,do_trial,147,343527,0.0-78.0-0.0,36.5,,,,49,"1,0,1",6,blank,299,null,0.316152576,0.601418023,0.19854346,1,,,,,,
,html-keyboard-response,148,344543,0.0-78.0-1.0,null,<p></p>,,null,,,,,,,,,,,,,,,,
,do_trial,149,347309,0.0-79.0-0.0,231.5,,,,50,"1,0,0",6,blank,300,null,0.29662889,0.627423858,0.136654698,0,,,,,,
,html-keyboard-response,150,348315,0.0-79.0-1.0,null,<p></p>,,null,,,,,,,,,,,,,,,,
,do_trial,151,351095,0.0-80.0-0.0,240.9,,,,49,"0,1,1",6,blank,301,null,0.312185956,0.496702978,0.250372255,0,,,,,,
,html-keyboard-response,152,352110,0.0-80.0-1.0,null,<p></p>,,null,,,,,,,,,,,,,,,,
,do_trial,153,355606,0.0-81.0-0.0,967.5,,,,50,"0,1,0",6,blank,302,null,0.272110527,0.661699039,0.236701289,1,,,,,,
,html-keyboard-response,154,356616,0.0-81.0-1.0,null,<p></p>,,null,,,,,,,,,,,,,,,,
,do_recog,155,359736,0.0-82.0-0.0,1604.1,,,,53,,,,303,probe-166,,,,,1,[object Object],162,4,1,
,html-keyboard-response,156,360750,0.0-82.0-1.0,null,<p></p>,,null,,,,,,,,,,,,,,,,
,do_trial,157,365053,0.0-83.0-0.0,1773.2,,,,49,"0,1,0",6,blank,304,null,0.194327307,0.596545844,0.279799995,0,,,,,,
,html-keyboard-response,158,366065,0.0-83.0-1.0,null,<p></p>,,null,,,,,,,,,,,,,,,,
,do_trial,159,368839,0.0-84.0-0.0,239.8,,,,49,"0,1,0",6,blank,305,null,0.093090604,0.714657174,0.266560025,0,,,,,,
,html-keyboard-response,160,369853,0.0-84.0-1.0,null,<p></p>,,null,,,,,,,,,,,,,,,,
,do_trial,161,372448,0.0-85.0-0.0,70.7,,,,49,"0,0,0",6,blank,306,null,0.222500645,0.611165094,0.174138841,0,,,,,,
,html-keyboard-response,162,373452,0.0-85.0-1.0,null,<p></p>,,null,,,,,,,,,,,,,,,,
,do_trial,163,376374,0.0-86.0-0.0,388.3,,,,51,"1,0,0",6,blank,307,null,0.266022577,0.44500987,0.075227482,0,,,,,,
,html-keyboard-response,164,377391,0.0-86.0-1.0,null,<p></p>,,null,,,,,,,,,,,,,,,,
,do_trial,165,380105,0.0-87.0-0.0,183.6,,,,50,"1,0,0",6,blank,308,null,0.295341276,0.44640649,0.114103267,0,,,,,,
,html-keyboard-response,166,381111,0.0-87.0-1.0,null,<p></p>,,null,,,,,,,,,,,,,,,,
,do_trial,167,383648,0.0-88.0-0.0,0.099999994,,,,49,"0,1,0",6,blank,309,null,0.311365164,0.490342607,0.099244778,0,,,,,,
,html-keyboard-response,168,384649,0.0-88.0-1.0,null,<p></p>,,null,,,,,,,,,,,,,,,,
,do_recog,169,387750,0.0-89.0-0.0,1595.1,,,,53,,,,310,probe-130,,,,,1,[object Object],45,1,1,
,html-keyboard-response,170,388761,0.0-89.0-1.0,null,<p></p>,,null,,,,,,,,,,,,,,,,
,do_trial,171,392360,0.0-90.0-0.0,1066,,,,49,"0,0,0",6,blank,311,null,0.223244841,0.462190497,0.073335631,0,,,,,,
,html-keyboard-response,172,393372,0.0-90.0-1.0,null,<p></p>,,null,,,,,,,,,,,,,,,,
,do_recog,173,397254,0.0-91.0-0.0,2371.1,,,,56,,,,312,probe-31,,,,,1,[object Object],125,3,0,
,html-keyboard-response,174,398272,0.0-91.0-1.0,null,<p></p>,,null,,,,,,,,,,,,,,,,
,do_trial,175,401865,0.0-92.0-0.0,1064,,,,49,"0,1,0",6,blank,313,null,0.193535976,0.483044267,0.088482068,0,,,,,,
,html-keyboard-response,176,402870,0.0-92.0-1.0,null,<p></p>,,null,,,,,,,,,,,,,,,,
,do_trial,177,406171,0.0-93.0-0.0,760.4,,,,49,"0,1,1",6,blank,314,null,0.323608004,0.365561734,0.235989895,0,,,,,,
,html-keyboard-response,178,407174,0.0-93.0-1.0,null,<p></p>,,null,,,,,,,,,,,,,,,,
,do_trial,179,411245,0.0-94.0-0.0,1537.7,,,,50,"0,0,1",6,blank,315,null,0.319032237,0.458810481,0.327177424,0,,,,,,
,html-keyboard-response,180,412255,0.0-94.0-1.0,null,<p></p>,,null,,,,,,,,,,,,,,,,
,do_trial,181,415093,0.0-95.0-0.0,300.8,,,,49,"1,1,0",6,blank,316,null,0.319706595,0.672741454,0.311211902,1,,,,,,
,html-keyboard-response,182,416105,0.0-95.0-1.0,null,<p></p>,,null,,,,,,,,,,,,,,,,
,do_trial,183,419045,0.0-96.0-0.0,413.4,,,,51,"0,1,0",6,blank,317,null,0.349333984,0.833121914,0.099569409,0,,,,,,
,html-keyboard-response,184,420058,0.0-96.0-1.0,null,<p></p>,,null,,,,,,,,,,,,,,,,
,do_recog,185,423207,0.0-97.0-0.0,1630.7,,,,53,,,,318,probe-113,,,,,1,[object Object],40,1,1,
,html-keyboard-response,186,424220,0.0-97.0-1.0,null,<p></p>,,null,,,,,,,,,,,,,,,,
,do_trial,187,429240,0.0-98.0-0.0,2486.7,,,,50,"0,1,0",6,blank,319,null,0.299658843,0.658899286,0.09519615,1,,,,,,
,html-keyboard-response,188,430242,0.0-98.0-1.0,null,<p></p>,,null,,,,,,,,,,,,,,,,
,do_recog,189,433042,0.0-99.0-0.0,1284.6,,,,53,,,,320,probe-120,,,,,1,[object Object],88,2,1,
,html-keyboard-response,190,434044,0.0-99.0-1.0,null,<p></p>,,null,,,,,,,,,,,,,,,,
,do_trial,191,436733,0.0-100.0-0.0,148.5,,,,49,"0,1,0",6,blank,321,null,0.182684374,0.52463865,0.139881952,0,,,,,,
,html-keyboard-response,192,437739,0.0-100.0-1.0,null,<p></p>,,null,,,,,,,,,,,,,,,,
,do_recog,193,441726,0.0-101.0-0.0,2478.2,,,,54,,,,322,probe-215,,,,,1,[object Object],42,1,1,
,html-keyboard-response,194,442742,0.0-101.0-1.0,null,<p></p>,,null,,,,,,,,,,,,,,,,
,do_trial,195,445531,0.0-102.0-0.0,247.7,,,,49,"0,1,0",6,blank,323,null,0.173027967,0.681088584,0.169415442,0,,,,,,
,html-keyboard-response,196,446534,0.0-102.0-1.0,null,<p></p>,,null,,,,,,,,,,,,,,,,
,do_trial,197,449145,0.0-103.0-0.0,76.8,,,,49,"0,0,0",6,blank,324,null,0.235318524,0.624702346,0.077174439,0,,,,,,
,html-keyboard-response,198,450153,0.0-103.0-1.0,null,<p></p>,,null,,,,,,,,,,,,,,,,
,do_trial,199,452722,0.0-104.0-0.0,28.09999999,,,,51,"0,0,0",6,blank,325,null,0.323972505,0.72077161,0.172346922,0,,,,,,
,html-keyboard-response,200,453731,0.0-104.0-1.0,null,<p></p>,,null,,,,,,,,,,,,,,,,
,do_trial,201,456254,0.0-105.0-0.0,0.099999994,,,,50,"1,1,0",6,blank,326,null,0.358867599,0.781528447,0.076295478,1,,,,,,
,html-keyboard-response,202,457269,0.0-105.0-1.0,null,<p></p>,,null,,,,,,,,,,,,,,,,
,do_trial,203,459891,0.0-106.0-0.0,92.09999999,,,,49,"1,1,1",6,blank,327,null,0.427986714,0.811474316,0.262464718,1,,,,,,
,html-keyboard-response,204,460904,0.0-106.0-1.0,null,<p></p>,,null,,,,,,,,,,,,,,,,
,do_trial,205,463574,0.0-107.0-0.0,131.3,,,,50,"0,0,0",6,blank,328,null,0.483617015,0.735452851,0.150675102,0,,,,,,
,html-keyboard-response,206,464590,0.0-107.0-1.0,null,<p></p>,,null,,,,,,,,,,,,,,,,
,do_recog,207,467641,0.0-108.0-0.0,1531.8,,,,53,,,,329,probe-119,,,,,1,[object Object],46,1,1,
,html-keyboard-response,208,468657,0.0-108.0-1.0,null,<p></p>,,null,,,,,,,,,,,,,,,,
,do_trial,209,471191,0.0-109.0-0.0,0.199999988,,,,51,"1,1,0",6,blank,330,null,0.509625225,0.773723774,0.199042036,0,,,,,,
,html-keyboard-response,210,472207,0.0-109.0-1.0,null,<p></p>,,null,,,,,,,,,,,,,,,,
,do_recog,211,475241,0.0-110.0-0.0,1528.6,,,,53,,,,331,probe-206,,,,,1,[object Object],120,3,1,
,html-keyboard-response,212,476243,0.0-110.0-1.0,null,<p></p>,,null,,,,,,,,,,,,,,,,
,do_trial,213,479056,0.0-111.0-0.0,271.6,,,,51,"0,1,0",6,blank,332,null,0.388169314,0.729940486,0.106704085,0,,,,,,
,html-keyboard-response,214,480067,0.0-111.0-1.0,null,<p></p>,,null,,,,,,,,,,,,,,,,
,do_trial,215,482811,0.0-112.0-0.0,212.9,,,,50,"1,0,0",6,blank,333,null,0.347560311,0.557868363,0.076283739,0,,,,,,
,html-keyboard-response,216,483821,0.0-112.0-1.0,null,<p></p>,,null,,,,,,,,,,,,,,,,
,do_trial,217,486348,0.0-113.0-0.0,0,,,,51,"0,1,0",6,blank,334,null,0.414629066,0.542186126,0.132424095,0,,,,,,
,html-keyboard-response,218,487364,0.0-113.0-1.0,null,<p></p>,,null,,,,,,,,,,,,,,,,
,do_trial,219,489912,0.0-114.0-0.0,22.10000001,,,,50,"0,0,1",6,blank,335,null,0.389454352,0.591817852,0.174543551,0,,,,,,
,html-keyboard-response,220,490925,0.0-114.0-1.0,null,<p></p>,,null,,,,,,,,,,,,,,,,
,do_trial,221,493515,0.0-115.0-0.0,66.60000001,,,,49,"0,1,1",6,blank,336,null,0.399853756,0.653330737,0.184242801,0,,,,,,
,html-keyboard-response,222,494525,0.0-115.0-1.0,null,<p></p>,,null,,,,,,,,,,,,,,,,
,do_trial,223,497059,0.0-116.0-0.0,0.100000009,,,,51,"0,0,0",6,blank,337,null,0.520564818,0.629217886,0.14154715,0,,,,,,
,html-keyboard-response,224,498067,0.0-116.0-1.0,null,<p></p>,,null,,,,,,,,,,,,,,,,
,do_trial,225,500852,0.0-117.0-0.0,243.6,,,,50,"0,1,0",6,blank,338,null,0.316887203,0.607250318,0.138985106,1,,,,,,
,html-keyboard-response,226,501868,0.0-117.0-1.0,null,<p></p>,,null,,,,,,,,,,,,,,,,
,do_recog,227,505161,0.0-118.0-0.0,1787,,,,53,,,,339,probe-232,,,,,0,[object Object],null,null,0,
,html-keyboard-response,228,506164,0.0-118.0-1.0,null,<p></p>,,null,,,,,,,,,,,,,,,,
,do_trial,229,508854,0.0-119.0-0.0,152.6,,,,49,"0,1,0",6,blank,340,null,0.310732134,0.632928292,0.071192217,0,,,,,,
,html-keyboard-response,230,509868,0.0-119.0-1.0,null,<p></p>,,null,,,,,,,,,,,,,,,,
,do_trial,231,512679,0.0-120.0-0.0,285,,,,51,"0,1,0",6,blank,341,null,0.366258731,0.610324616,0.273661244,0,,,,,,
,html-keyboard-response,232,513689,0.0-120.0-1.0,null,<p></p>,,null,,,,,,,,,,,,,,,,
,do_trial,233,516525,0.0-121.0-0.0,295.1,,,,49,"0,0,0",6,blank,342,null,0.286101077,0.543020827,0.308654467,0,,,,,,
,html-keyboard-response,234,517521,0.0-121.0-1.0,null,<p></p>,,null,,,,,,,,,,,,,,,,
,do_trial,235,520127,0.0-122.0-0.0,78.8,,,,50,"1,0,1",6,blank,343,null,0.360673935,0.403661705,0.18467685,0,,,,,,
,html-keyboard-response,236,521142,0.0-122.0-1.0,null,<p></p>,,null,,,,,,,,,,,,,,,,
,do_trial,237,523877,0.0-123.0-0.0,196.5,,,,49,"0,0,0",6,blank,344,null,0.409852124,0.483080901,0.304461874,0,,,,,,
,html-keyboard-response,238,524888,0.0-123.0-1.0,null,<p></p>,,null,,,,,,,,,,,,,,,,
,do_trial,239,527490,0.0-124.0-0.0,63.2,,,,49,"0,0,0",6,blank,345,null,0.378192141,0.355412606,0.21743498,0,,,,,,
,html-keyboard-response,240,528499,0.0-124.0-1.0,null,<p></p>,,null,,,,,,,,,,,,,,,,
,do_recog,241,531320,0.0-125.0-0.0,1304.1,,,,53,,,,346,probe-85,,,,,1,[object Object],206,5,1,
,html-keyboard-response,242,532335,0.0-125.0-1.0,null,<p></p>,,null,,,,,,,,,,,,,,,,
,do_trial,243,535058,0.0-126.0-0.0,190,,,,49,"1,0,0",6,blank,347,null,0.398127559,0.334030691,0.105302865,1,,,,,,
,html-keyboard-response,244,536061,0.0-126.0-1.0,null,<p></p>,,null,,,,,,,,,,,,,,,,
,do_recog,245,539486,0.0-127.0-0.0,1912.7,,,,56,,,,348,probe-110,,,,,1,[object Object],205,5,0,
,html-keyboard-response,246,540498,0.0-127.0-1.0,null,<p></p>,,null,,,,,,,,,,,,,,,,
,do_trial,247,543679,0.0-128.0-0.0,649.9,,,,49,"1,0,0",6,blank,349,null,0.523218102,0.396295593,0.071894502,1,,,,,,
,html-keyboard-response,248,544685,0.0-128.0-1.0,null,<p></p>,,null,,,,,,,,,,,,,,,,
,do_recog,249,548233,0.0-129.0-0.0,2029,,,,53,,,,350,probe-34,,,,,1,[object Object],207,5,1,
,html-keyboard-response,250,549243,0.0-129.0-1.0,null,<p></p>,,null,,,,,,,,,,,,,,,,
,do_trial,251,552520,0.0-130.0-0.0,749.9,,,,49,"0,0,0",6,blank,351,null,0.518214592,0.240177163,0.11623409,0,,,,,,
,html-keyboard-response,252,553531,0.0-130.0-1.0,null,<p></p>,,null,,,,,,,,,,,,,,,,
,do_trial,253,556470,0.0-131.0-0.0,400.2,,,,49,"1,1,0",6,blank,352,null,0.617705052,0.324435611,0.167901407,1,,,,,,
,html-keyboard-response,254,557486,0.0-131.0-1.0,null,<p></p>,,null,,,,,,,,,,,,,,,,
,do_trial,255,561128,0.0-132.0-0.0,1100.9,,,,49,"0,0,0",6,blank,353,null,0.593508567,0.347449568,0.080986866,0,,,,,,
,html-keyboard-response,256,562141,0.0-132.0-1.0,null,<p></p>,,null,,,,,,,,,,,,,,,,
,do_trial,257,565125,0.0-133.0-0.0,456.4,,,,49,"1,0,0",6,blank,354,null,0.555904732,0.31807995,0.056606105,1,,,,,,
,html-keyboard-response,258,566132,0.0-133.0-1.0,null,<p></p>,,null,,,,,,,,,,,,,,,,
,do_trial,259,569328,0.0-134.0-0.0,660.7,,,,49,"0,0,0",6,blank,355,null,0.696010359,0.325309815,0.097783009,0,,,,,,
,html-keyboard-response,260,570340,0.0-134.0-1.0,null,<p></p>,,null,,,,,,,,,,,,,,,,
,do_trial,261,574230,0.0-135.0-0.0,1354.4,,,,49,"0,1,1",6,blank,356,null,0.796254339,0.331666922,0.144520478,0,,,,,,
,html-keyboard-response,262,575240,0.0-135.0-1.0,null,<p></p>,,null,,,,,,,,,,,,,,,,
,do_trial,263,578329,0.0-136.0-0.0,549.3,,,,49,"1,0,0",6,blank,357,null,0.810317698,0.39127141,0.07754198,1,,,,,,
,html-keyboard-response,264,579335,0.0-136.0-1.0,null,<p></p>,,null,,,,,,,,,,,,,,,,
,do_recog,265,582833,0.0-137.0-0.0,1993,,,,54,,,,358,probe-153,,,,,1,[object Object],86,2,1,
,html-keyboard-response,266,583837,0.0-137.0-1.0,null,<p></p>,,null,,,,,,,,,,,,,,,,
,do_trial,267,587639,0.0-138.0-0.0,1267.7,,,,50,"0,0,0",6,blank,359,null,0.697225247,0.273866718,0.133685577,0,,,,,,
,html-keyboard-response,268,588651,0.0-138.0-1.0,null,<p></p>,,null,,,,,,,,,,,,,,,,
,do_trial,269,591363,0.0-139.0-0.0,169.7,,,,49,"1,0,0",6,blank,360,null,0.666767548,0.162083609,0.131881492,1,,,,,,
,html-keyboard-response,270,592375,0.0-139.0-1.0,null,<p></p>,,null,,,,,,,,,,,,,,,,
,do_trial,271,598415,0.0-140.0-0.0,null,,,,null,"1,0,0",6,blank,361,null,0.698822405,0.111958482,0.058953867,,,,,,,
,html-keyboard-response,272,599417,0.0-140.0-1.0,null,<p></p>,,null,,,,,,,,,,,,,,,,
,do_recog,273,602703,0.0-141.0-0.0,1779.5,,,,53,,,,362,probe-17,,,,,1,[object Object],48,1,1,
,html-keyboard-response,274,603718,0.0-141.0-1.0,null,<p></p>,,null,,,,,,,,,,,,,,,,
,do_trial,275,607008,0.0-142.0-0.0,758,,,,49,"1,0,1",6,blank,363,null,0.732139938,0.187889686,0.210168715,1,,,,,,
,html-keyboard-response,276,608019,0.0-142.0-1.0,null,<p></p>,,null,,,,,,,,,,,,,,,,
,do_trial,277,610811,0.0-143.0-0.0,258.1,,,,49,"1,0,0",6,blank,364,null,0.671644677,0.343608857,0.146135392,1,,,,,,
,html-keyboard-response,278,611819,0.0-143.0-1.0,null,<p></p>,,null,,,,,,,,,,,,,,,,
,do_trial,279,615543,0.0-144.0-0.0,1190.3,,,,49,"1,1,0",6,blank,365,null,0.699033407,0.372067321,0.202708981,1,,,,,,
,html-keyboard-response,280,616552,0.0-144.0-1.0,null,<p></p>,,null,,,,,,,,,,,,,,,,
,do_trial,281,621314,0.0-145.0-0.0,2228.8,,,,50,"1,0,0",6,blank,366,null,0.704949772,0.228215371,0.341333026,0,,,,,,
,html-keyboard-response,282,622325,0.0-145.0-1.0,null,<p></p>,,null,,,,,,,,,,,,,,,,
,do_trial,283,625460,0.0-146.0-0.0,597.3,,,,49,"0,0,0",6,blank,367,null,0.610657922,0.433814283,0.299792523,0,,,,,,
,html-keyboard-response,284,626463,0.0-146.0-1.0,null,<p></p>,,null,,,,,,,,,,,,,,,,
,do_recog,285,630191,0.0-147.0-0.0,2217.1,,,,56,,,,368,probe-243,,,,,0,[object Object],null,null,1,
,html-keyboard-response,286,631200,0.0-147.0-1.0,null,<p></p>,,null,,,,,,,,,,,,,,,,
,do_trial,287,637237,0.0-148.0-0.0,null,,,,null,"0,0,0",6,blank,369,null,0.595574871,0.268555484,0.068301894,,,,,,,
,html-keyboard-response,288,638247,0.0-148.0-1.0,null,<p></p>,,null,,,,,,,,,,,,,,,,
,do_recog,289,644262,0.0-149.0-0.0,null,,,,null,,,,370,probe-70,,,,,1,[object Object],81,2,0,
,html-keyboard-response,290,645276,0.0-149.0-1.0,null,<p></p>,,null,,,,,,,,,,,,,,,,
,do_trial,291,648171,0.0-150.0-0.0,354.4,,,,50,"1,0,0",6,blank,371,null,0.58777614,0.187549527,0.063099373,0,,,,,,
,html-keyboard-response,292,649187,0.0-150.0-1.0,null,<p></p>,,null,,,,,,,,,,,,,,,,
,do_recog,293,652127,0.0-151.0-0.0,1429.9,,,,54,,,,372,probe-251,,,,,0,[object Object],null,null,0,
,html-keyboard-response,294,653142,0.0-151.0-1.0,null,<p></p>,,null,,,,,,,,,,,,,,,,
,do_trial,295,656663,0.0-152.0-0.0,989.8,,,,49,"1,0,0",6,blank,373,null,0.685663003,0.101782852,0.095402975,1,,,,,,
,html-keyboard-response,296,657680,0.0-152.0-1.0,null,<p></p>,,null,,,,,,,,,,,,,,,,
,do_recog,297,660738,0.0-153.0-0.0,1552,,,,53,,,,374,probe-87,,,,,1,[object Object],169,4,1,
,html-keyboard-response,298,661745,0.0-153.0-1.0,null,<p></p>,,null,,,,,,,,,,,,,,,,
,do_trial,299,665344,0.0-154.0-0.0,1068.2,,,,49,"1,0,0",6,blank,375,null,0.699522285,0.200584604,0.070937673,1,,,,,,
,html-keyboard-response,300,666355,0.0-154.0-1.0,null,<p></p>,,null,,,,,,,,,,,,,,,,
,do_trial,301,669286,0.0-155.0-0.0,396.1,,,,50,"1,0,0",6,blank,376,null,0.898356418,0.169144121,0.223244403,0,,,,,,
,html-keyboard-response,302,670292,0.0-155.0-1.0,null,<p></p>,,null,,,,,,,,,,,,,,,,
,do_trial,303,672897,0.0-156.0-0.0,69.40000001,,,,49,"1,0,0",6,blank,377,null,0.814190559,0.183458099,0.174412253,1,,,,,,
,html-keyboard-response,304,673900,0.0-156.0-1.0,null,<p></p>,,null,,,,,,,,,,,,,,,,
,do_trial,305,676557,0.0-157.0-0.0,116.1,,,,50,"1,0,0",6,blank,378,null,0.767353764,0.418007689,0.11673162,0,,,,,,
,html-keyboard-response,306,677559,0.0-157.0-1.0,null,<p></p>,,null,,,,,,,,,,,,,,,,
,do_recog,307,680762,0.0-158.0-0.0,1692.4,,,,56,,,,379,probe-146,,,,,1,[object Object],84,2,0,
,html-keyboard-response,308,681768,0.0-158.0-1.0,null,<p></p>,,null,,,,,,,,,,,,,,,,
,do_trial,309,684566,0.0-159.0-0.0,258.4,,,,49,"1,0,0",6,blank,380,null,0.598195115,0.367643914,0.12661269,1,,,,,,
,html-keyboard-response,310,685569,0.0-159.0-1.0,null,<p></p>,,null,,,,,,,,,,,,,,,,
,do_recog,311,689141,0.0-160.0-0.0,2061.1,,,,56,,,,381,probe-181,,,,,1,[object Object],123,3,0,
,html-keyboard-response,312,690150,0.0-160.0-1.0,null,<p></p>,,null,,,,,,,,,,,,,,,,
,do_trial,313,692970,0.0-161.0-0.0,290,,,,49,"0,0,1",6,blank,382,null,0.504104433,0.334829551,0.205811266,0,,,,,,
,html-keyboard-response,314,693983,0.0-161.0-1.0,null,<p></p>,,null,,,,,,,,,,,,,,,,
,do_trial,315,696773,0.0-162.0-0.0,259.4,,,,50,"1,1,0",6,blank,383,null,0.638299007,0.303029923,0.135425913,1,,,,,,
,html-keyboard-response,316,697783,0.0-162.0-1.0,null,<p></p>,,null,,,,,,,,,,,,,,,,
,do_trial,317,700414,0.0-163.0-0.0,93.2,,,,49,"1,0,1",6,blank,384,null,0.625383198,0.326806362,0.063577784,1,,,,,,
,html-keyboard-response,318,701421,0.0-163.0-1.0,null,<p></p>,,null,,,,,,,,,,,,,,,,
,do_recog,319,704524,0.0-164.0-0.0,1599.2,,,,53,,,,385,probe-88,,,,,1,[object Object],166,4,1,
,html-keyboard-response,320,705528,0.0-164.0-1.0,null,<p></p>,,null,,,,,,,,,,,,,,,,
,do_trial,321,709588,0.0-165.0-0.0,1531.5,,,,49,"0,0,0",6,blank,386,null,0.616603918,0.241742239,0.138895186,0,,,,,,
,html-keyboard-response,322,710592,0.0-165.0-1.0,null,<p></p>,,null,,,,,,,,,,,,,,,,
,do_trial,323,713184,0.0-166.0-0.0,52.10000001,,,,49,"0,1,0",6,blank,387,null,0.59700081,0.410410664,0.131535305,0,,,,,,
,html-keyboard-response,324,714198,0.0-166.0-1.0,null,<p></p>,,null,,,,,,,,,,,,,,,,
,do_trial,325,717774,0.0-167.0-0.0,1033.7,,,,49,"0,1,0",6,blank,388,null,0.495858483,0.394927813,0.081741449,0,,,,,,
,html-keyboard-response,326,718784,0.0-167.0-1.0,null,<p></p>,,null,,,,,,,,,,,,,,,,
,do_trial,327,722622,0.0-168.0-0.0,1304.8,,,,49,"1,0,0",6,blank,389,null,0.527526059,0.246822095,0.102529196,1,,,,,,
,html-keyboard-response,328,723629,0.0-168.0-1.0,null,<p></p>,,null,,,,,,,,,,,,,,,,
,do_recog,329,726595,0.0-169.0-0.0,1454.8,,,,53,,,,390,probe-128,,,,,1,[object Object],127,3,1,
,html-keyboard-response,330,727611,0.0-169.0-1.0,null,<p></p>,,null,,,,,,,,,,,,,,,,
,do_trial,331,731665,0.0-170.0-0.0,1512.2,,,,49,"1,0,0",6,blank,391,null,0.664386416,0.233234889,0.190832869,1,,,,,,
,html-keyboard-response,332,732669,0.0-170.0-1.0,null,<p></p>,,null,,,,,,,,,,,,,,,,
,do_trial,333,736970,0.0-171.0-0.0,1763.9,,,,49,"1,0,0",6,blank,392,null,0.65562731,0.272635537,0.133694986,1,,,,,,
,html-keyboard-response,334,737987,0.0-171.0-1.0,null,<p></p>,,null,,,,,,,,,,,,,,,,
,do_recog,335,741456,0.0-172.0-0.0,1964.9,,,,53,,,,393,probe-189,,,,,1,[object Object],201,5,1,
,html-keyboard-response,336,742462,0.0-172.0-1.0,null,<p></p>,,null,,,,,,,,,,,,,,,,
,do_trial,337,747321,0.0-173.0-0.0,2327.7,,,,49,"0,0,0",6,blank,394,null,0.773928349,0.348353755,0.105774313,0,,,,,,
,html-keyboard-response,338,748339,0.0-173.0-1.0,null,<p></p>,,null,,,,,,,,,,,,,,,,
,do_trial,339,752200,0.0-174.0-0.0,1320.2,,,,49,"1,0,0",6,blank,395,null,0.888876307,0.429588509,0.1207399,1,,,,,,
,html-keyboard-response,340,753216,0.0-174.0-1.0,null,<p></p>,,null,,,,,,,,,,,,,,,,
,do_recog,341,756354,0.0-175.0-0.0,1629.1,,,,53,,,,396,probe-41,,,,,1,[object Object],83,2,1,
,html-keyboard-response,342,757363,0.0-175.0-1.0,null,<p></p>,,null,,,,,,,,,,,,,,,,
,do_trial,343,761981,0.0-176.0-0.0,2079.7,,,,49,"1,1,0",6,blank,397,null,0.573555711,0.662708975,0.266281146,1,,,,,,
,html-keyboard-response,344,762985,0.0-176.0-1.0,null,<p></p>,,null,,,,,,,,,,,,,,,,
,do_trial,345,766774,0.0-177.0-0.0,1259,,,,49,"1,1,0",6,blank,398,null,0.269351019,0.592980288,0.255749416,1,,,,,,
,html-keyboard-response,346,767781,0.0-177.0-1.0,null,<p></p>,,null,,,,,,,,,,,,,,,,
,do_trial,347,772662,0.0-178.0-0.0,2338.6,,,,49,"1,0,0",6,blank,399,null,0.126447714,0.616661074,0.270920928,1,,,,,,
,html-keyboard-response,348,773675,0.0-178.0-1.0,null,<p></p>,,null,,,,,,,,,,,,,,,,
,do_trial,349,776796,0.0-179.0-0.0,592.8,,,,50,"0,1,0",6,blank,400,null,0.160842079,0.679180798,0.152123956,1,,,,,,
,html-keyboard-response,350,777805,0.0-179.0-1.0,null,<p></p>,,null,,,,,,,,,,,,,,,,
,do_trial,351,782074,0.0-180.0-0.0,1733,,,,49,"0,0,0",6,blank,401,null,0.176420846,0.589046863,0.119918481,0,,,,,,
,html-keyboard-response,352,783085,0.0-180.0-1.0,null,<p></p>,,null,,,,,,,,,,,,,,,,
,do_recog,353,786282,0.0-181.0-0.0,1687.3,,,,53,,,,402,probe-95,,,,,1,[object Object],85,2,1,
,html-keyboard-response,354,787283,0.0-181.0-1.0,null,<p></p>,,null,,,,,,,,,,,,,,,,
,do_trial,355,790822,0.0-182.0-0.0,1001.4,,,,49,"0,0,0",6,blank,403,null,0.090015788,0.623530282,0.238429295,0,,,,,,
,html-keyboard-response,356,791833,0.0-182.0-1.0,null,<p></p>,,null,,,,,,,,,,,,,,,,
,do_trial,357,794985,0.0-183.0-0.0,621.3,,,,49,"1,0,0",6,blank,404,null,0.176678073,0.506618507,0.159593678,1,,,,,,
,html-keyboard-response,358,795996,0.0-183.0-1.0,null,<p></p>,,null,,,,,,,,,,,,,,,,
,do_trial,359,799039,0.0-184.0-0.0,503.8,,,,49,"0,0,1",6,blank,405,null,0.231788242,0.600767035,0.302615555,0,,,,,,
,html-keyboard-response,360,800044,0.0-184.0-1.0,null,<p></p>,,null,,,,,,,,,,,,,,,,
,do_trial,361,803159,0.0-185.0-0.0,584.7,,,,49,"0,0,1",6,blank,406,null,0.176336321,0.525349278,0.424504574,0,,,,,,
,html-keyboard-response,362,804164,0.0-185.0-1.0,null,<p></p>,,null,,,,,,,,,,,,,,,,
,do_trial,363,807028,0.0-186.0-0.0,328.9,,,,50,"0,1,0",6,blank,407,null,0.16481518,0.586750763,0.385189198,1,,,,,,
,html-keyboard-response,364,808039,0.0-186.0-1.0,null,<p></p>,,null,,,,,,,,,,,,,,,,
,do_trial,365,810619,0.0-187.0-0.0,48.3,,,,49,"0,1,1",6,blank,408,null,0.303560098,0.496271658,0.324492161,0,,,,,,
,html-keyboard-response,366,811636,0.0-187.0-1.0,null,<p></p>,,null,,,,,,,,,,,,,,,,
,do_trial,367,814351,0.0-188.0-0.0,174.6,,,,51,"0,0,1",6,blank,409,null,0.236047876,0.535592138,0.484709137,1,,,,,,
,html-keyboard-response,368,815358,0.0-188.0-1.0,null,<p></p>,,null,,,,,,,,,,,,,,,,
,do_recog,369,818252,0.0-189.0-0.0,1390.6,,,,53,,,,410,probe-13,,,,,1,[object Object],209,5,1,
,html-keyboard-response,370,819270,0.0-189.0-1.0,null,<p></p>,,null,,,,,,,,,,,,,,,,
,do_trial,371,822761,0.0-190.0-0.0,952.8,,,,49,"0,1,0",6,blank,411,null,0.145982843,0.616169308,0.395806087,0,,,,,,
,html-keyboard-response,372,823774,0.0-190.0-1.0,null,<p></p>,,null,,,,,,,,,,,,,,,,
,do_trial,373,826604,0.0-191.0-0.0,301,,,,50,"0,0,1",6,blank,412,null,0.237804573,0.464146165,0.401862508,0,,,,,,
,html-keyboard-response,374,827622,0.0-191.0-1.0,null,<p></p>,,null,,,,,,,,,,,,,,,,
,do_trial,375,830265,0.0-192.0-0.0,109.2,,,,49,"0,0,1",6,blank,413,null,0.191556561,0.590783593,0.423229452,0,,,,,,
,html-keyboard-response,376,831266,0.0-192.0-1.0,null,<p></p>,,null,,,,,,,,,,,,,,,,
,do_recog,377,834488,0.0-193.0-0.0,1712.5,,,,54,,,,414,probe-188,,,,,1,[object Object],82,2,1,
,html-keyboard-response,378,835504,0.0-193.0-1.0,null,<p></p>,,null,,,,,,,,,,,,,,,,
,do_trial,379,838273,0.0-194.0-0.0,244.5,,,,49,"0,1,0",6,blank,415,null,0.239523616,0.63428261,0.359349952,0,,,,,,
,html-keyboard-response,380,839288,0.0-194.0-1.0,null,<p></p>,,null,,,,,,,,,,,,,,,,
,do_trial,381,841917,0.0-195.0-0.0,89.2,,,,50,"0,0,0",6,blank,416,null,0.23025105,0.561054051,0.285354809,0,,,,,,
,html-keyboard-response,382,842919,0.0-195.0-1.0,null,<p></p>,,null,,,,,,,,,,,,,,,,
,do_recog,383,845828,0.0-196.0-0.0,1393.7,,,,53,,,,417,probe-187,,,,,1,[object Object],165,4,1,
,html-keyboard-response,384,846838,0.0-196.0-1.0,null,<p></p>,,null,,,,,,,,,,,,,,,,
,do_trial,385,851240,0.0-197.0-0.0,1862.3,,,,49,"0,1,1",6,blank,418,null,0.263060795,0.652911222,0.49946032,0,,,,,,
,html-keyboard-response,386,852248,0.0-197.0-1.0,null,<p></p>,,null,,,,,,,,,,,,,,,,
,do_recog,387,855806,0.0-198.0-0.0,2039.1,,,,53,,,,419,probe-168,,,,,1,[object Object],44,1,1,
,html-keyboard-response,388,856816,0.0-198.0-1.0,null,<p></p>,,null,,,,,,,,,,,,,,,,
,do_trial,389,859769,0.0-199.0-0.0,416.1,,,,49,"1,1,0",6,blank,420,null,0.277780674,0.589213807,0.30356773,1,,,,,,
,html-keyboard-response,390,860774,0.0-199.0-1.0,null,<p></p>,,null,,,,,,,,,,,,,,,,
,do_trial,391,863360,0.0-200.0-0.0,57.10000001,,,,50,"0,1,0",6,blank,421,null,0.249540829,0.628971841,0.294745816,1,,,,,,
,html-keyboard-response,392,864366,0.0-200.0-1.0,null,<p></p>,,null,,,,,,,,,,,,,,,,
,do_trial,393,867046,0.0-201.0-0.0,148.4,,,,49,"0,1,0",6,blank,422,null,0.160781214,0.648371573,0.30982637,0,,,,,,
,html-keyboard-response,394,868056,0.0-201.0-1.0,null,<p></p>,,null,,,,,,,,,,,,,,,,
,do_trial,395,870699,0.0-202.0-0.0,109.5,,,,49,"0,1,0",6,blank,423,null,0.099265462,0.624182472,0.275830957,0,,,,,,
,html-keyboard-response,396,871700,0.0-202.0-1.0,null,<p></p>,,null,,,,,,,,,,,,,,,,
,do_recog,397,875187,0.0-203.0-0.0,1967.4,,,,53,,,,424,probe-97,,,,,1,[object Object],204,5,1,
,html-keyboard-response,398,876203,0.0-203.0-1.0,null,<p></p>,,null,,,,,,,,,,,,,,,,
,do_trial,399,879285,0.0-204.0-0.0,545.7,,,,49,"0,0,1",6,blank,425,null,0.113829447,0.577733774,0.313086236,0,,,,,,
,html-keyboard-response,400,880294,0.0-204.0-1.0,null,<p></p>,,null,,,,,,,,,,,,,,,,
,do_recog,401,884090,0.0-205.0-0.0,2288.7,,,,55,,,,426,probe-205,,,,,1,[object Object],43,1,0,
,html-keyboard-response,402,885097,0.0-205.0-1.0,null,<p></p>,,null,,,,,,,,,,,,,,,,
,do_trial,403,888601,0.0-206.0-0.0,976.2,,,,49,"0,1,1",6,blank,427,null,0.137591566,0.71716652,0.180467642,0,,,,,,
,html-keyboard-response,404,889608,0.0-206.0-1.0,null,<p></p>,,null,,,,,,,,,,,,,,,,
,do_trial,405,892430,0.0-207.0-0.0,292.5,,,,50,"0,0,1",6,blank,428,null,0.173123554,0.676159101,0.220199475,0,,,,,,
,html-keyboard-response,406,893433,0.0-207.0-1.0,null,<p></p>,,null,,,,,,,,,,,,,,,,
,do_trial,407,895978,0.0-208.0-0.0,13.2,,,,51,"0,0,1",6,blank,429,null,0.151715562,0.659048141,0.299679225,1,,,,,,
,html-keyboard-response,408,896984,0.0-208.0-1.0,null,<p></p>,,null,,,,,,,,,,,,,,,,
,do_recog,409,899919,0.0-209.0-0.0,1425.5,,,,53,,,,430,probe-151,,,,,1,[object Object],41,1,1,
,html-keyboard-response,410,900921,0.0-209.0-1.0,null,<p></p>,,null,,,,,,,,,,,,,,,,
,do_trial,411,903998,0.0-210.0-0.0,538.7,,,,51,"0,1,1",6,blank,431,null,0.159953816,0.685841423,0.292854452,1,,,,,,
,html-keyboard-response,412,905012,0.0-210.0-1.0,null,<p></p>,,null,,,,,,,,,,,,,,,,
,do_trial,413,907882,0.0-211.0-0.0,335,,,,51,"1,1,1",6,blank,432,null,0.141044266,0.635833732,0.240385348,1,,,,,,
,html-keyboard-response,414,908897,0.0-211.0-1.0,null,<p></p>,,null,,,,,,,,,,,,,,,,
,do_trial,415,911740,0.0-212.0-0.0,306.1,,,,51,"0,1,1",6,blank,433,null,0.051239112,0.527438226,0.321533376,1,,,,,,
,html-keyboard-response,416,912747,0.0-212.0-1.0,null,<p></p>,,null,,,,,,,,,,,,,,,,
,do_trial,417,915650,0.0-213.0-0.0,368.9,,,,51,"0,1,0",6,blank,434,null,0.101130169,0.509611984,0.284618432,0,,,,,,
,html-keyboard-response,418,916657,0.0-213.0-1.0,null,<p></p>,,null,,,,,,,,,,,,,,,,
,do_trial,419,919213,0.0-214.0-0.0,22.3,,,,51,"0,1,1",6,blank,435,null,0.102965526,0.537061702,0.320671193,1,,,,,,
,html-keyboard-response,420,920221,0.0-214.0-1.0,null,<p></p>,,null,,,,,,,,,,,,,,,,
,do_recog,421,923612,0.0-215.0-0.0,1872.7,,,,56,,,,436,probe-219,,,,,1,[object Object],203,5,0,
,html-keyboard-response,422,924625,0.0-215.0-1.0,null,<p></p>,,null,,,,,,,,,,,,,,,,
,do_trial,423,927756,0.0-216.0-0.0,607.9,,,,50,"0,1,0",6,blank,437,null,0.105132813,0.574669135,0.385639076,1,,,,,,
,html-keyboard-response,424,928761,0.0-216.0-1.0,null,<p></p>,,null,,,,,,,,,,,,,,,,
,do_trial,425,931588,0.0-217.0-0.0,289.6,,,,50,"0,0,0",6,blank,438,null,0.104319395,0.655479805,0.382959524,0,,,,,,
,html-keyboard-response,426,932600,0.0-217.0-1.0,null,<p></p>,,null,,,,,,,,,,,,,,,,
,do_recog,427,935530,0.0-218.0-0.0,1414.4,,,,53,,,,439,probe-72,,,,,1,[object Object],122,3,1,
,html-keyboard-response,428,936537,0.0-218.0-1.0,null,<p></p>,,null,,,,,,,,,,,,,,,,
,do_trial,429,939972,0.0-219.0-0.0,902.7,,,,49,"0,0,0",6,blank,440,null,0.07375761,0.564676607,0.320902724,0,,,,,,
,html-keyboard-response,430,940977,0.0-219.0-1.0,null,<p></p>,,null,,,,,,,,,,,,,,,,
,do_recog,431,944039,0.0-220.0-0.0,1544.1,,,,53,,,,441,probe-69,,,,,1,[object Object],161,4,1,
,html-keyboard-response,432,945047,0.0-220.0-1.0,null,<p></p>,,null,,,,,,,,,,,,,,,,
,do_trial,433,948388,0.0-221.0-0.0,812.2,,,,49,"0,0,0",6,blank,442,null,0.076012148,0.523527232,0.36187783,0,,,,,,
,html-keyboard-response,434,949404,0.0-221.0-1.0,null,<p></p>,,null,,,,,,,,,,,,,,,,
,do_trial,435,952157,0.0-222.0-0.0,211.2,,,,50,"0,0,0",6,blank,443,null,0.144026459,0.478609409,0.348395374,0,,,,,,
,html-keyboard-response,436,953173,0.0-222.0-1.0,null,<p></p>,,null,,,,,,,,,,,,,,,,
,do_trial,437,955864,0.0-223.0-0.0,152.3,,,,49,"0,1,0",6,blank,444,null,0.136804268,0.501323337,0.424753849,0,,,,,,
,html-keyboard-response,438,956876,0.0-223.0-1.0,null,<p></p>,,null,,,,,,,,,,,,,,,,
,do_recog,439,959634,0.0-224.0-0.0,1241.8,,,,54,,,,445,probe-139,,,,,1,[object Object],128,3,1,
,html-keyboard-response,440,960647,0.0-224.0-1.0,null,<p></p>,,null,,,,,,,,,,,,,,,,
,do_trial,441,964247,0.0-225.0-0.0,1067.9,,,,49,"0,0,0",6,blank,446,null,0.057222905,0.520253146,0.45636501,0,,,,,,
,html-keyboard-response,442,965249,0.0-225.0-1.0,null,<p></p>,,null,,,,,,,,,,,,,,,,
,do_trial,443,967959,0.0-226.0-0.0,169.8,,,,50,"0,1,1",6,blank,447,null,0.06996292,0.711596553,0.450243209,1,,,,,,
,html-keyboard-response,444,968962,0.0-226.0-1.0,null,<p></p>,,null,,,,,,,,,,,,,,,,
,do_trial,445,971915,0.0-227.0-0.0,422,,,,50,"0,0,1",6,blank,448,null,0.094952921,0.729088795,0.571548263,0,,,,,,
,html-keyboard-response,446,972922,0.0-227.0-1.0,null,<p></p>,,null,,,,,,,,,,,,,,,,
,do_trial,447,975803,0.0-228.0-0.0,348.2,,,,49,"0,0,0",6,blank,449,null,0.295036554,0.572335139,0.486390529,0,,,,,,
,html-keyboard-response,448,976816,0.0-228.0-1.0,null,<p></p>,,null,,,,,,,,,,,,,,,,
,do_trial,449,980160,0.0-229.0-0.0,815.6,,,,50,"0,1,0",6,blank,450,null,0.378557556,0.511817566,0.38743891,1,,,,,,
,html-keyboard-response,450,981176,0.0-229.0-1.0,null,<p></p>,,null,,,,,,,,,,,,,,,,
,do_trial,451,986441,0.0-230.0-0.0,2735.1,,,,50,"0,1,0",6,blank,451,null,0.514191254,0.466964706,0.315867217,1,,,,,,
,html-keyboard-response,452,987443,0.0-230.0-1.0,null,<p></p>,,null,,,,,,,,,,,,,,,,
,do_recog,453,990344,0.0-231.0-0.0,1385.3,,,,53,,,,452,probe-116,,,,,1,[object Object],80,2,1,
,html-keyboard-response,454,991350,0.0-231.0-1.0,null,<p></p>,,null,,,,,,,,,,,,,,,,
,do_trial,455,995264,0.0-232.0-0.0,1376.2,,,,49,"1,0,1",6,blank,453,null,0.405761617,0.229827224,0.334154514,1,,,,,,
,html-keyboard-response,456,996270,0.0-232.0-1.0,null,<p></p>,,null,,,,,,,,,,,,,,,,
,do_trial,457,1000859,0.0-233.0-0.0,2066,,,,49,"0,0,0",6,blank,454,null,0.515565519,0.3096158,0.23704383,0,,,,,,
,html-keyboard-response,458,1001865,0.0-233.0-1.0,null,<p></p>,,null,,,,,,,,,,,,,,,,
,do_recog,459,1005064,0.0-234.0-0.0,1693.4,,,,55,,,,455,probe-222,,,,,1,[object Object],200,5,0,
,html-keyboard-response,460,1006071,0.0-234.0-1.0,null,<p></p>,,null,,,,,,,,,,,,,,,,
,do_trial,461,1009506,0.0-235.0-0.0,900,,,,49,"1,0,0",6,blank,456,null,0.645360306,0.351754191,0.228643772,1,,,,,,
,html-keyboard-response,462,1010522,0.0-235.0-1.0,null,<p></p>,,null,,,,,,,,,,,,,,,,
,do_recog,463,1013361,0.0-236.0-0.0,1333.3,,,,53,,,,457,probe-244,,,,,0,[object Object],null,null,0,
,html-keyboard-response,464,1014365,0.0-236.0-1.0,null,<p></p>,,null,,,,,,,,,,,,,,,,
,do_trial,465,1017719,0.0-237.0-0.0,814.1,,,,49,"0,0,0",6,blank,458,null,0.675749433,0.173011734,0.210568707,0,,,,,,
,html-keyboard-response,466,1018728,0.0-237.0-1.0,null,<p></p>,,null,,,,,,,,,,,,,,,,
,do_recog,467,1021860,0.0-238.0-0.0,1614.2,,,,55,,,,459,probe-253,,,,,0,[object Object],null,null,1,
,html-keyboard-response,468,1022867,0.0-238.0-1.0,null,<p></p>,,null,,,,,,,,,,,,,,,,
,do_trial,469,1026356,0.0-239.0-0.0,952.7,,,,49,"0,0,0",6,blank,460,null,0.657559963,0.120101746,0.280406884,0,,,,,,
,html-keyboard-response,470,1027374,0.0-239.0-1.0,null,<p></p>,,null,,,,,,,,,,,,,,,,
,do_recog,471,1030346,0.0-240.0-0.0,1454.5,,,,53,,,,461,probe-235,,,,,0,[object Object],null,null,0,
,html-keyboard-response,472,1031348,0.0-240.0-1.0,null,<p></p>,,null,,,,,,,,,,,,,,,,
,do_trial,473,1034637,0.0-241.0-0.0,755.1,,,,50,"1,0,0",6,blank,462,null,0.696008075,0.09519477,0.221341968,0,,,,,,
,html-keyboard-response,474,1035650,0.0-241.0-1.0,null,<p></p>,,null,,,,,,,,,,,,,,,,
,do_recog,475,1038868,0.0-242.0-0.0,1712.6,,,,55,,,,463,probe-242,,,,,0,[object Object],null,null,1,
,html-keyboard-response,476,1039873,0.0-242.0-1.0,null,<p></p>,,null,,,,,,,,,,,,,,,,
,do_trial,477,1043344,0.0-243.0-0.0,943.8,,,,49,"0,0,0",6,blank,464,null,0.68093422,0.231950162,0.077210601,0,,,,,,
,html-keyboard-response,478,1044354,0.0-243.0-1.0,null,<p></p>,,null,,,,,,,,,,,,,,,,
,do_recog,479,1047412,0.0-244.0-0.0,1541.3,,,,55,,,,465,probe-247,,,,,0,[object Object],null,null,1,
,html-keyboard-response,480,1048423,0.0-244.0-1.0,null,<p></p>,,null,,,,,,,,,,,,,,,,
,do_trial,481,1051836,0.0-245.0-0.0,877.8,,,,51,"1,0,0",6,blank,466,null,0.531485556,0.376731746,0.051555412,0,,,,,,
,html-keyboard-response,482,1052849,0.0-245.0-1.0,null,<p></p>,,null,,,,,,,,,,,,,,,,
,do_recog,483,1055622,0.0-246.0-0.0,1262.3,,,,53,,,,467,probe-241,,,,,0,[object Object],null,null,0,
,html-keyboard-response,484,1056637,0.0-246.0-1.0,null,<p></p>,,null,,,,,,,,,,,,,,,,
,do_trial,485,1060267,0.0-247.0-0.0,1102.6,,,,49,"0,0,0",6,blank,468,null,0.479699323,0.34512788,0.085877652,0,,,,,,
,html-keyboard-response,486,1061270,0.0-247.0-1.0,null,<p></p>,,null,,,,,,,,,,,,,,,,
,do_recog,487,1063102,0.0-248.0-0.0,313.3,,,,54,,,,469,probe-233,,,,,0,[object Object],null,null,0,
,html-keyboard-response,488,1064114,0.0-248.0-1.0,null,<p></p>,,null,,,,,,,,,,,,,,,,
,do_trial,489,1067865,0.0-249.0-0.0,1220.2,,,,49,"1,1,0",6,blank,470,null,0.599475646,0.335812884,0.134477451,1,,,,,,
,html-keyboard-response,490,1068868,0.0-249.0-1.0,null,<p></p>,,null,,,,,,,,,,,,,,,,
,do_recog,491,1071515,0.0-250.0-0.0,1140.6,,,,53,,,,471,probe-252,,,,,0,[object Object],null,null,0,
,html-keyboard-response,492,1072521,0.0-250.0-1.0,null,<p></p>,,null,,,,,,,,,,,,,,,,
,do_trial,493,1075941,0.0-251.0-0.0,890.1,,,,50,"1,1,0",6,blank,472,null,0.614247114,0.329018763,0.089211776,1,,,,,,
,html-keyboard-response,494,1076944,0.0-251.0-1.0,null,<p></p>,,null,,,,,,,,,,,,,,,,
,do_trial,495,1080630,0.0-252.0-0.0,1158.8,,,,49,"1,0,1",6,blank,473,null,0.606768584,0.277028841,0.129338254,1,,,,,,
,html-keyboard-response,496,1081637,0.0-252.0-1.0,null,<p></p>,,null,,,,,,,,,,,,,,,,
,do_trial,497,1085401,0.0-253.0-0.0,1225.9,,,,51,"1,0,0",6,blank,474,null,0.636163441,0.146355853,0.062555709,0,,,,,,
,html-keyboard-response,498,1086409,0.0-253.0-1.0,null,<p></p>,,null,,,,,,,,,,,,,,,,
,do_recog,499,1089631,0.0-254.0-0.0,1706.5,,,,56,,,,475,probe-255,,,,,0,[object Object],null,null,1,
,html-keyboard-response,500,1090645,0.0-254.0-1.0,null,<p></p>,,null,,,,,,,,,,,,,,,,
,do_trial,501,1094155,0.0-255.0-0.0,969.3,,,,49,"1,1,0",6,blank,476,null,0.616311367,0.244940369,0.153145313,1,,,,,,
,html-keyboard-response,502,1095172,0.0-255.0-1.0,null,<p></p>,,null,,,,,,,,,,,,,,,,
,do_recog,503,1098567,0.0-256.0-0.0,1887.7,,,,53,,,,477,probe-236,,,,,0,[object Object],null,null,0,
,html-keyboard-response,504,1099579,0.0-256.0-1.0,null,<p></p>,,null,,,,,,,,,,,,,,,,
,do_trial,505,1103930,0.0-257.0-0.0,1818.4,,,,50,"0,0,0",6,blank,478,null,0.603127432,0.302792376,0.070742886,0,,,,,,
,html-keyboard-response,506,1104931,0.0-257.0-1.0,null,<p></p>,,null,,,,,,,,,,,,,,,,
,do_recog,507,1107755,0.0-258.0-0.0,1316.6,,,,56,,,,479,probe-245,,,,,0,[object Object],null,null,1,
,html-keyboard-response,508,1108762,0.0-258.0-1.0,null,<p></p>,,null,,,,,,,,,,,,,,,,
,do_pick_best_pirate,509,1113731,0.0-259.0-0.0,3953.5,,,,49,,,,,,,,,,,,,,,
,do_pick_best_pirate,510,1116490,0.0-260.0-0.0,1748.1,,,,49,,,,,,,,,,,,,,,
,do_pick_best_pirate,511,1118674,0.0-261.0-0.0,1173.5,,,,50,,,,,,,,,,,,,,,
,do_pick_best_pirate,512,1121660,0.0-262.0-0.0,1979.7,,,,49,,,,,,,,,,,,,,,
,do_pick_best_pirate,513,1123208,0.0-263.0-0.0,541.3,,,,51,,,,,,,,,,,,,,,
,do_pick_best_pirate,514,1124814,0.0-264.0-0.0,589.7,,,,51,,,,,,,,,,,,,,,
,html-keyboard-response,515,1131213,0.0-265.0-0.0,6397.7,<p>You are all done with the experiment!</p><p> You made $15 plus $2 in bonus payment!</p><p>Thank you for participating. You will recieve your payment within 3 days.<p><b>[Press the space bar to end the experiment]</b></p></div>,,32,,,,,,,,,,,,,,,,