"success","trial_type","trial_index","time_elapsed","internal_node_id","rt","stimulus","key_press","subject_id","participant_id","age","gender","prompt","response","choice_outcomes","context_n","context_img_id","trial_n","probe_img_id","pR_red","pR_white","pR_black","outcome","is_valid","image_to_show","probed_trial","probed_context","correct","probe","probed_trial_n","probed_context_n","context_im"
"true","fullscreen","0","2762","0.0-0.0","","","","","","","","","","","","","","","","","","","","","","","","","","",""
"","pavlovia","1","2765","0.0-1.0","","","","","","","","","","","","","","","","","","","","","","","","","","",""
"","welc_back","2","15419","0.0-2.0","null","run_exp/static/audio/clip_29_welcome_back.m4a","null","59","231","10","female","<div class='center'><p>Welcome to day 2!</p><p> Yesterday, you were the head captain of a pirate ship. You and your fellow pirates robbed ships for their gold and traveled to six different islands .</p></div>","","","","","","","","","","","","","","","","","","",""
"","html-keyboard-response","3","22529","0.0-3.0","7109.400000095367","<div class='center'><p>Welcome to day 2!</p><p> Yesterday, you were the head captain of a pirate ship. You and your fellow pirates robbed ships for their gold and traveled to six different islands .</p><p><b>[Press the space bar to continue]</b></p></div>","32","","","","","","","","","","","","","","","","","","","","","","","",""
"","day_1_summary_goal","4","42515","0.0-4.0","null","run_exp/static/audio/clip_30_goal_of_game.m4a","null","","","","","<div class='center'><p>Today, like yesterday, you get to pick which pirate you want to rob the next ship.</p><p>If the pirate is successful in robbing a ship, you get gold coins that look like this: </p><p><img src='run_exp/static/images/tutorial/reward.png' height='150'></p><p> If they were not successful in robbing the ship, then you will get no gold coins and you'll see a big red x like this: </p><p><img src='run_exp/static/images/tutorial/reward_no.png' height='150'></p></div>","","","","","","","","","","","","","","","","","","",""
"","html-keyboard-response","5","52229","0.0-5.0","9712.5","<div class='center'><p>Today, like yesterday, you get to pick which pirate you want to rob the next ship.</p><p>If the pirate is successful in robbing a ship, you get gold coins that look like this: </p><p><img src='run_exp/static/images/tutorial/reward.png' height='150'></p><p> If they were not successful in robbing the ship, then you will get no gold coins and you'll see a big red x like this: </p><p><img src='run_exp/static/images/tutorial/reward_no.png' height='150'></p><p><b>[Press the space bar to continue]</b></p></div>","32","","","","","","","","","","","","","","","","","","","","","","","",""
"","day_1_summary_pick","6","70054","0.0-6.0","null","run_exp/static/audio/clip_31_how_to_pick_a_pirate.m4a","null","","","","","<div class='center'><p>Also, just like yesterday, you will use the 1,2,3 keys on your keyboard to pick a pirate. Press '1' to choose red beard, '2' to choose white beard, and '3' to choose black beard . You only have 3 seconds to pick a pirate, so please make a choice quickly!</p></div>","","","","","","","","","","","","","","","","","","",""
"","html-keyboard-response","7","70522","0.0-7.0","467.30000019073486","<div class='center'><p>Also, just like yesterday, you will use the 1,2,3 keys on your keyboard to pick a pirate. Press '1' to choose red beard, '2' to choose white beard, and '3' to choose black beard . You only have 3 seconds to pick a pirate, so please make a choice quickly!</p><p><b>[Press the space bar to continue]</b></p></div>","32","","","","","","","","","","","","","","","","","","","","","","","",""
"","test_phase_begin","8","94945","0.0-8.0","null","run_exp/static/audio/clip_32_final_place.m4a","null","","","","","<div class='center'><p>You’ve arrived at the final island of your journey! Unfortunately, it’s very foggy out, so you won’t be able to see it in the distance like the other islands you've visited.</p><p>You’ll still be deciding which pirate you want to rob a ship like before. However, because of the fog, you also won’t be able to see the ship.</p><p>This means you do not have to remember the ships you rob on this island.</p></p></div>","","","","","","","","","","","","","","","","","","",""
"","html-keyboard-response","9","96498","0.0-9.0","1552.5999999046326","<div class='center'><p>You’ve arrived at the final island of your journey! Unfortunately, it’s very foggy out, so you won’t be able to see it in the distance like the other islands you've visited.</p><p>You’ll still be deciding which pirate you want to rob a ship like before. However, because of the fog, you also won’t be able to see the ship.</p><p>This means you do not have to remember the ships you rob on this island.</p></p><p><b>[Press the space bar to continue]</b></p></div>","32","","","","","","","","","","","","","","","","","","","","","","","",""
"","explain_probe_1","10","105928","0.0-10.0","null","run_exp/static/audio/clip_33_recognition_1.m4a","null","","","","","<div class='center'><p> Sometimes you’ll be shown a ship, and you will be asked if you saw this ship on a past island.</p><p> Here is an example of what you will see.</p><p><img src='run_exp/static/images/tutorial/example_recog_trial.png' height='500'></p></div>","","","","","","","","","","","","","","","","","","",""
"","html-keyboard-response","11","107051","0.0-11.0","1121.8999996185303","<div class='center'><p> Sometimes you’ll be shown a ship, and you will be asked if you saw this ship on a past island.</p><p> Here is an example of what you will see.</p><p><img src='run_exp/static/images/tutorial/example_recog_trial.png' height='500'></p><p><b>[Press the space bar to continue]</b></p></div>","32","","","","","","","","","","","","","","","","","","","","","","","",""
"","explain_probe_2","12","133884","0.0-12.0","null","run_exp/static/audio/clip_34_recognition_2.m4a","null","","","","","<div class='center'><p> You will press the 5, 6, 7, 8 keys on your keyboard to respond.</p><p>If you are very sure saw the ship, press <b>5</b> on your keyboard.</p><p> If you think you  saw it before but are not sure, then press <b>6</b>.</p><p> If you think you have <b>not</b> seen it before but are not sure, then press <b>7</b>.</p><p> If you are sure you did <b>not</b> see the ship before, then press <b>8</b>.</p><p><img src='run_exp/static/images/tutorial/example_recog_trial.png' height='500'></p></div>","","","","","","","","","","","","","","","","","","",""
"","html-keyboard-response","13","135704","0.0-13.0","1819.2000002861023","<div class='center'><p> You will press the 5, 6, 7, 8 keys on your keyboard to respond.</p><p>If you are very sure saw the ship, press <b>5</b> on your keyboard.</p><p> If you think you  saw it before but are not sure, then press <b>6</b>.</p><p> If you think you have <b>not</b> seen it before but are not sure, then press <b>7</b>.</p><p> If you are sure you did <b>not</b> see the ship before, then press <b>8</b>.</p><p><img src='run_exp/static/images/tutorial/example_recog_trial.png' height='500'></p><p><b>[Press the space bar to continue]</b></p></div>","32","","","","","","","","","","","","","","","","","","","","","","","",""
"","explain_outcome","14","157243","0.0-14.0","null","run_exp/static/audio/clip_35_recognition_3.m4a","null","","","","","<div class='center'><p> If you remember correctly, then you’ll get a gold coin like this: </p><p><img src='run_exp/static/images/tutorial/reward_small.png' height='200'></p><p>If you do not remember correctly, then you'll see a red x like this: </p><p><img src='run_exp/static/images/tutorial/reward_no.png' height='200'></p><p>Importantly, when you are shown a ship, take the time to remind yourself which island you saw it on. This will help you in the next part of the study.</p></div>","","","","","","","","","","","","","","","","","","",""
"","html-keyboard-response","15","166666","0.0-15.0","9422.199999809265","<div class='center'><p> If you remember correctly, then you’ll get a gold coin like this: </p><p><img src='run_exp/static/images/tutorial/reward_small.png' height='200'></p><p>If you do not remember correctly, then you'll see a red x like this: </p><p><img src='run_exp/static/images/tutorial/reward_no.png' height='200'></p><p>Importantly, when you are shown a ship, take the time to remind yourself which island you saw it on. This will help you in the next part of the study.</p><p><b>[Press the space bar to continue]</b></p></div>","32","","","","","","","","","","","","","","","","","","","","","","","",""
"","begin_test_phase","16","191190","0.0-16.0","null","run_exp/static/audio/clip_36_begin_final.m4a","null","","","","","<div class='center'><p>Let's go over the important points again. Your job is to: </p><p>1. Pick the pirate who is best at robbing ships and will bring you back gold coins. </p><p>2. Correctly remember whether or not you saw a ship before. If you did see the ship before, remind yourself on which island you saw the ship. </p></div>","","","","","","","","","","","","","","","","","","",""
"","html-keyboard-response","17","199021","0.0-17.0","7805.800000190735","<div class='center'><p>Let's go over the important points again. Your job is to: </p><p>1. Pick the pirate who is best at robbing ships and will bring you back gold coins. </p><p>2. Correctly remember whether or not you saw a ship before. If you did see the ship before, remind yourself on which island you saw the ship. </p><p><b>[Press the space bar to continue]</b></p></div>","32","","","","","","","","","","","","","","","","","","","","","","","",""
"","do_welcome","18","200525","0.0-18.0","null","","","","","","","","null","","","","","","","","","","","","","","","","","",""
"","do_trial","19","204888","0.0-19.0-0.0","1825","","","","","","","","49","1,0,0","6","blank","230","null","0.6554964782276576","0.1409332686841124","0.22227061734593676","1","","","","","","","","",""
"","html-keyboard-response","20","205892","0.0-19.0-1.0","null","<p></p>","null","","","","","","","","","","","","","","","","","","","","","","","",""
"","do_trial","21","209243","0.0-20.0-0.0","810.5999999046326","","","","","","","","49","1,0,1","6","blank","231","null","0.6719829796859567","0.16324340140106716","0.2481944952886338","1","","","","","","","","",""
"","html-keyboard-response","22","210249","0.0-20.0-1.0","null","<p></p>","null","","","","","","","","","","","","","","","","","","","","","","","",""
"","do_trial","23","213159","0.0-21.0-0.0","370.7999997138977","","","","","","","","50","0,0,0","6","blank","232","null","0.73349230707469","0.1449978677209746","0.4073150816914098","0","","","","","","","","",""
"","html-keyboard-response","24","214163","0.0-21.0-1.0","null","<p></p>","null","","","","","","","","","","","","","","","","","","","","","","","",""
"","do_trial","25","217070","0.0-22.0-0.0","372.40000009536743","","","","","","","","49","1,0,1","6","blank","233","null","0.6907481495607545","0.1977131945922822","0.45964184652406126","1","","","","","","","","",""
"","html-keyboard-response","26","218072","0.0-22.0-1.0","null","<p></p>","null","","","","","","","","","","","","","","","","","","","","","","","",""
"","do_trial","27","221063","0.0-23.0-0.0","456.2999997138977","","","","","","","","49","1,0,0","6","blank","234","null","0.6716585802914321","0.07268161569412641","0.2928474536938128","1","","","","","","","","",""
"","html-keyboard-response","28","222067","0.0-23.0-1.0","null","<p></p>","null","","","","","","","","","","","","","","","","","","","","","","","",""
"","do_trial","29","225248","0.0-24.0-0.0","646.7000002861023","","","","","","","","50","0,0,0","6","blank","235","null","0.6873931030922443","0.06726069567858257","0.2508744212032051","0","","","","","","","","",""
"","html-keyboard-response","30","226249","0.0-24.0-1.0","null","<p></p>","null","","","","","","","","","","","","","","","","","","","","","","","",""
"","do_trial","31","229121","0.0-25.0-0.0","335","","","","","","","","49","1,0,0","6","blank","236","null","0.6050570627570702","0.2352658701173829","0.34043501953533517","1","","","","","","","","",""
"","html-keyboard-response","32","230126","0.0-25.0-1.0","null","<p></p>","null","","","","","","","","","","","","","","","","","","","","","","","",""
"","do_trial","33","233036","0.0-26.0-0.0","373.30000019073486","","","","","","","","49","0,0,0","6","blank","237","null","0.6668687067900981","0.3042782773205632","0.35203399963720766","0","","","","","","","","",""
"","html-keyboard-response","34","234039","0.0-26.0-1.0","null","<p></p>","null","","","","","","","","","","","","","","","","","","","","","","","",""
"","do_trial","35","236971","0.0-27.0-0.0","397.2999997138977","","","","","","","","49","1,0,0","6","blank","238","null","0.6482324598462341","0.16079754324667547","0.43171649742244844","1","","","","","","","","",""
"","html-keyboard-response","36","237973","0.0-27.0-1.0","null","<p></p>","null","","","","","","","","","","","","","","","","","","","","","","","",""
"","do_trial","37","240921","0.0-28.0-0.0","411.90000009536743","","","","","","","","49","1,0,1","6","blank","239","null","0.5594557593698347","0.1068322719903224","0.41338465480428144","1","","","","","","","","",""
"","html-keyboard-response","38","241924","0.0-28.0-1.0","null","<p></p>","null","","","","","","","","","","","","","","","","","","","","","","","",""
"","do_trial","39","244817","0.0-29.0-0.0","353.09999990463257","","","","","","","","49","1,0,0","6","blank","240","null","0.47823456669298986","0.25639772745327716","0.33176834689568657","1","","","","","","","","",""
"","html-keyboard-response","40","245820","0.0-29.0-1.0","null","<p></p>","null","","","","","","","","","","","","","","","","","","","","","","","",""
"","do_trial","41","248763","0.0-30.0-0.0","405.80000019073486","","","","","","","","49","1,0,0","6","blank","241","null","0.40254234263255834","0.22882565435550445","0.3938689956963858","1","","","","","","","","",""
"","html-keyboard-response","42","249768","0.0-30.0-1.0","null","<p></p>","null","","","","","","","","","","","","","","","","","","","","","","","",""
"","do_trial","43","252664","0.0-31.0-0.0","362.59999990463257","","","","","","","","49","0,0,0","6","blank","242","null","0.39941062517418763","0.4824168019152363","0.22751563902166005","0","","","","","","","","",""
"","html-keyboard-response","44","253667","0.0-31.0-1.0","null","<p></p>","null","","","","","","","","","","","","","","","","","","","","","","","",""
"","do_trial","45","256614","0.0-32.0-0.0","412.2999997138977","","","","","","","","49","0,1,1","6","blank","243","null","0.37333747032195336","0.42116025231536497","0.46712277782529077","0","","","","","","","","",""
"","html-keyboard-response","46","257617","0.0-32.0-1.0","null","<p></p>","null","","","","","","","","","","","","","","","","","","","","","","","",""
"","do_trial","47","260556","0.0-33.0-0.0","399.80000019073486","","","","","","","","49","0,1,1","6","blank","244","null","0.14625322351885311","0.5688810226849919","0.3806795286612254","0","","","","","","","","",""
"","html-keyboard-response","48","261557","0.0-33.0-1.0","null","<p></p>","null","","","","","","","","","","","","","","","","","","","","","","","",""
"","do_recog","49","267567","0.0-34.0-0.0","null","","","","","","","","null","","","","245","probe-51","","","","","1","[object Object]","80","2","0","","","",""
"","html-keyboard-response","50","268569","0.0-34.0-1.0","null","<p></p>","null","","","","","","","","","","","","","","","","","","","","","","","",""
"","do_trial","51","271882","0.0-35.0-0.0","776.0999999046326","","","","","","","","49","0,1,0","6","blank","246","null","0.0836631417179255","0.6337879331567696","0.3226569048257118","0","","","","","","","","",""
"","html-keyboard-response","52","272886","0.0-35.0-1.0","null","<p></p>","null","","","","","","","","","","","","","","","","","","","","","","","",""
"","do_recog","53","278895","0.0-36.0-0.0","null","","","","","","","","null","","","","247","probe-141","","","","","1","[object Object]","88","2","0","","","",""
"","html-keyboard-response","54","279897","0.0-36.0-1.0","null","<p></p>","null","","","","","","","","","","","","","","","","","","","","","","","",""
"","do_trial","55","283324","0.0-37.0-0.0","889.4000000953674","","","","","","","","50","1,1,0","6","blank","248","null","0.08131029781505687","0.7105372887349225","0.3278504342034467","1","","","","","","","","",""
"","html-keyboard-response","56","284329","0.0-37.0-1.0","null","<p></p>","null","","","","","","","","","","","","","","","","","","","","","","","",""
"","do_recog","57","287794","0.0-38.0-0.0","1956","","","","","","","","53","","","","249","probe-245","","","","","0","[object Object]","null","null","0","","","",""
"","html-keyboard-response","58","288797","0.0-38.0-1.0","null","<p></p>","null","","","","","","","","","","","","","","","","","","","","","","","",""
"","do_trial","59","293280","0.0-39.0-0.0","1946.2000002861023","","","","","","","","50","0,1,0","6","blank","250","null","0.05945516340422549","0.5622912866828635","0.20893192300519864","1","","","","","","","","",""
"","html-keyboard-response","60","294283","0.0-39.0-1.0","null","<p></p>","null","","","","","","","","","","","","","","","","","","","","","","","",""
"","do_recog","61","297884","0.0-40.0-0.0","2093.4000000953674","","","","","","","","54","","","","251","probe-100","","","","","1","[object Object]","47","1","1","","","",""
"","html-keyboard-response","62","298889","0.0-40.0-1.0","null","<p></p>","null","","","","","","","","","","","","","","","","","","","","","","","",""
"","do_trial","63","302526","0.0-41.0-0.0","1102.3000001907349","","","","","","","","50","0,1,0","6","blank","252","null","0.05353858180578291","0.5777426098716224","0.24028867974327495","1","","","","","","","","",""
"","html-keyboard-response","64","303529","0.0-41.0-1.0","null","<p></p>","null","","","","","","","","","","","","","","","","","","","","","","","",""
"","do_recog","65","305625","0.0-42.0-0.0","587.0999999046326","","","","","","","","54","","","","253","probe-101","","","","","1","[object Object]","87","2","1","","","",""
"","html-keyboard-response","66","306628","0.0-42.0-1.0","null","<p></p>","null","","","","","","","","","","","","","","","","","","","","","","","",""
"","do_trial","67","311643","0.0-43.0-0.0","2475.3999996185303","","","","","","","","50","1,1,0","6","blank","254","null","0.12124623963426094","0.5221293139027592","0.4302634440544005","1","","","","","","","","",""
"","html-keyboard-response","68","312646","0.0-43.0-1.0","null","<p></p>","null","","","","","","","","","","","","","","","","","","","","","","","",""
"","do_recog","69","315008","0.0-44.0-0.0","853.8000001907349","","","","","","","","54","","","","255","probe-129","","","","","1","[object Object]","49","1","1","","","",""
"","html-keyboard-response","70","316012","0.0-44.0-1.0","null","<p></p>","null","","","","","","","","","","","","","","","","","","","","","","","",""
"","do_trial","71","319402","0.0-45.0-0.0","854.4000000953674","","","","","","","","50","0,1,1","6","blank","256","null","0.06524701261158809","0.6882774264573763","0.45659457370850404","1","","","","","","","","",""
"","html-keyboard-response","72","320405","0.0-45.0-1.0","null","<p></p>","null","","","","","","","","","","","","","","","","","","","","","","","",""
"","do_trial","73","323635","0.0-46.0-0.0","691.4000000953674","","","","","","","","50","0,0,0","6","blank","257","null","0.0769404050512293","0.6492129778246448","0.3692122875894149","0","","","","","","","","",""
"","html-keyboard-response","74","324640","0.0-46.0-1.0","null","<p></p>","null","","","","","","","","","","","","","","","","","","","","","","","",""
"","do_trial","75","328243","0.0-47.0-0.0","1068.5","","","","","","","","51","0,1,1","6","blank","258","null","0.061273866421226994","0.7049869087169875","0.3576328715604995","1","","","","","","","","",""
"","html-keyboard-response","76","329247","0.0-47.0-1.0","null","<p></p>","null","","","","","","","","","","","","","","","","","","","","","","","",""
"","do_trial","77","332385","0.0-48.0-0.0","601.7999997138977","","","","","","","","51","0,1,0","6","blank","259","null","0.19150427651798058","0.6060764075827906","0.3547092910712164","0","","","","","","","","",""
"","html-keyboard-response","78","333387","0.0-48.0-1.0","null","<p></p>","null","","","","","","","","","","","","","","","","","","","","","","","",""
"","do_trial","79","336794","0.0-49.0-0.0","871.5","","","","","","","","49","0,0,0","6","blank","260","null","0.1381336162037091","0.4727929464859374","0.4157046724274398","0","","","","","","","","",""
"","html-keyboard-response","80","337800","0.0-49.0-1.0","null","<p></p>","null","","","","","","","","","","","","","","","","","","","","","","","",""
"","do_recog","81","340310","0.0-50.0-0.0","1000.8999996185303","","","","","","","","55","","","","261","probe-248","","","","","0","[object Object]","null","null","1","","","",""
"","html-keyboard-response","82","341313","0.0-50.0-1.0","null","<p></p>","null","","","","","","","","","","","","","","","","","","","","","","","",""
"","do_trial","83","344175","0.0-51.0-0.0","326.40000009536743","","","","","","","","50","0,1,1","6","blank","262","null","0.05682685308315976","0.4978015862532644","0.5094914095405393","1","","","","","","","","",""
"","html-keyboard-response","84","345178","0.0-51.0-1.0","null","<p></p>","null","","","","","","","","","","","","","","","","","","","","","","","",""
"","do_trial","85","348296","0.0-52.0-0.0","578.2999997138977","","","","","","","","50","0,0,0","6","blank","263","null","0.09354499155102547","0.5937389837769799","0.29119610718107575","0","","","","","","","","",""
"","html-keyboard-response","86","349299","0.0-52.0-1.0","null","<p></p>","null","","","","","","","","","","","","","","","","","","","","","","","",""
"","do_trial","87","353647","0.0-53.0-0.0","1812.4000000953674","","","","","","","","51","0,0,0","6","blank","264","null","0.11622457150848377","0.5744332317725553","0.288721373498944","0","","","","","","","","",""
"","html-keyboard-response","88","354650","0.0-53.0-1.0","null","<p></p>","null","","","","","","","","","","","","","","","","","","","","","","","",""
"","do_trial","89","357804","0.0-54.0-0.0","614.8000001907349","","","","","","","","49","0,1,0","6","blank","265","null","0.13678289609755398","0.4864560014813728","0.42144858118756057","0","","","","","","","","",""
"","html-keyboard-response","90","358808","0.0-54.0-1.0","null","<p></p>","null","","","","","","","","","","","","","","","","","","","","","","","",""
"","do_trial","91","362073","0.0-55.0-0.0","730.5999999046326","","","","","","","","50","0,1,1","6","blank","266","null","0.05570798685820513","0.55075110253756","0.40671293598795755","1","","","","","","","","",""
"","html-keyboard-response","92","363075","0.0-55.0-1.0","null","<p></p>","null","","","","","","","","","","","","","","","","","","","","","","","",""
"","do_trial","93","366825","0.0-56.0-0.0","1210.5","","","","","","","","50","0,1,0","6","blank","267","null","0.21811228496344442","0.49859087892081305","0.2679727858143179","1","","","","","","","","",""
"","html-keyboard-response","94","367828","0.0-56.0-1.0","null","<p></p>","null","","","","","","","","","","","","","","","","","","","","","","","",""
"","do_recog","95","371782","0.0-57.0-0.0","2450.9000000953674","","","","","","","","54","","","","268","probe-207","","","","","1","[object Object]","129","3","1","","","",""
"","html-keyboard-response","96","372788","0.0-57.0-1.0","null","<p></p>","null","","","","","","","","","","","","","","","","","","","","","","","",""
"","do_trial","97","376859","0.0-58.0-0.0","1532.3000001907349","","","","","","","","50","0,0,0","6","blank","269","null","0.20653210046371215","0.45052677801941243","0.22031228249861193","0","","","","","","","","",""
"","html-keyboard-response","98","377862","0.0-58.0-1.0","null","<p></p>","null","","","","","","","","","","","","","","","","","","","","","","","",""
"","do_recog","99","380945","0.0-59.0-0.0","1574.5","","","","","","","","53","","","","270","probe-171","","","","","1","[object Object]","122","3","1","","","",""
"","html-keyboard-response","100","381951","0.0-59.0-1.0","null","<p></p>","null","","","","","","","","","","","","","","","","","","","","","","","",""
"","do_trial","101","387993","0.0-60.0-0.0","null","","","","","","","","null","0,0,0","6","blank","271","null","0.20195233694378295","0.6239173645787851","0.31525126029143646","","","","","","","","","",""
"","html-keyboard-response","102","388998","0.0-60.0-1.0","null","<p></p>","null","","","","","","","","","","","","","","","","","","","","","","","",""
"","do_trial","103","391663","0.0-61.0-0.0","127.2000002861023","","","","","","","","51","0,1,0","6","blank","272","null","0.16797954089689746","0.6583112857235207","0.23471509515217187","0","","","","","","","","",""
"","html-keyboard-response","104","392665","0.0-61.0-1.0","null","<p></p>","null","","","","","","","","","","","","","","","","","","","","","","","",""
"","do_trial","105","395643","0.0-62.0-0.0","442.90000009536743","","","","","","","","51","0,0,0","6","blank","273","null","0.18132180120100777","0.7050533443952152","0.3020646025168648","0","","","","","","","","",""
"","html-keyboard-response","106","396648","0.0-62.0-1.0","null","<p></p>","null","","","","","","","","","","","","","","","","","","","","","","","",""
"","do_recog","107","398752","0.0-63.0-0.0","596.7999997138977","","","","","","","","53","","","","274","probe-08","","","","","1","[object Object]","203","5","1","","","",""
"","html-keyboard-response","108","399755","0.0-63.0-1.0","null","<p></p>","null","","","","","","","","","","","","","","","","","","","","","","","",""
"","do_trial","109","403712","0.0-64.0-0.0","1419.0999999046326","","","","","","","","51","0,1,0","6","blank","275","null","0.30773340472874505","0.7118224485481404","0.2459937894296046","0","","","","","","","","",""
"","html-keyboard-response","110","404715","0.0-64.0-1.0","null","<p></p>","null","","","","","","","","","","","","","","","","","","","","","","","",""
"","do_trial","111","408765","0.0-65.0-0.0","1511","","","","","","","","51","1,1,0","6","blank","276","null","0.38939657157504926","0.7703713189723057","0.37796698206356694","0","","","","","","","","",""
"","html-keyboard-response","112","409766","0.0-65.0-1.0","null","<p></p>","null","","","","","","","","","","","","","","","","","","","","","","","",""
"","do_trial","113","412735","0.0-66.0-0.0","431.2000002861023","","","","","","","","51","1,0,1","6","blank","277","null","0.31050943487690746","0.6691223101412994","0.43052992619257846","1","","","","","","","","",""
"","html-keyboard-response","114","413738","0.0-66.0-1.0","null","<p></p>","null","","","","","","","","","","","","","","","","","","","","","","","",""
"","do_trial","115","416512","0.0-67.0-0.0","239.40000009536743","","","","","","","","51","0,1,0","6","blank","278","null","0.2622839177418157","0.6720533510400312","0.41300070962419383","0","","","","","","","","",""
"","html-keyboard-response","116","417513","0.0-67.0-1.0","null","<p></p>","null","","","","","","","","","","","","","","","","","","","","","","","",""
"","do_trial","117","420486","0.0-68.0-0.0","435.59999990463257","","","","","","","","51","0,1,1","6","blank","279","null","0.15794670363723512","0.6429996394780396","0.46572801762329064","1","","","","","","","","",""
"","html-keyboard-response","118","421490","0.0-68.0-1.0","null","<p></p>","null","","","","","","","","","","","","","","","","","","","","","","","",""
"","do_recog","119","423988","0.0-69.0-0.0","990","","","","","","","","53","","","","280","probe-190","","","","","1","[object Object]","84","2","1","","","",""
"","html-keyboard-response","120","424991","0.0-69.0-1.0","null","<p></p>","null","","","","","","","","","","","","","","","","","","","","","","","",""
"","do_trial","121","428415","0.0-70.0-0.0","889.2999997138977","","","","","","","","51","0,1,1","6","blank","281","null","0.1983832420589529","0.6717229196273623","0.4905830086185559","1","","","","","","","","",""
"","html-keyboard-response","122","429418","0.0-70.0-1.0","null","<p></p>","null","","","","","","","","","","","","","","","","","","","","","","","",""
"","do_trial","123","433122","0.0-71.0-0.0","1164.6000003814697","","","","","","","","51","0,1,0","6","blank","282","null","0.22933203023840343","0.6763641200469132","0.3758147882770478","0","","","","","","","","",""
"","html-keyboard-response","124","434125","0.0-71.0-1.0","null","<p></p>","null","","","","","","","","","","","","","","","","","","","","","","","",""
"","do_trial","125","437989","0.0-72.0-0.0","1329.3000001907349","","","","","","","","51","0,1,0","6","blank","283","null","0.1652959587761811","0.6829303283947736","0.3156270375604405","0","","","","","","","","",""
"","html-keyboard-response","126","438992","0.0-72.0-1.0","null","<p></p>","null","","","","","","","","","","","","","","","","","","","","","","","",""
"","do_trial","127","445033","0.0-73.0-0.0","null","","","","","","","","null","0,1,1","6","blank","284","null","0.2607498216185948","0.8146983725447539","0.41574340422151596","","","","","","","","","",""
"","html-keyboard-response","128","446037","0.0-73.0-1.0","null","<p></p>","null","","","","","","","","","","","","","","","","","","","","","","","",""
"","do_trial","129","450052","0.0-74.0-0.0","1478.0999999046326","","","","","","","","51","0,1,0","6","blank","285","null","0.1179300279043602","0.6761433170443938","0.4664993436067276","0","","","","","","","","",""
"","html-keyboard-response","130","451055","0.0-74.0-1.0","null","<p></p>","null","","","","","","","","","","","","","","","","","","","","","","","",""
"","do_trial","131","454674","0.0-75.0-0.0","1081.7999997138977","","","","","","","","49","1,0,0","6","blank","286","null","0.10715088375277128","0.6443010021490335","0.3123014938658827","1","","","","","","","","",""
"","html-keyboard-response","132","455676","0.0-75.0-1.0","null","<p></p>","null","","","","","","","","","","","","","","","","","","","","","","","",""
"","do_recog","133","459550","0.0-76.0-0.0","2365.4000000953674","","","","","","","","53","","","","287","probe-11","","","","","1","[object Object]","160","4","1","","","",""
"","html-keyboard-response","134","460553","0.0-76.0-1.0","null","<p></p>","null","","","","","","","","","","","","","","","","","","","","","","","",""
"","do_trial","135","463710","0.0-77.0-0.0","618.9000000953674","","","","","","","","49","0,0,0","6","blank","288","null","0.19791119407706265","0.5957406185785891","0.35169645670308686","0","","","","","","","","",""
"","html-keyboard-response","136","464713","0.0-77.0-1.0","null","<p></p>","null","","","","","","","","","","","","","","","","","","","","","","","",""
"","do_recog","137","468929","0.0-78.0-0.0","2710.699999809265","","","","","","","","55","","","","289","probe-203","","","","","1","[object Object]","162","4","0","","","",""
"","html-keyboard-response","138","469932","0.0-78.0-1.0","null","<p></p>","null","","","","","","","","","","","","","","","","","","","","","","","",""
"","do_trial","139","474016","0.0-79.0-0.0","1545.0999999046326","","","","","","","","50","0,1,1","6","blank","290","null","0.16779594686418478","0.600885481490007","0.3661957999191164","1","","","","","","","","",""
"","html-keyboard-response","140","475020","0.0-79.0-1.0","null","<p></p>","null","","","","","","","","","","","","","","","","","","","","","","","",""
"","do_trial","141","479101","0.0-80.0-0.0","1542.5999999046326","","","","","","","","49","0,1,0","6","blank","291","null","0.14585123493087238","0.5560797568934817","0.3379196565316705","0","","","","","","","","",""
"","html-keyboard-response","142","480104","0.0-80.0-1.0","null","<p></p>","null","","","","","","","","","","","","","","","","","","","","","","","",""
"","do_trial","143","483950","0.0-81.0-0.0","1306.6999998092651","","","","","","","","51","0,1,0","6","blank","292","null","0.13391544963762061","0.4869930202818716","0.30875358591700347","0","","","","","","","","",""
"","html-keyboard-response","144","484953","0.0-81.0-1.0","null","<p></p>","null","","","","","","","","","","","","","","","","","","","","","","","",""
"","do_trial","145","488089","0.0-82.0-0.0","598","","","","","","","","50","1,1,1","6","blank","293","null","0.21275298216705188","0.5287952030945442","0.33821202253299687","1","","","","","","","","",""
"","html-keyboard-response","146","489093","0.0-82.0-1.0","null","<p></p>","null","","","","","","","","","","","","","","","","","","","","","","","",""
"","do_trial","147","492372","0.0-83.0-0.0","744.5999999046326","","","","","","","","50","0,1,0","6","blank","294","null","0.15985891711400108","0.5469962175331675","0.3299218759206042","1","","","","","","","","",""
"","html-keyboard-response","148","493375","0.0-83.0-1.0","null","<p></p>","null","","","","","","","","","","","","","","","","","","","","","","","",""
"","do_recog","149","497065","0.0-84.0-0.0","2185.699999809265","","","","","","","","53","","","","295","probe-198","","","","","1","[object Object]","165","4","1","","","",""
"","html-keyboard-response","150","498067","0.0-84.0-1.0","null","<p></p>","null","","","","","","","","","","","","","","","","","","","","","","","",""
"","do_trial","151","501463","0.0-85.0-0.0","861.0999999046326","","","","","","","","49","1,1,0","6","blank","296","null","0.22594491292503605","0.3606417046599211","0.21600377428418405","1","","","","","","","","",""
"","html-keyboard-response","152","502465","0.0-85.0-1.0","null","<p></p>","null","","","","","","","","","","","","","","","","","","","","","","","",""
"","do_recog","153","506047","0.0-86.0-0.0","2073.9000000953674","","","","","","","","53","","","","297","probe-109","","","","","1","[object Object]","124","3","1","","","",""
"","html-keyboard-response","154","507050","0.0-86.0-1.0","null","<p></p>","null","","","","","","","","","","","","","","","","","","","","","","","",""
"","do_trial","155","510039","0.0-87.0-0.0","448.59999990463257","","","","","","","","49","0,0,0","6","blank","298","null","0.4769736134232751","0.09740995135758469","0.2975910733372256","0","","","","","","","","",""
"","html-keyboard-response","156","511042","0.0-87.0-1.0","null","<p></p>","null","","","","","","","","","","","","","","","","","","","","","","","",""
"","do_trial","157","515338","0.0-88.0-0.0","1757.3000001907349","","","","","","","","50","0,0,1","6","blank","299","null","0.3646520614246228","0.1249089634575125","0.3881643547541694","0","","","","","","","","",""
"","html-keyboard-response","158","516340","0.0-88.0-1.0","null","<p></p>","null","","","","","","","","","","","","","","","","","","","","","","","",""
"","do_recog","159","520174","0.0-89.0-0.0","2328.4000000953674","","","","","","","","53","","","","300","probe-226","","","","","1","[object Object]","82","2","1","","","",""
"","html-keyboard-response","160","521177","0.0-89.0-1.0","null","<p></p>","null","","","","","","","","","","","","","","","","","","","","","","","",""
"","do_trial","161","524503","0.0-90.0-0.0","790.8999996185303","","","","","","","","49","0,0,1","6","blank","301","null","0.5543801766752295","0.13999176196189436","0.2819248199175867","0","","","","","","","","",""
"","html-keyboard-response","162","525507","0.0-90.0-1.0","null","<p></p>","null","","","","","","","","","","","","","","","","","","","","","","","",""
"","do_trial","163","528928","0.0-91.0-0.0","882","","","","","","","","50","1,0,1","6","blank","302","null","0.7427772090676895","0.1071196782663071","0.3616682021610222","0","","","","","","","","",""
"","html-keyboard-response","164","529932","0.0-91.0-1.0","null","<p></p>","null","","","","","","","","","","","","","","","","","","","","","","","",""
"","do_trial","165","532988","0.0-92.0-0.0","518.7000002861023","","","","","","","","51","1,0,1","6","blank","303","null","0.5164242693631755","0.07100646567724107","0.23360224346656908","1","","","","","","","","",""
"","html-keyboard-response","166","533991","0.0-92.0-1.0","null","<p></p>","null","","","","","","","","","","","","","","","","","","","","","","","",""
"","do_trial","167","537781","0.0-93.0-0.0","1252.0999999046326","","","","","","","","49","1,0,0","6","blank","304","null","0.521897680406894","0.1276615687412574","0.2867861807987766","1","","","","","","","","",""
"","html-keyboard-response","168","538784","0.0-93.0-1.0","null","<p></p>","null","","","","","","","","","","","","","","","","","","","","","","","",""
"","do_trial","169","542023","0.0-94.0-0.0","700.3000001907349","","","","","","","","50","1,0,0","6","blank","305","null","0.513805405675583","0.14375802806313778","0.25928061868534225","0","","","","","","","","",""
"","html-keyboard-response","170","543026","0.0-94.0-1.0","null","<p></p>","null","","","","","","","","","","","","","","","","","","","","","","","",""
"","do_recog","171","549040","0.0-95.0-0.0","null","","","","","","","","null","","","","306","probe-49","","","","","1","[object Object]","89","2","0","","","",""
"","html-keyboard-response","172","550046","0.0-95.0-1.0","null","<p></p>","null","","","","","","","","","","","","","","","","","","","","","","","",""
"","do_trial","173","553634","0.0-96.0-0.0","1048.5","","","","","","","","49","1,0,0","6","blank","307","null","0.5288889915286776","0.13299631153626107","0.32568496988112466","1","","","","","","","","",""
"","html-keyboard-response","174","554639","0.0-96.0-1.0","null","<p></p>","null","","","","","","","","","","","","","","","","","","","","","","","",""
"","do_trial","175","557793","0.0-97.0-0.0","618.5","","","","","","","","49","1,0,0","6","blank","308","null","0.5714998998539511","0.06808735742213932","0.35962799265789613","1","","","","","","","","",""
"","html-keyboard-response","176","558797","0.0-97.0-1.0","null","<p></p>","null","","","","","","","","","","","","","","","","","","","","","","","",""
"","do_recog","177","561499","0.0-98.0-0.0","1193.5999999046326","","","","","","","","53","","","","309","probe-151","","","","","1","[object Object]","43","1","1","","","",""
"","html-keyboard-response","178","562502","0.0-98.0-1.0","null","<p></p>","null","","","","","","","","","","","","","","","","","","","","","","","",""
"","do_trial","179","566074","0.0-99.0-0.0","1034.4000000953674","","","","","","","","49","1,0,0","6","blank","310","null","0.6887711950916833","0.08663972497854379","0.25483140397025594","1","","","","","","","","",""
"","html-keyboard-response","180","567077","0.0-99.0-1.0","null","<p></p>","null","","","","","","","","","","","","","","","","","","","","","","","",""
"","do_trial","181","570167","0.0-100.0-0.0","554.8000001907349","","","","","","","","49","1,0,0","6","blank","311","null","0.7320867284658382","0.11155353525830912","0.2154545095712133","1","","","","","","","","",""
"","html-keyboard-response","182","571170","0.0-100.0-1.0","null","<p></p>","null","","","","","","","","","","","","","","","","","","","","","","","",""
"","do_trial","183","574196","0.0-101.0-0.0","489.59999990463257","","","","","","","","49","1,1,1","6","blank","312","null","0.7583311238407753","0.06267610230276496","0.3199818143240281","1","","","","","","","","",""
"","html-keyboard-response","184","575202","0.0-101.0-1.0","null","<p></p>","null","","","","","","","","","","","","","","","","","","","","","","","",""
"","do_trial","185","578199","0.0-102.0-0.0","462.30000019073486","","","","","","","","49","1,0,0","6","blank","313","null","0.7592646370183121","0.06589030239316923","0.33931163346231324","1","","","","","","","","",""
"","html-keyboard-response","186","579202","0.0-102.0-1.0","null","<p></p>","null","","","","","","","","","","","","","","","","","","","","","","","",""
"","do_trial","187","582477","0.0-103.0-0.0","737.9000000953674","","","","","","","","49","1,0,0","6","blank","314","null","0.6500365664167578","0.07936334554731801","0.33928157220322164","1","","","","","","","","",""
"","html-keyboard-response","188","583479","0.0-103.0-1.0","null","<p></p>","null","","","","","","","","","","","","","","","","","","","","","","","",""
"","do_recog","189","587700","0.0-104.0-0.0","2713.300000190735","","","","","","","","53","","","","315","probe-142","","","","","1","[object Object]","207","5","1","","","",""
"","html-keyboard-response","190","588706","0.0-104.0-1.0","null","<p></p>","null","","","","","","","","","","","","","","","","","","","","","","","",""
"","do_trial","191","591838","0.0-105.0-0.0","594","","","","","","","","49","1,0,0","6","blank","316","null","0.8217847546367272","0.05293974821787101","0.38770482005113144","1","","","","","","","","",""
"","html-keyboard-response","192","592842","0.0-105.0-1.0","null","<p></p>","null","","","","","","","","","","","","","","","","","","","","","","","",""
"","do_recog","193","596054","0.0-106.0-0.0","1708.9000000953674","","","","","","","","53","","","","317","probe-96","","","","","1","[object Object]","85","2","1","","","",""
"","html-keyboard-response","194","597058","0.0-106.0-1.0","null","<p></p>","null","","","","","","","","","","","","","","","","","","","","","","","",""
"","do_trial","195","600186","0.0-107.0-0.0","589.6999998092651","","","","","","","","49","1,0,0","6","blank","318","null","0.7474540506088241","0.25386800903092427","0.3182647712936301","1","","","","","","","","",""
"","html-keyboard-response","196","601189","0.0-107.0-1.0","null","<p></p>","null","","","","","","","","","","","","","","","","","","","","","","","",""
"","do_trial","197","605213","0.0-108.0-0.0","1487.7000002861023","","","","","","","","49","1,0,0","6","blank","319","null","0.7361854862909529","0.21974886111192787","0.2777071202198339","1","","","","","","","","",""
"","html-keyboard-response","198","606217","0.0-108.0-1.0","null","<p></p>","null","","","","","","","","","","","","","","","","","","","","","","","",""
"","do_trial","199","609985","0.0-109.0-0.0","1230.0999999046326","","","","","","","","50","1,0,0","6","blank","320","null","0.7496336463706526","0.24706715163094456","0.26463839125397465","0","","","","","","","","",""
"","html-keyboard-response","200","610989","0.0-109.0-1.0","null","<p></p>","null","","","","","","","","","","","","","","","","","","","","","","","",""
"","do_trial","201","617031","0.0-110.0-0.0","null","","","","","","","","null","1,0,0","6","blank","321","null","0.7167517813193479","0.1013230888308922","0.23890246121465875","","","","","","","","","",""
"","html-keyboard-response","202","618034","0.0-110.0-1.0","null","<p></p>","null","","","","","","","","","","","","","","","","","","","","","","","",""
"","do_trial","203","623317","0.0-111.0-0.0","2743.300000190735","","","","","","","","49","1,0,1","6","blank","322","null","0.6902372526176527","0.07079904093176534","0.295877802888646","1","","","","","","","","",""
"","html-keyboard-response","204","624321","0.0-111.0-1.0","null","<p></p>","null","","","","","","","","","","","","","","","","","","","","","","","",""
"","do_recog","205","630334","0.0-112.0-0.0","null","","","","","","","","null","","","","323","probe-32","","","","","1","[object Object]","169","4","0","","","",""
"","html-keyboard-response","206","631336","0.0-112.0-1.0","null","<p></p>","null","","","","","","","","","","","","","","","","","","","","","","","",""
"","do_trial","207","637372","0.0-113.0-0.0","null","","","","","","","","null","1,0,0","6","blank","324","null","0.6893238916222982","0.09401555905579613","0.28079317403229215","","","","","","","","","",""
"","html-keyboard-response","208","638375","0.0-113.0-1.0","null","<p></p>","null","","","","","","","","","","","","","","","","","","","","","","","",""
"","do_trial","209","642137","0.0-114.0-0.0","1224.1999998092651","","","","","","","","49","0,0,0","6","blank","325","null","0.713561578482943","0.19508499331310983","0.2205118696319146","0","","","","","","","","",""
"","html-keyboard-response","210","643140","0.0-114.0-1.0","null","<p></p>","null","","","","","","","","","","","","","","","","","","","","","","","",""
"","do_trial","211","648008","0.0-115.0-0.0","2331.199999809265","","","","","","","","50","1,0,0","6","blank","326","null","0.683622484158169","0.12373869050303764","0.33731074156108776","0","","","","","","","","",""
"","html-keyboard-response","212","649011","0.0-115.0-1.0","null","<p></p>","null","","","","","","","","","","","","","","","","","","","","","","","",""
"","do_recog","213","652432","0.0-116.0-0.0","1914.4000000953674","","","","","","","","53","","","","327","probe-127","","","","","1","[object Object]","81","2","1","","","",""
"","html-keyboard-response","214","653435","0.0-116.0-1.0","null","<p></p>","null","","","","","","","","","","","","","","","","","","","","","","","",""
"","do_trial","215","659477","0.0-117.0-0.0","null","","","","","","","","null","1,0,0","6","blank","328","null","0.6586049147184713","0.06954993402847151","0.33659074084522694","","","","","","","","","",""
"","html-keyboard-response","216","660483","0.0-117.0-1.0","null","<p></p>","null","","","","","","","","","","","","","","","","","","","","","","","",""
"","do_trial","217","663930","0.0-118.0-0.0","908.1999998092651","","","","","","","","49","1,0,0","6","blank","329","null","0.777063273531804","0.07862029865379949","0.32976342205449166","1","","","","","","","","",""
"","html-keyboard-response","218","664935","0.0-118.0-1.0","null","<p></p>","null","","","","","","","","","","","","","","","","","","","","","","","",""
"","do_recog","219","670944","0.0-119.0-0.0","null","","","","","","","","null","","","","330","probe-117","","","","","1","[object Object]","206","5","0","","","",""
"","html-keyboard-response","220","671946","0.0-119.0-1.0","null","<p></p>","null","","","","","","","","","","","","","","","","","","","","","","","",""
"","do_trial","221","674485","0.0-120.0-0.0","0.19999980926513672","","","","","","","","49","0,0,0","6","blank","331","null","0.8086410149442932","0.1285414947343138","0.2771215568656171","0","","","","","","","","",""
"","html-keyboard-response","222","675489","0.0-120.0-1.0","null","<p></p>","null","","","","","","","","","","","","","","","","","","","","","","","",""
"","do_recog","223","681501","0.0-121.0-0.0","null","","","","","","","","null","","","","332","probe-204","","","","","1","[object Object]","83","2","0","","","",""
"","html-keyboard-response","224","682505","0.0-121.0-1.0","null","<p></p>","null","","","","","","","","","","","","","","","","","","","","","","","",""
"","do_trial","225","685109","0.0-122.0-0.0","69.7999997138977","","","","","","","","50","0,1,0","6","blank","333","null","0.6728953982284991","0.16467055904943734","0.35413273927536765","1","","","","","","","","",""
"","html-keyboard-response","226","686111","0.0-122.0-1.0","null","<p></p>","null","","","","","","","","","","","","","","","","","","","","","","","",""
"","do_trial","227","688793","0.0-123.0-0.0","143.2000002861023","","","","","","","","50","1,0,0","6","blank","334","null","0.7026361283729985","0.09360797591772425","0.28279631147943496","0","","","","","","","","",""
"","html-keyboard-response","228","689796","0.0-123.0-1.0","null","<p></p>","null","","","","","","","","","","","","","","","","","","","","","","","",""
"","do_recog","229","692529","0.0-124.0-0.0","1224.5","","","","","","","","53","","","","335","probe-69","","","","","1","[object Object]","120","3","1","","","",""
"","html-keyboard-response","230","693533","0.0-124.0-1.0","null","<p></p>","null","","","","","","","","","","","","","","","","","","","","","","","",""
"","do_trial","231","696070","0.0-125.0-0.0","0.10000038146972656","","","","","","","","49","1,0,0","6","blank","336","null","0.6953903375586353","0.06890970362671398","0.3781156561624792","1","","","","","","","","",""
"","html-keyboard-response","232","697074","0.0-125.0-1.0","null","<p></p>","null","","","","","","","","","","","","","","","","","","","","","","","",""
"","do_recog","233","699951","0.0-126.0-0.0","1372","","","","","","","","53","","","","337","probe-119","","","","","1","[object Object]","163","4","1","","","",""
"","html-keyboard-response","234","700953","0.0-126.0-1.0","null","<p></p>","null","","","","","","","","","","","","","","","","","","","","","","","",""
"","do_trial","235","703661","0.0-127.0-0.0","173.59999990463257","","","","","","","","49","1,1,0","6","blank","338","null","0.7618086410076863","0.1780921150520446","0.4244499197132642","1","","","","","","","","",""
"","html-keyboard-response","236","704664","0.0-127.0-1.0","null","<p></p>","null","","","","","","","","","","","","","","","","","","","","","","","",""
"","do_recog","237","707074","0.0-128.0-0.0","903.7999997138977","","","","","","","","53","","","","339","probe-255","","","","","0","[object Object]","null","null","0","","","",""
"","html-keyboard-response","238","708075","0.0-128.0-1.0","null","<p></p>","null","","","","","","","","","","","","","","","","","","","","","","","",""
"","do_trial","239","710610","0.0-129.0-0.0","0.09999990463256836","","","","","","","","49","0,0,1","6","blank","340","null","0.7546754007075168","0.1578322634680892","0.42390533192223845","0","","","","","","","","",""
"","html-keyboard-response","240","711613","0.0-129.0-1.0","null","<p></p>","null","","","","","","","","","","","","","","","","","","","","","","","",""
"","do_trial","241","714147","0.0-130.0-0.0","0.09999990463256836","","","","","","","","50","0,0,1","6","blank","341","null","0.549584503749582","0.09622580996136193","0.3478784009186778","0","","","","","","","","",""
"","html-keyboard-response","242","715151","0.0-130.0-1.0","null","<p></p>","null","","","","","","","","","","","","","","","","","","","","","","","",""
"","do_trial","243","718174","0.0-131.0-0.0","488.2999997138977","","","","","","","","50","1,0,1","6","blank","342","null","0.4379990527831864","0.282799945506256","0.4275511691441401","0","","","","","","","","",""
"","html-keyboard-response","244","719177","0.0-131.0-1.0","null","<p></p>","null","","","","","","","","","","","","","","","","","","","","","","","",""
"","do_trial","245","722431","0.0-132.0-0.0","714.4000000953674","","","","","","","","50","1,0,0","6","blank","343","null","0.5134234641507951","0.291677156008056","0.273578895448369","0","","","","","","","","",""
"","html-keyboard-response","246","723435","0.0-132.0-1.0","null","<p></p>","null","","","","","","","","","","","","","","","","","","","","","","","",""
"","do_recog","247","726132","0.0-133.0-0.0","1190.2999997138977","","","","","","","","56","","","","344","probe-123","","","","","1","[object Object]","168","4","0","","","",""
"","html-keyboard-response","248","727133","0.0-133.0-1.0","null","<p></p>","null","","","","","","","","","","","","","","","","","","","","","","","",""
"","do_trial","249","731441","0.0-134.0-0.0","1765.9000000953674","","","","","","","","50","1,0,0","6","blank","345","null","0.5775284488294585","0.18107477341459166","0.07454204243504883","0","","","","","","","","",""
"","html-keyboard-response","250","732444","0.0-134.0-1.0","null","<p></p>","null","","","","","","","","","","","","","","","","","","","","","","","",""
"","do_trial","251","735772","0.0-135.0-0.0","790.0999999046326","","","","","","","","49","1,0,0","6","blank","346","null","0.5975741893207716","0.22930850341749662","0.17347859026854323","1","","","","","","","","",""
"","html-keyboard-response","252","736776","0.0-135.0-1.0","null","<p></p>","null","","","","","","","","","","","","","","","","","","","","","","","",""
"","do_trial","253","740213","0.0-136.0-0.0","902.5","","","","","","","","49","0,0,0","6","blank","347","null","0.554794119901091","0.07687193782486515","0.17924454537750176","0","","","","","","","","",""
"","html-keyboard-response","254","741217","0.0-136.0-1.0","null","<p></p>","null","","","","","","","","","","","","","","","","","","","","","","","",""
"","do_trial","255","747257","0.0-137.0-0.0","null","","","","","","","","null","0,0,0","6","blank","348","null","0.60097379784815","0.12082398305529869","0.06514626810212615","","","","","","","","","",""
"","html-keyboard-response","256","748258","0.0-137.0-1.0","null","<p></p>","null","","","","","","","","","","","","","","","","","","","","","","","",""
"","do_trial","257","752161","0.0-138.0-0.0","1367.7000002861023","","","","","","","","49","1,0,0","6","blank","349","null","0.5025274480291642","0.09320853213437585","0.18876381079365845","1","","","","","","","","",""
"","html-keyboard-response","258","753163","0.0-138.0-1.0","null","<p></p>","null","","","","","","","","","","","","","","","","","","","","","","","",""
"","do_trial","259","758045","0.0-139.0-0.0","2347.4000000953674","","","","","","","","49","0,1,0","6","blank","350","null","0.4504171237342159","0.08759608456523782","0.4571970574301286","0","","","","","","","","",""
"","html-keyboard-response","260","759047","0.0-139.0-1.0","null","<p></p>","null","","","","","","","","","","","","","","","","","","","","","","","",""
"","do_trial","261","763287","0.0-140.0-0.0","1706","","","","","","","","49","1,0,1","6","blank","351","null","0.3327131438266816","0.1686747419780807","0.5376113464818805","1","","","","","","","","",""
"","html-keyboard-response","262","764291","0.0-140.0-1.0","null","<p></p>","null","","","","","","","","","","","","","","","","","","","","","","","",""
"","do_recog","263","767957","0.0-141.0-0.0","2162.5","","","","","","","","53","","","","352","probe-04","","","","","1","[object Object]","44","1","1","","","",""
"","html-keyboard-response","264","768959","0.0-141.0-1.0","null","<p></p>","null","","","","","","","","","","","","","","","","","","","","","","","",""
"","do_trial","265","774058","0.0-142.0-0.0","2559.699999809265","","","","","","","","49","0,0,1","6","blank","353","null","0.3393005382978514","0.12404722082347273","0.587850425465624","0","","","","","","","","",""
"","html-keyboard-response","266","775059","0.0-142.0-1.0","null","<p></p>","null","","","","","","","","","","","","","","","","","","","","","","","",""
"","do_trial","267","781099","0.0-143.0-0.0","null","","","","","","","","null","1,0,1","6","blank","354","null","0.3873123619385184","0.14080006174255089","0.5662703346238062","","","","","","","","","",""
"","html-keyboard-response","268","782103","0.0-143.0-1.0","null","<p></p>","null","","","","","","","","","","","","","","","","","","","","","","","",""
"","do_trial","269","788139","0.0-144.0-0.0","null","","","","","","","","null","0,0,1","6","blank","355","null","0.24249083263215793","0.22134462037777106","0.46844931697610376","","","","","","","","","",""
"","html-keyboard-response","270","789145","0.0-144.0-1.0","null","<p></p>","null","","","","","","","","","","","","","","","","","","","","","","","",""
"","do_recog","271","795154","0.0-145.0-0.0","null","","","","","","","","null","","","","356","probe-104","","","","","1","[object Object]","40","1","0","","","",""
"","html-keyboard-response","272","796156","0.0-145.0-1.0","null","<p></p>","null","","","","","","","","","","","","","","","","","","","","","","","",""
"","do_trial","273","802195","0.0-146.0-0.0","null","","","","","","","","null","0,0,0","6","blank","357","null","0.3474001382759381","0.25638288325339686","0.5606196696389962","","","","","","","","","",""
"","html-keyboard-response","274","803198","0.0-146.0-1.0","null","<p></p>","null","","","","","","","","","","","","","","","","","","","","","","","",""
"","do_trial","275","809243","0.0-147.0-0.0","null","","","","","","","","null","0,0,1","6","blank","358","null","0.32539655381735644","0.19513379392613087","0.6243080883379905","","","","","","","","","",""
"","html-keyboard-response","276","810246","0.0-147.0-1.0","null","<p></p>","null","","","","","","","","","","","","","","","","","","","","","","","",""
"","do_trial","277","813882","0.0-148.0-0.0","1097.8999996185303","","","","","","","","49","0,0,0","6","blank","359","null","0.33199631469403534","0.27454098544446287","0.5795442108355139","0","","","","","","","","",""
"","html-keyboard-response","278","814885","0.0-148.0-1.0","null","<p></p>","null","","","","","","","","","","","","","","","","","","","","","","","",""
"","do_recog","279","817790","0.0-149.0-0.0","1398.8000001907349","","","","","","","","54","","","","360","probe-136","","","","","1","[object Object]","201","5","1","","","",""
"","html-keyboard-response","280","818793","0.0-149.0-1.0","null","<p></p>","null","","","","","","","","","","","","","","","","","","","","","","","",""
"","do_trial","281","822316","0.0-150.0-0.0","988.5","","","","","","","","49","1,0,0","6","blank","361","null","0.27140307004709013","0.1415253062576968","0.5317698308160612","1","","","","","","","","",""
"","html-keyboard-response","282","823320","0.0-150.0-1.0","null","<p></p>","null","","","","","","","","","","","","","","","","","","","","","","","",""
"","do_trial","283","828555","0.0-151.0-0.0","2695.1000003814697","","","","","","","","49","0,0,0","6","blank","362","null","0.3344126174939309","0.1906166053372547","0.6080488604435627","0","","","","","","","","",""
"","html-keyboard-response","284","829556","0.0-151.0-1.0","null","<p></p>","null","","","","","","","","","","","","","","","","","","","","","","","",""
"","do_recog","285","833673","0.0-152.0-0.0","2609.2999997138977","","","","","","","","55","","","","363","probe-152","","","","","1","[object Object]","161","4","0","","","",""
"","html-keyboard-response","286","834676","0.0-152.0-1.0","null","<p></p>","null","","","","","","","","","","","","","","","","","","","","","","","",""
"","do_trial","287","838124","0.0-153.0-0.0","912.8000001907349","","","","","","","","49","0,1,0","6","blank","364","null","0.30272028542055124","0.18632274207935354","0.5996391821043237","0","","","","","","","","",""
"","html-keyboard-response","288","839128","0.0-153.0-1.0","null","<p></p>","null","","","","","","","","","","","","","","","","","","","","","","","",""
"","do_recog","289","841223","0.0-154.0-0.0","586","","","","","","","","55","","","","365","probe-16","","","","","1","[object Object]","209","5","0","","","",""
"","html-keyboard-response","290","842226","0.0-154.0-1.0","null","<p></p>","null","","","","","","","","","","","","","","","","","","","","","","","",""
"","do_trial","291","846189","0.0-155.0-0.0","1428.9000000953674","","","","","","","","49","0,0,1","6","blank","366","null","0.35130910371869783","0.059935884291214984","0.5939678692082291","0","","","","","","","","",""
"","html-keyboard-response","292","847192","0.0-155.0-1.0","null","<p></p>","null","","","","","","","","","","","","","","","","","","","","","","","",""
"","do_trial","293","850489","0.0-156.0-0.0","760.2000002861023","","","","","","","","49","0,1,1","6","blank","367","null","0.3107646665532262","0.17540210289658692","0.5426548253486854","0","","","","","","","","",""
"","html-keyboard-response","294","851493","0.0-156.0-1.0","null","<p></p>","null","","","","","","","","","","","","","","","","","","","","","","","",""
"","do_recog","295","853707","0.0-157.0-0.0","709.3000001907349","","","","","","","","55","","","","368","probe-169","","","","","1","[object Object]","42","1","0","","","",""
"","html-keyboard-response","296","854711","0.0-157.0-1.0","null","<p></p>","null","","","","","","","","","","","","","","","","","","","","","","","",""
"","do_trial","297","857868","0.0-158.0-0.0","621","","","","","","","","49","0,0,1","6","blank","369","null","0.31880083575255724","0.12644542202627185","0.5757546998476682","0","","","","","","","","",""
"","html-keyboard-response","298","858871","0.0-158.0-1.0","null","<p></p>","null","","","","","","","","","","","","","","","","","","","","","","","",""
"","do_trial","299","862290","0.0-159.0-0.0","882.3000001907349","","","","","","","","49","0,0,0","6","blank","370","null","0.4194585491358338","0.12997305963628084","0.62203837498239","0","","","","","","","","",""
"","html-keyboard-response","300","863294","0.0-159.0-1.0","null","<p></p>","null","","","","","","","","","","","","","","","","","","","","","","","",""
"","do_trial","301","866522","0.0-160.0-0.0","689.5999999046326","","","","","","","","49","1,0,1","6","blank","371","null","0.36479825611865613","0.06715265103213941","0.5457363836249388","1","","","","","","","","",""
"","html-keyboard-response","302","867526","0.0-160.0-1.0","null","<p></p>","null","","","","","","","","","","","","","","","","","","","","","","","",""
"","do_trial","303","870649","0.0-161.0-0.0","586.7000002861023","","","","","","","","49","0,0,0","6","blank","372","null","0.31592314855911197","0.054434708202577474","0.5924995390725676","0","","","","","","","","",""
"","html-keyboard-response","304","871653","0.0-161.0-1.0","null","<p></p>","null","","","","","","","","","","","","","","","","","","","","","","","",""
"","do_recog","305","873810","0.0-162.0-0.0","653.3000001907349","","","","","","","","55","","","","373","probe-252","","","","","0","[object Object]","null","null","1","","","",""
"","html-keyboard-response","306","874814","0.0-162.0-1.0","null","<p></p>","null","","","","","","","","","","","","","","","","","","","","","","","",""
"","do_trial","307","878155","0.0-163.0-0.0","802.0999999046326","","","","","","","","49","0,0,1","6","blank","374","null","0.15126214244401825","0.10888363694556877","0.5140627294661482","0","","","","","","","","",""
"","html-keyboard-response","308","879156","0.0-163.0-1.0","null","<p></p>","null","","","","","","","","","","","","","","","","","","","","","","","",""
"","do_trial","309","882550","0.0-164.0-0.0","859.3000001907349","","","","","","","","49","0,0,0","6","blank","375","null","0.32596074099184064","0.05021715327818618","0.6074899994116545","0","","","","","","","","",""
"","html-keyboard-response","310","883554","0.0-164.0-1.0","null","<p></p>","null","","","","","","","","","","","","","","","","","","","","","","","",""
"","do_recog","311","885870","0.0-165.0-0.0","812.5999999046326","","","","","","","","55","","","","376","probe-60","","","","","1","[object Object]","123","3","0","","","",""
"","html-keyboard-response","312","886875","0.0-165.0-1.0","null","<p></p>","null","","","","","","","","","","","","","","","","","","","","","","","",""
"","do_trial","313","892916","0.0-166.0-0.0","null","","","","","","","","null","1,0,1","6","blank","377","null","0.42003579894631715","0.17982546600382207","0.5725908727264555","","","","","","","","","",""
"","html-keyboard-response","314","893919","0.0-166.0-1.0","null","<p></p>","null","","","","","","","","","","","","","","","","","","","","","","","",""
"","do_recog","315","896887","0.0-167.0-0.0","1460.7999997138977","","","","","","","","53","","","","378","probe-95","","","","","1","[object Object]","121","3","1","","","",""
"","html-keyboard-response","316","897890","0.0-167.0-1.0","null","<p></p>","null","","","","","","","","","","","","","","","","","","","","","","","",""
"","do_trial","317","900499","0.0-168.0-0.0","69","","","","","","","","49","1,0,0","6","blank","379","null","0.29083728333373926","0.10856468032607525","0.6127684100253604","1","","","","","","","","",""
"","html-keyboard-response","318","901502","0.0-168.0-1.0","null","<p></p>","null","","","","","","","","","","","","","","","","","","","","","","","",""
"","do_recog","319","903668","0.0-169.0-0.0","661.6999998092651","","","","","","","","54","","","","380","probe-25","","","","","1","[object Object]","166","4","1","","","",""
"","html-keyboard-response","320","904671","0.0-169.0-1.0","null","<p></p>","null","","","","","","","","","","","","","","","","","","","","","","","",""
"","do_trial","321","907312","0.0-170.0-0.0","105.40000009536743","","","","","","","","50","1,1,1","6","blank","381","null","0.11298623064141879","0.12552860932802515","0.6452141315401603","1","","","","","","","","",""
"","html-keyboard-response","322","908315","0.0-170.0-1.0","null","<p></p>","null","","","","","","","","","","","","","","","","","","","","","","","",""
"","do_trial","323","911220","0.0-171.0-0.0","365.7000002861023","","","","","","","","50","0,0,1","6","blank","382","null","0.17817160215382402","0.11499868431132874","0.5269395984908651","0","","","","","","","","",""
"","html-keyboard-response","324","912223","0.0-171.0-1.0","null","<p></p>","null","","","","","","","","","","","","","","","","","","","","","","","",""
"","do_trial","325","914896","0.0-172.0-0.0","136.40000009536743","","","","","","","","49","1,0,1","6","blank","383","null","0.28758362683535466","0.15884551580471967","0.48540983672578764","1","","","","","","","","",""
"","html-keyboard-response","326","915899","0.0-172.0-1.0","null","<p></p>","null","","","","","","","","","","","","","","","","","","","","","","","",""
"","do_trial","327","918498","0.0-173.0-0.0","60.40000009536743","","","","","","","","51","0,0,0","6","blank","384","null","0.1450652947241294","0.08983634119265546","0.435049111636732","0","","","","","","","","",""
"","html-keyboard-response","328","919502","0.0-173.0-1.0","null","<p></p>","null","","","","","","","","","","","","","","","","","","","","","","","",""
"","do_recog","329","921151","0.0-174.0-0.0","144.7999997138977","","","","","","","","54","","","","385","probe-146","","","","","1","[object Object]","86","2","1","","","",""
"","html-keyboard-response","330","922153","0.0-174.0-1.0","null","<p></p>","null","","","","","","","","","","","","","","","","","","","","","","","",""
"","do_trial","331","924760","0.0-175.0-0.0","72.5","","","","","","","","51","1,0,0","6","blank","386","null","0.3047480992588393","0.08245930534667077","0.47102382963180656","0","","","","","","","","",""
"","html-keyboard-response","332","925764","0.0-175.0-1.0","null","<p></p>","null","","","","","","","","","","","","","","","","","","","","","","","",""
"","do_recog","333","927950","0.0-176.0-0.0","677.8000001907349","","","","","","","","53","","","","387","probe-19","","","","","1","[object Object]","48","1","1","","","",""
"","html-keyboard-response","334","928952","0.0-176.0-1.0","null","<p></p>","null","","","","","","","","","","","","","","","","","","","","","","","",""
"","do_trial","335","931578","0.0-177.0-0.0","90.40000009536743","","","","","","","","50","0,1,0","6","blank","388","null","0.2482805316338981","0.18656604934638574","0.5271094136452835","1","","","","","","","","",""
"","html-keyboard-response","336","932581","0.0-177.0-1.0","null","<p></p>","null","","","","","","","","","","","","","","","","","","","","","","","",""
"","do_trial","337","935167","0.0-178.0-0.0","50.5","","","","","","","","51","0,0,1","6","blank","389","null","0.11307936519869954","0.10019445184093251","0.3720750689268227","1","","","","","","","","",""
"","html-keyboard-response","338","936168","0.0-178.0-1.0","null","<p></p>","null","","","","","","","","","","","","","","","","","","","","","","","",""
"","do_trial","339","938769","0.0-179.0-0.0","63.90000009536743","","","","","","","","50","0,0,1","6","blank","390","null","0.13081822494914902","0.12204766254450927","0.44484037022729417","0","","","","","","","","",""
"","html-keyboard-response","340","939772","0.0-179.0-1.0","null","<p></p>","null","","","","","","","","","","","","","","","","","","","","","","","",""
"","do_recog","341","941990","0.0-180.0-0.0","709.3999996185303","","","","","","","","53","","","","391","probe-125","","","","","1","[object Object]","164","4","1","","","",""
"","html-keyboard-response","342","942993","0.0-180.0-1.0","null","<p></p>","null","","","","","","","","","","","","","","","","","","","","","","","",""
"","do_trial","343","945541","0.0-181.0-0.0","11.199999809265137","","","","","","","","51","0,0,0","6","blank","392","null","0.11758443026572271","0.11873374135776593","0.6884889564820622","0","","","","","","","","",""
"","html-keyboard-response","344","946545","0.0-181.0-1.0","null","<p></p>","null","","","","","","","","","","","","","","","","","","","","","","","",""
"","do_trial","345","949601","0.0-182.0-0.0","521.5","","","","","","","","49","0,0,0","6","blank","393","null","0.058543617740046","0.1274741054280408","0.8036204620406306","0","","","","","","","","",""
"","html-keyboard-response","346","950604","0.0-182.0-1.0","null","<p></p>","null","","","","","","","","","","","","","","","","","","","","","","","",""
"","do_trial","347","953732","0.0-183.0-0.0","591.1999998092651","","","","","","","","49","0,0,1","6","blank","394","null","0.07554172969410315","0.06014154400158739","0.8656516656827592","0","","","","","","","","",""
"","html-keyboard-response","348","954735","0.0-183.0-1.0","null","<p></p>","null","","","","","","","","","","","","","","","","","","","","","","","",""
"","do_trial","349","958335","0.0-184.0-0.0","1061.2999997138977","","","","","","","","49","0,1,0","6","blank","395","null","0.20847312279851557","0.057069241775121224","0.8233993024253341","0","","","","","","","","",""
"","html-keyboard-response","350","959341","0.0-184.0-1.0","null","<p></p>","null","","","","","","","","","","","","","","","","","","","","","","","",""
"","do_recog","351","962168","0.0-185.0-0.0","1323.7000002861023","","","","","","","","53","","","","396","probe-192","","","","","1","[object Object]","167","4","1","","","",""
"","html-keyboard-response","352","963170","0.0-185.0-1.0","null","<p></p>","null","","","","","","","","","","","","","","","","","","","","","","","",""
"","do_trial","353","967691","0.0-186.0-0.0","1986.6999998092651","","","","","","","","49","0,0,1","6","blank","397","null","0.34458673778949456","0.12549724206021345","0.8278736663537549","0","","","","","","","","",""
"","html-keyboard-response","354","968695","0.0-186.0-1.0","null","<p></p>","null","","","","","","","","","","","","","","","","","","","","","","","",""
"","do_trial","355","971234","0.0-187.0-0.0","0.09999990463256836","","","","","","","","49","1,0,1","6","blank","398","null","0.45181872092591646","0.05602050235584525","0.7645075327873049","1","","","","","","","","",""
"","html-keyboard-response","356","972238","0.0-187.0-1.0","null","<p></p>","null","","","","","","","","","","","","","","","","","","","","","","","",""
"","do_trial","357","978282","0.0-188.0-0.0","null","","","","","","","","null","0,1,1","6","blank","399","null","0.4154591543693238","0.1548872029325434","0.6539355246924794","","","","","","","","","",""
"","html-keyboard-response","358","979285","0.0-188.0-1.0","null","<p></p>","null","","","","","","","","","","","","","","","","","","","","","","","",""
"","do_trial","359","982464","0.0-189.0-0.0","642.9000000953674","","","","","","","","49","0,0,0","6","blank","400","null","0.36154267496086334","0.20773899314680414","0.6076009233362841","0","","","","","","","","",""
"","html-keyboard-response","360","983468","0.0-189.0-1.0","null","<p></p>","null","","","","","","","","","","","","","","","","","","","","","","","",""
"","do_trial","361","986166","0.0-190.0-0.0","161.5","","","","","","","","49","0,0,0","6","blank","401","null","0.3532651305786342","0.1335294072593564","0.5842777688632581","0","","","","","","","","",""
"","html-keyboard-response","362","987169","0.0-190.0-1.0","null","<p></p>","null","","","","","","","","","","","","","","","","","","","","","","","",""
"","do_recog","363","990826","0.0-191.0-0.0","2149.5999999046326","","","","","","","","54","","","","402","probe-159","","","","","1","[object Object]","208","5","1","","","",""
"","html-keyboard-response","364","991831","0.0-191.0-1.0","null","<p></p>","null","","","","","","","","","","","","","","","","","","","","","","","",""
"","do_trial","365","995167","0.0-192.0-0.0","798.8999996185303","","","","","","","","49","0,0,1","6","blank","403","null","0.3766198242678976","0.23192403830862396","0.6108844372888891","0","","","","","","","","",""
"","html-keyboard-response","366","996171","0.0-192.0-1.0","null","<p></p>","null","","","","","","","","","","","","","","","","","","","","","","","",""
"","do_recog","367","997701","0.0-193.0-0.0","21.90000009536743","","","","","","","","53","","","","404","probe-29","","","","","1","[object Object]","46","1","1","","","",""
"","html-keyboard-response","368","998704","0.0-193.0-1.0","null","<p></p>","null","","","","","","","","","","","","","","","","","","","","","","","",""
"","do_trial","369","1001354","0.0-194.0-0.0","112.40000009536743","","","","","","","","49","1,0,1","6","blank","405","null","0.3431095380465379","0.399457026944006","0.46366921495540975","1","","","","","","","","",""
"","html-keyboard-response","370","1002356","0.0-194.0-1.0","null","<p></p>","null","","","","","","","","","","","","","","","","","","","","","","","",""
"","do_trial","371","1005046","0.0-195.0-0.0","150.90000009536743","","","","","","","","49","0,0,1","6","blank","406","null","0.43906822717798294","0.22359769598698345","0.3463521150569302","0","","","","","","","","",""
"","html-keyboard-response","372","1006050","0.0-195.0-1.0","null","<p></p>","null","","","","","","","","","","","","","","","","","","","","","","","",""
"","do_trial","373","1008619","0.0-196.0-0.0","34.5","","","","","","","","49","1,0,0","6","blank","407","null","0.5293271134312201","0.18005549856854788","0.32064727487918276","1","","","","","","","","",""
"","html-keyboard-response","374","1009622","0.0-196.0-1.0","null","<p></p>","null","","","","","","","","","","","","","","","","","","","","","","","",""
"","do_trial","375","1012253","0.0-197.0-0.0","96.80000019073486","","","","","","","","50","1,0,0","6","blank","408","null","0.683451711463796","0.2291086599040765","0.35057900255544705","0","","","","","","","","",""
"","html-keyboard-response","376","1013254","0.0-197.0-1.0","null","<p></p>","null","","","","","","","","","","","","","","","","","","","","","","","",""
"","do_trial","377","1015843","0.0-198.0-0.0","53.10000038146973","","","","","","","","49","1,1,0","6","blank","409","null","0.6185119303266312","0.18763360832779463","0.3838426543942619","1","","","","","","","","",""
"","html-keyboard-response","378","1016847","0.0-198.0-1.0","null","<p></p>","null","","","","","","","","","","","","","","","","","","","","","","","",""
"","do_recog","379","1018503","0.0-199.0-0.0","146.90000009536743","","","","","","","","54","","","","410","probe-09","","","","","1","[object Object]","41","1","1","","","",""
"","html-keyboard-response","380","1019506","0.0-199.0-1.0","null","<p></p>","null","","","","","","","","","","","","","","","","","","","","","","","",""
"","do_trial","381","1022146","0.0-200.0-0.0","101.2999997138977","","","","","","","","49","0,0,1","6","blank","411","null","0.5481523299741465","0.1762181331152799","0.37588151928856556","0","","","","","","","","",""
"","html-keyboard-response","382","1023150","0.0-200.0-1.0","null","<p></p>","null","","","","","","","","","","","","","","","","","","","","","","","",""
"","do_trial","383","1025776","0.0-201.0-0.0","90.59999990463257","","","","","","","","50","1,0,0","6","blank","412","null","0.5659933064332165","0.23940136517934943","0.3022029916816611","0","","","","","","","","",""
"","html-keyboard-response","384","1026779","0.0-201.0-1.0","null","<p></p>","null","","","","","","","","","","","","","","","","","","","","","","","",""
"","do_trial","385","1029848","0.0-202.0-0.0","535.4000000953674","","","","","","","","50","1,1,1","6","blank","413","null","0.5779749352586463","0.24888822964914784","0.22006247699275963","1","","","","","","","","",""
"","html-keyboard-response","386","1030850","0.0-202.0-1.0","null","<p></p>","null","","","","","","","","","","","","","","","","","","","","","","","",""
"","do_trial","387","1033664","0.0-203.0-0.0","277.90000009536743","","","","","","","","50","1,0,1","6","blank","414","null","0.45195025327073657","0.21528604961657355","0.20740564555289984","0","","","","","","","","",""
"","html-keyboard-response","388","1034667","0.0-203.0-1.0","null","<p></p>","null","","","","","","","","","","","","","","","","","","","","","","","",""
"","do_recog","389","1036229","0.0-204.0-0.0","57.40000009536743","","","","","","","","54","","","","415","probe-107","","","","","1","[object Object]","205","5","1","","","",""
"","html-keyboard-response","390","1037233","0.0-204.0-1.0","null","<p></p>","null","","","","","","","","","","","","","","","","","","","","","","","",""
"","do_trial","391","1039908","0.0-205.0-0.0","138.30000019073486","","","","","","","","49","1,0,0","6","blank","416","null","0.5275363169944182","0.223205006757613","0.26683230479910025","1","","","","","","","","",""
"","html-keyboard-response","392","1040910","0.0-205.0-1.0","null","<p></p>","null","","","","","","","","","","","","","","","","","","","","","","","",""
"","do_trial","393","1043652","0.0-206.0-0.0","207.60000038146973","","","","","","","","50","0,0,1","6","blank","417","null","0.4221831486969112","0.15749330582670432","0.3022778420228573","0","","","","","","","","",""
"","html-keyboard-response","394","1044654","0.0-206.0-1.0","null","<p></p>","null","","","","","","","","","","","","","","","","","","","","","","","",""
"","do_trial","395","1047516","0.0-207.0-0.0","321.5","","","","","","","","50","0,0,0","6","blank","418","null","0.3952370323122332","0.19839491158794453","0.25419576940885186","0","","","","","","","","",""
"","html-keyboard-response","396","1048520","0.0-207.0-1.0","null","<p></p>","null","","","","","","","","","","","","","","","","","","","","","","","",""
"","do_trial","397","1051347","0.0-208.0-0.0","292.19999980926514","","","","","","","","50","1,0,0","6","blank","419","null","0.4133167906236031","0.2097753466595907","0.16019270631498203","0","","","","","","","","",""
"","html-keyboard-response","398","1052353","0.0-208.0-1.0","null","<p></p>","null","","","","","","","","","","","","","","","","","","","","","","","",""
"","do_trial","399","1054986","0.0-209.0-0.0","93.5","","","","","","","","50","1,1,1","6","blank","420","null","0.4388671194741606","0.0837305447212808","0.35670641983195694","1","","","","","","","","",""
"","html-keyboard-response","400","1055989","0.0-209.0-1.0","null","<p></p>","null","","","","","","","","","","","","","","","","","","","","","","","",""
"","do_trial","401","1058605","0.0-210.0-0.0","80.2999997138977","","","","","","","","50","1,0,0","6","blank","421","null","0.5081759915588153","0.1603517729223138","0.26711528853664573","0","","","","","","","","",""
"","html-keyboard-response","402","1059606","0.0-210.0-1.0","null","<p></p>","null","","","","","","","","","","","","","","","","","","","","","","","",""
"","do_recog","403","1061115","0.0-211.0-0.0","2.6999998092651367","","","","","","","","53","","","","422","probe-157","","","","","1","[object Object]","204","5","1","","","",""
"","html-keyboard-response","404","1062121","0.0-211.0-1.0","null","<p></p>","null","","","","","","","","","","","","","","","","","","","","","","","",""
"","do_trial","405","1064973","0.0-212.0-0.0","315.40000009536743","","","","","","","","50","0,0,0","6","blank","423","null","0.5872049486714641","0.10510056725527195","0.362276460544868","0","","","","","","","","",""
"","html-keyboard-response","406","1065976","0.0-212.0-1.0","null","<p></p>","null","","","","","","","","","","","","","","","","","","","","","","","",""
"","do_recog","407","1067496","0.0-213.0-0.0","14.800000190734863","","","","","","","","54","","","","424","probe-240","","","","","0","[object Object]","null","null","0","","","",""
"","html-keyboard-response","408","1068498","0.0-213.0-1.0","null","<p></p>","null","","","","","","","","","","","","","","","","","","","","","","","",""
"","do_trial","409","1071377","0.0-214.0-0.0","338.80000019073486","","","","","","","","50","1,1,0","6","blank","425","null","0.6626252000267887","0.08389349861421912","0.3793960685324823","1","","","","","","","","",""
"","html-keyboard-response","410","1072381","0.0-214.0-1.0","null","<p></p>","null","","","","","","","","","","","","","","","","","","","","","","","",""
"","do_trial","411","1075022","0.0-215.0-0.0","101.80000019073486","","","","","","","","50","0,0,1","6","blank","426","null","0.5909349521184475","0.08899045165598553","0.5690165383819595","0","","","","","","","","",""
"","html-keyboard-response","412","1076025","0.0-215.0-1.0","null","<p></p>","null","","","","","","","","","","","","","","","","","","","","","","","",""
"","do_trial","413","1078844","0.0-216.0-0.0","283","","","","","","","","49","0,0,0","6","blank","427","null","0.5127025614892587","0.09182531123405353","0.43485487189345384","0","","","","","","","","",""
"","html-keyboard-response","414","1079846","0.0-216.0-1.0","null","<p></p>","null","","","","","","","","","","","","","","","","","","","","","","","",""
"","do_trial","415","1082503","0.0-217.0-0.0","118.19999980926514","","","","","","","","49","0,0,0","6","blank","428","null","0.5928952897973734","0.1553993393130545","0.5258343767334421","0","","","","","","","","",""
"","html-keyboard-response","416","1083507","0.0-217.0-1.0","null","<p></p>","null","","","","","","","","","","","","","","","","","","","","","","","",""
"","do_trial","417","1087217","0.0-218.0-0.0","1171.2000002861023","","","","","","","","49","1,0,1","6","blank","429","null","0.5580706359539087","0.16154563121981508","0.4777249966983606","1","","","","","","","","",""
"","html-keyboard-response","418","1088221","0.0-218.0-1.0","null","<p></p>","null","","","","","","","","","","","","","","","","","","","","","","","",""
"","do_trial","419","1090959","0.0-219.0-0.0","203.7000002861023","","","","","","","","49","1,1,0","6","blank","430","null","0.6400956283730845","0.17650131472381675","0.4694290306102388","1","","","","","","","","",""
"","html-keyboard-response","420","1091962","0.0-219.0-1.0","null","<p></p>","null","","","","","","","","","","","","","","","","","","","","","","","",""
"","do_recog","421","1093778","0.0-220.0-0.0","307.09999990463257","","","","","","","","55","","","","431","probe-241","","","","","0","[object Object]","null","null","1","","","",""
"","html-keyboard-response","422","1094780","0.0-220.0-1.0","null","<p></p>","null","","","","","","","","","","","","","","","","","","","","","","","",""
"","do_trial","423","1097688","0.0-221.0-0.0","371.69999980926514","","","","","","","","50","0,0,0","6","blank","432","null","0.5612578531498851","0.16447998719644902","0.3125778044343612","0","","","","","","","","",""
"","html-keyboard-response","424","1098693","0.0-221.0-1.0","null","<p></p>","null","","","","","","","","","","","","","","","","","","","","","","","",""
"","do_trial","425","1102255","0.0-222.0-0.0","1026.7999997138977","","","","","","","","49","0,0,0","6","blank","433","null","0.5854865898593706","0.24769067132001063","0.264714662426921","0","","","","","","","","",""
"","html-keyboard-response","426","1103257","0.0-222.0-1.0","null","<p></p>","null","","","","","","","","","","","","","","","","","","","","","","","",""
"","do_trial","427","1109293","0.0-223.0-0.0","null","","","","","","","","null","0,0,0","6","blank","434","null","0.649908509466537","0.23898469418307744","0.23970434165636184","","","","","","","","","",""
"","html-keyboard-response","428","1110295","0.0-223.0-1.0","null","<p></p>","null","","","","","","","","","","","","","","","","","","","","","","","",""
"","do_trial","429","1113731","0.0-224.0-0.0","899","","","","","","","","50","1,0,0","6","blank","435","null","0.6225383966081044","0.08168989925663162","0.08472045224391477","0","","","","","","","","",""
"","html-keyboard-response","430","1114735","0.0-224.0-1.0","null","<p></p>","null","","","","","","","","","","","","","","","","","","","","","","","",""
"","do_trial","431","1117431","0.0-225.0-0.0","161.19999980926514","","","","","","","","51","1,0,0","6","blank","436","null","0.6293963440699636","0.06983502582500148","0.11083259868258813","0","","","","","","","","",""
"","html-keyboard-response","432","1118434","0.0-225.0-1.0","null","<p></p>","null","","","","","","","","","","","","","","","","","","","","","","","",""
"","do_trial","433","1122258","0.0-226.0-0.0","1288.2999997138977","","","","","","","","50","0,0,0","6","blank","437","null","0.4583096609338277","0.06006574025351706","0.1973889860548036","0","","","","","","","","",""
"","html-keyboard-response","434","1123262","0.0-226.0-1.0","null","<p></p>","null","","","","","","","","","","","","","","","","","","","","","","","",""
"","do_trial","435","1129305","0.0-227.0-0.0","null","","","","","","","","null","1,0,1","6","blank","438","null","0.5402552302322517","0.1223641537209825","0.20460360845439554","","","","","","","","","",""
"","html-keyboard-response","436","1130310","0.0-227.0-1.0","null","<p></p>","null","","","","","","","","","","","","","","","","","","","","","","","",""
"","do_recog","437","1136320","0.0-228.0-0.0","null","","","","","","","","null","","","","439","probe-233","","","","","0","[object Object]","null","null","0","","","",""
"","html-keyboard-response","438","1137323","0.0-228.0-1.0","null","<p></p>","null","","","","","","","","","","","","","","","","","","","","","","","",""
"","do_trial","439","1142490","0.0-229.0-0.0","2627","","","","","","","","50","1,1,1","6","blank","440","null","0.7283863863923381","0.2058928319244271","0.1830670281348479","1","","","","","","","","",""
"","html-keyboard-response","440","1143493","0.0-229.0-1.0","null","<p></p>","null","","","","","","","","","","","","","","","","","","","","","","","",""
"","do_trial","441","1149533","0.0-230.0-0.0","null","","","","","","","","null","0,0,0","6","blank","441","null","0.6744890381343883","0.14701566967439814","0.09829948761191315","","","","","","","","","",""
"","html-keyboard-response","442","1150537","0.0-230.0-1.0","null","<p></p>","null","","","","","","","","","","","","","","","","","","","","","","","",""
"","do_trial","443","1153083","0.0-231.0-0.0","10.900000095367432","","","","","","","","49","1,0,0","6","blank","442","null","0.6736202038569106","0.0852643625618481","0.3064269733872548","1","","","","","","","","",""
"","html-keyboard-response","444","1154084","0.0-231.0-1.0","null","<p></p>","null","","","","","","","","","","","","","","","","","","","","","","","",""
"","do_trial","445","1156625","0.0-232.0-0.0","0.19999980926513672","","","","","","","","49","1,0,1","6","blank","443","null","0.6476907765973294","0.21422670671710456","0.20621315719791988","1","","","","","","","","",""
"","html-keyboard-response","446","1157628","0.0-232.0-1.0","null","<p></p>","null","","","","","","","","","","","","","","","","","","","","","","","",""
"","do_trial","447","1163664","0.0-233.0-0.0","null","","","","","","","","null","1,0,1","6","blank","444","null","0.5832058319472201","0.1504671381533491","0.22101322676418111","","","","","","","","","",""
"","html-keyboard-response","448","1164669","0.0-233.0-1.0","null","<p></p>","null","","","","","","","","","","","","","","","","","","","","","","","",""
"","do_recog","449","1169117","0.0-234.0-0.0","2942.4000000953674","","","","","","","","53","","","","445","probe-231","","","","","0","[object Object]","null","null","0","","","",""
"","html-keyboard-response","450","1170121","0.0-234.0-1.0","null","<p></p>","null","","","","","","","","","","","","","","","","","","","","","","","",""
"","do_trial","451","1172932","0.0-235.0-0.0","272.1000003814697","","","","","","","","49","1,0,0","6","blank","446","null","0.6402481732892903","0.060617211305112176","0.3134845922209887","1","","","","","","","","",""
"","html-keyboard-response","452","1173936","0.0-235.0-1.0","null","<p></p>","null","","","","","","","","","","","","","","","","","","","","","","","",""
"","do_trial","453","1176600","0.0-236.0-0.0","125.2000002861023","","","","","","","","49","1,0,1","6","blank","447","null","0.7741779083383109","0.09270533272581269","0.36917842188279465","1","","","","","","","","",""
"","html-keyboard-response","454","1177603","0.0-236.0-1.0","null","<p></p>","null","","","","","","","","","","","","","","","","","","","","","","","",""
"","do_trial","455","1180289","0.0-237.0-0.0","147","","","","","","","","49","1,0,0","6","blank","448","null","0.7081203910229198","0.062261049502177236","0.32664510423051335","1","","","","","","","","",""
"","html-keyboard-response","456","1181294","0.0-237.0-1.0","null","<p></p>","null","","","","","","","","","","","","","","","","","","","","","","","",""
"","do_trial","457","1183979","0.0-238.0-0.0","147.10000038146973","","","","","","","","49","1,0,1","6","blank","449","null","0.6326257670639447","0.15369901942976463","0.32494037159636646","1","","","","","","","","",""
"","html-keyboard-response","458","1184982","0.0-238.0-1.0","null","<p></p>","null","","","","","","","","","","","","","","","","","","","","","","","",""
"","do_trial","459","1187995","0.0-239.0-0.0","475.2999997138977","","","","","","","","49","1,0,0","6","blank","450","null","0.5497194440242983","0.13211967444099001","0.3125566932951878","1","","","","","","","","",""
"","html-keyboard-response","460","1188999","0.0-239.0-1.0","null","<p></p>","null","","","","","","","","","","","","","","","","","","","","","","","",""
"","do_trial","461","1191581","0.0-240.0-0.0","47.19999980926514","","","","","","","","49","0,0,1","6","blank","451","null","0.5977492853370077","0.10838588862927456","0.41386163601679526","0","","","","","","","","",""
"","html-keyboard-response","462","1192584","0.0-240.0-1.0","null","<p></p>","null","","","","","","","","","","","","","","","","","","","","","","","",""
"","do_trial","463","1195339","0.0-241.0-0.0","219.80000019073486","","","","","","","","49","0,0,1","6","blank","452","null","0.5358378012668351","0.11254049167631855","0.39248891910237205","0","","","","","","","","",""
"","html-keyboard-response","464","1196342","0.0-241.0-1.0","null","<p></p>","null","","","","","","","","","","","","","","","","","","","","","","","",""
"","do_recog","465","1202351","0.0-242.0-0.0","null","","","","","","","","null","","","","453","probe-237","","","","","0","[object Object]","null","null","0","","","",""
"","html-keyboard-response","466","1203353","0.0-242.0-1.0","null","<p></p>","null","","","","","","","","","","","","","","","","","","","","","","","",""
"","do_trial","467","1207246","0.0-243.0-0.0","1353.5999999046326","","","","","","","","49","0,0,0","6","blank","454","null","0.4057874407456975","0.3329094962425698","0.13568648455532883","0","","","","","","","","",""
"","html-keyboard-response","468","1208249","0.0-243.0-1.0","null","<p></p>","null","","","","","","","","","","","","","","","","","","","","","","","",""
"","do_trial","469","1210786","0.0-244.0-0.0","0.09999990463256836","","","","","","","","49","0,0,0","6","blank","455","null","0.30264776055828374","0.256571101412935","0.1868387768399225","0","","","","","","","","",""
"","html-keyboard-response","470","1211792","0.0-244.0-1.0","null","<p></p>","null","","","","","","","","","","","","","","","","","","","","","","","",""
"","do_trial","471","1215098","0.0-245.0-0.0","766.8000001907349","","","","","","","","49","1,0,0","6","blank","456","null","0.3750356210981438","0.4446181620554742","0.10519739636127344","1","","","","","","","","",""
"","html-keyboard-response","472","1216101","0.0-245.0-1.0","null","<p></p>","null","","","","","","","","","","","","","","","","","","","","","","","",""
"","do_trial","473","1219879","0.0-246.0-0.0","1239.0999999046326","","","","","","","","49","1,1,1","6","blank","457","null","0.41195381325077296","0.4641771557085708","0.15859443023907335","1","","","","","","","","",""
"","html-keyboard-response","474","1220882","0.0-246.0-1.0","null","<p></p>","null","","","","","","","","","","","","","","","","","","","","","","","",""
"","do_recog","475","1226887","0.0-247.0-0.0","null","","","","","","","","null","","","","458","probe-232","","","","","0","[object Object]","null","null","0","","","",""
"","html-keyboard-response","476","1227890","0.0-247.0-1.0","null","<p></p>","null","","","","","","","","","","","","","","","","","","","","","","","",""
"","do_trial","477","1231791","0.0-248.0-0.0","1364.6000003814697","","","","","","","","49","0,0,0","6","blank","459","null","0.3325416985412298","0.5655045713448754","0.19593169725055753","0","","","","","","","","",""
"","html-keyboard-response","478","1232795","0.0-248.0-1.0","null","<p></p>","null","","","","","","","","","","","","","","","","","","","","","","","",""
"","do_trial","479","1235580","0.0-249.0-0.0","250.09999990463257","","","","","","","","49","0,0,1","6","blank","460","null","0.3361220147665825","0.5356901874282246","0.23125902620966998","0","","","","","","","","",""
"","html-keyboard-response","480","1236583","0.0-249.0-1.0","null","<p></p>","null","","","","","","","","","","","","","","","","","","","","","","","",""
"","do_recog","481","1242590","0.0-250.0-0.0","null","","","","","","","","null","","","","461","probe-254","","","","","0","[object Object]","null","null","0","","","",""
"","html-keyboard-response","482","1243593","0.0-250.0-1.0","null","<p></p>","null","","","","","","","","","","","","","","","","","","","","","","","",""
"","do_trial","483","1246202","0.0-251.0-0.0","72","","","","","","","","49","0,1,0","6","blank","462","null","0.48097810901844623","0.7117644740481792","0.06637351968968988","0","","","","","","","","",""
"","html-keyboard-response","484","1247205","0.0-251.0-1.0","null","<p></p>","null","","","","","","","","","","","","","","","","","","","","","","","",""
"","do_trial","485","1250175","0.0-252.0-0.0","431.90000009536743","","","","","","","","49","1,0,0","6","blank","463","null","0.39162591521317813","0.73169028383222","0.08560476232686363","1","","","","","","","","",""
"","html-keyboard-response","486","1251181","0.0-252.0-1.0","null","<p></p>","null","","","","","","","","","","","","","","","","","","","","","","","",""
"","do_recog","487","1257191","0.0-253.0-0.0","null","","","","","","","","null","","","","464","probe-234","","","","","0","[object Object]","null","null","0","","","",""
"","html-keyboard-response","488","1258193","0.0-253.0-1.0","null","<p></p>","null","","","","","","","","","","","","","","","","","","","","","","","",""
"","do_trial","489","1261280","0.0-254.0-0.0","547.3000001907349","","","","","","","","49","0,1,0","6","blank","465","null","0.2572987001343116","0.745782752960017","0.05540495789013761","0","","","","","","","","",""
"","html-keyboard-response","490","1262281","0.0-254.0-1.0","null","<p></p>","null","","","","","","","","","","","","","","","","","","","","","","","",""
"","do_trial","491","1265190","0.0-255.0-0.0","374.90000009536743","","","","","","","","49","1,0,0","6","blank","466","null","0.35471290072560785","0.6271032914913077","0.13400496519379462","1","","","","","","","","",""
"","html-keyboard-response","492","1266196","0.0-255.0-1.0","null","<p></p>","null","","","","","","","","","","","","","","","","","","","","","","","",""
"","do_trial","493","1269401","0.0-256.0-0.0","667.5","","","","","","","","49","1,0,0","6","blank","467","null","0.35606597338589113","0.43226522433546805","0.30588614448747536","1","","","","","","","","",""
"","html-keyboard-response","494","1270403","0.0-256.0-1.0","null","<p></p>","null","","","","","","","","","","","","","","","","","","","","","","","",""
"","do_recog","495","1276412","0.0-257.0-0.0","null","","","","","","","","null","","","","468","probe-238","","","","","0","[object Object]","null","null","0","","","",""
"","html-keyboard-response","496","1277415","0.0-257.0-1.0","null","<p></p>","null","","","","","","","","","","","","","","","","","","","","","","","",""
"","do_trial","497","1279989","0.0-258.0-0.0","34.19999980926514","","","","","","","","49","1,0,0","6","blank","469","null","0.34128564707018444","0.5450761849374748","0.10265518375442532","1","","","","","","","","",""
"","html-keyboard-response","498","1280992","0.0-258.0-1.0","null","<p></p>","null","","","","","","","","","","","","","","","","","","","","","","","",""
"","do_recog","499","1287004","0.0-259.0-0.0","null","","","","","","","","null","","","","470","probe-244","","","","","0","[object Object]","null","null","0","","","",""
"","html-keyboard-response","500","1288010","0.0-259.0-1.0","null","<p></p>","null","","","","","","","","","","","","","","","","","","","","","","","",""
"","do_trial","501","1291449","0.0-260.0-0.0","904.0999999046326","","","","","","","","49","1,0,0","6","blank","471","null","0.2663864418442711","0.6753492511790137","0.05397648917706002","1","","","","","","","","",""
"","html-keyboard-response","502","1292450","0.0-260.0-1.0","null","<p></p>","null","","","","","","","","","","","","","","","","","","","","","","","",""
"","do_trial","503","1298488","0.0-261.0-0.0","null","","","","","","","","null","0,0,0","6","blank","472","null","0.31813706981739565","0.5442535434410594","0.12026610107732069","","","","","","","","","",""
"","html-keyboard-response","504","1299491","0.0-261.0-1.0","null","<p></p>","null","","","","","","","","","","","","","","","","","","","","","","","",""
"","do_trial","505","1302676","0.0-262.0-0.0","650.4000000953674","","","","","","","","49","0,0,1","6","blank","473","null","0.07252780045564411","0.5470492956168459","0.1705026571898671","0","","","","","","","","",""
"","html-keyboard-response","506","1303678","0.0-262.0-1.0","null","<p></p>","null","","","","","","","","","","","","","","","","","","","","","","","",""
"","do_trial","507","1306538","0.0-263.0-0.0","321.5","","","","","","","","49","0,1,1","6","blank","474","null","0.06122986814778969","0.7013470273644826","0.15131613477198916","0","","","","","","","","",""
"","html-keyboard-response","508","1307541","0.0-263.0-1.0","null","<p></p>","null","","","","","","","","","","","","","","","","","","","","","","","",""
"","do_recog","509","1313548","0.0-264.0-0.0","null","","","","","","","","null","","","","475","probe-250","","","","","0","[object Object]","null","null","0","","","",""
"","html-keyboard-response","510","1314549","0.0-264.0-1.0","null","<p></p>","null","","","","","","","","","","","","","","","","","","","","","","","",""
"","do_trial","511","1317686","0.0-265.0-0.0","599.7000002861023","","","","","","","","49","0,1,0","6","blank","476","null","0.1704353654433563","0.6394497863435397","0.12046583452012204","0","","","","","","","","",""
"","html-keyboard-response","512","1318690","0.0-265.0-1.0","null","<p></p>","null","","","","","","","","","","","","","","","","","","","","","","","",""
"","do_recog","513","1324701","0.0-266.0-0.0","null","","","","","","","","null","","","","477","probe-251","","","","","0","[object Object]","null","null","0","","","",""
"","html-keyboard-response","514","1325704","0.0-266.0-1.0","null","<p></p>","null","","","","","","","","","","","","","","","","","","","","","","","",""
