"success","trial_type","trial_index","time_elapsed","internal_node_id","interactions","blur_events","focus_events","fullscreenenter_events","fullscreenexit_events","rt","stimulus","key_press","subject_id","participant_id","age","gender","prompt","response","choice_outcomes","context_n","context_img_id","trial_n","probe_img_id","pR_red","pR_white","pR_black","outcome","is_valid","image_to_show","probed_trial","probed_context","correct","probe","probed_trial_n","probed_context_n","context_im"
"true","fullscreen","0","6164","0.0-0.0","""event"",""trial"",""time""
""fullscreenenter"",""0"",""5166""
","
","
","""event"",""trial"",""time""
""fullscreenenter"",""0"",""5166""
","
","","","","","","","","","","","","","","","","","","","","","","","","","","",""
"","pavlovia","1","6176","0.0-1.0","""event"",""trial"",""time""
""fullscreenenter"",""0"",""5166""
","
","
","""event"",""trial"",""time""
""fullscreenenter"",""0"",""5166""
","
","","","","","","","","","","","","","","","","","","","","","","","","","","",""
"","welc_back","2","15971","0.0-2.0","""event"",""trial"",""time""
""fullscreenenter"",""0"",""5166""
","
","
","""event"",""trial"",""time""
""fullscreenenter"",""0"",""5166""
","
","null","run_exp/static/audio/clip_29_welcome_back.m4a","null","448","626","10","Male","<div class='center'><p>Welcome to day 2!</p><p> Yesterday, you were the head captain of a pirate ship. You asked your fellow pirates to rob other ships of their gold across six different islands.</p></div>","","","","","","","","","","","","","","","","","","",""
"","html-keyboard-response","3","19357","0.0-3.0","""event"",""trial"",""time""
""fullscreenenter"",""0"",""5166""
","
","
","""event"",""trial"",""time""
""fullscreenenter"",""0"",""5166""
","
","3380.5","<div class='center'><p>Welcome to day 2!</p><p> Yesterday, you were the head captain of a pirate ship. You asked your fellow pirates to rob other ships of their gold across six different islands.</p><p><b>[Press the space bar to continue]</b></p></div>","32","","","","","","","","","","","","","","","","","","","","","","","",""
"","day_1_summary_goal","4","36549","0.0-4.0","""event"",""trial"",""time""
""fullscreenenter"",""0"",""5166""
","
","
","""event"",""trial"",""time""
""fullscreenenter"",""0"",""5166""
","
","null","run_exp/static/audio/clip_30_goal_of_game.m4a","null","","","","","<div class='center'><p>Today, like yesterday, you get to pick which pirate you want to rob the next ship.</p><p>If the pirate is successful in robbing a ship, you get gold coins that look like this: </p><p><img src='run_exp/static/images/tutorial/reward.png' height='150'></p><p> If they were not successful in robbing the ship, then you will get no gold coins and you'll see a big red x like this: </p><p><img src='run_exp/static/images/tutorial/reward_no.png' height='150'></p></div>","","","","","","","","","","","","","","","","","","",""
"","html-keyboard-response","5","37756","0.0-5.0","""event"",""trial"",""time""
""fullscreenenter"",""0"",""5166""
","
","
","""event"",""trial"",""time""
""fullscreenenter"",""0"",""5166""
","
","1203.5999999642372","<div class='center'><p>Today, like yesterday, you get to pick which pirate you want to rob the next ship.</p><p>If the pirate is successful in robbing a ship, you get gold coins that look like this: </p><p><img src='run_exp/static/images/tutorial/reward.png' height='150'></p><p> If they were not successful in robbing the ship, then you will get no gold coins and you'll see a big red x like this: </p><p><img src='run_exp/static/images/tutorial/reward_no.png' height='150'></p><p><b>[Press the space bar to continue]</b></p></div>","32","","","","","","","","","","","","","","","","","","","","","","","",""
"","day_1_summary_pick","6","52469","0.0-6.0","""event"",""trial"",""time""
""fullscreenenter"",""0"",""5166""
","
","
","""event"",""trial"",""time""
""fullscreenenter"",""0"",""5166""
","
","null","run_exp/static/audio/clip_31_how_to_pick_a_pirate.m4a","null","","","","","<div class='center'><p>Also, just like yesterday, you will use the 1,2,3 keys on your keyboard to pick a pirate. Press '1' to choose red beard, '2' to choose white beard, and '3' to choose black beard . You only have 3 seconds to pick a pirate, so please make a choice quickly!</p></div>","","","","","","","","","","","","","","","","","","",""
"","html-keyboard-response","7","52961","0.0-7.0","""event"",""trial"",""time""
""fullscreenenter"",""0"",""5166""
""blur"",""8"",""77797""
","""event"",""trial"",""time""
""blur"",""8"",""77797""
","
","""event"",""trial"",""time""
""fullscreenenter"",""0"",""5166""
","
","489.4000000357628","<div class='center'><p>Also, just like yesterday, you will use the 1,2,3 keys on your keyboard to pick a pirate. Press '1' to choose red beard, '2' to choose white beard, and '3' to choose black beard . You only have 3 seconds to pick a pirate, so please make a choice quickly!</p><p><b>[Press the space bar to continue]</b></p></div>","32","","","","","","","","","","","","","","","","","","","","","","","",""
"","test_phase_begin","8","83369","0.0-8.0","""event"",""trial"",""time""
""fullscreenenter"",""0"",""5166""
""blur"",""8"",""77797""
""focus"",""9"",""85678""
","""event"",""trial"",""time""
""blur"",""8"",""77797""
","""event"",""trial"",""time""
""focus"",""9"",""85678""
","""event"",""trial"",""time""
""fullscreenenter"",""0"",""5166""
","
","null","run_exp/static/audio/clip_32_final_place.m4a","null","","","","","<div class='center'><p>You’ve arrived at the final island of your journey! Unfortunately, it’s very foggy out, so you won’t be able to see it in the distance like the other islands you've visited.</p><p>You’ll still be deciding which pirate you want to rob a ship like before. However, because of the fog, you also won’t be able to see the ship.</p><p>This means you do not have to remember the ships you rob on this island.</p><p>Unlike yesterday, you won't be visiting multiple islands today. You will stay on this island for the entire game. This game will last ~30 minutes.</p></div>","","","","","","","","","","","","","","","","","","",""
"","html-keyboard-response","9","88054","0.0-9.0","""event"",""trial"",""time""
""fullscreenenter"",""0"",""5166""
""blur"",""8"",""77797""
""focus"",""9"",""85678""
","""event"",""trial"",""time""
""blur"",""8"",""77797""
","""event"",""trial"",""time""
""focus"",""9"",""85678""
","""event"",""trial"",""time""
""fullscreenenter"",""0"",""5166""
","
","4682.699999988079","<div class='center'><p>You’ve arrived at the final island of your journey! Unfortunately, it’s very foggy out, so you won’t be able to see it in the distance like the other islands you've visited.</p><p>You’ll still be deciding which pirate you want to rob a ship like before. However, because of the fog, you also won’t be able to see the ship.</p><p>This means you do not have to remember the ships you rob on this island.</p><p>Unlike yesterday, you won't be visiting multiple islands today. You will stay on this island for the entire game. This game will last ~30 minutes.</p><p><b>[Press the space bar to continue]</b></p></div>","32","","","","","","","","","","","","","","","","","","","","","","","",""
"","explain_probe_1","10","95789","0.0-10.0","""event"",""trial"",""time""
""fullscreenenter"",""0"",""5166""
""blur"",""8"",""77797""
""focus"",""9"",""85678""
","""event"",""trial"",""time""
""blur"",""8"",""77797""
","""event"",""trial"",""time""
""focus"",""9"",""85678""
","""event"",""trial"",""time""
""fullscreenenter"",""0"",""5166""
","
","null","run_exp/static/audio/clip_33_recognition_1.m4a","null","","","","","<div class='center'><p> Sometimes you’ll be shown a ship, and you will be asked if you saw this ship on a past island.</p><p> Here is an example of what you will see.</p><p><img src='run_exp/static/images/tutorial/example_recog_trial.png' height='500'></p></div>","","","","","","","","","","","","","","","","","","",""
"","html-keyboard-response","11","96359","0.0-11.0","""event"",""trial"",""time""
""fullscreenenter"",""0"",""5166""
""blur"",""8"",""77797""
""focus"",""9"",""85678""
","""event"",""trial"",""time""
""blur"",""8"",""77797""
","""event"",""trial"",""time""
""focus"",""9"",""85678""
","""event"",""trial"",""time""
""fullscreenenter"",""0"",""5166""
","
","566.8000000119209","<div class='center'><p> Sometimes you’ll be shown a ship, and you will be asked if you saw this ship on a past island.</p><p> Here is an example of what you will see.</p><p><img src='run_exp/static/images/tutorial/example_recog_trial.png' height='500'></p><p><b>[Press the space bar to continue]</b></p></div>","32","","","","","","","","","","","","","","","","","","","","","","","",""
"","explain_probe_2","12","118109","0.0-12.0","""event"",""trial"",""time""
""fullscreenenter"",""0"",""5166""
""blur"",""8"",""77797""
""focus"",""9"",""85678""
","""event"",""trial"",""time""
""blur"",""8"",""77797""
","""event"",""trial"",""time""
""focus"",""9"",""85678""
","""event"",""trial"",""time""
""fullscreenenter"",""0"",""5166""
","
","null","run_exp/static/audio/clip_34_recognition_2.m4a","null","","","","","<div class='center'><p> You will press the 5, 6, 7, 8 keys on your keyboard to respond.</p><p>If you are sure you saw the ship, press <b>5</b> on your keyboard.</p><p> If you think you saw it before but aren't sure, then press <b>6</b>.</p><p> If you think you have <b>not</b> seen it before but aren't sure, then press <b>7</b>.</p><p> If you are sure you did <b>not</b> see the ship before, then press <b>8</b>.</p><p><img src='run_exp/static/images/tutorial/example_recog_trial.png' height='500'></p></div>","","","","","","","","","","","","","","","","","","",""
"","html-keyboard-response","13","118570","0.0-13.0","""event"",""trial"",""time""
""fullscreenenter"",""0"",""5166""
""blur"",""8"",""77797""
""focus"",""9"",""85678""
","""event"",""trial"",""time""
""blur"",""8"",""77797""
","""event"",""trial"",""time""
""focus"",""9"",""85678""
","""event"",""trial"",""time""
""fullscreenenter"",""0"",""5166""
","
","457","<div class='center'><p> You will press the 5, 6, 7, 8 keys on your keyboard to respond.</p><p>If you are sure you saw the ship, press <b>5</b> on your keyboard.</p><p> If you think you saw it before but aren't sure, then press <b>6</b>.</p><p> If you think you have <b>not</b> seen it before but aren't sure, then press <b>7</b>.</p><p> If you are sure you did <b>not</b> see the ship before, then press <b>8</b>.</p><p><img src='run_exp/static/images/tutorial/example_recog_trial.png' height='500'></p><p><b>[Press the space bar to continue]</b></p></div>","32","","","","","","","","","","","","","","","","","","","","","","","",""
"","explain_outcome","14","135789","0.0-14.0","""event"",""trial"",""time""
""fullscreenenter"",""0"",""5166""
""blur"",""8"",""77797""
""focus"",""9"",""85678""
","""event"",""trial"",""time""
""blur"",""8"",""77797""
","""event"",""trial"",""time""
""focus"",""9"",""85678""
","""event"",""trial"",""time""
""fullscreenenter"",""0"",""5166""
","
","null","run_exp/static/audio/clip_35_recognition_3.m4a","null","","","","","<div class='center'><p> If you remember correctly, then you’ll get a gold coin like this: </p><p><img src='run_exp/static/images/tutorial/reward_small.png' height='200'></p><p>If you do not remember correctly, then you'll see a red x like this: </p><p><img src='run_exp/static/images/tutorial/reward_no.png' height='200'></p><p>Importantly, when you are shown a ship, take the time to remind yourself which island you saw it on. This will help you in the next part of the study.</p></div>","","","","","","","","","","","","","","","","","","",""
"","html-keyboard-response","15","146337","0.0-15.0","""event"",""trial"",""time""
""fullscreenenter"",""0"",""5166""
""blur"",""8"",""77797""
""focus"",""9"",""85678""
","""event"",""trial"",""time""
""blur"",""8"",""77797""
","""event"",""trial"",""time""
""focus"",""9"",""85678""
","""event"",""trial"",""time""
""fullscreenenter"",""0"",""5166""
","
","10543.799999952316","<div class='center'><p> If you remember correctly, then you’ll get a gold coin like this: </p><p><img src='run_exp/static/images/tutorial/reward_small.png' height='200'></p><p>If you do not remember correctly, then you'll see a red x like this: </p><p><img src='run_exp/static/images/tutorial/reward_no.png' height='200'></p><p>Importantly, when you are shown a ship, take the time to remind yourself which island you saw it on. This will help you in the next part of the study.</p><p><b>[Press the space bar to continue]</b></p></div>","32","","","","","","","","","","","","","","","","","","","","","","","",""
"","begin_test_phase","16","162144","0.0-16.0","""event"",""trial"",""time""
""fullscreenenter"",""0"",""5166""
""blur"",""8"",""77797""
""focus"",""9"",""85678""
","""event"",""trial"",""time""
""blur"",""8"",""77797""
","""event"",""trial"",""time""
""focus"",""9"",""85678""
","""event"",""trial"",""time""
""fullscreenenter"",""0"",""5166""
","
","null","run_exp/static/audio/clip_36_begin_final.m4a","null","","","","","<div class='center'><p>Let's go over the important points again. Your job is to: </p><p>1. Pick the pirate who is best at robbing ships and will bring you back gold coins. </p><p>2. Correctly remember whether or not you saw a ship before. If you did see the ship before, remind yourself on which island you saw it. </p></div>","","","","","","","","","","","","","","","","","","",""
"","html-keyboard-response","17","162521","0.0-17.0","""event"",""trial"",""time""
""fullscreenenter"",""0"",""5166""
""blur"",""8"",""77797""
""focus"",""9"",""85678""
","""event"",""trial"",""time""
""blur"",""8"",""77797""
","""event"",""trial"",""time""
""focus"",""9"",""85678""
","""event"",""trial"",""time""
""fullscreenenter"",""0"",""5166""
","
","314.4000000357628","<div class='center'><p>Let's go over the important points again. Your job is to: </p><p>1. Pick the pirate who is best at robbing ships and will bring you back gold coins. </p><p>2. Correctly remember whether or not you saw a ship before. If you did see the ship before, remind yourself on which island you saw it. </p><p><b>[Press the space bar to continue]</b></p></div>","32","","","","","","","","","","","","","","","","","","","","","","","",""
"","do_welcome","18","166538","0.0-18.0","""event"",""trial"",""time""
""fullscreenenter"",""0"",""5166""
""blur"",""8"",""77797""
""focus"",""9"",""85678""
","""event"",""trial"",""time""
""blur"",""8"",""77797""
","""event"",""trial"",""time""
""focus"",""9"",""85678""
","""event"",""trial"",""time""
""fullscreenenter"",""0"",""5166""
","
","null","","","","","","","","null","","","","","","","","","","","","","","","","","",""
"","do_trial","19","170055","0.0-19.0-0.0","""event"",""trial"",""time""
""fullscreenenter"",""0"",""5166""
""blur"",""8"",""77797""
""focus"",""9"",""85678""
","""event"",""trial"",""time""
""blur"",""8"",""77797""
","""event"",""trial"",""time""
""focus"",""9"",""85678""
","""event"",""trial"",""time""
""fullscreenenter"",""0"",""5166""
","
","940.1999999880791","","","","","","","","49","0,1,0","6","blank","230","null","0.13094013390203338","0.7350824150299263","0.42843287055602636","0","","","","","","","","",""
"","html-keyboard-response","20","171058","0.0-19.0-1.0","""event"",""trial"",""time""
""fullscreenenter"",""0"",""5166""
""blur"",""8"",""77797""
""focus"",""9"",""85678""
","""event"",""trial"",""time""
""blur"",""8"",""77797""
","""event"",""trial"",""time""
""focus"",""9"",""85678""
","""event"",""trial"",""time""
""fullscreenenter"",""0"",""5166""
","
","null","<p></p>","null","","","","","","","","","","","","","","","","","","","","","","","",""
"","do_trial","21","173870","0.0-20.0-0.0","""event"",""trial"",""time""
""fullscreenenter"",""0"",""5166""
""blur"",""8"",""77797""
""focus"",""9"",""85678""
","""event"",""trial"",""time""
""blur"",""8"",""77797""
","""event"",""trial"",""time""
""focus"",""9"",""85678""
","""event"",""trial"",""time""
""fullscreenenter"",""0"",""5166""
","
","235.19999998807907","","","","","","","","50","0,1,1","6","blank","231","null","0.1156796967864144","0.7240196663468117","0.33527196648335783","1","","","","","","","","",""
"","html-keyboard-response","22","174873","0.0-20.0-1.0","""event"",""trial"",""time""
""fullscreenenter"",""0"",""5166""
""blur"",""8"",""77797""
""focus"",""9"",""85678""
","""event"",""trial"",""time""
""blur"",""8"",""77797""
","""event"",""trial"",""time""
""focus"",""9"",""85678""
","""event"",""trial"",""time""
""fullscreenenter"",""0"",""5166""
","
","null","<p></p>","null","","","","","","","","","","","","","","","","","","","","","","","",""
"","do_trial","23","177718","0.0-21.0-0.0","""event"",""trial"",""time""
""fullscreenenter"",""0"",""5166""
""blur"",""8"",""77797""
""focus"",""9"",""85678""
","""event"",""trial"",""time""
""blur"",""8"",""77797""
","""event"",""trial"",""time""
""focus"",""9"",""85678""
","""event"",""trial"",""time""
""fullscreenenter"",""0"",""5166""
","
","233.60000002384186","","","","","","","","51","0,1,0","6","blank","232","null","0.06031046806967937","0.693482893419806","0.18368337597377418","0","","","","","","","","",""
"","html-keyboard-response","24","178721","0.0-21.0-1.0","""event"",""trial"",""time""
""fullscreenenter"",""0"",""5166""
""blur"",""8"",""77797""
""focus"",""9"",""85678""
","""event"",""trial"",""time""
""blur"",""8"",""77797""
","""event"",""trial"",""time""
""focus"",""9"",""85678""
","""event"",""trial"",""time""
""fullscreenenter"",""0"",""5166""
","
","null","<p></p>","null","","","","","","","","","","","","","","","","","","","","","","","",""
"","do_trial","25","181558","0.0-22.0-0.0","""event"",""trial"",""time""
""fullscreenenter"",""0"",""5166""
""blur"",""8"",""77797""
""focus"",""9"",""85678""
","""event"",""trial"",""time""
""blur"",""8"",""77797""
","""event"",""trial"",""time""
""focus"",""9"",""85678""
","""event"",""trial"",""time""
""fullscreenenter"",""0"",""5166""
","
","239.5","","","","","","","","49","0,1,0","6","blank","233","null","0.10453104990805233","0.6354314522481933","0.10390569932352305","0","","","","","","","","",""
"","html-keyboard-response","26","182561","0.0-22.0-1.0","""event"",""trial"",""time""
""fullscreenenter"",""0"",""5166""
""blur"",""8"",""77797""
""focus"",""9"",""85678""
","""event"",""trial"",""time""
""blur"",""8"",""77797""
","""event"",""trial"",""time""
""focus"",""9"",""85678""
","""event"",""trial"",""time""
""fullscreenenter"",""0"",""5166""
","
","null","<p></p>","null","","","","","","","","","","","","","","","","","","","","","","","",""
"","do_trial","27","185352","0.0-23.0-0.0","""event"",""trial"",""time""
""fullscreenenter"",""0"",""5166""
""blur"",""8"",""77797""
""focus"",""9"",""85678""
","""event"",""trial"",""time""
""blur"",""8"",""77797""
","""event"",""trial"",""time""
""focus"",""9"",""85678""
","""event"",""trial"",""time""
""fullscreenenter"",""0"",""5166""
","
","223.10000002384186","","","","","","","","50","0,0,0","6","blank","234","null","0.05936519150277715","0.6530746294925495","0.19398339302403622","0","","","","","","","","",""
"","html-keyboard-response","28","186355","0.0-23.0-1.0","""event"",""trial"",""time""
""fullscreenenter"",""0"",""5166""
""blur"",""8"",""77797""
""focus"",""9"",""85678""
","""event"",""trial"",""time""
""blur"",""8"",""77797""
","""event"",""trial"",""time""
""focus"",""9"",""85678""
","""event"",""trial"",""time""
""fullscreenenter"",""0"",""5166""
","
","null","<p></p>","null","","","","","","","","","","","","","","","","","","","","","","","",""
"","do_trial","29","189021","0.0-24.0-0.0","""event"",""trial"",""time""
""fullscreenenter"",""0"",""5166""
""blur"",""8"",""77797""
""focus"",""9"",""85678""
","""event"",""trial"",""time""
""blur"",""8"",""77797""
","""event"",""trial"",""time""
""focus"",""9"",""85678""
","""event"",""trial"",""time""
""fullscreenenter"",""0"",""5166""
","
","67.69999998807907","","","","","","","","51","0,1,0","6","blank","235","null","0.12431663401828871","0.5640443485814713","0.14893852880015204","0","","","","","","","","",""
"","html-keyboard-response","30","190024","0.0-24.0-1.0","""event"",""trial"",""time""
""fullscreenenter"",""0"",""5166""
""blur"",""8"",""77797""
""focus"",""9"",""85678""
","""event"",""trial"",""time""
""blur"",""8"",""77797""
","""event"",""trial"",""time""
""focus"",""9"",""85678""
","""event"",""trial"",""time""
""fullscreenenter"",""0"",""5166""
","
","null","<p></p>","null","","","","","","","","","","","","","","","","","","","","","","","",""
"","do_trial","31","193097","0.0-25.0-0.0","""event"",""trial"",""time""
""fullscreenenter"",""0"",""5166""
""blur"",""8"",""77797""
""focus"",""9"",""85678""
","""event"",""trial"",""time""
""blur"",""8"",""77797""
","""event"",""trial"",""time""
""focus"",""9"",""85678""
","""event"",""trial"",""time""
""fullscreenenter"",""0"",""5166""
","
","476.4000000357628","","","","","","","","49","0,1,1","6","blank","236","null","0.13188741963469305","0.6119422293762847","0.2451369545987293","0","","","","","","","","",""
"","html-keyboard-response","32","194099","0.0-25.0-1.0","""event"",""trial"",""time""
""fullscreenenter"",""0"",""5166""
""blur"",""8"",""77797""
""focus"",""9"",""85678""
","""event"",""trial"",""time""
""blur"",""8"",""77797""
","""event"",""trial"",""time""
""focus"",""9"",""85678""
","""event"",""trial"",""time""
""fullscreenenter"",""0"",""5166""
","
","null","<p></p>","null","","","","","","","","","","","","","","","","","","","","","","","",""
"","do_trial","33","197142","0.0-26.0-0.0","""event"",""trial"",""time""
""fullscreenenter"",""0"",""5166""
""blur"",""8"",""77797""
""focus"",""9"",""85678""
","""event"",""trial"",""time""
""blur"",""8"",""77797""
","""event"",""trial"",""time""
""focus"",""9"",""85678""
","""event"",""trial"",""time""
""fullscreenenter"",""0"",""5166""
","
","461.2000000476837","","","","","","","","50","0,1,0","6","blank","237","null","0.19653036832999732","0.6698235214015941","0.2638109362758503","1","","","","","","","","",""
"","html-keyboard-response","34","198144","0.0-26.0-1.0","""event"",""trial"",""time""
""fullscreenenter"",""0"",""5166""
""blur"",""8"",""77797""
""focus"",""9"",""85678""
","""event"",""trial"",""time""
""blur"",""8"",""77797""
","""event"",""trial"",""time""
""focus"",""9"",""85678""
","""event"",""trial"",""time""
""fullscreenenter"",""0"",""5166""
","
","null","<p></p>","null","","","","","","","","","","","","","","","","","","","","","","","",""
"","do_trial","35","201031","0.0-27.0-0.0","""event"",""trial"",""time""
""fullscreenenter"",""0"",""5166""
""blur"",""8"",""77797""
""focus"",""9"",""85678""
","""event"",""trial"",""time""
""blur"",""8"",""77797""
","""event"",""trial"",""time""
""focus"",""9"",""85678""
","""event"",""trial"",""time""
""fullscreenenter"",""0"",""5166""
","
","308.30000001192093","","","","","","","","51","0,0,0","6","blank","238","null","0.21343924912419038","0.7675501362780794","0.05939112119662994","0","","","","","","","","",""
"","html-keyboard-response","36","202034","0.0-27.0-1.0","""event"",""trial"",""time""
""fullscreenenter"",""0"",""5166""
""blur"",""8"",""77797""
""focus"",""9"",""85678""
","""event"",""trial"",""time""
""blur"",""8"",""77797""
","""event"",""trial"",""time""
""focus"",""9"",""85678""
","""event"",""trial"",""time""
""fullscreenenter"",""0"",""5166""
","
","null","<p></p>","null","","","","","","","","","","","","","","","","","","","","","","","",""
"","do_trial","37","204906","0.0-28.0-0.0","""event"",""trial"",""time""
""fullscreenenter"",""0"",""5166""
""blur"",""8"",""77797""
""focus"",""9"",""85678""
","""event"",""trial"",""time""
""blur"",""8"",""77797""
","""event"",""trial"",""time""
""focus"",""9"",""85678""
","""event"",""trial"",""time""
""fullscreenenter"",""0"",""5166""
","
","299.30000001192093","","","","","","","","49","0,1,0","6","blank","239","null","0.16030137471370048","0.6226491350587156","0.2734976510607026","0","","","","","","","","",""
"","html-keyboard-response","38","205909","0.0-28.0-1.0","""event"",""trial"",""time""
""fullscreenenter"",""0"",""5166""
""blur"",""8"",""77797""
""focus"",""9"",""85678""
","""event"",""trial"",""time""
""blur"",""8"",""77797""
","""event"",""trial"",""time""
""focus"",""9"",""85678""
","""event"",""trial"",""time""
""fullscreenenter"",""0"",""5166""
","
","null","<p></p>","null","","","","","","","","","","","","","","","","","","","","","","","",""
"","do_trial","39","208858","0.0-29.0-0.0","""event"",""trial"",""time""
""fullscreenenter"",""0"",""5166""
""blur"",""8"",""77797""
""focus"",""9"",""85678""
","""event"",""trial"",""time""
""blur"",""8"",""77797""
","""event"",""trial"",""time""
""focus"",""9"",""85678""
","""event"",""trial"",""time""
""fullscreenenter"",""0"",""5166""
","
","338.10000002384186","","","","","","","","50","0,0,0","6","blank","240","null","0.13803218223335054","0.4946715327779737","0.2464274020882352","0","","","","","","","","",""
"","html-keyboard-response","40","209861","0.0-29.0-1.0","""event"",""trial"",""time""
""fullscreenenter"",""0"",""5166""
""blur"",""8"",""77797""
""focus"",""9"",""85678""
","""event"",""trial"",""time""
""blur"",""8"",""77797""
","""event"",""trial"",""time""
""focus"",""9"",""85678""
","""event"",""trial"",""time""
""fullscreenenter"",""0"",""5166""
","
","null","<p></p>","null","","","","","","","","","","","","","","","","","","","","","","","",""
"","do_trial","41","212760","0.0-30.0-0.0","""event"",""trial"",""time""
""fullscreenenter"",""0"",""5166""
""blur"",""8"",""77797""
""focus"",""9"",""85678""
","""event"",""trial"",""time""
""blur"",""8"",""77797""
","""event"",""trial"",""time""
""focus"",""9"",""85678""
","""event"",""trial"",""time""
""fullscreenenter"",""0"",""5166""
","
","325.80000001192093","","","","","","","","51","0,1,0","6","blank","241","null","0.13713867262764246","0.46734793911123085","0.21477968799163472","0","","","","","","","","",""
"","html-keyboard-response","42","213763","0.0-30.0-1.0","""event"",""trial"",""time""
""fullscreenenter"",""0"",""5166""
""blur"",""8"",""77797""
""focus"",""9"",""85678""
","""event"",""trial"",""time""
""blur"",""8"",""77797""
","""event"",""trial"",""time""
""focus"",""9"",""85678""
","""event"",""trial"",""time""
""fullscreenenter"",""0"",""5166""
","
","null","<p></p>","null","","","","","","","","","","","","","","","","","","","","","","","",""
"","do_recog","43","219777","0.0-31.0-0.0","""event"",""trial"",""time""
""fullscreenenter"",""0"",""5166""
""blur"",""8"",""77797""
""focus"",""9"",""85678""
","""event"",""trial"",""time""
""blur"",""8"",""77797""
","""event"",""trial"",""time""
""focus"",""9"",""85678""
","""event"",""trial"",""time""
""fullscreenenter"",""0"",""5166""
","
","null","","","","","","","","null","","","","242","probe-33","","","","","1","[object Object]","115","2","0","","","",""
"","html-keyboard-response","44","220781","0.0-31.0-1.0","""event"",""trial"",""time""
""fullscreenenter"",""0"",""5166""
""blur"",""8"",""77797""
""focus"",""9"",""85678""
","""event"",""trial"",""time""
""blur"",""8"",""77797""
","""event"",""trial"",""time""
""focus"",""9"",""85678""
","""event"",""trial"",""time""
""fullscreenenter"",""0"",""5166""
","
","null","<p></p>","null","","","","","","","","","","","","","","","","","","","","","","","",""
"","do_trial","45","223851","0.0-32.0-0.0","""event"",""trial"",""time""
""fullscreenenter"",""0"",""5166""
""blur"",""8"",""77797""
""focus"",""9"",""85678""
","""event"",""trial"",""time""
""blur"",""8"",""77797""
","""event"",""trial"",""time""
""focus"",""9"",""85678""
","""event"",""trial"",""time""
""fullscreenenter"",""0"",""5166""
","
","491.80000001192093","","","","","","","","49","1,1,0","6","blank","243","null","0.3293418293433403","0.4118013028683513","0.24512807797291644","1","","","","","","","","",""
"","html-keyboard-response","46","224854","0.0-32.0-1.0","""event"",""trial"",""time""
""fullscreenenter"",""0"",""5166""
""blur"",""8"",""77797""
""focus"",""9"",""85678""
","""event"",""trial"",""time""
""blur"",""8"",""77797""
","""event"",""trial"",""time""
""focus"",""9"",""85678""
","""event"",""trial"",""time""
""fullscreenenter"",""0"",""5166""
","
","null","<p></p>","null","","","","","","","","","","","","","","","","","","","","","","","",""
"","do_recog","47","228264","0.0-33.0-0.0","""event"",""trial"",""time""
""fullscreenenter"",""0"",""5166""
""blur"",""8"",""77797""
""focus"",""9"",""85678""
","""event"",""trial"",""time""
""blur"",""8"",""77797""
","""event"",""trial"",""time""
""focus"",""9"",""85678""
","""event"",""trial"",""time""
""fullscreenenter"",""0"",""5166""
","
","1897.300000011921","","","","","","","","54","","","","244","probe-128","","","","","1","[object Object]","117","2","1","","","",""
"","html-keyboard-response","48","229266","0.0-33.0-1.0","""event"",""trial"",""time""
""fullscreenenter"",""0"",""5166""
""blur"",""8"",""77797""
""focus"",""9"",""85678""
","""event"",""trial"",""time""
""blur"",""8"",""77797""
","""event"",""trial"",""time""
""focus"",""9"",""85678""
","""event"",""trial"",""time""
""fullscreenenter"",""0"",""5166""
","
","null","<p></p>","null","","","","","","","","","","","","","","","","","","","","","","","",""
"","do_trial","49","232507","0.0-34.0-0.0","""event"",""trial"",""time""
""fullscreenenter"",""0"",""5166""
""blur"",""8"",""77797""
""focus"",""9"",""85678""
","""event"",""trial"",""time""
""blur"",""8"",""77797""
","""event"",""trial"",""time""
""focus"",""9"",""85678""
","""event"",""trial"",""time""
""fullscreenenter"",""0"",""5166""
","
","664","","","","","","","","50","0,1,0","6","blank","245","null","0.4347916464822271","0.39049544855957236","0.19511224919349549","1","","","","","","","","",""
"","html-keyboard-response","50","233510","0.0-34.0-1.0","""event"",""trial"",""time""
""fullscreenenter"",""0"",""5166""
""blur"",""8"",""77797""
""focus"",""9"",""85678""
","""event"",""trial"",""time""
""blur"",""8"",""77797""
","""event"",""trial"",""time""
""focus"",""9"",""85678""
","""event"",""trial"",""time""
""fullscreenenter"",""0"",""5166""
","
","null","<p></p>","null","","","","","","","","","","","","","","","","","","","","","","","",""
"","do_trial","51","236278","0.0-35.0-0.0","""event"",""trial"",""time""
""fullscreenenter"",""0"",""5166""
""blur"",""8"",""77797""
""focus"",""9"",""85678""
","""event"",""trial"",""time""
""blur"",""8"",""77797""
","""event"",""trial"",""time""
""focus"",""9"",""85678""
","""event"",""trial"",""time""
""fullscreenenter"",""0"",""5166""
","
","194.5","","","","","","","","51","0,0,0","6","blank","246","null","0.4917926681926427","0.41183456320791223","0.22134846543269152","0","","","","","","","","",""
"","html-keyboard-response","52","237281","0.0-35.0-1.0","""event"",""trial"",""time""
""fullscreenenter"",""0"",""5166""
""blur"",""8"",""77797""
""focus"",""9"",""85678""
","""event"",""trial"",""time""
""blur"",""8"",""77797""
","""event"",""trial"",""time""
""focus"",""9"",""85678""
","""event"",""trial"",""time""
""fullscreenenter"",""0"",""5166""
","
","null","<p></p>","null","","","","","","","","","","","","","","","","","","","","","","","",""
"","do_trial","53","240087","0.0-36.0-0.0","""event"",""trial"",""time""
""fullscreenenter"",""0"",""5166""
""blur"",""8"",""77797""
""focus"",""9"",""85678""
","""event"",""trial"",""time""
""blur"",""8"",""77797""
","""event"",""trial"",""time""
""focus"",""9"",""85678""
","""event"",""trial"",""time""
""fullscreenenter"",""0"",""5166""
","
","214.4000000357628","","","","","","","","49","0,0,0","6","blank","247","null","0.39610018600423247","0.23088725357785575","0.10562583792626253","0","","","","","","","","",""
"","html-keyboard-response","54","241090","0.0-36.0-1.0","""event"",""trial"",""time""
""fullscreenenter"",""0"",""5166""
""blur"",""8"",""77797""
""focus"",""9"",""85678""
","""event"",""trial"",""time""
""blur"",""8"",""77797""
","""event"",""trial"",""time""
""focus"",""9"",""85678""
","""event"",""trial"",""time""
""fullscreenenter"",""0"",""5166""
","
","null","<p></p>","null","","","","","","","","","","","","","","","","","","","","","","","",""
"","do_trial","55","243960","0.0-37.0-0.0","""event"",""trial"",""time""
""fullscreenenter"",""0"",""5166""
""blur"",""8"",""77797""
""focus"",""9"",""85678""
","""event"",""trial"",""time""
""blur"",""8"",""77797""
","""event"",""trial"",""time""
""focus"",""9"",""85678""
","""event"",""trial"",""time""
""fullscreenenter"",""0"",""5166""
","
","291.5","","","","","","","","50","1,0,0","6","blank","248","null","0.5166505302218187","0.24400511821190804","0.1740649784417307","0","","","","","","","","",""
"","html-keyboard-response","56","244963","0.0-37.0-1.0","""event"",""trial"",""time""
""fullscreenenter"",""0"",""5166""
""blur"",""8"",""77797""
""focus"",""9"",""85678""
","""event"",""trial"",""time""
""blur"",""8"",""77797""
","""event"",""trial"",""time""
""focus"",""9"",""85678""
","""event"",""trial"",""time""
""fullscreenenter"",""0"",""5166""
","
","null","<p></p>","null","","","","","","","","","","","","","","","","","","","","","","","",""
"","do_trial","57","247833","0.0-38.0-0.0","""event"",""trial"",""time""
""fullscreenenter"",""0"",""5166""
""blur"",""8"",""77797""
""focus"",""9"",""85678""
","""event"",""trial"",""time""
""blur"",""8"",""77797""
","""event"",""trial"",""time""
""focus"",""9"",""85678""
","""event"",""trial"",""time""
""fullscreenenter"",""0"",""5166""
","
","242.80000001192093","","","","","","","","51","0,0,0","6","blank","249","null","0.4764489666219505","0.2500034281921678","0.06636152623872976","0","","","","","","","","",""
"","html-keyboard-response","58","248835","0.0-38.0-1.0","""event"",""trial"",""time""
""fullscreenenter"",""0"",""5166""
""blur"",""8"",""77797""
""focus"",""9"",""85678""
","""event"",""trial"",""time""
""blur"",""8"",""77797""
","""event"",""trial"",""time""
""focus"",""9"",""85678""
","""event"",""trial"",""time""
""fullscreenenter"",""0"",""5166""
","
","null","<p></p>","null","","","","","","","","","","","","","","","","","","","","","","","",""
"","do_recog","59","253091","0.0-39.0-0.0","""event"",""trial"",""time""
""fullscreenenter"",""0"",""5166""
""blur"",""8"",""77797""
""focus"",""9"",""85678""
","""event"",""trial"",""time""
""blur"",""8"",""77797""
","""event"",""trial"",""time""
""focus"",""9"",""85678""
","""event"",""trial"",""time""
""fullscreenenter"",""0"",""5166""
","
","2743.5","","","","","","","","54","","","","250","probe-118","","","","","1","[object Object]","71","1","1","","","",""
"","html-keyboard-response","60","254093","0.0-39.0-1.0","""event"",""trial"",""time""
""fullscreenenter"",""0"",""5166""
""blur"",""8"",""77797""
""focus"",""9"",""85678""
","""event"",""trial"",""time""
""blur"",""8"",""77797""
","""event"",""trial"",""time""
""focus"",""9"",""85678""
","""event"",""trial"",""time""
""fullscreenenter"",""0"",""5166""
","
","null","<p></p>","null","","","","","","","","","","","","","","","","","","","","","","","",""
"","do_trial","61","257294","0.0-40.0-0.0","""event"",""trial"",""time""
""fullscreenenter"",""0"",""5166""
""blur"",""8"",""77797""
""focus"",""9"",""85678""
","""event"",""trial"",""time""
""blur"",""8"",""77797""
","""event"",""trial"",""time""
""focus"",""9"",""85678""
","""event"",""trial"",""time""
""fullscreenenter"",""0"",""5166""
","
","667.3000000119209","","","","","","","","49","0,0,0","6","blank","251","null","0.5764344629729717","0.43542597182789183","0.17482970280892232","0","","","","","","","","",""
"","html-keyboard-response","62","258297","0.0-40.0-1.0","""event"",""trial"",""time""
""fullscreenenter"",""0"",""5166""
""blur"",""8"",""77797""
""focus"",""9"",""85678""
","""event"",""trial"",""time""
""blur"",""8"",""77797""
","""event"",""trial"",""time""
""focus"",""9"",""85678""
","""event"",""trial"",""time""
""fullscreenenter"",""0"",""5166""
","
","null","<p></p>","null","","","","","","","","","","","","","","","","","","","","","","","",""
"","do_trial","63","261599","0.0-41.0-0.0","""event"",""trial"",""time""
""fullscreenenter"",""0"",""5166""
""blur"",""8"",""77797""
""focus"",""9"",""85678""
","""event"",""trial"",""time""
""blur"",""8"",""77797""
","""event"",""trial"",""time""
""focus"",""9"",""85678""
","""event"",""trial"",""time""
""fullscreenenter"",""0"",""5166""
","
","745.5","","","","","","","","50","1,0,0","6","blank","252","null","0.6625977276026501","0.43823536055383117","0.22530862944706442","0","","","","","","","","",""
"","html-keyboard-response","64","262601","0.0-41.0-1.0","""event"",""trial"",""time""
""fullscreenenter"",""0"",""5166""
""blur"",""8"",""77797""
""focus"",""9"",""85678""
","""event"",""trial"",""time""
""blur"",""8"",""77797""
","""event"",""trial"",""time""
""focus"",""9"",""85678""
","""event"",""trial"",""time""
""fullscreenenter"",""0"",""5166""
","
","null","<p></p>","null","","","","","","","","","","","","","","","","","","","","","","","",""
"","do_trial","65","265447","0.0-42.0-0.0","""event"",""trial"",""time""
""fullscreenenter"",""0"",""5166""
""blur"",""8"",""77797""
""focus"",""9"",""85678""
","""event"",""trial"",""time""
""blur"",""8"",""77797""
","""event"",""trial"",""time""
""focus"",""9"",""85678""
","""event"",""trial"",""time""
""fullscreenenter"",""0"",""5166""
","
","234.10000002384186","","","","","","","","51","1,0,0","6","blank","253","null","0.607781590398515","0.31716094666908395","0.1069807609645729","0","","","","","","","","",""
"","html-keyboard-response","66","266449","0.0-42.0-1.0","""event"",""trial"",""time""
""fullscreenenter"",""0"",""5166""
""blur"",""8"",""77797""
""focus"",""9"",""85678""
","""event"",""trial"",""time""
""blur"",""8"",""77797""
","""event"",""trial"",""time""
""focus"",""9"",""85678""
","""event"",""trial"",""time""
""fullscreenenter"",""0"",""5166""
","
","null","<p></p>","null","","","","","","","","","","","","","","","","","","","","","","","",""
"","do_trial","67","269208","0.0-43.0-0.0","""event"",""trial"",""time""
""fullscreenenter"",""0"",""5166""
""blur"",""8"",""77797""
""focus"",""9"",""85678""
","""event"",""trial"",""time""
""blur"",""8"",""77797""
","""event"",""trial"",""time""
""focus"",""9"",""85678""
","""event"",""trial"",""time""
""fullscreenenter"",""0"",""5166""
","
","130.5999999642372","","","","","","","","49","0,1,0","6","blank","254","null","0.49872637105575934","0.1479509181665142","0.06694766348564475","0","","","","","","","","",""
"","html-keyboard-response","68","270212","0.0-43.0-1.0","""event"",""trial"",""time""
""fullscreenenter"",""0"",""5166""
""blur"",""8"",""77797""
""focus"",""9"",""85678""
","""event"",""trial"",""time""
""blur"",""8"",""77797""
","""event"",""trial"",""time""
""focus"",""9"",""85678""
","""event"",""trial"",""time""
""fullscreenenter"",""0"",""5166""
","
","null","<p></p>","null","","","","","","","","","","","","","","","","","","","","","","","",""
"","do_trial","69","273020","0.0-44.0-0.0","""event"",""trial"",""time""
""fullscreenenter"",""0"",""5166""
""blur"",""8"",""77797""
""focus"",""9"",""85678""
","""event"",""trial"",""time""
""blur"",""8"",""77797""
","""event"",""trial"",""time""
""focus"",""9"",""85678""
","""event"",""trial"",""time""
""fullscreenenter"",""0"",""5166""
","
","217.0999999642372","","","","","","","","50","1,1,0","6","blank","255","null","0.31572872788913253","0.2108073017643125","0.10304084317134464","1","","","","","","","","",""
"","html-keyboard-response","70","274021","0.0-44.0-1.0","""event"",""trial"",""time""
""fullscreenenter"",""0"",""5166""
""blur"",""8"",""77797""
""focus"",""9"",""85678""
","""event"",""trial"",""time""
""blur"",""8"",""77797""
","""event"",""trial"",""time""
""focus"",""9"",""85678""
","""event"",""trial"",""time""
""fullscreenenter"",""0"",""5166""
","
","null","<p></p>","null","","","","","","","","","","","","","","","","","","","","","","","",""
"","do_trial","71","276861","0.0-45.0-0.0","""event"",""trial"",""time""
""fullscreenenter"",""0"",""5166""
""blur"",""8"",""77797""
""focus"",""9"",""85678""
","""event"",""trial"",""time""
""blur"",""8"",""77797""
","""event"",""trial"",""time""
""focus"",""9"",""85678""
","""event"",""trial"",""time""
""fullscreenenter"",""0"",""5166""
","
","261.30000001192093","","","","","","","","51","1,0,0","6","blank","256","null","0.5278465659601385","0.21293067161947973","0.07468320432836749","0","","","","","","","","",""
"","html-keyboard-response","72","277864","0.0-45.0-1.0","""event"",""trial"",""time""
""fullscreenenter"",""0"",""5166""
""blur"",""8"",""77797""
""focus"",""9"",""85678""
","""event"",""trial"",""time""
""blur"",""8"",""77797""
","""event"",""trial"",""time""
""focus"",""9"",""85678""
","""event"",""trial"",""time""
""fullscreenenter"",""0"",""5166""
","
","null","<p></p>","null","","","","","","","","","","","","","","","","","","","","","","","",""
"","do_recog","73","281305","0.0-46.0-0.0","""event"",""trial"",""time""
""fullscreenenter"",""0"",""5166""
""blur"",""8"",""77797""
""focus"",""9"",""85678""
","""event"",""trial"",""time""
""blur"",""8"",""77797""
","""event"",""trial"",""time""
""focus"",""9"",""85678""
","""event"",""trial"",""time""
""fullscreenenter"",""0"",""5166""
","
","1929.5","","","","","","","","53","","","","257","probe-85","","","","","1","[object Object]","156","3","1","","","",""
"","html-keyboard-response","74","282307","0.0-46.0-1.0","""event"",""trial"",""time""
""fullscreenenter"",""0"",""5166""
""blur"",""8"",""77797""
""focus"",""9"",""85678""
","""event"",""trial"",""time""
""blur"",""8"",""77797""
","""event"",""trial"",""time""
""focus"",""9"",""85678""
","""event"",""trial"",""time""
""fullscreenenter"",""0"",""5166""
","
","null","<p></p>","null","","","","","","","","","","","","","","","","","","","","","","","",""
"","do_trial","75","285259","0.0-47.0-0.0","""event"",""trial"",""time""
""fullscreenenter"",""0"",""5166""
""blur"",""8"",""77797""
""focus"",""9"",""85678""
","""event"",""trial"",""time""
""blur"",""8"",""77797""
","""event"",""trial"",""time""
""focus"",""9"",""85678""
","""event"",""trial"",""time""
""fullscreenenter"",""0"",""5166""
","
","379","","","","","","","","49","0,0,1","6","blank","258","null","0.47717080115945776","0.17808170676005136","0.17185312116458673","0","","","","","","","","",""
"","html-keyboard-response","76","286261","0.0-47.0-1.0","""event"",""trial"",""time""
""fullscreenenter"",""0"",""5166""
""blur"",""8"",""77797""
""focus"",""9"",""85678""
","""event"",""trial"",""time""
""blur"",""8"",""77797""
","""event"",""trial"",""time""
""focus"",""9"",""85678""
","""event"",""trial"",""time""
""fullscreenenter"",""0"",""5166""
","
","null","<p></p>","null","","","","","","","","","","","","","","","","","","","","","","","",""
"","do_recog","77","289166","0.0-48.0-0.0","""event"",""trial"",""time""
""fullscreenenter"",""0"",""5166""
""blur"",""8"",""77797""
""focus"",""9"",""85678""
","""event"",""trial"",""time""
""blur"",""8"",""77797""
","""event"",""trial"",""time""
""focus"",""9"",""85678""
","""event"",""trial"",""time""
""fullscreenenter"",""0"",""5166""
","
","1393.5999999642372","","","","","","","","53","","","","259","probe-19","","","","","1","[object Object]","31","0","1","","","",""
"","html-keyboard-response","78","290168","0.0-48.0-1.0","""event"",""trial"",""time""
""fullscreenenter"",""0"",""5166""
""blur"",""8"",""77797""
""focus"",""9"",""85678""
","""event"",""trial"",""time""
""blur"",""8"",""77797""
","""event"",""trial"",""time""
""focus"",""9"",""85678""
","""event"",""trial"",""time""
""fullscreenenter"",""0"",""5166""
","
","null","<p></p>","null","","","","","","","","","","","","","","","","","","","","","","","",""
"","do_trial","79","293031","0.0-49.0-0.0","""event"",""trial"",""time""
""fullscreenenter"",""0"",""5166""
""blur"",""8"",""77797""
""focus"",""9"",""85678""
","""event"",""trial"",""time""
""blur"",""8"",""77797""
","""event"",""trial"",""time""
""focus"",""9"",""85678""
","""event"",""trial"",""time""
""fullscreenenter"",""0"",""5166""
","
","262.30000001192093","","","","","","","","50","0,0,1","6","blank","260","null","0.6002684315205185","0.2808081391015053","0.20677780928940742","0","","","","","","","","",""
"","html-keyboard-response","80","294033","0.0-49.0-1.0","""event"",""trial"",""time""
""fullscreenenter"",""0"",""5166""
""blur"",""8"",""77797""
""focus"",""9"",""85678""
","""event"",""trial"",""time""
""blur"",""8"",""77797""
","""event"",""trial"",""time""
""focus"",""9"",""85678""
","""event"",""trial"",""time""
""fullscreenenter"",""0"",""5166""
","
","null","<p></p>","null","","","","","","","","","","","","","","","","","","","","","","","",""
"","do_recog","81","296972","0.0-50.0-0.0","""event"",""trial"",""time""
""fullscreenenter"",""0"",""5166""
""blur"",""8"",""77797""
""focus"",""9"",""85678""
","""event"",""trial"",""time""
""blur"",""8"",""77797""
","""event"",""trial"",""time""
""focus"",""9"",""85678""
","""event"",""trial"",""time""
""fullscreenenter"",""0"",""5166""
","
","1431.5","","","","","","","","53","","","","261","probe-92","","","","","1","[object Object]","196","4","1","","","",""
"","html-keyboard-response","82","297974","0.0-50.0-1.0","""event"",""trial"",""time""
""fullscreenenter"",""0"",""5166""
""blur"",""8"",""77797""
""focus"",""9"",""85678""
","""event"",""trial"",""time""
""blur"",""8"",""77797""
","""event"",""trial"",""time""
""focus"",""9"",""85678""
","""event"",""trial"",""time""
""fullscreenenter"",""0"",""5166""
","
","null","<p></p>","null","","","","","","","","","","","","","","","","","","","","","","","",""
"","do_trial","83","301019","0.0-51.0-0.0","""event"",""trial"",""time""
""fullscreenenter"",""0"",""5166""
""blur"",""8"",""77797""
""focus"",""9"",""85678""
","""event"",""trial"",""time""
""blur"",""8"",""77797""
","""event"",""trial"",""time""
""focus"",""9"",""85678""
","""event"",""trial"",""time""
""fullscreenenter"",""0"",""5166""
","
","446.5","","","","","","","","51","0,0,0","6","blank","262","null","0.6610006130743704","0.23397799193525332","0.19206619994758975","0","","","","","","","","",""
"","html-keyboard-response","84","302021","0.0-51.0-1.0","""event"",""trial"",""time""
""fullscreenenter"",""0"",""5166""
""blur"",""8"",""77797""
""focus"",""9"",""85678""
","""event"",""trial"",""time""
""blur"",""8"",""77797""
","""event"",""trial"",""time""
""focus"",""9"",""85678""
","""event"",""trial"",""time""
""fullscreenenter"",""0"",""5166""
","
","null","<p></p>","null","","","","","","","","","","","","","","","","","","","","","","","",""
"","do_recog","85","305487","0.0-52.0-0.0","""event"",""trial"",""time""
""fullscreenenter"",""0"",""5166""
""blur"",""8"",""77797""
""focus"",""9"",""85678""
","""event"",""trial"",""time""
""blur"",""8"",""77797""
","""event"",""trial"",""time""
""focus"",""9"",""85678""
","""event"",""trial"",""time""
""fullscreenenter"",""0"",""5166""
","
","1953","","","","","","","","53","","","","263","probe-225","","","","","1","[object Object]","76","1","1","","","",""
"","html-keyboard-response","86","306490","0.0-52.0-1.0","""event"",""trial"",""time""
""fullscreenenter"",""0"",""5166""
""blur"",""8"",""77797""
""focus"",""9"",""85678""
","""event"",""trial"",""time""
""blur"",""8"",""77797""
","""event"",""trial"",""time""
""focus"",""9"",""85678""
","""event"",""trial"",""time""
""fullscreenenter"",""0"",""5166""
","
","null","<p></p>","null","","","","","","","","","","","","","","","","","","","","","","","",""
"","do_trial","87","309367","0.0-53.0-0.0","""event"",""trial"",""time""
""fullscreenenter"",""0"",""5166""
""blur"",""8"",""77797""
""focus"",""9"",""85678""
","""event"",""trial"",""time""
""blur"",""8"",""77797""
","""event"",""trial"",""time""
""focus"",""9"",""85678""
","""event"",""trial"",""time""
""fullscreenenter"",""0"",""5166""
","
","262.5","","","","","","","","49","1,1,0","6","blank","264","null","0.594272732612361","0.3050376178033822","0.13953113448652796","1","","","","","","","","",""
"","html-keyboard-response","88","310370","0.0-53.0-1.0","""event"",""trial"",""time""
""fullscreenenter"",""0"",""5166""
""blur"",""8"",""77797""
""focus"",""9"",""85678""
","""event"",""trial"",""time""
""blur"",""8"",""77797""
","""event"",""trial"",""time""
""focus"",""9"",""85678""
","""event"",""trial"",""time""
""fullscreenenter"",""0"",""5166""
","
","null","<p></p>","null","","","","","","","","","","","","","","","","","","","","","","","",""
"","do_recog","89","313504","0.0-54.0-0.0","""event"",""trial"",""time""
""fullscreenenter"",""0"",""5166""
""blur"",""8"",""77797""
""focus"",""9"",""85678""
","""event"",""trial"",""time""
""blur"",""8"",""77797""
","""event"",""trial"",""time""
""focus"",""9"",""85678""
","""event"",""trial"",""time""
""fullscreenenter"",""0"",""5166""
","
","1620.9000000357628","","","","","","","","53","","","","265","probe-80","","","","","1","[object Object]","159","3","1","","","",""
"","html-keyboard-response","90","314506","0.0-54.0-1.0","""event"",""trial"",""time""
""fullscreenenter"",""0"",""5166""
""blur"",""8"",""77797""
""focus"",""9"",""85678""
","""event"",""trial"",""time""
""blur"",""8"",""77797""
","""event"",""trial"",""time""
""focus"",""9"",""85678""
","""event"",""trial"",""time""
""fullscreenenter"",""0"",""5166""
","
","null","<p></p>","null","","","","","","","","","","","","","","","","","","","","","","","",""
"","do_trial","91","317338","0.0-55.0-0.0","""event"",""trial"",""time""
""fullscreenenter"",""0"",""5166""
""blur"",""8"",""77797""
""focus"",""9"",""85678""
","""event"",""trial"",""time""
""blur"",""8"",""77797""
","""event"",""trial"",""time""
""focus"",""9"",""85678""
","""event"",""trial"",""time""
""fullscreenenter"",""0"",""5166""
","
","263.5","","","","","","","","50","0,0,0","6","blank","266","null","0.6163742836747411","0.14365828025147034","0.09628457141730856","0","","","","","","","","",""
"","html-keyboard-response","92","318341","0.0-55.0-1.0","""event"",""trial"",""time""
""fullscreenenter"",""0"",""5166""
""blur"",""8"",""77797""
""focus"",""9"",""85678""
","""event"",""trial"",""time""
""blur"",""8"",""77797""
","""event"",""trial"",""time""
""focus"",""9"",""85678""
","""event"",""trial"",""time""
""fullscreenenter"",""0"",""5166""
","
","null","<p></p>","null","","","","","","","","","","","","","","","","","","","","","","","",""
"","do_trial","93","321104","0.0-56.0-0.0","""event"",""trial"",""time""
""fullscreenenter"",""0"",""5166""
""blur"",""8"",""77797""
""focus"",""9"",""85678""
","""event"",""trial"",""time""
""blur"",""8"",""77797""
","""event"",""trial"",""time""
""focus"",""9"",""85678""
","""event"",""trial"",""time""
""fullscreenenter"",""0"",""5166""
","
","169.30000001192093","","","","","","","","51","0,1,0","6","blank","267","null","0.5842810449596813","0.459956248274284","0.06289774339655185","0","","","","","","","","",""
"","html-keyboard-response","94","322106","0.0-56.0-1.0","""event"",""trial"",""time""
""fullscreenenter"",""0"",""5166""
""blur"",""8"",""77797""
""focus"",""9"",""85678""
","""event"",""trial"",""time""
""blur"",""8"",""77797""
","""event"",""trial"",""time""
""focus"",""9"",""85678""
","""event"",""trial"",""time""
""fullscreenenter"",""0"",""5166""
","
","null","<p></p>","null","","","","","","","","","","","","","","","","","","","","","","","",""
"","do_recog","95","324931","0.0-57.0-0.0","""event"",""trial"",""time""
""fullscreenenter"",""0"",""5166""
""blur"",""8"",""77797""
""focus"",""9"",""85678""
","""event"",""trial"",""time""
""blur"",""8"",""77797""
","""event"",""trial"",""time""
""focus"",""9"",""85678""
","""event"",""trial"",""time""
""fullscreenenter"",""0"",""5166""
","
","1313.4000000357628","","","","","","","","53","","","","268","probe-130","","","","","1","[object Object]","197","4","1","","","",""
"","html-keyboard-response","96","325934","0.0-57.0-1.0","""event"",""trial"",""time""
""fullscreenenter"",""0"",""5166""
""blur"",""8"",""77797""
""focus"",""9"",""85678""
","""event"",""trial"",""time""
""blur"",""8"",""77797""
","""event"",""trial"",""time""
""focus"",""9"",""85678""
","""event"",""trial"",""time""
""fullscreenenter"",""0"",""5166""
","
","null","<p></p>","null","","","","","","","","","","","","","","","","","","","","","","","",""
"","break","97","402490","0.0-58.0-0.0","""event"",""trial"",""time""
""fullscreenenter"",""0"",""5166""
""blur"",""8"",""77797""
""focus"",""9"",""85678""
","""event"",""trial"",""time""
""blur"",""8"",""77797""
","""event"",""trial"",""time""
""focus"",""9"",""85678""
","""event"",""trial"",""time""
""fullscreenenter"",""0"",""5166""
","
","76553.79999995232","<div class='center'><p>Time to take a quick break! You have 2 minutes to rest, but you can move on sooner if you'd like.</p><p> Press the <b>space bar</b> to continue.</p></div>","32","","","","","","","","","","","","","","","","","","","","","","","",""
"","do_trial","98","406030","0.0-58.0-1.0","""event"",""trial"",""time""
""fullscreenenter"",""0"",""5166""
""blur"",""8"",""77797""
""focus"",""9"",""85678""
","""event"",""trial"",""time""
""blur"",""8"",""77797""
","""event"",""trial"",""time""
""focus"",""9"",""85678""
","""event"",""trial"",""time""
""fullscreenenter"",""0"",""5166""
","
","961.8000000119209","","","","","","","","49","0,1,0","6","blank","269","null","0.6758269498601804","0.5004263156992232","0.08162820047210811","0","","","","","","","","",""
"","html-keyboard-response","99","407033","0.0-58.0-2.0","""event"",""trial"",""time""
""fullscreenenter"",""0"",""5166""
""blur"",""8"",""77797""
""focus"",""9"",""85678""
","""event"",""trial"",""time""
""blur"",""8"",""77797""
","""event"",""trial"",""time""
""focus"",""9"",""85678""
","""event"",""trial"",""time""
""fullscreenenter"",""0"",""5166""
","
","null","<p></p>","null","","","","","","","","","","","","","","","","","","","","","","","",""
"","do_trial","100","409932","0.0-59.0-0.0","""event"",""trial"",""time""
""fullscreenenter"",""0"",""5166""
""blur"",""8"",""77797""
""focus"",""9"",""85678""
","""event"",""trial"",""time""
""blur"",""8"",""77797""
","""event"",""trial"",""time""
""focus"",""9"",""85678""
","""event"",""trial"",""time""
""fullscreenenter"",""0"",""5166""
","
","333.89999997615814","","","","","","","","50","0,1,0","6","blank","270","null","0.7067612142144364","0.44767154457807307","0.0774853499849948","1","","","","","","","","",""
"","html-keyboard-response","101","410935","0.0-59.0-1.0","""event"",""trial"",""time""
""fullscreenenter"",""0"",""5166""
""blur"",""8"",""77797""
""focus"",""9"",""85678""
","""event"",""trial"",""time""
""blur"",""8"",""77797""
","""event"",""trial"",""time""
""focus"",""9"",""85678""
","""event"",""trial"",""time""
""fullscreenenter"",""0"",""5166""
","
","null","<p></p>","null","","","","","","","","","","","","","","","","","","","","","","","",""
"","do_trial","102","413705","0.0-60.0-0.0","""event"",""trial"",""time""
""fullscreenenter"",""0"",""5166""
""blur"",""8"",""77797""
""focus"",""9"",""85678""
","""event"",""trial"",""time""
""blur"",""8"",""77797""
","""event"",""trial"",""time""
""focus"",""9"",""85678""
","""event"",""trial"",""time""
""fullscreenenter"",""0"",""5166""
","
","209.0999999642372","","","","","","","","51","1,1,1","6","blank","271","null","0.514898442629058","0.44972592776862413","0.07175915479761329","1","","","","","","","","",""
"","html-keyboard-response","103","414708","0.0-60.0-1.0","""event"",""trial"",""time""
""fullscreenenter"",""0"",""5166""
""blur"",""8"",""77797""
""focus"",""9"",""85678""
","""event"",""trial"",""time""
""blur"",""8"",""77797""
","""event"",""trial"",""time""
""focus"",""9"",""85678""
","""event"",""trial"",""time""
""fullscreenenter"",""0"",""5166""
","
","null","<p></p>","null","","","","","","","","","","","","","","","","","","","","","","","",""
"","do_trial","104","417493","0.0-61.0-0.0","""event"",""trial"",""time""
""fullscreenenter"",""0"",""5166""
""blur"",""8"",""77797""
""focus"",""9"",""85678""
","""event"",""trial"",""time""
""blur"",""8"",""77797""
","""event"",""trial"",""time""
""focus"",""9"",""85678""
","""event"",""trial"",""time""
""fullscreenenter"",""0"",""5166""
","
","197.30000001192093","","","","","","","","49","1,0,0","6","blank","272","null","0.46564266430976486","0.26508139728075564","0.09291304848787162","1","","","","","","","","",""
"","html-keyboard-response","105","418495","0.0-61.0-1.0","""event"",""trial"",""time""
""fullscreenenter"",""0"",""5166""
""blur"",""8"",""77797""
""focus"",""9"",""85678""
","""event"",""trial"",""time""
""blur"",""8"",""77797""
","""event"",""trial"",""time""
""focus"",""9"",""85678""
","""event"",""trial"",""time""
""fullscreenenter"",""0"",""5166""
","
","null","<p></p>","null","","","","","","","","","","","","","","","","","","","","","","","",""
"","do_trial","106","421256","0.0-62.0-0.0","""event"",""trial"",""time""
""fullscreenenter"",""0"",""5166""
""blur"",""8"",""77797""
""focus"",""9"",""85678""
","""event"",""trial"",""time""
""blur"",""8"",""77797""
","""event"",""trial"",""time""
""focus"",""9"",""85678""
","""event"",""trial"",""time""
""fullscreenenter"",""0"",""5166""
","
","226.79999995231628","","","","","","","","50","1,1,0","6","blank","273","null","0.6568015392750891","0.21999326570878655","0.0759978121886706","1","","","","","","","","",""
"","html-keyboard-response","107","422259","0.0-62.0-1.0","""event"",""trial"",""time""
""fullscreenenter"",""0"",""5166""
""blur"",""8"",""77797""
""focus"",""9"",""85678""
","""event"",""trial"",""time""
""blur"",""8"",""77797""
","""event"",""trial"",""time""
""focus"",""9"",""85678""
","""event"",""trial"",""time""
""fullscreenenter"",""0"",""5166""
","
","null","<p></p>","null","","","","","","","","","","","","","","","","","","","","","","","",""
"","do_recog","108","425771","0.0-63.0-0.0","""event"",""trial"",""time""
""fullscreenenter"",""0"",""5166""
""blur"",""8"",""77797""
""focus"",""9"",""85678""
","""event"",""trial"",""time""
""blur"",""8"",""77797""
","""event"",""trial"",""time""
""focus"",""9"",""85678""
","""event"",""trial"",""time""
""fullscreenenter"",""0"",""5166""
","
","1998.8999999761581","","","","","","","","55","","","","274","probe-59","","","","","1","[object Object]","30","0","0","","","",""
"","html-keyboard-response","109","426775","0.0-63.0-1.0","""event"",""trial"",""time""
""fullscreenenter"",""0"",""5166""
""blur"",""8"",""77797""
""focus"",""9"",""85678""
","""event"",""trial"",""time""
""blur"",""8"",""77797""
","""event"",""trial"",""time""
""focus"",""9"",""85678""
","""event"",""trial"",""time""
""fullscreenenter"",""0"",""5166""
","
","null","<p></p>","null","","","","","","","","","","","","","","","","","","","","","","","",""
"","do_trial","110","429919","0.0-64.0-0.0","""event"",""trial"",""time""
""fullscreenenter"",""0"",""5166""
""blur"",""8"",""77797""
""focus"",""9"",""85678""
","""event"",""trial"",""time""
""blur"",""8"",""77797""
","""event"",""trial"",""time""
""focus"",""9"",""85678""
","""event"",""trial"",""time""
""fullscreenenter"",""0"",""5166""
","
","548.9000000357628","","","","","","","","51","0,0,0","6","blank","275","null","0.5805764023542049","0.1395672395450846","0.07522179977796442","0","","","","","","","","",""
"","html-keyboard-response","111","430921","0.0-64.0-1.0","""event"",""trial"",""time""
""fullscreenenter"",""0"",""5166""
""blur"",""8"",""77797""
""focus"",""9"",""85678""
","""event"",""trial"",""time""
""blur"",""8"",""77797""
","""event"",""trial"",""time""
""focus"",""9"",""85678""
","""event"",""trial"",""time""
""fullscreenenter"",""0"",""5166""
","
","null","<p></p>","null","","","","","","","","","","","","","","","","","","","","","","","",""
"","do_trial","112","433715","0.0-65.0-0.0","""event"",""trial"",""time""
""fullscreenenter"",""0"",""5166""
""blur"",""8"",""77797""
""focus"",""9"",""85678""
","""event"",""trial"",""time""
""blur"",""8"",""77797""
","""event"",""trial"",""time""
""focus"",""9"",""85678""
","""event"",""trial"",""time""
""fullscreenenter"",""0"",""5166""
","
","216.39999997615814","","","","","","","","49","0,0,0","6","blank","276","null","0.6122906618548491","0.26249253527469096","0.0650862235859116","0","","","","","","","","",""
"","html-keyboard-response","113","434717","0.0-65.0-1.0","""event"",""trial"",""time""
""fullscreenenter"",""0"",""5166""
""blur"",""8"",""77797""
""focus"",""9"",""85678""
","""event"",""trial"",""time""
""blur"",""8"",""77797""
","""event"",""trial"",""time""
""focus"",""9"",""85678""
","""event"",""trial"",""time""
""fullscreenenter"",""0"",""5166""
","
","null","<p></p>","null","","","","","","","","","","","","","","","","","","","","","","","",""
"","do_trial","114","437614","0.0-66.0-0.0","""event"",""trial"",""time""
""fullscreenenter"",""0"",""5166""
""blur"",""8"",""77797""
""focus"",""9"",""85678""
","""event"",""trial"",""time""
""blur"",""8"",""77797""
","""event"",""trial"",""time""
""focus"",""9"",""85678""
","""event"",""trial"",""time""
""fullscreenenter"",""0"",""5166""
","
","333.10000002384186","","","","","","","","50","0,1,0","6","blank","277","null","0.4973973512823049","0.31865776457684764","0.19633013827130633","1","","","","","","","","",""
"","html-keyboard-response","115","438617","0.0-66.0-1.0","""event"",""trial"",""time""
""fullscreenenter"",""0"",""5166""
""blur"",""8"",""77797""
""focus"",""9"",""85678""
","""event"",""trial"",""time""
""blur"",""8"",""77797""
","""event"",""trial"",""time""
""focus"",""9"",""85678""
","""event"",""trial"",""time""
""fullscreenenter"",""0"",""5166""
","
","null","<p></p>","null","","","","","","","","","","","","","","","","","","","","","","","",""
"","do_trial","116","441394","0.0-67.0-0.0","""event"",""trial"",""time""
""fullscreenenter"",""0"",""5166""
""blur"",""8"",""77797""
""focus"",""9"",""85678""
","""event"",""trial"",""time""
""blur"",""8"",""77797""
","""event"",""trial"",""time""
""focus"",""9"",""85678""
","""event"",""trial"",""time""
""fullscreenenter"",""0"",""5166""
","
","201.30000001192093","","","","","","","","51","0,1,0","6","blank","278","null","0.40167488831312603","0.3931904204381423","0.1765812514145165","0","","","","","","","","",""
"","html-keyboard-response","117","442397","0.0-67.0-1.0","""event"",""trial"",""time""
""fullscreenenter"",""0"",""5166""
""blur"",""8"",""77797""
""focus"",""9"",""85678""
","""event"",""trial"",""time""
""blur"",""8"",""77797""
","""event"",""trial"",""time""
""focus"",""9"",""85678""
","""event"",""trial"",""time""
""fullscreenenter"",""0"",""5166""
","
","null","<p></p>","null","","","","","","","","","","","","","","","","","","","","","","","",""
"","do_trial","118","445040","0.0-68.0-0.0","""event"",""trial"",""time""
""fullscreenenter"",""0"",""5166""
""blur"",""8"",""77797""
""focus"",""9"",""85678""
","""event"",""trial"",""time""
""blur"",""8"",""77797""
","""event"",""trial"",""time""
""focus"",""9"",""85678""
","""event"",""trial"",""time""
""fullscreenenter"",""0"",""5166""
","
","42.60000002384186","","","","","","","","49","1,0,1","6","blank","279","null","0.5028072530995017","0.34618730897967026","0.19323963231649902","1","","","","","","","","",""
"","html-keyboard-response","119","446044","0.0-68.0-1.0","""event"",""trial"",""time""
""fullscreenenter"",""0"",""5166""
""blur"",""8"",""77797""
""focus"",""9"",""85678""
","""event"",""trial"",""time""
""blur"",""8"",""77797""
","""event"",""trial"",""time""
""focus"",""9"",""85678""
","""event"",""trial"",""time""
""fullscreenenter"",""0"",""5166""
","
","null","<p></p>","null","","","","","","","","","","","","","","","","","","","","","","","",""
"","do_trial","120","449324","0.0-69.0-0.0","""event"",""trial"",""time""
""fullscreenenter"",""0"",""5166""
""blur"",""8"",""77797""
""focus"",""9"",""85678""
","""event"",""trial"",""time""
""blur"",""8"",""77797""
","""event"",""trial"",""time""
""focus"",""9"",""85678""
","""event"",""trial"",""time""
""fullscreenenter"",""0"",""5166""
","
","705.1000000238419","","","","","","","","50","1,1,0","6","blank","280","null","0.654543488132299","0.44012720653651893","0.08826874107001267","1","","","","","","","","",""
"","html-keyboard-response","121","450326","0.0-69.0-1.0","""event"",""trial"",""time""
""fullscreenenter"",""0"",""5166""
""blur"",""8"",""77797""
""focus"",""9"",""85678""
","""event"",""trial"",""time""
""blur"",""8"",""77797""
","""event"",""trial"",""time""
""focus"",""9"",""85678""
","""event"",""trial"",""time""
""fullscreenenter"",""0"",""5166""
","
","null","<p></p>","null","","","","","","","","","","","","","","","","","","","","","","","",""
"","do_recog","122","453412","0.0-70.0-0.0","""event"",""trial"",""time""
""fullscreenenter"",""0"",""5166""
""blur"",""8"",""77797""
""focus"",""9"",""85678""
","""event"",""trial"",""time""
""blur"",""8"",""77797""
","""event"",""trial"",""time""
""focus"",""9"",""85678""
","""event"",""trial"",""time""
""fullscreenenter"",""0"",""5166""
","
","1575.300000011921","","","","","","","","53","","","","281","probe-28","","","","","1","[object Object]","151","3","1","","","",""
"","html-keyboard-response","123","454415","0.0-70.0-1.0","""event"",""trial"",""time""
""fullscreenenter"",""0"",""5166""
""blur"",""8"",""77797""
""focus"",""9"",""85678""
","""event"",""trial"",""time""
""blur"",""8"",""77797""
","""event"",""trial"",""time""
""focus"",""9"",""85678""
","""event"",""trial"",""time""
""fullscreenenter"",""0"",""5166""
","
","null","<p></p>","null","","","","","","","","","","","","","","","","","","","","","","","",""
"","do_trial","124","457038","0.0-71.0-0.0","""event"",""trial"",""time""
""fullscreenenter"",""0"",""5166""
""blur"",""8"",""77797""
""focus"",""9"",""85678""
","""event"",""trial"",""time""
""blur"",""8"",""77797""
","""event"",""trial"",""time""
""focus"",""9"",""85678""
","""event"",""trial"",""time""
""fullscreenenter"",""0"",""5166""
","
","0.30000001192092896","","","","","","","","51","1,0,0","6","blank","282","null","0.5992345625914619","0.5062577522548953","0.05051046909817847","0","","","","","","","","",""
"","html-keyboard-response","125","458041","0.0-71.0-1.0","""event"",""trial"",""time""
""fullscreenenter"",""0"",""5166""
""blur"",""8"",""77797""
""focus"",""9"",""85678""
","""event"",""trial"",""time""
""blur"",""8"",""77797""
","""event"",""trial"",""time""
""focus"",""9"",""85678""
","""event"",""trial"",""time""
""fullscreenenter"",""0"",""5166""
","
","null","<p></p>","null","","","","","","","","","","","","","","","","","","","","","","","",""
"","do_trial","126","461016","0.0-72.0-0.0","""event"",""trial"",""time""
""fullscreenenter"",""0"",""5166""
""blur"",""8"",""77797""
""focus"",""9"",""85678""
","""event"",""trial"",""time""
""blur"",""8"",""77797""
","""event"",""trial"",""time""
""focus"",""9"",""85678""
","""event"",""trial"",""time""
""fullscreenenter"",""0"",""5166""
","
","391","","","","","","","","49","1,0,0","6","blank","283","null","0.6964698519984844","0.42345138628419676","0.11775099123489169","1","","","","","","","","",""
"","html-keyboard-response","127","462018","0.0-72.0-1.0","""event"",""trial"",""time""
""fullscreenenter"",""0"",""5166""
""blur"",""8"",""77797""
""focus"",""9"",""85678""
","""event"",""trial"",""time""
""blur"",""8"",""77797""
","""event"",""trial"",""time""
""focus"",""9"",""85678""
","""event"",""trial"",""time""
""fullscreenenter"",""0"",""5166""
","
","null","<p></p>","null","","","","","","","","","","","","","","","","","","","","","","","",""
"","do_trial","128","464797","0.0-73.0-0.0","""event"",""trial"",""time""
""fullscreenenter"",""0"",""5166""
""blur"",""8"",""77797""
""focus"",""9"",""85678""
","""event"",""trial"",""time""
""blur"",""8"",""77797""
","""event"",""trial"",""time""
""focus"",""9"",""85678""
","""event"",""trial"",""time""
""fullscreenenter"",""0"",""5166""
","
","188","","","","","","","","50","0,1,0","6","blank","284","null","0.521669610654941","0.45552635321044405","0.15002482805064413","1","","","","","","","","",""
"","html-keyboard-response","129","465802","0.0-73.0-1.0","""event"",""trial"",""time""
""fullscreenenter"",""0"",""5166""
""blur"",""8"",""77797""
""focus"",""9"",""85678""
","""event"",""trial"",""time""
""blur"",""8"",""77797""
","""event"",""trial"",""time""
""focus"",""9"",""85678""
","""event"",""trial"",""time""
""fullscreenenter"",""0"",""5166""
","
","null","<p></p>","null","","","","","","","","","","","","","","","","","","","","","","","",""
"","do_trial","130","469177","0.0-74.0-0.0","""event"",""trial"",""time""
""fullscreenenter"",""0"",""5166""
""blur"",""8"",""77797""
""focus"",""9"",""85678""
","""event"",""trial"",""time""
""blur"",""8"",""77797""
","""event"",""trial"",""time""
""focus"",""9"",""85678""
","""event"",""trial"",""time""
""fullscreenenter"",""0"",""5166""
","
","810.6000000238419","","","","","","","","51","1,1,0","6","blank","285","null","0.5467902070590228","0.5371857683229867","0.10057754997809053","0","","","","","","","","",""
"","html-keyboard-response","131","470179","0.0-74.0-1.0","""event"",""trial"",""time""
""fullscreenenter"",""0"",""5166""
""blur"",""8"",""77797""
""focus"",""9"",""85678""
","""event"",""trial"",""time""
""blur"",""8"",""77797""
","""event"",""trial"",""time""
""focus"",""9"",""85678""
","""event"",""trial"",""time""
""fullscreenenter"",""0"",""5166""
","
","null","<p></p>","null","","","","","","","","","","","","","","","","","","","","","","","",""
"","do_trial","132","473034","0.0-75.0-0.0","""event"",""trial"",""time""
""fullscreenenter"",""0"",""5166""
""blur"",""8"",""77797""
""focus"",""9"",""85678""
","""event"",""trial"",""time""
""blur"",""8"",""77797""
","""event"",""trial"",""time""
""focus"",""9"",""85678""
","""event"",""trial"",""time""
""fullscreenenter"",""0"",""5166""
","
","280","","","","","","","","49","0,1,1","6","blank","286","null","0.4638790674762687","0.43104983749433784","0.13376374228192597","0","","","","","","","","",""
"","html-keyboard-response","133","474037","0.0-75.0-1.0","""event"",""trial"",""time""
""fullscreenenter"",""0"",""5166""
""blur"",""8"",""77797""
""focus"",""9"",""85678""
","""event"",""trial"",""time""
""blur"",""8"",""77797""
","""event"",""trial"",""time""
""focus"",""9"",""85678""
","""event"",""trial"",""time""
""fullscreenenter"",""0"",""5166""
","
","null","<p></p>","null","","","","","","","","","","","","","","","","","","","","","","","",""
"","do_trial","134","476721","0.0-76.0-0.0","""event"",""trial"",""time""
""fullscreenenter"",""0"",""5166""
""blur"",""8"",""77797""
""focus"",""9"",""85678""
","""event"",""trial"",""time""
""blur"",""8"",""77797""
","""event"",""trial"",""time""
""focus"",""9"",""85678""
","""event"",""trial"",""time""
""fullscreenenter"",""0"",""5166""
","
","105.39999997615814","","","","","","","","50","0,1,0","6","blank","287","null","0.5966550609124026","0.3881634466884862","0.10733301841637007","1","","","","","","","","",""
"","html-keyboard-response","135","477723","0.0-76.0-1.0","""event"",""trial"",""time""
""fullscreenenter"",""0"",""5166""
""blur"",""8"",""77797""
""focus"",""9"",""85678""
","""event"",""trial"",""time""
""blur"",""8"",""77797""
","""event"",""trial"",""time""
""focus"",""9"",""85678""
","""event"",""trial"",""time""
""fullscreenenter"",""0"",""5166""
","
","null","<p></p>","null","","","","","","","","","","","","","","","","","","","","","","","",""
"","do_trial","136","480588","0.0-77.0-0.0","""event"",""trial"",""time""
""fullscreenenter"",""0"",""5166""
""blur"",""8"",""77797""
""focus"",""9"",""85678""
","""event"",""trial"",""time""
""blur"",""8"",""77797""
","""event"",""trial"",""time""
""focus"",""9"",""85678""
","""event"",""trial"",""time""
""fullscreenenter"",""0"",""5166""
","
","266","","","","","","","","51","0,0,0","6","blank","288","null","0.5801077855253096","0.3916879288292603","0.11363473028670448","0","","","","","","","","",""
"","html-keyboard-response","137","481590","0.0-77.0-1.0","""event"",""trial"",""time""
""fullscreenenter"",""0"",""5166""
""blur"",""8"",""77797""
""focus"",""9"",""85678""
","""event"",""trial"",""time""
""blur"",""8"",""77797""
","""event"",""trial"",""time""
""focus"",""9"",""85678""
","""event"",""trial"",""time""
""fullscreenenter"",""0"",""5166""
","
","null","<p></p>","null","","","","","","","","","","","","","","","","","","","","","","","",""
"","do_recog","138","484472","0.0-78.0-0.0","""event"",""trial"",""time""
""fullscreenenter"",""0"",""5166""
""blur"",""8"",""77797""
""focus"",""9"",""85678""
","""event"",""trial"",""time""
""blur"",""8"",""77797""
","""event"",""trial"",""time""
""focus"",""9"",""85678""
","""event"",""trial"",""time""
""fullscreenenter"",""0"",""5166""
","
","1371.300000011921","","","","","","","","53","","","","289","probe-164","","","","","1","[object Object]","32","0","1","","","",""
"","html-keyboard-response","139","485474","0.0-78.0-1.0","""event"",""trial"",""time""
""fullscreenenter"",""0"",""5166""
""blur"",""8"",""77797""
""focus"",""9"",""85678""
","""event"",""trial"",""time""
""blur"",""8"",""77797""
","""event"",""trial"",""time""
""focus"",""9"",""85678""
","""event"",""trial"",""time""
""fullscreenenter"",""0"",""5166""
","
","null","<p></p>","null","","","","","","","","","","","","","","","","","","","","","","","",""
"","do_trial","140","488332","0.0-79.0-0.0","""event"",""trial"",""time""
""fullscreenenter"",""0"",""5166""
""blur"",""8"",""77797""
""focus"",""9"",""85678""
","""event"",""trial"",""time""
""blur"",""8"",""77797""
","""event"",""trial"",""time""
""focus"",""9"",""85678""
","""event"",""trial"",""time""
""fullscreenenter"",""0"",""5166""
","
","257.19999998807907","","","","","","","","49","1,1,0","6","blank","290","null","0.5446881040364636","0.35471061242030616","0.07519691493209","1","","","","","","","","",""
"","html-keyboard-response","141","489334","0.0-79.0-1.0","""event"",""trial"",""time""
""fullscreenenter"",""0"",""5166""
""blur"",""8"",""77797""
""focus"",""9"",""85678""
","""event"",""trial"",""time""
""blur"",""8"",""77797""
","""event"",""trial"",""time""
""focus"",""9"",""85678""
","""event"",""trial"",""time""
""fullscreenenter"",""0"",""5166""
","
","null","<p></p>","null","","","","","","","","","","","","","","","","","","","","","","","",""
"","do_trial","142","492179","0.0-80.0-0.0","""event"",""trial"",""time""
""fullscreenenter"",""0"",""5166""
""blur"",""8"",""77797""
""focus"",""9"",""85678""
","""event"",""trial"",""time""
""blur"",""8"",""77797""
","""event"",""trial"",""time""
""focus"",""9"",""85678""
","""event"",""trial"",""time""
""fullscreenenter"",""0"",""5166""
","
","285","","","","","","","","50","1,0,0","6","blank","291","null","0.49550602365004737","0.2147309271765885","0.09041577112252024","0","","","","","","","","",""
"","html-keyboard-response","143","493181","0.0-80.0-1.0","""event"",""trial"",""time""
""fullscreenenter"",""0"",""5166""
""blur"",""8"",""77797""
""focus"",""9"",""85678""
","""event"",""trial"",""time""
""blur"",""8"",""77797""
","""event"",""trial"",""time""
""focus"",""9"",""85678""
","""event"",""trial"",""time""
""fullscreenenter"",""0"",""5166""
","
","null","<p></p>","null","","","","","","","","","","","","","","","","","","","","","","","",""
"","do_trial","144","496063","0.0-81.0-0.0","""event"",""trial"",""time""
""fullscreenenter"",""0"",""5166""
""blur"",""8"",""77797""
""focus"",""9"",""85678""
","""event"",""trial"",""time""
""blur"",""8"",""77797""
","""event"",""trial"",""time""
""focus"",""9"",""85678""
","""event"",""trial"",""time""
""fullscreenenter"",""0"",""5166""
","
","276.89999997615814","","","","","","","","51","0,0,0","6","blank","292","null","0.522003168560743","0.1911869900993195","0.06351805829462294","0","","","","","","","","",""
"","html-keyboard-response","145","497065","0.0-81.0-1.0","""event"",""trial"",""time""
""fullscreenenter"",""0"",""5166""
""blur"",""8"",""77797""
""focus"",""9"",""85678""
","""event"",""trial"",""time""
""blur"",""8"",""77797""
","""event"",""trial"",""time""
""focus"",""9"",""85678""
","""event"",""trial"",""time""
""fullscreenenter"",""0"",""5166""
","
","null","<p></p>","null","","","","","","","","","","","","","","","","","","","","","","","",""
"","do_trial","146","499994","0.0-82.0-0.0","""event"",""trial"",""time""
""fullscreenenter"",""0"",""5166""
""blur"",""8"",""77797""
""focus"",""9"",""85678""
","""event"",""trial"",""time""
""blur"",""8"",""77797""
","""event"",""trial"",""time""
""focus"",""9"",""85678""
","""event"",""trial"",""time""
""fullscreenenter"",""0"",""5166""
","
","363.10000002384186","","","","","","","","49","1,1,0","6","blank","293","null","0.45177404120139153","0.17475003423107996","0.0750079950109116","1","","","","","","","","",""
"","html-keyboard-response","147","500996","0.0-82.0-1.0","""event"",""trial"",""time""
""fullscreenenter"",""0"",""5166""
""blur"",""8"",""77797""
""focus"",""9"",""85678""
","""event"",""trial"",""time""
""blur"",""8"",""77797""
","""event"",""trial"",""time""
""focus"",""9"",""85678""
","""event"",""trial"",""time""
""fullscreenenter"",""0"",""5166""
","
","null","<p></p>","null","","","","","","","","","","","","","","","","","","","","","","","",""
"","do_recog","148","503992","0.0-83.0-0.0","""event"",""trial"",""time""
""fullscreenenter"",""0"",""5166""
""blur"",""8"",""77797""
""focus"",""9"",""85678""
","""event"",""trial"",""time""
""blur"",""8"",""77797""
","""event"",""trial"",""time""
""focus"",""9"",""85678""
","""event"",""trial"",""time""
""fullscreenenter"",""0"",""5166""
","
","1478.800000011921","","","","","","","","53","","","","294","probe-11","","","","","1","[object Object]","38","0","1","","","",""
"","html-keyboard-response","149","504995","0.0-83.0-1.0","""event"",""trial"",""time""
""fullscreenenter"",""0"",""5166""
""blur"",""8"",""77797""
""focus"",""9"",""85678""
","""event"",""trial"",""time""
""blur"",""8"",""77797""
","""event"",""trial"",""time""
""focus"",""9"",""85678""
","""event"",""trial"",""time""
""fullscreenenter"",""0"",""5166""
","
","null","<p></p>","null","","","","","","","","","","","","","","","","","","","","","","","",""
"","do_trial","150","507842","0.0-84.0-0.0","""event"",""trial"",""time""
""fullscreenenter"",""0"",""5166""
""blur"",""8"",""77797""
""focus"",""9"",""85678""
","""event"",""trial"",""time""
""blur"",""8"",""77797""
","""event"",""trial"",""time""
""focus"",""9"",""85678""
","""event"",""trial"",""time""
""fullscreenenter"",""0"",""5166""
","
","294.5","","","","","","","","50","1,0,1","6","blank","295","null","0.21536432012167284","0.14699874094797108","0.26639083785880735","0","","","","","","","","",""
"","html-keyboard-response","151","508845","0.0-84.0-1.0","""event"",""trial"",""time""
""fullscreenenter"",""0"",""5166""
""blur"",""8"",""77797""
""focus"",""9"",""85678""
","""event"",""trial"",""time""
""blur"",""8"",""77797""
","""event"",""trial"",""time""
""focus"",""9"",""85678""
","""event"",""trial"",""time""
""fullscreenenter"",""0"",""5166""
","
","null","<p></p>","null","","","","","","","","","","","","","","","","","","","","","","","",""
"","do_trial","152","511557","0.0-85.0-0.0","""event"",""trial"",""time""
""fullscreenenter"",""0"",""5166""
""blur"",""8"",""77797""
""focus"",""9"",""85678""
","""event"",""trial"",""time""
""blur"",""8"",""77797""
","""event"",""trial"",""time""
""focus"",""9"",""85678""
","""event"",""trial"",""time""
""fullscreenenter"",""0"",""5166""
","
","139.9000000357628","","","","","","","","51","1,0,0","6","blank","296","null","0.23238487243911013","0.2910788500143309","0.37832793165061973","0","","","","","","","","",""
"","html-keyboard-response","153","512561","0.0-85.0-1.0","""event"",""trial"",""time""
""fullscreenenter"",""0"",""5166""
""blur"",""8"",""77797""
""focus"",""9"",""85678""
","""event"",""trial"",""time""
""blur"",""8"",""77797""
","""event"",""trial"",""time""
""focus"",""9"",""85678""
","""event"",""trial"",""time""
""fullscreenenter"",""0"",""5166""
","
","null","<p></p>","null","","","","","","","","","","","","","","","","","","","","","","","",""
"","do_trial","154","515344","0.0-86.0-0.0","""event"",""trial"",""time""
""fullscreenenter"",""0"",""5166""
""blur"",""8"",""77797""
""focus"",""9"",""85678""
","""event"",""trial"",""time""
""blur"",""8"",""77797""
","""event"",""trial"",""time""
""focus"",""9"",""85678""
","""event"",""trial"",""time""
""fullscreenenter"",""0"",""5166""
","
","204.80000001192093","","","","","","","","49","1,0,1","6","blank","297","null","0.2919746536583165","0.14764109259024902","0.38758798247761617","1","","","","","","","","",""
"","html-keyboard-response","155","516347","0.0-86.0-1.0","""event"",""trial"",""time""
""fullscreenenter"",""0"",""5166""
""blur"",""8"",""77797""
""focus"",""9"",""85678""
","""event"",""trial"",""time""
""blur"",""8"",""77797""
","""event"",""trial"",""time""
""focus"",""9"",""85678""
","""event"",""trial"",""time""
""fullscreenenter"",""0"",""5166""
","
","null","<p></p>","null","","","","","","","","","","","","","","","","","","","","","","","",""
"","do_trial","156","519314","0.0-87.0-0.0","""event"",""trial"",""time""
""fullscreenenter"",""0"",""5166""
""blur"",""8"",""77797""
""focus"",""9"",""85678""
","""event"",""trial"",""time""
""blur"",""8"",""77797""
","""event"",""trial"",""time""
""focus"",""9"",""85678""
","""event"",""trial"",""time""
""fullscreenenter"",""0"",""5166""
","
","380","","","","","","","","50","0,0,0","6","blank","298","null","0.23495905991255167","0.2675982355550024","0.25944974265922094","0","","","","","","","","",""
"","html-keyboard-response","157","520316","0.0-87.0-1.0","""event"",""trial"",""time""
""fullscreenenter"",""0"",""5166""
""blur"",""8"",""77797""
""focus"",""9"",""85678""
","""event"",""trial"",""time""
""blur"",""8"",""77797""
","""event"",""trial"",""time""
""focus"",""9"",""85678""
","""event"",""trial"",""time""
""fullscreenenter"",""0"",""5166""
","
","null","<p></p>","null","","","","","","","","","","","","","","","","","","","","","","","",""
"","do_trial","158","523109","0.0-88.0-0.0","""event"",""trial"",""time""
""fullscreenenter"",""0"",""5166""
""blur"",""8"",""77797""
""focus"",""9"",""85678""
","""event"",""trial"",""time""
""blur"",""8"",""77797""
","""event"",""trial"",""time""
""focus"",""9"",""85678""
","""event"",""trial"",""time""
""fullscreenenter"",""0"",""5166""
","
","188.5","","","","","","","","51","1,1,0","6","blank","299","null","0.3505220919000317","0.2524010696510714","0.42769172762004865","0","","","","","","","","",""
"","html-keyboard-response","159","524112","0.0-88.0-1.0","""event"",""trial"",""time""
""fullscreenenter"",""0"",""5166""
""blur"",""8"",""77797""
""focus"",""9"",""85678""
","""event"",""trial"",""time""
""blur"",""8"",""77797""
","""event"",""trial"",""time""
""focus"",""9"",""85678""
","""event"",""trial"",""time""
""fullscreenenter"",""0"",""5166""
","
","null","<p></p>","null","","","","","","","","","","","","","","","","","","","","","","","",""
"","do_trial","160","526705","0.0-89.0-0.0","""event"",""trial"",""time""
""fullscreenenter"",""0"",""5166""
""blur"",""8"",""77797""
""focus"",""9"",""85678""
","""event"",""trial"",""time""
""blur"",""8"",""77797""
","""event"",""trial"",""time""
""focus"",""9"",""85678""
","""event"",""trial"",""time""
""fullscreenenter"",""0"",""5166""
","
","0.10000002384185791","","","","","","","","49","0,0,0","6","blank","300","null","0.3089467149759285","0.3224887938484504","0.522505923641069","0","","","","","","","","",""
"","html-keyboard-response","161","527707","0.0-89.0-1.0","""event"",""trial"",""time""
""fullscreenenter"",""0"",""5166""
""blur"",""8"",""77797""
""focus"",""9"",""85678""
","""event"",""trial"",""time""
""blur"",""8"",""77797""
","""event"",""trial"",""time""
""focus"",""9"",""85678""
","""event"",""trial"",""time""
""fullscreenenter"",""0"",""5166""
","
","null","<p></p>","null","","","","","","","","","","","","","","","","","","","","","","","",""
"","do_recog","162","530833","0.0-90.0-0.0","""event"",""trial"",""time""
""fullscreenenter"",""0"",""5166""
""blur"",""8"",""77797""
""focus"",""9"",""85678""
","""event"",""trial"",""time""
""blur"",""8"",""77797""
","""event"",""trial"",""time""
""focus"",""9"",""85678""
","""event"",""trial"",""time""
""fullscreenenter"",""0"",""5166""
","
","1615.3999999761581","","","","","","","","53","","","","301","probe-177","","","","","1","[object Object]","158","3","1","","","",""
"","html-keyboard-response","163","531835","0.0-90.0-1.0","""event"",""trial"",""time""
""fullscreenenter"",""0"",""5166""
""blur"",""8"",""77797""
""focus"",""9"",""85678""
","""event"",""trial"",""time""
""blur"",""8"",""77797""
","""event"",""trial"",""time""
""focus"",""9"",""85678""
","""event"",""trial"",""time""
""fullscreenenter"",""0"",""5166""
","
","null","<p></p>","null","","","","","","","","","","","","","","","","","","","","","","","",""
"","do_trial","164","534425","0.0-91.0-0.0","""event"",""trial"",""time""
""fullscreenenter"",""0"",""5166""
""blur"",""8"",""77797""
""focus"",""9"",""85678""
","""event"",""trial"",""time""
""blur"",""8"",""77797""
","""event"",""trial"",""time""
""focus"",""9"",""85678""
","""event"",""trial"",""time""
""fullscreenenter"",""0"",""5166""
","
","8.100000023841858","","","","","","","","50","0,1,1","6","blank","302","null","0.16937002440914406","0.3168670967129208","0.7648528175445896","1","","","","","","","","",""
"","html-keyboard-response","165","535427","0.0-91.0-1.0","""event"",""trial"",""time""
""fullscreenenter"",""0"",""5166""
""blur"",""8"",""77797""
""focus"",""9"",""85678""
","""event"",""trial"",""time""
""blur"",""8"",""77797""
","""event"",""trial"",""time""
""focus"",""9"",""85678""
","""event"",""trial"",""time""
""fullscreenenter"",""0"",""5166""
","
","null","<p></p>","null","","","","","","","","","","","","","","","","","","","","","","","",""
"","do_recog","166","538428","0.0-92.0-0.0","""event"",""trial"",""time""
""fullscreenenter"",""0"",""5166""
""blur"",""8"",""77797""
""focus"",""9"",""85678""
","""event"",""trial"",""time""
""blur"",""8"",""77797""
","""event"",""trial"",""time""
""focus"",""9"",""85678""
","""event"",""trial"",""time""
""fullscreenenter"",""0"",""5166""
","
","1489.5","","","","","","","","53","","","","303","probe-112","","","","","1","[object Object]","192","4","1","","","",""
"","html-keyboard-response","167","539430","0.0-92.0-1.0","""event"",""trial"",""time""
""fullscreenenter"",""0"",""5166""
""blur"",""8"",""77797""
""focus"",""9"",""85678""
","""event"",""trial"",""time""
""blur"",""8"",""77797""
","""event"",""trial"",""time""
""focus"",""9"",""85678""
","""event"",""trial"",""time""
""fullscreenenter"",""0"",""5166""
","
","null","<p></p>","null","","","","","","","","","","","","","","","","","","","","","","","",""
"","do_trial","168","542365","0.0-93.0-0.0","""event"",""trial"",""time""
""fullscreenenter"",""0"",""5166""
""blur"",""8"",""77797""
""focus"",""9"",""85678""
","""event"",""trial"",""time""
""blur"",""8"",""77797""
","""event"",""trial"",""time""
""focus"",""9"",""85678""
","""event"",""trial"",""time""
""fullscreenenter"",""0"",""5166""
","
","351.5","","","","","","","","49","0,0,0","6","blank","304","null","0.1673994986222288","0.3590290827796466","0.7758625306960802","0","","","","","","","","",""
"","html-keyboard-response","169","543367","0.0-93.0-1.0","""event"",""trial"",""time""
""fullscreenenter"",""0"",""5166""
""blur"",""8"",""77797""
""focus"",""9"",""85678""
","""event"",""trial"",""time""
""blur"",""8"",""77797""
","""event"",""trial"",""time""
""focus"",""9"",""85678""
","""event"",""trial"",""time""
""fullscreenenter"",""0"",""5166""
","
","null","<p></p>","null","","","","","","","","","","","","","","","","","","","","","","","",""
"","do_trial","170","546313","0.0-94.0-0.0","""event"",""trial"",""time""
""fullscreenenter"",""0"",""5166""
""blur"",""8"",""77797""
""focus"",""9"",""85678""
","""event"",""trial"",""time""
""blur"",""8"",""77797""
","""event"",""trial"",""time""
""focus"",""9"",""85678""
","""event"",""trial"",""time""
""fullscreenenter"",""0"",""5166""
","
","368.30000001192093","","","","","","","","50","0,0,0","6","blank","305","null","0.05332093729830467","0.4043254006682735","0.7999345098982432","0","","","","","","","","",""
"","html-keyboard-response","171","547316","0.0-94.0-1.0","""event"",""trial"",""time""
""fullscreenenter"",""0"",""5166""
""blur"",""8"",""77797""
""focus"",""9"",""85678""
","""event"",""trial"",""time""
""blur"",""8"",""77797""
","""event"",""trial"",""time""
""focus"",""9"",""85678""
","""event"",""trial"",""time""
""fullscreenenter"",""0"",""5166""
","
","null","<p></p>","null","","","","","","","","","","","","","","","","","","","","","","","",""
"","do_trial","172","550268","0.0-95.0-0.0","""event"",""trial"",""time""
""fullscreenenter"",""0"",""5166""
""blur"",""8"",""77797""
""focus"",""9"",""85678""
","""event"",""trial"",""time""
""blur"",""8"",""77797""
","""event"",""trial"",""time""
""focus"",""9"",""85678""
","""event"",""trial"",""time""
""fullscreenenter"",""0"",""5166""
","
","332.5","","","","","","","","51","0,0,1","6","blank","306","null","0.0582683850412633","0.3315933461351257","0.6489009322005903","1","","","","","","","","",""
"","html-keyboard-response","173","551270","0.0-95.0-1.0","""event"",""trial"",""time""
""fullscreenenter"",""0"",""5166""
""blur"",""8"",""77797""
""focus"",""9"",""85678""
","""event"",""trial"",""time""
""blur"",""8"",""77797""
","""event"",""trial"",""time""
""focus"",""9"",""85678""
","""event"",""trial"",""time""
""fullscreenenter"",""0"",""5166""
","
","null","<p></p>","null","","","","","","","","","","","","","","","","","","","","","","","",""
"","do_recog","174","554135","0.0-96.0-0.0","""event"",""trial"",""time""
""fullscreenenter"",""0"",""5166""
""blur"",""8"",""77797""
""focus"",""9"",""85678""
","""event"",""trial"",""time""
""blur"",""8"",""77797""
","""event"",""trial"",""time""
""focus"",""9"",""85678""
","""event"",""trial"",""time""
""fullscreenenter"",""0"",""5166""
","
","1353.1000000238419","","","","","","","","53","","","","307","probe-188","","","","","1","[object Object]","118","2","1","","","",""
"","html-keyboard-response","175","555138","0.0-96.0-1.0","""event"",""trial"",""time""
""fullscreenenter"",""0"",""5166""
""blur"",""8"",""77797""
""focus"",""9"",""85678""
","""event"",""trial"",""time""
""blur"",""8"",""77797""
","""event"",""trial"",""time""
""focus"",""9"",""85678""
","""event"",""trial"",""time""
""fullscreenenter"",""0"",""5166""
","
","null","<p></p>","null","","","","","","","","","","","","","","","","","","","","","","","",""
"","do_trial","176","558045","0.0-97.0-0.0","""event"",""trial"",""time""
""fullscreenenter"",""0"",""5166""
""blur"",""8"",""77797""
""focus"",""9"",""85678""
","""event"",""trial"",""time""
""blur"",""8"",""77797""
","""event"",""trial"",""time""
""focus"",""9"",""85678""
","""event"",""trial"",""time""
""fullscreenenter"",""0"",""5166""
","
","300.9000000357628","","","","","","","","49","0,0,1","6","blank","308","null","0.05815395597855782","0.29732479356173197","0.7020138795680214","0","","","","","","","","",""
"","html-keyboard-response","177","559047","0.0-97.0-1.0","""event"",""trial"",""time""
""fullscreenenter"",""0"",""5166""
""blur"",""8"",""77797""
""focus"",""9"",""85678""
","""event"",""trial"",""time""
""blur"",""8"",""77797""
","""event"",""trial"",""time""
""focus"",""9"",""85678""
","""event"",""trial"",""time""
""fullscreenenter"",""0"",""5166""
","
","null","<p></p>","null","","","","","","","","","","","","","","","","","","","","","","","",""
"","break","178","560291","0.0-98.0-0.0","""event"",""trial"",""time""
""fullscreenenter"",""0"",""5166""
""blur"",""8"",""77797""
""focus"",""9"",""85678""
","""event"",""trial"",""time""
""blur"",""8"",""77797""
","""event"",""trial"",""time""
""focus"",""9"",""85678""
","""event"",""trial"",""time""
""fullscreenenter"",""0"",""5166""
","
","1242.800000011921","<div class='center'><p>Time to take a quick break! You have 2 minutes to rest, but you can move on sooner if you'd like.</p><p> Press the <b>space bar</b> to continue.</p></div>","32","","","","","","","","","","","","","","","","","","","","","","","",""
"","do_recog","179","564100","0.0-98.0-1.0","""event"",""trial"",""time""
""fullscreenenter"",""0"",""5166""
""blur"",""8"",""77797""
""focus"",""9"",""85678""
","""event"",""trial"",""time""
""blur"",""8"",""77797""
","""event"",""trial"",""time""
""focus"",""9"",""85678""
","""event"",""trial"",""time""
""fullscreenenter"",""0"",""5166""
","
","2296.400000035763","","","","","","","","56","","","","309","probe-253","","","","","0","[object Object]","null","null","1","","","",""
"","html-keyboard-response","180","565103","0.0-98.0-2.0","""event"",""trial"",""time""
""fullscreenenter"",""0"",""5166""
""blur"",""8"",""77797""
""focus"",""9"",""85678""
","""event"",""trial"",""time""
""blur"",""8"",""77797""
","""event"",""trial"",""time""
""focus"",""9"",""85678""
","""event"",""trial"",""time""
""fullscreenenter"",""0"",""5166""
","
","null","<p></p>","null","","","","","","","","","","","","","","","","","","","","","","","",""
"","do_trial","181","568382","0.0-99.0-0.0","""event"",""trial"",""time""
""fullscreenenter"",""0"",""5166""
""blur"",""8"",""77797""
""focus"",""9"",""85678""
","""event"",""trial"",""time""
""blur"",""8"",""77797""
","""event"",""trial"",""time""
""focus"",""9"",""85678""
","""event"",""trial"",""time""
""fullscreenenter"",""0"",""5166""
","
","694.5999999642372","","","","","","","","49","1,0,1","6","blank","310","null","0.09907767962587168","0.35025229192046053","0.6217331392952568","1","","","","","","","","",""
"","html-keyboard-response","182","569384","0.0-99.0-1.0","""event"",""trial"",""time""
""fullscreenenter"",""0"",""5166""
""blur"",""8"",""77797""
""focus"",""9"",""85678""
","""event"",""trial"",""time""
""blur"",""8"",""77797""
","""event"",""trial"",""time""
""focus"",""9"",""85678""
","""event"",""trial"",""time""
""fullscreenenter"",""0"",""5166""
","
","null","<p></p>","null","","","","","","","","","","","","","","","","","","","","","","","",""
"","do_recog","183","575396","0.0-100.0-0.0","""event"",""trial"",""time""
""fullscreenenter"",""0"",""5166""
""blur"",""8"",""77797""
""focus"",""9"",""85678""
","""event"",""trial"",""time""
""blur"",""8"",""77797""
","""event"",""trial"",""time""
""focus"",""9"",""85678""
","""event"",""trial"",""time""
""fullscreenenter"",""0"",""5166""
","
","null","","","","","","","","null","","","","311","probe-239","","","","","0","[object Object]","null","null","0","","","",""
"","html-keyboard-response","184","576398","0.0-100.0-1.0","""event"",""trial"",""time""
""fullscreenenter"",""0"",""5166""
""blur"",""8"",""77797""
""focus"",""9"",""85678""
","""event"",""trial"",""time""
""blur"",""8"",""77797""
","""event"",""trial"",""time""
""focus"",""9"",""85678""
","""event"",""trial"",""time""
""fullscreenenter"",""0"",""5166""
","
","null","<p></p>","null","","","","","","","","","","","","","","","","","","","","","","","",""
"","do_trial","185","579558","0.0-101.0-0.0","""event"",""trial"",""time""
""fullscreenenter"",""0"",""5166""
""blur"",""8"",""77797""
""focus"",""9"",""85678""
","""event"",""trial"",""time""
""blur"",""8"",""77797""
","""event"",""trial"",""time""
""focus"",""9"",""85678""
","""event"",""trial"",""time""
""fullscreenenter"",""0"",""5166""
","
","587.3000000119209","","","","","","","","49","0,0,0","6","blank","312","null","0.1320156211567222","0.47172720212321123","0.5476109984151067","0","","","","","","","","",""
"","html-keyboard-response","186","580560","0.0-101.0-1.0","""event"",""trial"",""time""
""fullscreenenter"",""0"",""5166""
""blur"",""8"",""77797""
""focus"",""9"",""85678""
","""event"",""trial"",""time""
""blur"",""8"",""77797""
","""event"",""trial"",""time""
""focus"",""9"",""85678""
","""event"",""trial"",""time""
""fullscreenenter"",""0"",""5166""
","
","null","<p></p>","null","","","","","","","","","","","","","","","","","","","","","","","",""
"","do_recog","187","583600","0.0-102.0-0.0","""event"",""trial"",""time""
""fullscreenenter"",""0"",""5166""
""blur"",""8"",""77797""
""focus"",""9"",""85678""
","""event"",""trial"",""time""
""blur"",""8"",""77797""
","""event"",""trial"",""time""
""focus"",""9"",""85678""
","""event"",""trial"",""time""
""fullscreenenter"",""0"",""5166""
","
","1532.6000000238419","","","","","","","","53","","","","313","probe-145","","","","","1","[object Object]","157","3","1","","","",""
"","html-keyboard-response","188","584602","0.0-102.0-1.0","""event"",""trial"",""time""
""fullscreenenter"",""0"",""5166""
""blur"",""8"",""77797""
""focus"",""9"",""85678""
","""event"",""trial"",""time""
""blur"",""8"",""77797""
","""event"",""trial"",""time""
""focus"",""9"",""85678""
","""event"",""trial"",""time""
""fullscreenenter"",""0"",""5166""
","
","null","<p></p>","null","","","","","","","","","","","","","","","","","","","","","","","",""
"","do_trial","189","587617","0.0-103.0-0.0","""event"",""trial"",""time""
""fullscreenenter"",""0"",""5166""
""blur"",""8"",""77797""
""focus"",""9"",""85678""
","""event"",""trial"",""time""
""blur"",""8"",""77797""
","""event"",""trial"",""time""
""focus"",""9"",""85678""
","""event"",""trial"",""time""
""fullscreenenter"",""0"",""5166""
","
","429.5","","","","","","","","50","0,0,1","6","blank","314","null","0.09934252573707297","0.3227886440559527","0.6643100557640261","0","","","","","","","","",""
