"success","trial_type","trial_index","time_elapsed","internal_node_id","rt","stimulus","key_press","subject_id","participant_id","age","gender","prompt","response","choice_outcomes","context_n","context_img_id","trial_n","probe_img_id","pR_red","pR_white","pR_black","outcome","is_valid","image_to_show","probed_trial","probed_context","correct","probe","probed_trial_n","probed_context_n","context_im"
"true","fullscreen","0","4965","0.0-0.0","","","","","","","","","","","","","","","","","","","","","","","","","","",""
"","pavlovia","1","4968","0.0-1.0","","","","","","","","","","","","","","","","","","","","","","","","","","",""
"","welc_back","2","17622","0.0-2.0","null","run_exp/static/audio/clip_29_welcome_back.m4a","null","66","230","11","female","<div class='center'><p>Welcome to day 2!</p><p> Yesterday, you were the head captain of a pirate ship. You and your fellow pirates robbed ships for their gold and traveled to six different islands .</p></div>","","","","","","","","","","","","","","","","","","",""
"","html-keyboard-response","3","18923","0.0-3.0","1300.4000000953674","<div class='center'><p>Welcome to day 2!</p><p> Yesterday, you were the head captain of a pirate ship. You and your fellow pirates robbed ships for their gold and traveled to six different islands .</p><p><b>[Press the space bar to continue]</b></p></div>","32","","","","","","","","","","","","","","","","","","","","","","","",""
"","day_1_summary_goal","4","38891","0.0-4.0","null","run_exp/static/audio/clip_30_goal_of_game.m4a","null","","","","","<div class='center'><p>Today, like yesterday, you get to pick which pirate you want to rob the next ship.</p><p>If the pirate is successful in robbing a ship, you get gold coins that look like this: </p><p><img src='run_exp/static/images/tutorial/reward.png' height='150'></p><p> If they were not successful in robbing the ship, then you will get no gold coins and you'll see a big red x like this: </p><p><img src='run_exp/static/images/tutorial/reward_no.png' height='150'></p></div>","","","","","","","","","","","","","","","","","","",""
"","html-keyboard-response","5","39364","0.0-5.0","472.09999990463257","<div class='center'><p>Today, like yesterday, you get to pick which pirate you want to rob the next ship.</p><p>If the pirate is successful in robbing a ship, you get gold coins that look like this: </p><p><img src='run_exp/static/images/tutorial/reward.png' height='150'></p><p> If they were not successful in robbing the ship, then you will get no gold coins and you'll see a big red x like this: </p><p><img src='run_exp/static/images/tutorial/reward_no.png' height='150'></p><p><b>[Press the space bar to continue]</b></p></div>","32","","","","","","","","","","","","","","","","","","","","","","","",""
"","day_1_summary_pick","6","57188","0.0-6.0","null","run_exp/static/audio/clip_31_how_to_pick_a_pirate.m4a","null","","","","","<div class='center'><p>Also, just like yesterday, you will use the 1,2,3 keys on your keyboard to pick a pirate. Press '1' to choose red beard, '2' to choose white beard, and '3' to choose black beard . You only have 3 seconds to pick a pirate, so please make a choice quickly!</p></div>","","","","","","","","","","","","","","","","","","",""
"","html-keyboard-response","7","58625","0.0-7.0","1436.3000001907349","<div class='center'><p>Also, just like yesterday, you will use the 1,2,3 keys on your keyboard to pick a pirate. Press '1' to choose red beard, '2' to choose white beard, and '3' to choose black beard . You only have 3 seconds to pick a pirate, so please make a choice quickly!</p><p><b>[Press the space bar to continue]</b></p></div>","32","","","","","","","","","","","","","","","","","","","","","","","",""
"","test_phase_begin","8","83055","0.0-8.0","null","run_exp/static/audio/clip_32_final_place.m4a","null","","","","","<div class='center'><p>You’ve arrived at the final island of your journey! Unfortunately, it’s very foggy out, so you won’t be able to see it in the distance like the other islands you've visited.</p><p>You’ll still be deciding which pirate you want to rob a ship like before. However, because of the fog, you also won’t be able to see the ship.</p><p>This means you do not have to remember the ships you rob on this island.</p></p></div>","","","","","","","","","","","","","","","","","","",""
"","html-keyboard-response","9","84017","0.0-9.0","961.1000003814697","<div class='center'><p>You’ve arrived at the final island of your journey! Unfortunately, it’s very foggy out, so you won’t be able to see it in the distance like the other islands you've visited.</p><p>You’ll still be deciding which pirate you want to rob a ship like before. However, because of the fog, you also won’t be able to see the ship.</p><p>This means you do not have to remember the ships you rob on this island.</p></p><p><b>[Press the space bar to continue]</b></p></div>","32","","","","","","","","","","","","","","","","","","","","","","","",""
"","explain_probe_1","10","93457","0.0-10.0","null","run_exp/static/audio/clip_33_recognition_1.m4a","null","","","","","<div class='center'><p> Sometimes you’ll be shown a ship, and you will be asked if you saw this ship on a past island.</p><p> Here is an example of what you will see.</p><p><img src='run_exp/static/images/tutorial/example_recog_trial.png' height='500'></p></div>","","","","","","","","","","","","","","","","","","",""
"","html-keyboard-response","11","94682","0.0-11.0","1223.6999998092651","<div class='center'><p> Sometimes you’ll be shown a ship, and you will be asked if you saw this ship on a past island.</p><p> Here is an example of what you will see.</p><p><img src='run_exp/static/images/tutorial/example_recog_trial.png' height='500'></p><p><b>[Press the space bar to continue]</b></p></div>","32","","","","","","","","","","","","","","","","","","","","","","","",""
"","explain_probe_2","12","121507","0.0-12.0","null","run_exp/static/audio/clip_34_recognition_2.m4a","null","","","","","<div class='center'><p> You will press the 5, 6, 7, 8 keys on your keyboard to respond.</p><p>If you are very sure saw the ship, press <b>5</b> on your keyboard.</p><p> If you think you  saw it before but are not sure, then press <b>6</b>.</p><p> If you think you have <b>not</b> seen it before but are not sure, then press <b>7</b>.</p><p> If you are sure you did <b>not</b> see the ship before, then press <b>8</b>.</p><p><img src='run_exp/static/images/tutorial/example_recog_trial.png' height='500'></p></div>","","","","","","","","","","","","","","","","","","",""
"","html-keyboard-response","13","122954","0.0-13.0","1446.4000000953674","<div class='center'><p> You will press the 5, 6, 7, 8 keys on your keyboard to respond.</p><p>If you are very sure saw the ship, press <b>5</b> on your keyboard.</p><p> If you think you  saw it before but are not sure, then press <b>6</b>.</p><p> If you think you have <b>not</b> seen it before but are not sure, then press <b>7</b>.</p><p> If you are sure you did <b>not</b> see the ship before, then press <b>8</b>.</p><p><img src='run_exp/static/images/tutorial/example_recog_trial.png' height='500'></p><p><b>[Press the space bar to continue]</b></p></div>","32","","","","","","","","","","","","","","","","","","","","","","","",""
"","explain_outcome","14","144495","0.0-14.0","null","run_exp/static/audio/clip_35_recognition_3.m4a","null","","","","","<div class='center'><p> If you remember correctly, then you’ll get a gold coin like this: </p><p><img src='run_exp/static/images/tutorial/reward_small.png' height='200'></p><p>If you do not remember correctly, then you'll see a red x like this: </p><p><img src='run_exp/static/images/tutorial/reward_no.png' height='200'></p><p>Importantly, when you are shown a ship, take the time to remind yourself which island you saw it on. This will help you in the next part of the study.</p></div>","","","","","","","","","","","","","","","","","","",""
"","html-keyboard-response","15","145252","0.0-15.0","756.6999998092651","<div class='center'><p> If you remember correctly, then you’ll get a gold coin like this: </p><p><img src='run_exp/static/images/tutorial/reward_small.png' height='200'></p><p>If you do not remember correctly, then you'll see a red x like this: </p><p><img src='run_exp/static/images/tutorial/reward_no.png' height='200'></p><p>Importantly, when you are shown a ship, take the time to remind yourself which island you saw it on. This will help you in the next part of the study.</p><p><b>[Press the space bar to continue]</b></p></div>","32","","","","","","","","","","","","","","","","","","","","","","","",""
"","begin_test_phase","16","169781","0.0-16.0","null","run_exp/static/audio/clip_36_begin_final.m4a","null","","","","","<div class='center'><p>Let's go over the important points again. Your job is to: </p><p>1. Pick the pirate who is best at robbing ships and will bring you back gold coins. </p><p>2. Correctly remember whether or not you saw a ship before. If you did see the ship before, remind yourself on which island you saw the ship. </p></div>","","","","","","","","","","","","","","","","","","",""
"","html-keyboard-response","17","170239","0.0-17.0","430.7000002861023","<div class='center'><p>Let's go over the important points again. Your job is to: </p><p>1. Pick the pirate who is best at robbing ships and will bring you back gold coins. </p><p>2. Correctly remember whether or not you saw a ship before. If you did see the ship before, remind yourself on which island you saw the ship. </p><p><b>[Press the space bar to continue]</b></p></div>","32","","","","","","","","","","","","","","","","","","","","","","","",""
"","do_welcome","18","171748","0.0-18.0","null","","","","","","","","null","","","","","","","","","","","","","","","","","",""
"","do_trial","19","175981","0.0-19.0-0.0","1696","","","","","","","","49","0,0,0","6","blank","230","null","0.29388341191962325","0.21703056282520677","0.5512618623281634","0","","","","","","","","",""
"","html-keyboard-response","20","176984","0.0-19.0-1.0","null","<p></p>","null","","","","","","","","","","","","","","","","","","","","","","","",""
"","do_trial","21","180260","0.0-20.0-0.0","736","","","","","","","","50","1,0,1","6","blank","231","null","0.3074381837653733","0.17185619444126343","0.5054777842266879","0","","","","","","","","",""
"","html-keyboard-response","22","181262","0.0-20.0-1.0","null","<p></p>","null","","","","","","","","","","","","","","","","","","","","","","","",""
"","do_trial","23","184240","0.0-21.0-0.0","440.7999997138977","","","","","","","","51","0,0,1","6","blank","232","null","0.13406746974387132","0.12156005720791388","0.6161022049421545","1","","","","","","","","",""
"","html-keyboard-response","24","185242","0.0-21.0-1.0","null","<p></p>","null","","","","","","","","","","","","","","","","","","","","","","","",""
"","do_trial","25","188132","0.0-22.0-0.0","354.2999997138977","","","","","","","","51","0,0,1","6","blank","233","null","0.3185489698329833","0.14827956407206375","0.5311016398407697","1","","","","","","","","",""
"","html-keyboard-response","26","189137","0.0-22.0-1.0","null","<p></p>","null","","","","","","","","","","","","","","","","","","","","","","","",""
"","do_trial","27","192003","0.0-23.0-0.0","329.40000009536743","","","","","","","","51","0,0,0","6","blank","234","null","0.18520697435887803","0.14467007066452062","0.600568420642064","0","","","","","","","","",""
"","html-keyboard-response","28","193007","0.0-23.0-1.0","null","<p></p>","null","","","","","","","","","","","","","","","","","","","","","","","",""
"","do_trial","29","195943","0.0-24.0-0.0","396.80000019073486","","","","","","","","49","0,0,1","6","blank","235","null","0.1557866801181355","0.07437721733329991","0.6602995668129689","0","","","","","","","","",""
"","html-keyboard-response","30","196944","0.0-24.0-1.0","null","<p></p>","null","","","","","","","","","","","","","","","","","","","","","","","",""
"","do_trial","31","200303","0.0-25.0-0.0","823.8000001907349","","","","","","","","50","0,0,0","6","blank","236","null","0.19187495164469529","0.10203338278701615","0.6891150655165252","0","","","","","","","","",""
"","html-keyboard-response","32","201307","0.0-25.0-1.0","null","<p></p>","null","","","","","","","","","","","","","","","","","","","","","","","",""
"","do_trial","33","204579","0.0-26.0-0.0","737.1999998092651","","","","","","","","51","0,0,1","6","blank","237","null","0.06446538141781787","0.20585616741376966","0.6487203321897534","1","","","","","","","","",""
"","html-keyboard-response","34","205582","0.0-26.0-1.0","null","<p></p>","null","","","","","","","","","","","","","","","","","","","","","","","",""
"","do_trial","35","209420","0.0-27.0-0.0","1299.9000000953674","","","","","","","","51","0,0,0","6","blank","238","null","0.2382325218048421","0.31639246122754805","0.6556222670977871","0","","","","","","","","",""
"","html-keyboard-response","36","210423","0.0-27.0-1.0","null","<p></p>","null","","","","","","","","","","","","","","","","","","","","","","","",""
"","do_trial","37","213332","0.0-28.0-0.0","373.2000002861023","","","","","","","","49","0,0,1","6","blank","239","null","0.16157996228371713","0.19317762975075967","0.6550741907614477","0","","","","","","","","",""
"","html-keyboard-response","38","214337","0.0-28.0-1.0","null","<p></p>","null","","","","","","","","","","","","","","","","","","","","","","","",""
"","do_trial","39","217237","0.0-29.0-0.0","363.09999990463257","","","","","","","","50","0,0,1","6","blank","240","null","0.11184843448440564","0.13414380318068791","0.5905645988564734","0","","","","","","","","",""
"","html-keyboard-response","40","218240","0.0-29.0-1.0","null","<p></p>","null","","","","","","","","","","","","","","","","","","","","","","","",""
"","do_trial","41","221984","0.0-30.0-0.0","1208","","","","","","","","51","0,0,0","6","blank","241","null","0.11973412239857266","0.1176140876325397","0.5565456574912506","0","","","","","","","","",""
"","html-keyboard-response","42","222989","0.0-30.0-1.0","null","<p></p>","null","","","","","","","","","","","","","","","","","","","","","","","",""
"","do_trial","43","226341","0.0-31.0-0.0","812.0999999046326","","","","","","","","49","0,0,0","6","blank","242","null","0.26727299293001083","0.2031642005595797","0.3754481867577577","0","","","","","","","","",""
"","html-keyboard-response","44","227344","0.0-31.0-1.0","null","<p></p>","null","","","","","","","","","","","","","","","","","","","","","","","",""
"","do_trial","45","230567","0.0-32.0-0.0","687.5","","","","","","","","50","1,1,0","6","blank","243","null","0.41173961671827886","0.40800106801970953","0.4217074798901001","1","","","","","","","","",""
"","html-keyboard-response","46","231570","0.0-32.0-1.0","null","<p></p>","null","","","","","","","","","","","","","","","","","","","","","","","",""
"","do_recog","47","237584","0.0-33.0-0.0","null","","","","","","","","null","","","","244","probe-119","","","","","1","[object Object]","88","2","0","","","",""
"","html-keyboard-response","48","238587","0.0-33.0-1.0","null","<p></p>","null","","","","","","","","","","","","","","","","","","","","","","","",""
"","do_trial","49","242754","0.0-34.0-0.0","1628.7000002861023","","","","","","","","49","0,0,0","6","blank","245","null","0.574354827700128","0.38147089216036434","0.36425889020423663","0","","","","","","","","",""
"","html-keyboard-response","50","243758","0.0-34.0-1.0","null","<p></p>","null","","","","","","","","","","","","","","","","","","","","","","","",""
"","do_recog","51","249772","0.0-35.0-0.0","null","","","","","","","","null","","","","246","probe-154","","","","","1","[object Object]","205","5","0","","","",""
"","html-keyboard-response","52","250775","0.0-35.0-1.0","null","<p></p>","null","","","","","","","","","","","","","","","","","","","","","","","",""
"","do_trial","53","254362","0.0-36.0-0.0","1051.5999999046326","","","","","","","","49","1,0,1","6","blank","247","null","0.6077306349550176","0.3608336015739469","0.324313884952796","1","","","","","","","","",""
"","html-keyboard-response","54","255365","0.0-36.0-1.0","null","<p></p>","null","","","","","","","","","","","","","","","","","","","","","","","",""
"","do_trial","55","258324","0.0-37.0-0.0","420.59999990463257","","","","","","","","49","1,0,0","6","blank","248","null","0.6183623235662792","0.3104596873529479","0.16917895352367818","1","","","","","","","","",""
"","html-keyboard-response","56","259327","0.0-37.0-1.0","null","<p></p>","null","","","","","","","","","","","","","","","","","","","","","","","",""
"","do_trial","57","262597","0.0-38.0-0.0","734.1999998092651","","","","","","","","49","1,1,0","6","blank","249","null","0.5414082911424657","0.24535994085261376","0.05635123891570189","1","","","","","","","","",""
"","html-keyboard-response","58","263599","0.0-38.0-1.0","null","<p></p>","null","","","","","","","","","","","","","","","","","","","","","","","",""
"","do_trial","59","266561","0.0-39.0-0.0","422.7000002861023","","","","","","","","49","0,1,0","6","blank","250","null","0.5412206226171385","0.23328026787303477","0.13509535985704757","0","","","","","","","","",""
"","html-keyboard-response","60","267567","0.0-39.0-1.0","null","<p></p>","null","","","","","","","","","","","","","","","","","","","","","","","",""
"","do_trial","61","270876","0.0-40.0-0.0","774.5999999046326","","","","","","","","50","0,0,0","6","blank","251","null","0.6783809207703335","0.21855412233798505","0.10521344956703287","0","","","","","","","","",""
"","html-keyboard-response","62","271879","0.0-40.0-1.0","null","<p></p>","null","","","","","","","","","","","","","","","","","","","","","","","",""
"","do_recog","63","275856","0.0-41.0-0.0","2468.0999999046326","","","","","","","","53","","","","252","probe-164","","","","","1","[object Object]","206","5","1","","","",""
"","html-keyboard-response","64","276859","0.0-41.0-1.0","null","<p></p>","null","","","","","","","","","","","","","","","","","","","","","","","",""
"","do_trial","65","280699","0.0-42.0-0.0","1305.0999999046326","","","","","","","","49","1,0,1","6","blank","253","null","0.7881826547347341","0.26868744665750316","0.16057763222273477","1","","","","","","","","",""
"","html-keyboard-response","66","281702","0.0-42.0-1.0","null","<p></p>","null","","","","","","","","","","","","","","","","","","","","","","","",""
"","do_trial","67","284663","0.0-43.0-0.0","421.90000009536743","","","","","","","","49","0,0,0","6","blank","254","null","0.4858144717961882","0.21124355243808332","0.0745657970036431","0","","","","","","","","",""
"","html-keyboard-response","68","285666","0.0-43.0-1.0","null","<p></p>","null","","","","","","","","","","","","","","","","","","","","","","","",""
"","do_recog","69","289131","0.0-44.0-0.0","1956.0999999046326","","","","","","","","56","","","","255","probe-234","","","","","0","[object Object]","null","null","1","","","",""
"","html-keyboard-response","70","290136","0.0-44.0-1.0","null","<p></p>","null","","","","","","","","","","","","","","","","","","","","","","","",""
"","do_trial","71","293501","0.0-45.0-0.0","830.9000000953674","","","","","","","","49","0,0,1","6","blank","256","null","0.4030180607806256","0.1891866396175326","0.0713049968728178","0","","","","","","","","",""
"","html-keyboard-response","72","294503","0.0-45.0-1.0","null","<p></p>","null","","","","","","","","","","","","","","","","","","","","","","","",""
"","do_recog","73","300515","0.0-46.0-0.0","null","","","","","","","","null","","","","257","probe-242","","","","","0","[object Object]","null","null","0","","","",""
"","html-keyboard-response","74","301518","0.0-46.0-1.0","null","<p></p>","null","","","","","","","","","","","","","","","","","","","","","","","",""
"","do_trial","75","304966","0.0-47.0-0.0","912.2999997138977","","","","","","","","49","1,0,0","6","blank","258","null","0.5976559150104279","0.19091239347218525","0.06678283860092941","1","","","","","","","","",""
"","html-keyboard-response","76","305969","0.0-47.0-1.0","null","<p></p>","null","","","","","","","","","","","","","","","","","","","","","","","",""
"","do_recog","77","309471","0.0-48.0-0.0","1993.2000002861023","","","","","","","","53","","","","259","probe-224","","","","","1","[object Object]","127","3","1","","","",""
"","html-keyboard-response","78","310474","0.0-48.0-1.0","null","<p></p>","null","","","","","","","","","","","","","","","","","","","","","","","",""
"","do_trial","79","313998","0.0-49.0-0.0","989.9000000953674","","","","","","","","49","1,0,1","6","blank","260","null","0.5998499467471842","0.1745850185818835","0.08350626162184291","1","","","","","","","","",""
"","html-keyboard-response","80","315002","0.0-49.0-1.0","null","<p></p>","null","","","","","","","","","","","","","","","","","","","","","","","",""
"","do_trial","81","318592","0.0-50.0-0.0","1052.6999998092651","","","","","","","","49","1,0,0","6","blank","261","null","0.6383475196985543","0.21052533319265437","0.13269117779232853","1","","","","","","","","",""
"","html-keyboard-response","82","319593","0.0-50.0-1.0","null","<p></p>","null","","","","","","","","","","","","","","","","","","","","","","","",""
"","do_recog","83","322767","0.0-51.0-0.0","1666.6999998092651","","","","","","","","53","","","","262","probe-201","","","","","1","[object Object]","162","4","1","","","",""
"","html-keyboard-response","84","323773","0.0-51.0-1.0","null","<p></p>","null","","","","","","","","","","","","","","","","","","","","","","","",""
"","do_trial","85","327535","0.0-52.0-0.0","1225.8000001907349","","","","","","","","49","1,1,0","6","blank","263","null","0.4769825879895072","0.2875080118641793","0.2153270054302609","1","","","","","","","","",""
"","html-keyboard-response","86","328541","0.0-52.0-1.0","null","<p></p>","null","","","","","","","","","","","","","","","","","","","","","","","",""
"","do_trial","87","332023","0.0-53.0-0.0","946.5","","","","","","","","49","1,0,0","6","blank","264","null","0.43022251919414656","0.27510529631173647","0.1047876264551828","1","","","","","","","","",""
"","html-keyboard-response","88","333026","0.0-53.0-1.0","null","<p></p>","null","","","","","","","","","","","","","","","","","","","","","","","",""
"","do_trial","89","336210","0.0-54.0-0.0","646.2999997138977","","","","","","","","49","0,0,0","6","blank","265","null","0.5070457637211426","0.268051520956855","0.19778705717010675","0","","","","","","","","",""
"","html-keyboard-response","90","337214","0.0-54.0-1.0","null","<p></p>","null","","","","","","","","","","","","","","","","","","","","","","","",""
"","do_recog","91","340432","0.0-55.0-0.0","1710","","","","","","","","53","","","","266","probe-21","","","","","1","[object Object]","169","4","1","","","",""
"","html-keyboard-response","92","341436","0.0-55.0-1.0","null","<p></p>","null","","","","","","","","","","","","","","","","","","","","","","","",""
"","do_trial","93","344588","0.0-56.0-0.0","618","","","","","","","","49","1,0,0","6","blank","267","null","0.6323038204179301","0.535493659150072","0.24206724138483182","1","","","","","","","","",""
"","html-keyboard-response","94","345592","0.0-56.0-1.0","null","<p></p>","null","","","","","","","","","","","","","","","","","","","","","","","",""
"","do_trial","95","349157","0.0-57.0-0.0","1030","","","","","","","","49","0,0,1","6","blank","268","null","0.5242932834640311","0.4569619698678451","0.1625754093461087","0","","","","","","","","",""
"","html-keyboard-response","96","350161","0.0-57.0-1.0","null","<p></p>","null","","","","","","","","","","","","","","","","","","","","","","","",""
"","do_trial","97","353028","0.0-58.0-0.0","331.09999990463257","","","","","","","","50","0,1,0","6","blank","269","null","0.551942128366962","0.4450229860777343","0.08406295497134664","1","","","","","","","","",""
"","html-keyboard-response","98","354030","0.0-58.0-1.0","null","<p></p>","null","","","","","","","","","","","","","","","","","","","","","","","",""
"","do_trial","99","356923","0.0-59.0-0.0","354.80000019073486","","","","","","","","50","1,1,0","6","blank","270","null","0.5622590338433319","0.3697447087395312","0.15781577653498755","1","","","","","","","","",""
"","html-keyboard-response","100","357927","0.0-59.0-1.0","null","<p></p>","null","","","","","","","","","","","","","","","","","","","","","","","",""
"","do_trial","101","360725","0.0-60.0-0.0","260.30000019073486","","","","","","","","50","0,0,0","6","blank","271","null","0.6079612233699132","0.33786942102267914","0.21679648182434746","0","","","","","","","","",""
"","html-keyboard-response","102","361729","0.0-60.0-1.0","null","<p></p>","null","","","","","","","","","","","","","","","","","","","","","","","",""
"","do_recog","103","364877","0.0-61.0-0.0","1641.7999997138977","","","","","","","","53","","","","272","probe-161","","","","","1","[object Object]","86","2","1","","","",""
"","html-keyboard-response","104","365880","0.0-61.0-1.0","null","<p></p>","null","","","","","","","","","","","","","","","","","","","","","","","",""
"","do_trial","105","369432","0.0-62.0-0.0","1014.5999999046326","","","","","","","","49","1,0,1","6","blank","273","null","0.5799648734617043","0.4131867459459786","0.16572837444505775","1","","","","","","","","",""
"","html-keyboard-response","106","370435","0.0-62.0-1.0","null","<p></p>","null","","","","","","","","","","","","","","","","","","","","","","","",""
"","do_trial","107","373423","0.0-63.0-0.0","454","","","","","","","","49","0,0,0","6","blank","274","null","0.5710867386449835","0.15741497592829157","0.058712324260720566","0","","","","","","","","",""
"","html-keyboard-response","108","374427","0.0-63.0-1.0","null","<p></p>","null","","","","","","","","","","","","","","","","","","","","","","","",""
"","do_trial","109","377376","0.0-64.0-0.0","411.40000009536743","","","","","","","","50","0,1,0","6","blank","275","null","0.552931557870423","0.23075012046400292","0.07661268802350628","1","","","","","","","","",""
"","html-keyboard-response","110","378379","0.0-64.0-1.0","null","<p></p>","null","","","","","","","","","","","","","","","","","","","","","","","",""
"","do_trial","111","381369","0.0-65.0-0.0","452.40000009536743","","","","","","","","50","1,0,1","6","blank","276","null","0.6716858291499256","0.2368322335353847","0.11801794406538318","0","","","","","","","","",""
"","html-keyboard-response","112","382373","0.0-65.0-1.0","null","<p></p>","null","","","","","","","","","","","","","","","","","","","","","","","",""
"","do_trial","113","385463","0.0-66.0-0.0","553.4000000953674","","","","","","","","51","1,0,0","6","blank","277","null","0.576951727712622","0.21431019785005093","0.09045150127019058","0","","","","","","","","",""
"","html-keyboard-response","114","386466","0.0-66.0-1.0","null","<p></p>","null","","","","","","","","","","","","","","","","","","","","","","","",""
"","do_trial","115","389973","0.0-67.0-0.0","972.7000002861023","","","","","","","","49","1,1,0","6","blank","278","null","0.6306691338009734","0.25974712375060355","0.11626477718740567","1","","","","","","","","",""
"","html-keyboard-response","116","390975","0.0-67.0-1.0","null","<p></p>","null","","","","","","","","","","","","","","","","","","","","","","","",""
"","do_trial","117","393971","0.0-68.0-0.0","457.19999980926514","","","","","","","","49","1,0,0","6","blank","279","null","0.6222789026515092","0.1697148252533117","0.09839175524410569","1","","","","","","","","",""
"","html-keyboard-response","118","394974","0.0-68.0-1.0","null","<p></p>","null","","","","","","","","","","","","","","","","","","","","","","","",""
"","do_recog","119","399226","0.0-69.0-0.0","2743.5","","","","","","","","53","","","","280","probe-84","","","","","1","[object Object]","41","1","1","","","",""
"","html-keyboard-response","120","400230","0.0-69.0-1.0","null","<p></p>","null","","","","","","","","","","","","","","","","","","","","","","","",""
"","do_trial","121","404431","0.0-70.0-0.0","1664.8000001907349","","","","","","","","49","1,0,0","6","blank","281","null","0.6995478829360987","0.2709878800805377","0.1071294261084339","1","","","","","","","","",""
"","html-keyboard-response","122","405434","0.0-70.0-1.0","null","<p></p>","null","","","","","","","","","","","","","","","","","","","","","","","",""
"","do_trial","123","408503","0.0-71.0-0.0","533.5999999046326","","","","","","","","49","1,0,0","6","blank","282","null","0.7476621860959953","0.27573183197941503","0.16443778137192483","1","","","","","","","","",""
"","html-keyboard-response","124","409507","0.0-71.0-1.0","null","<p></p>","null","","","","","","","","","","","","","","","","","","","","","","","",""
"","do_recog","125","412747","0.0-72.0-0.0","1733.6999998092651","","","","","","","","53","","","","283","probe-40","","","","","1","[object Object]","128","3","1","","","",""
"","html-keyboard-response","126","413750","0.0-72.0-1.0","null","<p></p>","null","","","","","","","","","","","","","","","","","","","","","","","",""
"","do_trial","127","417280","0.0-73.0-0.0","992.3000001907349","","","","","","","","49","0,0,0","6","blank","284","null","0.6412400148742117","0.17586516203259214","0.17728236981642806","0","","","","","","","","",""
"","html-keyboard-response","128","418287","0.0-73.0-1.0","null","<p></p>","null","","","","","","","","","","","","","","","","","","","","","","","",""
"","do_trial","129","421230","0.0-74.0-0.0","404.6000003814697","","","","","","","","50","0,0,0","6","blank","285","null","0.5610789966993545","0.08039542072481502","0.197917861447688","0","","","","","","","","",""
"","html-keyboard-response","130","422235","0.0-74.0-1.0","null","<p></p>","null","","","","","","","","","","","","","","","","","","","","","","","",""
"","do_trial","131","425210","0.0-75.0-0.0","439.19999980926514","","","","","","","","51","1,0,0","6","blank","286","null","0.5001979600965343","0.05041350282358824","0.1887075238862144","0","","","","","","","","",""
"","html-keyboard-response","132","426215","0.0-75.0-1.0","null","<p></p>","null","","","","","","","","","","","","","","","","","","","","","","","",""
"","do_recog","133","429884","0.0-76.0-0.0","2159.4000000953674","","","","","","","","56","","","","287","probe-221","","","","","1","[object Object]","168","4","0","","","",""
"","html-keyboard-response","134","430890","0.0-76.0-1.0","null","<p></p>","null","","","","","","","","","","","","","","","","","","","","","","","",""
"","do_trial","135","434753","0.0-77.0-0.0","1324.7999997138977","","","","","","","","49","0,0,0","6","blank","288","null","0.47455630174478625","0.1527773395503728","0.13026010174125552","0","","","","","","","","",""
"","html-keyboard-response","136","435757","0.0-77.0-1.0","null","<p></p>","null","","","","","","","","","","","","","","","","","","","","","","","",""
"","do_recog","137","439368","0.0-78.0-0.0","2102.4000000953674","","","","","","","","53","","","","289","probe-49","","","","","1","[object Object]","200","5","1","","","",""
"","html-keyboard-response","138","440371","0.0-78.0-1.0","null","<p></p>","null","","","","","","","","","","","","","","","","","","","","","","","",""
"","do_trial","139","444259","0.0-79.0-0.0","1349.7999997138977","","","","","","","","49","0,0,0","6","blank","290","null","0.5679430680694948","0.2784121254903525","0.09296550360613379","0","","","","","","","","",""
"","html-keyboard-response","140","445262","0.0-79.0-1.0","null","<p></p>","null","","","","","","","","","","","","","","","","","","","","","","","",""
"","do_trial","141","448738","0.0-80.0-0.0","936.2000002861023","","","","","","","","50","1,0,1","6","blank","291","null","0.6016357529905911","0.15972027340211026","0.1504247615661828","0","","","","","","","","",""
"","html-keyboard-response","142","449741","0.0-80.0-1.0","null","<p></p>","null","","","","","","","","","","","","","","","","","","","","","","","",""
"","do_recog","143","452946","0.0-81.0-0.0","1696.9000000953674","","","","","","","","53","","","","292","probe-19","","","","","1","[object Object]","203","5","1","","","",""
"","html-keyboard-response","144","453949","0.0-81.0-1.0","null","<p></p>","null","","","","","","","","","","","","","","","","","","","","","","","",""
"","do_trial","145","457545","0.0-82.0-0.0","1058","","","","","","","","49","0,0,0","6","blank","293","null","0.5178159124423641","0.3204896007019167","0.2052145954889965","0","","","","","","","","",""
"","html-keyboard-response","146","458547","0.0-82.0-1.0","null","<p></p>","null","","","","","","","","","","","","","","","","","","","","","","","",""
"","do_trial","147","461933","0.0-83.0-0.0","847.4000000953674","","","","","","","","50","0,1,0","6","blank","294","null","0.5934413934263983","0.4448890700490323","0.20408429472647743","1","","","","","","","","",""
"","html-keyboard-response","148","462937","0.0-83.0-1.0","null","<p></p>","null","","","","","","","","","","","","","","","","","","","","","","","",""
"","do_recog","149","466230","0.0-84.0-0.0","1788.4000000953674","","","","","","","","56","","","","295","probe-121","","","","","1","[object Object]","208","5","0","","","",""
"","html-keyboard-response","150","467233","0.0-84.0-1.0","null","<p></p>","null","","","","","","","","","","","","","","","","","","","","","","","",""
"","do_trial","151","470788","0.0-85.0-0.0","1016.1999998092651","","","","","","","","49","1,1,0","6","blank","296","null","0.6450392750415889","0.58087267868355","0.10157588371603335","1","","","","","","","","",""
"","html-keyboard-response","152","471791","0.0-85.0-1.0","null","<p></p>","null","","","","","","","","","","","","","","","","","","","","","","","",""
"","do_recog","153","475073","0.0-86.0-0.0","1776.4000000953674","","","","","","","","53","","","","297","probe-86","","","","","1","[object Object]","47","1","1","","","",""
"","html-keyboard-response","154","476075","0.0-86.0-1.0","null","<p></p>","null","","","","","","","","","","","","","","","","","","","","","","","",""
"","do_trial","155","479911","0.0-87.0-0.0","1298.4000000953674","","","","","","","","49","1,1,0","6","blank","298","null","0.5133971251304409","0.5875465200211203","0.20562679562632208","1","","","","","","","","",""
"","html-keyboard-response","156","480916","0.0-87.0-1.0","null","<p></p>","null","","","","","","","","","","","","","","","","","","","","","","","",""
"","do_trial","157","484880","0.0-88.0-0.0","1429.5","","","","","","","","49","0,0,0","6","blank","299","null","0.3386658849802144","0.5406293530250873","0.05252929048333707","0","","","","","","","","",""
"","html-keyboard-response","158","485884","0.0-88.0-1.0","null","<p></p>","null","","","","","","","","","","","","","","","","","","","","","","","",""
"","do_trial","159","488752","0.0-89.0-0.0","332.09999990463257","","","","","","","","50","0,0,0","6","blank","300","null","0.38828885465178054","0.5304769673123624","0.18435529500467737","0","","","","","","","","",""
"","html-keyboard-response","160","489758","0.0-89.0-1.0","null","<p></p>","null","","","","","","","","","","","","","","","","","","","","","","","",""
"","do_trial","161","492757","0.0-90.0-0.0","463.7999997138977","","","","","","","","51","0,0,0","6","blank","301","null","0.4158100692028016","0.6126169158786692","0.20870558228143526","0","","","","","","","","",""
"","html-keyboard-response","162","493760","0.0-90.0-1.0","null","<p></p>","null","","","","","","","","","","","","","","","","","","","","","","","",""
"","do_trial","163","496743","0.0-91.0-0.0","443.3999996185303","","","","","","","","49","0,0,0","6","blank","302","null","0.29509332091664275","0.49653779439514084","0.1198667914474957","0","","","","","","","","",""
"","html-keyboard-response","164","497746","0.0-91.0-1.0","null","<p></p>","null","","","","","","","","","","","","","","","","","","","","","","","",""
"","do_recog","165","501289","0.0-92.0-0.0","2034.5","","","","","","","","53","","","","303","probe-22","","","","","1","[object Object]","125","3","1","","","",""
"","html-keyboard-response","166","502291","0.0-92.0-1.0","null","<p></p>","null","","","","","","","","","","","","","","","","","","","","","","","",""
"","do_trial","167","505867","0.0-93.0-0.0","1036.7000002861023","","","","","","","","49","1,0,0","6","blank","304","null","0.36575395070472966","0.5433201281460412","0.17916420257918111","1","","","","","","","","",""
"","html-keyboard-response","168","506870","0.0-93.0-1.0","null","<p></p>","null","","","","","","","","","","","","","","","","","","","","","","","",""
"","do_trial","169","509844","0.0-94.0-0.0","439.6000003814697","","","","","","","","50","0,1,0","6","blank","305","null","0.3787375611575887","0.6329361083116625","0.14115184648669515","1","","","","","","","","",""
"","html-keyboard-response","170","510847","0.0-94.0-1.0","null","<p></p>","null","","","","","","","","","","","","","","","","","","","","","","","",""
"","do_trial","171","513787","0.0-95.0-0.0","400.80000019073486","","","","","","","","51","0,1,0","6","blank","306","null","0.2869449428186143","0.7682196279201152","0.20679012585810114","0","","","","","","","","",""
"","html-keyboard-response","172","514789","0.0-95.0-1.0","null","<p></p>","null","","","","","","","","","","","","","","","","","","","","","","","",""
"","do_trial","173","517768","0.0-96.0-0.0","441.69999980926514","","","","","","","","49","0,0,0","6","blank","307","null","0.37205848297673766","0.690534284144458","0.12527132864025428","0","","","","","","","","",""
"","html-keyboard-response","174","518773","0.0-96.0-1.0","null","<p></p>","null","","","","","","","","","","","","","","","","","","","","","","","",""
"","do_trial","175","521640","0.0-97.0-0.0","327.5","","","","","","","","50","0,1,0","6","blank","308","null","0.4340509096710518","0.6235748733073098","0.138665851558595","1","","","","","","","","",""
"","html-keyboard-response","176","522643","0.0-97.0-1.0","null","<p></p>","null","","","","","","","","","","","","","","","","","","","","","","","",""
"","do_trial","177","525645","0.0-98.0-0.0","462.7000002861023","","","","","","","","50","1,0,0","6","blank","309","null","0.4977428902960192","0.6517857793618593","0.15117897852952053","0","","","","","","","","",""
"","html-keyboard-response","178","526650","0.0-98.0-1.0","null","<p></p>","null","","","","","","","","","","","","","","","","","","","","","","","",""
"","do_recog","179","529877","0.0-99.0-0.0","1717.7999997138977","","","","","","","","53","","","","310","probe-204","","","","","1","[object Object]","83","2","1","","","",""
"","html-keyboard-response","180","530880","0.0-99.0-1.0","null","<p></p>","null","","","","","","","","","","","","","","","","","","","","","","","",""
"","do_trial","181","534473","0.0-100.0-0.0","1057.4000000953674","","","","","","","","49","0,0,0","6","blank","311","null","0.4953725921700231","0.6398017288148843","0.20753246787519972","0","","","","","","","","",""
"","html-keyboard-response","182","535477","0.0-100.0-1.0","null","<p></p>","null","","","","","","","","","","","","","","","","","","","","","","","",""
"","do_trial","183","538926","0.0-101.0-0.0","915.8000001907349","","","","","","","","50","0,1,0","6","blank","312","null","0.44893636492710615","0.6384492375242815","0.21872588789329783","1","","","","","","","","",""
"","html-keyboard-response","184","539930","0.0-101.0-1.0","null","<p></p>","null","","","","","","","","","","","","","","","","","","","","","","","",""
"","do_recog","185","543035","0.0-102.0-0.0","1600.9000000953674","","","","","","","","53","","","","313","probe-01","","","","","1","[object Object]","45","1","1","","","",""
"","html-keyboard-response","186","544038","0.0-102.0-1.0","null","<p></p>","null","","","","","","","","","","","","","","","","","","","","","","","",""
"","do_trial","187","547657","0.0-103.0-0.0","1084.1000003814697","","","","","","","","49","0,0,0","6","blank","314","null","0.37934156886095516","0.7181452291602416","0.22139942698164813","0","","","","","","","","",""
"","html-keyboard-response","188","548661","0.0-103.0-1.0","null","<p></p>","null","","","","","","","","","","","","","","","","","","","","","","","",""
"","do_trial","189","552072","0.0-104.0-0.0","871.9000000953674","","","","","","","","50","1,1,0","6","blank","315","null","0.44494461211483183","0.6468451438336434","0.15252933903801263","1","","","","","","","","",""
"","html-keyboard-response","190","553077","0.0-104.0-1.0","null","<p></p>","null","","","","","","","","","","","","","","","","","","","","","","","",""
"","do_trial","191","556346","0.0-105.0-0.0","731.6999998092651","","","","","","","","50","0,0,0","6","blank","316","null","0.42987150547400094","0.6304125110751234","0.2131943139849961","0","","","","","","","","",""
"","html-keyboard-response","192","557350","0.0-105.0-1.0","null","<p></p>","null","","","","","","","","","","","","","","","","","","","","","","","",""
"","do_trial","193","560516","0.0-106.0-0.0","631.5","","","","","","","","51","0,1,0","6","blank","317","null","0.35168557754079316","0.6093661028913828","0.2571182331177241","0","","","","","","","","",""
"","html-keyboard-response","194","561520","0.0-106.0-1.0","null","<p></p>","null","","","","","","","","","","","","","","","","","","","","","","","",""
"","do_trial","195","565128","0.0-107.0-0.0","1074.3000001907349","","","","","","","","49","1,1,0","6","blank","318","null","0.28772729846670014","0.4891466018714279","0.09418686862152241","1","","","","","","","","",""
"","html-keyboard-response","196","566133","0.0-107.0-1.0","null","<p></p>","null","","","","","","","","","","","","","","","","","","","","","","","",""
"","do_trial","197","569091","0.0-108.0-0.0","421.5","","","","","","","","49","0,0,0","6","blank","319","null","0.48902665029614484","0.3181326064451285","0.07769521658303605","0","","","","","","","","",""
"","html-keyboard-response","198","570092","0.0-108.0-1.0","null","<p></p>","null","","","","","","","","","","","","","","","","","","","","","","","",""
"","do_trial","199","573086","0.0-109.0-0.0","456.09999990463257","","","","","","","","50","1,0,0","6","blank","320","null","0.3034461219809644","0.352488625759018","0.08322271898341126","0","","","","","","","","",""
"","html-keyboard-response","200","574088","0.0-109.0-1.0","null","<p></p>","null","","","","","","","","","","","","","","","","","","","","","","","",""
"","do_recog","201","578283","0.0-110.0-0.0","2689.9000000953674","","","","","","","","53","","","","321","probe-113","","","","","1","[object Object]","49","1","1","","","",""
"","html-keyboard-response","202","579286","0.0-110.0-1.0","null","<p></p>","null","","","","","","","","","","","","","","","","","","","","","","","",""
"","do_trial","203","582954","0.0-111.0-0.0","1129.5","","","","","","","","49","0,0,0","6","blank","322","null","0.33263905560671736","0.4616897486975363","0.05978215642462034","0","","","","","","","","",""
"","html-keyboard-response","204","583957","0.0-111.0-1.0","null","<p></p>","null","","","","","","","","","","","","","","","","","","","","","","","",""
"","do_recog","205","587636","0.0-112.0-0.0","2170.2999997138977","","","","","","","","53","","","","323","probe-150","","","","","1","[object Object]","126","3","1","","","",""
"","html-keyboard-response","206","588639","0.0-112.0-1.0","null","<p></p>","null","","","","","","","","","","","","","","","","","","","","","","","",""
"","do_trial","207","592472","0.0-113.0-0.0","1294.3000001907349","","","","","","","","49","1,0,0","6","blank","324","null","0.44206959443429145","0.4728573888819232","0.15496625056752333","1","","","","","","","","",""
"","html-keyboard-response","208","593478","0.0-113.0-1.0","null","<p></p>","null","","","","","","","","","","","","","","","","","","","","","","","",""
"","do_recog","209","596676","0.0-114.0-0.0","1694.5999999046326","","","","","","","","53","","","","325","probe-73","","","","","1","[object Object]","44","1","1","","","",""
"","html-keyboard-response","210","597679","0.0-114.0-1.0","null","<p></p>","null","","","","","","","","","","","","","","","","","","","","","","","",""
"","do_trial","211","600831","0.0-115.0-0.0","613.4000000953674","","","","","","","","49","1,0,0","6","blank","326","null","0.370695950251108","0.47437647781685294","0.24957537290441617","1","","","","","","","","",""
"","html-keyboard-response","212","601834","0.0-115.0-1.0","null","<p></p>","null","","","","","","","","","","","","","","","","","","","","","","","",""
"","do_trial","213","604978","0.0-116.0-0.0","609.1999998092651","","","","","","","","49","1,1,1","6","blank","327","null","0.3044708222649777","0.6088525131930801","0.26506782409265006","1","","","","","","","","",""
"","html-keyboard-response","214","605984","0.0-116.0-1.0","null","<p></p>","null","","","","","","","","","","","","","","","","","","","","","","","",""
"","do_trial","215","608931","0.0-117.0-0.0","408.1000003814697","","","","","","","","49","1,1,1","6","blank","328","null","0.2982721591186018","0.6984575716683545","0.17798389651826077","1","","","","","","","","",""
"","html-keyboard-response","216","609934","0.0-117.0-1.0","null","<p></p>","null","","","","","","","","","","","","","","","","","","","","","","","",""
"","do_trial","217","612812","0.0-118.0-0.0","339.19999980926514","","","","","","","","49","1,1,0","6","blank","329","null","0.3832517498133429","0.6218776737046926","0.21726265695093283","1","","","","","","","","",""
"","html-keyboard-response","218","613817","0.0-118.0-1.0","null","<p></p>","null","","","","","","","","","","","","","","","","","","","","","","","",""
"","do_recog","219","617525","0.0-119.0-0.0","2202.2999997138977","","","","","","","","53","","","","330","probe-109","","","","","1","[object Object]","82","2","1","","","",""
"","html-keyboard-response","220","618529","0.0-119.0-1.0","null","<p></p>","null","","","","","","","","","","","","","","","","","","","","","","","",""
"","do_trial","221","621978","0.0-120.0-0.0","913.8999996185303","","","","","","","","49","1,1,0","6","blank","331","null","0.2988961970156923","0.6183017301892072","0.09530828849226758","1","","","","","","","","",""
"","html-keyboard-response","222","622981","0.0-120.0-1.0","null","<p></p>","null","","","","","","","","","","","","","","","","","","","","","","","",""
"","do_recog","223","626178","0.0-121.0-0.0","1689.2999997138977","","","","","","","","53","","","","332","probe-237","","","","","0","[object Object]","null","null","0","","","",""
"","html-keyboard-response","224","627182","0.0-121.0-1.0","null","<p></p>","null","","","","","","","","","","","","","","","","","","","","","","","",""
"","do_trial","225","630261","0.0-122.0-0.0","541","","","","","","","","49","1,1,0","6","blank","333","null","0.3901991525490224","0.6347281229934789","0.13724669805681075","1","","","","","","","","",""
"","html-keyboard-response","226","631264","0.0-122.0-1.0","null","<p></p>","null","","","","","","","","","","","","","","","","","","","","","","","",""
"","do_recog","227","635558","0.0-123.0-0.0","2788.800000190735","","","","","","","","56","","","","334","probe-255","","","","","0","[object Object]","null","null","1","","","",""
"","html-keyboard-response","228","636561","0.0-123.0-1.0","null","<p></p>","null","","","","","","","","","","","","","","","","","","","","","","","",""
"","do_trial","229","639847","0.0-124.0-0.0","746.7999997138977","","","","","","","","49","0,0,0","6","blank","335","null","0.2877792312111047","0.5769427289543495","0.17476255202346797","0","","","","","","","","",""
"","html-keyboard-response","230","640850","0.0-124.0-1.0","null","<p></p>","null","","","","","","","","","","","","","","","","","","","","","","","",""
"","do_recog","231","644966","0.0-125.0-0.0","2608.5","","","","","","","","53","","","","336","probe-25","","","","","1","[object Object]","89","2","1","","","",""
"","html-keyboard-response","232","645969","0.0-125.0-1.0","null","<p></p>","null","","","","","","","","","","","","","","","","","","","","","","","",""
"","do_trial","233","648891","0.0-126.0-0.0","384.2999997138977","","","","","","","","49","1,1,0","6","blank","337","null","0.4615464513742798","0.5259562210304268","0.15435028721698213","1","","","","","","","","",""
"","html-keyboard-response","234","649892","0.0-126.0-1.0","null","<p></p>","null","","","","","","","","","","","","","","","","","","","","","","","",""
"","do_trial","235","653005","0.0-127.0-0.0","578.7999997138977","","","","","","","","49","1,0,0","6","blank","338","null","0.4407006635682989","0.5171960813574819","0.1154102830790933","1","","","","","","","","",""
"","html-keyboard-response","236","654008","0.0-127.0-1.0","null","<p></p>","null","","","","","","","","","","","","","","","","","","","","","","","",""
"","do_trial","237","657070","0.0-128.0-0.0","524","","","","","","","","49","1,0,0","6","blank","339","null","0.5145629597078291","0.5030913908679787","0.171994731528082","1","","","","","","","","",""
"","html-keyboard-response","238","658072","0.0-128.0-1.0","null","<p></p>","null","","","","","","","","","","","","","","","","","","","","","","","",""
"","do_trial","239","661155","0.0-129.0-0.0","540.4000000953674","","","","","","","","49","0,0,0","6","blank","340","null","0.3875624400471279","0.6170510440712934","0.2430679621680777","0","","","","","","","","",""
"","html-keyboard-response","240","662158","0.0-129.0-1.0","null","<p></p>","null","","","","","","","","","","","","","","","","","","","","","","","",""
"","do_trial","241","665057","0.0-130.0-0.0","361.59999990463257","","","","","","","","50","0,1,0","6","blank","341","null","0.25841223326441737","0.6580318949953936","0.15197550794338793","1","","","","","","","","",""
"","html-keyboard-response","242","666061","0.0-130.0-1.0","null","<p></p>","null","","","","","","","","","","","","","","","","","","","","","","","",""
"","do_trial","243","669177","0.0-131.0-0.0","577.1999998092651","","","","","","","","50","0,1,0","6","blank","342","null","0.2540432067933009","0.6651547144904304","0.15022547697461833","1","","","","","","","","",""
"","html-keyboard-response","244","670180","0.0-131.0-1.0","null","<p></p>","null","","","","","","","","","","","","","","","","","","","","","","","",""
"","do_recog","245","673588","0.0-132.0-0.0","1899.7000002861023","","","","","","","","56","","","","343","probe-199","","","","","1","[object Object]","48","1","0","","","",""
"","html-keyboard-response","246","674589","0.0-132.0-1.0","null","<p></p>","null","","","","","","","","","","","","","","","","","","","","","","","",""
"","do_trial","247","677802","0.0-133.0-0.0","676.9000000953674","","","","","","","","49","0,1,0","6","blank","344","null","0.24043330341028127","0.6398450323197734","0.23547243840866716","0","","","","","","","","",""
"","html-keyboard-response","248","678806","0.0-133.0-1.0","null","<p></p>","null","","","","","","","","","","","","","","","","","","","","","","","",""
"","do_trial","249","681687","0.0-134.0-0.0","342.09999990463257","","","","","","","","50","0,1,0","6","blank","345","null","0.2668859786261512","0.6439256413759677","0.052886814627624366","1","","","","","","","","",""
"","html-keyboard-response","250","682690","0.0-134.0-1.0","null","<p></p>","null","","","","","","","","","","","","","","","","","","","","","","","",""
"","do_trial","251","685636","0.0-135.0-0.0","406.80000019073486","","","","","","","","50","0,1,0","6","blank","346","null","0.3704912756677271","0.7228990406354787","0.13158148717500226","1","","","","","","","","",""
"","html-keyboard-response","252","686639","0.0-135.0-1.0","null","<p></p>","null","","","","","","","","","","","","","","","","","","","","","","","",""
"","do_trial","253","689569","0.0-136.0-0.0","395.8999996185303","","","","","","","","50","1,1,0","6","blank","347","null","0.49150268677909176","0.5909987954059177","0.22705742174636498","1","","","","","","","","",""
"","html-keyboard-response","254","690573","0.0-136.0-1.0","null","<p></p>","null","","","","","","","","","","","","","","","","","","","","","","","",""
"","do_trial","255","694163","0.0-137.0-0.0","1051.7000002861023","","","","","","","","50","1,1,0","6","blank","348","null","0.6594673603911485","0.7158336930222439","0.2922882408495214","1","","","","","","","","",""
"","html-keyboard-response","256","695168","0.0-137.0-1.0","null","<p></p>","null","","","","","","","","","","","","","","","","","","","","","","","",""
"","do_recog","257","698404","0.0-138.0-0.0","1729.2000002861023","","","","","","","","53","","","","349","probe-97","","","","","1","[object Object]","165","4","1","","","",""
"","html-keyboard-response","258","699407","0.0-138.0-1.0","null","<p></p>","null","","","","","","","","","","","","","","","","","","","","","","","",""
"","do_trial","259","702340","0.0-139.0-0.0","396.40000009536743","","","","","","","","49","1,1,1","6","blank","350","null","0.7127182436529311","0.6263308896427843","0.26968013196339224","1","","","","","","","","",""
"","html-keyboard-response","260","703346","0.0-139.0-1.0","null","<p></p>","null","","","","","","","","","","","","","","","","","","","","","","","",""
"","do_recog","261","706878","0.0-140.0-0.0","2023.9000000953674","","","","","","","","53","","","","351","probe-227","","","","","1","[object Object]","121","3","1","","","",""
"","html-keyboard-response","262","707881","0.0-140.0-1.0","null","<p></p>","null","","","","","","","","","","","","","","","","","","","","","","","",""
"","do_trial","263","711003","0.0-141.0-0.0","585.0999999046326","","","","","","","","49","1,0,0","6","blank","352","null","0.6041779342348808","0.4272956270677372","0.12274662260390833","1","","","","","","","","",""
"","html-keyboard-response","264","712004","0.0-141.0-1.0","null","<p></p>","null","","","","","","","","","","","","","","","","","","","","","","","",""
"","do_recog","265","715413","0.0-142.0-0.0","1903.5999999046326","","","","","","","","53","","","","353","probe-222","","","","","1","[object Object]","209","5","1","","","",""
"","html-keyboard-response","266","716417","0.0-142.0-1.0","null","<p></p>","null","","","","","","","","","","","","","","","","","","","","","","","",""
"","do_trial","267","719576","0.0-143.0-0.0","622.2999997138977","","","","","","","","49","0,1,0","6","blank","354","null","0.4501462242659852","0.4719704018307255","0.07116167949609509","0","","","","","","","","",""
"","html-keyboard-response","268","720579","0.0-143.0-1.0","null","<p></p>","null","","","","","","","","","","","","","","","","","","","","","","","",""
"","do_recog","269","724043","0.0-144.0-0.0","1958.0999999046326","","","","","","","","56","","","","355","probe-153","","","","","1","[object Object]","80","2","0","","","",""
"","html-keyboard-response","270","725046","0.0-144.0-1.0","null","<p></p>","null","","","","","","","","","","","","","","","","","","","","","","","",""
"","do_trial","271","728137","0.0-145.0-0.0","554.2999997138977","","","","","","","","50","0,0,0","6","blank","356","null","0.5231325191619073","0.3575997521619628","0.06138701272174231","0","","","","","","","","",""
"","html-keyboard-response","272","729140","0.0-145.0-1.0","null","<p></p>","null","","","","","","","","","","","","","","","","","","","","","","","",""
"","do_trial","273","732065","0.0-146.0-0.0","386.3999996185303","","","","","","","","49","1,1,0","6","blank","357","null","0.5199454932305508","0.4948086519004023","0.12457758587413124","1","","","","","","","","",""
"","html-keyboard-response","274","733069","0.0-146.0-1.0","null","<p></p>","null","","","","","","","","","","","","","","","","","","","","","","","",""
"","do_recog","275","736612","0.0-147.0-0.0","2035.2000002861023","","","","","","","","53","","","","358","probe-124","","","","","1","[object Object]","120","3","1","","","",""
"","html-keyboard-response","276","737615","0.0-147.0-1.0","null","<p></p>","null","","","","","","","","","","","","","","","","","","","","","","","",""
"","do_trial","277","740852","0.0-148.0-0.0","698","","","","","","","","49","1,1,1","6","blank","359","null","0.6002256613234183","0.46040137358621525","0.08853227307290422","1","","","","","","","","",""
"","html-keyboard-response","278","741858","0.0-148.0-1.0","null","<p></p>","null","","","","","","","","","","","","","","","","","","","","","","","",""
"","do_trial","279","745856","0.0-149.0-0.0","1462.1999998092651","","","","","","","","49","0,1,0","6","blank","360","null","0.5599435552623547","0.4854614078737355","0.0719281442786777","0","","","","","","","","",""
"","html-keyboard-response","280","746859","0.0-149.0-1.0","null","<p></p>","null","","","","","","","","","","","","","","","","","","","","","","","",""
"","do_trial","281","749994","0.0-150.0-0.0","600.2999997138977","","","","","","","","49","0,0,0","6","blank","361","null","0.5733313182058377","0.23841366440777598","0.13745693640544518","0","","","","","","","","",""
"","html-keyboard-response","282","750996","0.0-150.0-1.0","null","<p></p>","null","","","","","","","","","","","","","","","","","","","","","","","",""
"","do_trial","283","754091","0.0-151.0-0.0","559.5","","","","","","","","50","1,0,0","6","blank","362","null","0.590379542627642","0.18484595600505382","0.17577015244172242","0","","","","","","","","",""
"","html-keyboard-response","284","755093","0.0-151.0-1.0","null","<p></p>","null","","","","","","","","","","","","","","","","","","","","","","","",""
"","do_trial","285","758032","0.0-152.0-0.0","399.5","","","","","","","","51","0,0,0","6","blank","363","null","0.5585387575892986","0.14435676908727219","0.1619961984585869","0","","","","","","","","",""
"","html-keyboard-response","286","759034","0.0-152.0-1.0","null","<p></p>","null","","","","","","","","","","","","","","","","","","","","","","","",""
"","do_trial","287","761987","0.0-153.0-0.0","418.5","","","","","","","","49","1,0,0","6","blank","364","null","0.6052973899031142","0.18845180309827925","0.05126061882847092","1","","","","","","","","",""
"","html-keyboard-response","288","762989","0.0-153.0-1.0","null","<p></p>","null","","","","","","","","","","","","","","","","","","","","","","","",""
"","do_trial","289","765993","0.0-154.0-0.0","469.59999990463257","","","","","","","","49","0,0,0","6","blank","365","null","0.3583704220753271","0.2745572281041641","0.164304361572314","0","","","","","","","","",""
"","html-keyboard-response","290","766995","0.0-154.0-1.0","null","<p></p>","null","","","","","","","","","","","","","","","","","","","","","","","",""
"","do_recog","291","770191","0.0-155.0-0.0","1691.5","","","","","","","","53","","","","366","probe-162","","","","","1","[object Object]","201","5","1","","","",""
"","html-keyboard-response","292","771192","0.0-155.0-1.0","null","<p></p>","null","","","","","","","","","","","","","","","","","","","","","","","",""
"","do_trial","293","774771","0.0-156.0-0.0","1041.0999999046326","","","","","","","","49","0,0,0","6","blank","367","null","0.7246038284374348","0.08492386628694046","0.08110691607501329","0","","","","","","","","",""
"","html-keyboard-response","294","775775","0.0-156.0-1.0","null","<p></p>","null","","","","","","","","","","","","","","","","","","","","","","","",""
"","do_trial","295","778709","0.0-157.0-0.0","396.09999990463257","","","","","","","","50","1,0,0","6","blank","368","null","0.653743031131457","0.11800945737649705","0.2069105355488494","0","","","","","","","","",""
"","html-keyboard-response","296","779711","0.0-157.0-1.0","null","<p></p>","null","","","","","","","","","","","","","","","","","","","","","","","",""
"","do_trial","297","782623","0.0-158.0-0.0","374.19999980926514","","","","","","","","51","1,1,0","6","blank","369","null","0.7997289820150979","0.11106835141649313","0.08519750198237151","0","","","","","","","","",""
"","html-keyboard-response","298","783626","0.0-158.0-1.0","null","<p></p>","null","","","","","","","","","","","","","","","","","","","","","","","",""
"","do_trial","299","786490","0.0-159.0-0.0","329.69999980926514","","","","","","","","49","1,0,0","6","blank","370","null","0.7701202423906058","0.20173510117133703","0.12180888606484111","1","","","","","","","","",""
"","html-keyboard-response","300","787492","0.0-159.0-1.0","null","<p></p>","null","","","","","","","","","","","","","","","","","","","","","","","",""
"","do_trial","301","790409","0.0-160.0-0.0","379.80000019073486","","","","","","","","49","0,0,0","6","blank","371","null","0.7266687713394613","0.23556267432803707","0.241564484781024","0","","","","","","","","",""
"","html-keyboard-response","302","791412","0.0-160.0-1.0","null","<p></p>","null","","","","","","","","","","","","","","","","","","","","","","","",""
"","do_trial","303","795043","0.0-161.0-0.0","1094.2999997138977","","","","","","","","49","1,0,0","6","blank","372","null","0.7155948790176788","0.16298012188803807","0.05287479937072355","1","","","","","","","","",""
"","html-keyboard-response","304","796047","0.0-161.0-1.0","null","<p></p>","null","","","","","","","","","","","","","","","","","","","","","","","",""
"","do_recog","305","799288","0.0-162.0-0.0","1733.1000003814697","","","","","","","","56","","","","373","probe-108","","","","","1","[object Object]","123","3","0","","","",""
"","html-keyboard-response","306","800291","0.0-162.0-1.0","null","<p></p>","null","","","","","","","","","","","","","","","","","","","","","","","",""
"","do_trial","307","804693","0.0-163.0-0.0","1868","","","","","","","","49","0,0,0","6","blank","374","null","0.6460317236860122","0.14189961193763814","0.06384264277329402","0","","","","","","","","",""
"","html-keyboard-response","308","805695","0.0-163.0-1.0","null","<p></p>","null","","","","","","","","","","","","","","","","","","","","","","","",""
"","do_trial","309","809174","0.0-164.0-0.0","941.6999998092651","","","","","","","","49","0,0,0","6","blank","375","null","0.595155720622947","0.22442158888092284","0.07148925229128648","0","","","","","","","","",""
"","html-keyboard-response","310","810177","0.0-164.0-1.0","null","<p></p>","null","","","","","","","","","","","","","","","","","","","","","","","",""
"","do_trial","311","813034","0.0-165.0-0.0","318.6000003814697","","","","","","","","50","1,0,0","6","blank","376","null","0.6864253678839703","0.19991792968190425","0.12663474415376766","0","","","","","","","","",""
"","html-keyboard-response","312","814037","0.0-165.0-1.0","null","<p></p>","null","","","","","","","","","","","","","","","","","","","","","","","",""
"","do_trial","313","817589","0.0-166.0-0.0","1014.6999998092651","","","","","","","","51","0,0,0","6","blank","377","null","0.6765689755245472","0.2923039381700325","0.07795024573178966","0","","","","","","","","",""
"","html-keyboard-response","314","818590","0.0-166.0-1.0","null","<p></p>","null","","","","","","","","","","","","","","","","","","","","","","","",""
"","do_recog","315","821879","0.0-167.0-0.0","1780.5","","","","","","","","53","","","","378","probe-34","","","","","1","[object Object]","43","1","1","","","",""
"","html-keyboard-response","316","822884","0.0-167.0-1.0","null","<p></p>","null","","","","","","","","","","","","","","","","","","","","","","","",""
"","do_trial","317","826546","0.0-168.0-0.0","1122.9000000953674","","","","","","","","49","1,0,0","6","blank","379","null","0.7247891731547526","0.25855016007945236","0.06426494637870475","1","","","","","","","","",""
"","html-keyboard-response","318","827549","0.0-168.0-1.0","null","<p></p>","null","","","","","","","","","","","","","","","","","","","","","","","",""
"","do_trial","319","830503","0.0-169.0-0.0","418.40000009536743","","","","","","","","49","0,0,0","6","blank","380","null","0.6870990804187379","0.12667118852470083","0.10368920473355965","0","","","","","","","","",""
"","html-keyboard-response","320","831506","0.0-169.0-1.0","null","<p></p>","null","","","","","","","","","","","","","","","","","","","","","","","",""
"","do_trial","321","834419","0.0-170.0-0.0","376.40000009536743","","","","","","","","50","1,0,1","6","blank","381","null","0.6589544499128417","0.09565009698373081","0.08348595398413361","0","","","","","","","","",""
"","html-keyboard-response","322","835422","0.0-170.0-1.0","null","<p></p>","null","","","","","","","","","","","","","","","","","","","","","","","",""
"","do_recog","323","839224","0.0-171.0-0.0","2295.5","","","","","","","","53","","","","382","probe-232","","","","","0","[object Object]","null","null","0","","","",""
"","html-keyboard-response","324","840227","0.0-171.0-1.0","null","<p></p>","null","","","","","","","","","","","","","","","","","","","","","","","",""
"","do_trial","325","843782","0.0-172.0-0.0","1016","","","","","","","","49","0,0,1","6","blank","383","null","0.6693668987461409","0.1270182513613377","0.17351883010689123","0","","","","","","","","",""
"","html-keyboard-response","326","844785","0.0-172.0-1.0","null","<p></p>","null","","","","","","","","","","","","","","","","","","","","","","","",""
"","do_recog","327","848156","0.0-173.0-0.0","1865.8999996185303","","","","","","","","53","","","","384","probe-10","","","","","1","[object Object]","161","4","1","","","",""
"","html-keyboard-response","328","849160","0.0-173.0-1.0","null","<p></p>","null","","","","","","","","","","","","","","","","","","","","","","","",""
"","do_trial","329","852667","0.0-174.0-0.0","970.8000001907349","","","","","","","","49","0,0,0","6","blank","385","null","0.6450572422333142","0.38325548382038854","0.08028662087953235","0","","","","","","","","",""
"","html-keyboard-response","330","853671","0.0-174.0-1.0","null","<p></p>","null","","","","","","","","","","","","","","","","","","","","","","","",""
"","do_trial","331","856605","0.0-175.0-0.0","397.30000019073486","","","","","","","","50","1,1,0","6","blank","386","null","0.7633320158570404","0.31598870099577897","0.0844532830705441","1","","","","","","","","",""
"","html-keyboard-response","332","857609","0.0-175.0-1.0","null","<p></p>","null","","","","","","","","","","","","","","","","","","","","","","","",""
"","do_trial","333","860579","0.0-176.0-0.0","430.69999980926514","","","","","","","","50","0,0,1","6","blank","387","null","0.7206174538334683","0.2592433741731934","0.1334093788247711","0","","","","","","","","",""
"","html-keyboard-response","334","861582","0.0-176.0-1.0","null","<p></p>","null","","","","","","","","","","","","","","","","","","","","","","","",""
"","do_trial","335","864445","0.0-177.0-0.0","327.5","","","","","","","","51","1,0,0","6","blank","388","null","0.7913082127417097","0.34668428533436163","0.11649714933645701","0","","","","","","","","",""
"","html-keyboard-response","336","865450","0.0-177.0-1.0","null","<p></p>","null","","","","","","","","","","","","","","","","","","","","","","","",""
"","do_recog","337","868597","0.0-178.0-0.0","1643.1999998092651","","","","","","","","53","","","","389","probe-03","","","","","1","[object Object]","163","4","1","","","",""
"","html-keyboard-response","338","869600","0.0-178.0-1.0","null","<p></p>","null","","","","","","","","","","","","","","","","","","","","","","","",""
"","do_trial","339","872501","0.0-179.0-0.0","364.90000009536743","","","","","","","","49","0,0,0","6","blank","390","null","0.7237478201425935","0.24522215424114416","0.2362715231715068","0","","","","","","","","",""
"","html-keyboard-response","340","873504","0.0-179.0-1.0","null","<p></p>","null","","","","","","","","","","","","","","","","","","","","","","","",""
"","do_trial","341","876532","0.0-180.0-0.0","488","","","","","","","","50","0,0,0","6","blank","391","null","0.5983545848761344","0.16529618155077516","0.2546872590218347","0","","","","","","","","",""
"","html-keyboard-response","342","877535","0.0-180.0-1.0","null","<p></p>","null","","","","","","","","","","","","","","","","","","","","","","","",""
"","do_trial","343","881222","0.0-181.0-0.0","1148.5","","","","","","","","51","0,0,0","6","blank","392","null","0.6584843329687418","0.336002476285582","0.21901668386674464","0","","","","","","","","",""
"","html-keyboard-response","344","882224","0.0-181.0-1.0","null","<p></p>","null","","","","","","","","","","","","","","","","","","","","","","","",""
"","do_trial","345","886375","0.0-182.0-0.0","1612.5","","","","","","","","49","1,1,0","6","blank","393","null","0.7054152454593914","0.2758467372530063","0.1297967519152851","1","","","","","","","","",""
"","html-keyboard-response","346","887381","0.0-182.0-1.0","null","<p></p>","null","","","","","","","","","","","","","","","","","","","","","","","",""
"","do_trial","347","890893","0.0-183.0-0.0","977.8000001907349","","","","","","","","49","0,0,0","6","blank","394","null","0.8833023902179512","0.264268768125454","0.2370399508813123","0","","","","","","","","",""
"","html-keyboard-response","348","891895","0.0-183.0-1.0","null","<p></p>","null","","","","","","","","","","","","","","","","","","","","","","","",""
"","do_trial","349","894791","0.0-184.0-0.0","356.3999996185303","","","","","","","","50","1,0,0","6","blank","395","null","0.7199226451146622","0.1814624405960133","0.21185405989288936","0","","","","","","","","",""
"","html-keyboard-response","350","895793","0.0-184.0-1.0","null","<p></p>","null","","","","","","","","","","","","","","","","","","","","","","","",""
"","do_trial","351","898672","0.0-185.0-0.0","340.2000002861023","","","","","","","","51","1,0,1","6","blank","396","null","0.61792340616002","0.19976401243204095","0.24787900753337133","1","","","","","","","","",""
"","html-keyboard-response","352","899676","0.0-185.0-1.0","null","<p></p>","null","","","","","","","","","","","","","","","","","","","","","","","",""
"","do_recog","353","902935","0.0-186.0-0.0","1752.9000000953674","","","","","","","","53","","","","397","probe-140","","","","","1","[object Object]","85","2","1","","","",""
"","html-keyboard-response","354","903940","0.0-186.0-1.0","null","<p></p>","null","","","","","","","","","","","","","","","","","","","","","","","",""
"","do_trial","355","906862","0.0-187.0-0.0","383.59999990463257","","","","","","","","49","1,0,0","6","blank","398","null","0.6296996450529226","0.15978554400756334","0.24890427391842967","1","","","","","","","","",""
"","html-keyboard-response","356","907864","0.0-187.0-1.0","null","<p></p>","null","","","","","","","","","","","","","","","","","","","","","","","",""
"","do_recog","357","911307","0.0-188.0-0.0","1934.7000002861023","","","","","","","","53","","","","399","probe-152","","","","","1","[object Object]","202","5","1","","","",""
"","html-keyboard-response","358","912310","0.0-188.0-1.0","null","<p></p>","null","","","","","","","","","","","","","","","","","","","","","","","",""
"","do_trial","359","915318","0.0-189.0-0.0","473.7999997138977","","","","","","","","49","1,0,0","6","blank","400","null","0.60369793565823","0.1865944215061321","0.3535382710572004","1","","","","","","","","",""
"","html-keyboard-response","360","916321","0.0-189.0-1.0","null","<p></p>","null","","","","","","","","","","","","","","","","","","","","","","","",""
"","do_recog","361","919494","0.0-190.0-0.0","1668.2000002861023","","","","","","","","53","","","","401","probe-67","","","","","1","[object Object]","84","2","1","","","",""
"","html-keyboard-response","362","920496","0.0-190.0-1.0","null","<p></p>","null","","","","","","","","","","","","","","","","","","","","","","","",""
"","do_trial","363","923434","0.0-191.0-0.0","399.09999990463257","","","","","","","","49","1,0,0","6","blank","402","null","0.5144820328735681","0.1212367019942002","0.4726786747650327","1","","","","","","","","",""
"","html-keyboard-response","364","924438","0.0-191.0-1.0","null","<p></p>","null","","","","","","","","","","","","","","","","","","","","","","","",""
"","do_recog","365","927857","0.0-192.0-0.0","1910.7000002861023","","","","","","","","56","","","","403","probe-168","","","","","1","[object Object]","164","4","0","","","",""
"","html-keyboard-response","366","928860","0.0-192.0-1.0","null","<p></p>","null","","","","","","","","","","","","","","","","","","","","","","","",""
"","do_trial","367","931913","0.0-193.0-0.0","517.8000001907349","","","","","","","","49","0,0,0","6","blank","404","null","0.47013111810563407","0.08623898827778582","0.4246915457870227","0","","","","","","","","",""
"","html-keyboard-response","368","932916","0.0-193.0-1.0","null","<p></p>","null","","","","","","","","","","","","","","","","","","","","","","","",""
"","do_trial","369","936188","0.0-194.0-0.0","736.8999996185303","","","","","","","","50","1,1,1","6","blank","405","null","0.4617206300570399","0.18452908768108198","0.5896063370693598","1","","","","","","","","",""
"","html-keyboard-response","370","937190","0.0-194.0-1.0","null","<p></p>","null","","","","","","","","","","","","","","","","","","","","","","","",""
"","do_trial","371","940712","0.0-195.0-0.0","985.0999999046326","","","","","","","","51","0,0,0","6","blank","406","null","0.3393618234070227","0.05251208625749351","0.5961898771728156","0","","","","","","","","",""
"","html-keyboard-response","372","941715","0.0-195.0-1.0","null","<p></p>","null","","","","","","","","","","","","","","","","","","","","","","","",""
"","do_recog","373","944957","0.0-196.0-0.0","1733.4000000953674","","","","","","","","53","","","","407","probe-112","","","","","1","[object Object]","46","1","1","","","",""
"","html-keyboard-response","374","945962","0.0-196.0-1.0","null","<p></p>","null","","","","","","","","","","","","","","","","","","","","","","","",""
"","do_trial","375","949265","0.0-197.0-0.0","763.9000000953674","","","","","","","","49","0,0,0","6","blank","408","null","0.20896720143816794","0.08302336700924096","0.7358441229410129","0","","","","","","","","",""
"","html-keyboard-response","376","950269","0.0-197.0-1.0","null","<p></p>","null","","","","","","","","","","","","","","","","","","","","","","","",""
"","do_recog","377","953933","0.0-198.0-0.0","2157.9000000953674","","","","","","","","54","","","","409","probe-143","","","","","1","[object Object]","204","5","1","","","",""
"","html-keyboard-response","378","954935","0.0-198.0-1.0","null","<p></p>","null","","","","","","","","","","","","","","","","","","","","","","","",""
"","do_trial","379","958445","0.0-199.0-0.0","971","","","","","","","","49","0,0,0","6","blank","410","null","0.13029267198870906","0.1620339568306487","0.7919093871289944","0","","","","","","","","",""
"","html-keyboard-response","380","959448","0.0-199.0-1.0","null","<p></p>","null","","","","","","","","","","","","","","","","","","","","","","","",""
"","do_trial","381","962417","0.0-200.0-0.0","429.40000009536743","","","","","","","","50","0,0,1","6","blank","411","null","0.21134661908315053","0.09874543372834861","0.7066965516091409","0","","","","","","","","",""
"","html-keyboard-response","382","963420","0.0-200.0-1.0","null","<p></p>","null","","","","","","","","","","","","","","","","","","","","","","","",""
"","do_recog","383","966545","0.0-201.0-0.0","1618.1000003814697","","","","","","","","56","","","","412","probe-104","","","","","1","[object Object]","122","3","0","","","",""
"","html-keyboard-response","384","967548","0.0-201.0-1.0","null","<p></p>","null","","","","","","","","","","","","","","","","","","","","","","","",""
"","do_trial","385","971976","0.0-202.0-0.0","1892.3000001907349","","","","","","","","49","1,0,0","6","blank","413","null","0.294717416133687","0.149643699206027","0.6238884778000976","1","","","","","","","","",""
"","html-keyboard-response","386","972980","0.0-202.0-1.0","null","<p></p>","null","","","","","","","","","","","","","","","","","","","","","","","",""
"","do_trial","387","976165","0.0-203.0-0.0","645.7999997138977","","","","","","","","49","1,0,1","6","blank","414","null","0.22938702543828002","0.2722298794511063","0.7197342479941236","1","","","","","","","","",""
"","html-keyboard-response","388","977168","0.0-203.0-1.0","null","<p></p>","null","","","","","","","","","","","","","","","","","","","","","","","",""
"","do_trial","389","980260","0.0-204.0-0.0","552.8999996185303","","","","","","","","49","0,1,1","6","blank","415","null","0.4109884641962004","0.2922095181879342","0.7078734029380912","0","","","","","","","","",""
"","html-keyboard-response","390","981263","0.0-204.0-1.0","null","<p></p>","null","","","","","","","","","","","","","","","","","","","","","","","",""
"","do_trial","391","984294","0.0-205.0-0.0","496.30000019073486","","","","","","","","50","0,0,0","6","blank","416","null","0.2918783761498412","0.2233400338648547","0.5302796013794006","0","","","","","","","","",""
"","html-keyboard-response","392","985296","0.0-205.0-1.0","null","<p></p>","null","","","","","","","","","","","","","","","","","","","","","","","",""
"","do_trial","393","988242","0.0-206.0-0.0","412.5","","","","","","","","51","1,0,0","6","blank","417","null","0.3036534915370898","0.25480928841725936","0.5019174074458035","0","","","","","","","","",""
"","html-keyboard-response","394","989246","0.0-206.0-1.0","null","<p></p>","null","","","","","","","","","","","","","","","","","","","","","","","",""
"","do_recog","395","993356","0.0-207.0-0.0","2601.800000190735","","","","","","","","55","","","","418","probe-42","","","","","1","[object Object]","160","4","0","","","",""
"","html-keyboard-response","396","994360","0.0-207.0-1.0","null","<p></p>","null","","","","","","","","","","","","","","","","","","","","","","","",""
"","do_trial","397","1000396","0.0-208.0-0.0","null","","","","","","","","null","0,0,0","6","blank","419","null","0.22231872150299165","0.09429720275162705","0.5477622312557497","","","","","","","","","",""
"","html-keyboard-response","398","1001399","0.0-208.0-1.0","null","<p></p>","null","","","","","","","","","","","","","","","","","","","","","","","",""
"","do_recog","399","1005079","0.0-209.0-0.0","2171.5999999046326","","","","","","","","53","","","","420","probe-129","","","","","1","[object Object]","81","2","1","","","",""
"","html-keyboard-response","400","1006082","0.0-209.0-1.0","null","<p></p>","null","","","","","","","","","","","","","","","","","","","","","","","",""
"","do_trial","401","1011062","0.0-210.0-0.0","2441.0999999046326","","","","","","","","49","0,0,0","6","blank","421","null","0.38950582941996686","0.052439630908662715","0.6375897336840004","0","","","","","","","","",""
"","html-keyboard-response","402","1012066","0.0-210.0-1.0","null","<p></p>","null","","","","","","","","","","","","","","","","","","","","","","","",""
"","do_trial","403","1016156","0.0-211.0-0.0","1554.5999999046326","","","","","","","","50","1,0,0","6","blank","422","null","0.4441822252039691","0.09046393387868772","0.5108684619526838","0","","","","","","","","",""
"","html-keyboard-response","404","1017160","0.0-211.0-1.0","null","<p></p>","null","","","","","","","","","","","","","","","","","","","","","","","",""
"","do_trial","405","1022096","0.0-212.0-0.0","2400.9000000953674","","","","","","","","50","0,0,0","6","blank","423","null","0.2796721950435643","0.07418442005973887","0.5039993865456759","0","","","","","","","","",""
"","html-keyboard-response","406","1023098","0.0-212.0-1.0","null","<p></p>","null","","","","","","","","","","","","","","","","","","","","","","","",""
"","do_recog","407","1029104","0.0-213.0-0.0","null","","","","","","","","null","","","","424","probe-37","","","","","1","[object Object]","87","2","0","","","",""
"","html-keyboard-response","408","1030109","0.0-213.0-1.0","null","<p></p>","null","","","","","","","","","","","","","","","","","","","","","","","",""
"","do_trial","409","1033773","0.0-214.0-0.0","1130","","","","","","","","49","0,0,1","6","blank","425","null","0.26504071292627596","0.1214952984233203","0.3872892673881305","0","","","","","","","","",""
"","html-keyboard-response","410","1034777","0.0-214.0-1.0","null","<p></p>","null","","","","","","","","","","","","","","","","","","","","","","","",""
"","do_trial","411","1038827","0.0-215.0-0.0","1513.1999998092651","","","","","","","","50","0,0,0","6","blank","426","null","0.24693152643039512","0.054332877688053","0.4845216936451147","0","","","","","","","","",""
"","html-keyboard-response","412","1039831","0.0-215.0-1.0","null","<p></p>","null","","","","","","","","","","","","","","","","","","","","","","","",""
"","do_trial","413","1043123","0.0-216.0-0.0","756.5","","","","","","","","51","0,0,0","6","blank","427","null","0.3681445965812711","0.20078322348005556","0.5659711649705611","0","","","","","","","","",""
"","html-keyboard-response","414","1044126","0.0-216.0-1.0","null","<p></p>","null","","","","","","","","","","","","","","","","","","","","","","","",""
"","do_trial","415","1047537","0.0-217.0-0.0","871.5","","","","","","","","49","0,0,1","6","blank","428","null","0.28318231718474635","0.2386031865307461","0.5987499849338069","0","","","","","","","","",""
"","html-keyboard-response","416","1048540","0.0-217.0-1.0","null","<p></p>","null","","","","","","","","","","","","","","","","","","","","","","","",""
"","do_trial","417","1051463","0.0-218.0-0.0","384","","","","","","","","50","1,0,1","6","blank","429","null","0.07106248538535777","0.057845221594174386","0.5383921281445845","0","","","","","","","","",""
"","html-keyboard-response","418","1052467","0.0-218.0-1.0","null","<p></p>","null","","","","","","","","","","","","","","","","","","","","","","","",""
"","do_trial","419","1055546","0.0-219.0-0.0","540.8000001907349","","","","","","","","51","0,0,1","6","blank","430","null","0.05225724214490194","0.14579294821830874","0.4939897295016257","1","","","","","","","","",""
"","html-keyboard-response","420","1056549","0.0-219.0-1.0","null","<p></p>","null","","","","","","","","","","","","","","","","","","","","","","","",""
"","do_recog","421","1059913","0.0-220.0-0.0","1855.8999996185303","","","","","","","","53","","","","431","probe-80","","","","","1","[object Object]","40","1","1","","","",""
"","html-keyboard-response","422","1060917","0.0-220.0-1.0","null","<p></p>","null","","","","","","","","","","","","","","","","","","","","","","","",""
"","do_trial","423","1065297","0.0-221.0-0.0","1845.0999999046326","","","","","","","","49","0,0,0","6","blank","432","null","0.21725288973293322","0.12123272034891094","0.6235982213526231","0","","","","","","","","",""
"","html-keyboard-response","424","1066300","0.0-221.0-1.0","null","<p></p>","null","","","","","","","","","","","","","","","","","","","","","","","",""
"","do_recog","425","1069915","0.0-222.0-0.0","2106.300000190735","","","","","","","","53","","","","433","probe-158","","","","","1","[object Object]","124","3","1","","","",""
"","html-keyboard-response","426","1070918","0.0-222.0-1.0","null","<p></p>","null","","","","","","","","","","","","","","","","","","","","","","","",""
"","do_trial","427","1074420","0.0-223.0-0.0","967.6999998092651","","","","","","","","49","0,0,1","6","blank","434","null","0.1555835385373046","0.10867472940510528","0.6107325432514331","0","","","","","","","","",""
"","html-keyboard-response","428","1075423","0.0-223.0-1.0","null","<p></p>","null","","","","","","","","","","","","","","","","","","","","","","","",""
"","do_trial","429","1078763","0.0-224.0-0.0","803.4000000953674","","","","","","","","50","0,0,0","6","blank","435","null","0.23779331051983427","0.0702701558863242","0.7173688951395188","0","","","","","","","","",""
"","html-keyboard-response","430","1079767","0.0-224.0-1.0","null","<p></p>","null","","","","","","","","","","","","","","","","","","","","","","","",""
"","do_trial","431","1082690","0.0-225.0-0.0","388.5","","","","","","","","51","0,0,1","6","blank","436","null","0.22086004368944817","0.09375271596171983","0.6264241669860823","1","","","","","","","","",""
"","html-keyboard-response","432","1083691","0.0-225.0-1.0","null","<p></p>","null","","","","","","","","","","","","","","","","","","","","","","","",""
"","do_trial","433","1086587","0.0-226.0-0.0","356.1000003814697","","","","","","","","51","0,0,1","6","blank","437","null","0.254006286047445","0.08096055330423109","0.6420951779554013","1","","","","","","","","",""
"","html-keyboard-response","434","1087590","0.0-226.0-1.0","null","<p></p>","null","","","","","","","","","","","","","","","","","","","","","","","",""
"","do_trial","435","1090465","0.0-227.0-0.0","339","","","","","","","","51","1,0,1","6","blank","438","null","0.30000813894847383","0.07619470978420094","0.6062115340912088","1","","","","","","","","",""
"","html-keyboard-response","436","1091469","0.0-227.0-1.0","null","<p></p>","null","","","","","","","","","","","","","","","","","","","","","","","",""
"","do_recog","437","1094507","0.0-228.0-0.0","1530.8000001907349","","","","","","","","53","","","","439","probe-241","","","","","0","[object Object]","null","null","0","","","",""
"","html-keyboard-response","438","1095510","0.0-228.0-1.0","null","<p></p>","null","","","","","","","","","","","","","","","","","","","","","","","",""
"","do_trial","439","1098935","0.0-229.0-0.0","889.7000002861023","","","","","","","","49","0,0,1","6","blank","440","null","0.2793393890572863","0.11877905336265503","0.6440295831326189","0","","","","","","","","",""
"","html-keyboard-response","440","1099938","0.0-229.0-1.0","null","<p></p>","null","","","","","","","","","","","","","","","","","","","","","","","",""
"","do_trial","441","1102843","0.0-230.0-0.0","365.59999990463257","","","","","","","","50","0,0,1","6","blank","441","null","0.2612232459787506","0.1208312658030715","0.6303421565385419","0","","","","","","","","",""
"","html-keyboard-response","442","1103846","0.0-230.0-1.0","null","<p></p>","null","","","","","","","","","","","","","","","","","","","","","","","",""
"","do_trial","443","1106878","0.0-231.0-0.0","497","","","","","","","","51","0,1,0","6","blank","442","null","0.3754520926679376","0.2607094303925429","0.5345933147948415","0","","","","","","","","",""
"","html-keyboard-response","444","1107882","0.0-231.0-1.0","null","<p></p>","null","","","","","","","","","","","","","","","","","","","","","","","",""
"","do_trial","445","1110894","0.0-232.0-0.0","477.40000009536743","","","","","","","","49","0,0,0","6","blank","443","null","0.22466908047161965","0.1301256667777183","0.6394401953427832","0","","","","","","","","",""
"","html-keyboard-response","446","1111897","0.0-232.0-1.0","null","<p></p>","null","","","","","","","","","","","","","","","","","","","","","","","",""
"","do_recog","447","1115463","0.0-233.0-0.0","2061.7999997138977","","","","","","","","53","","","","444","probe-245","","","","","0","[object Object]","null","null","0","","","",""
"","html-keyboard-response","448","1116468","0.0-233.0-1.0","null","<p></p>","null","","","","","","","","","","","","","","","","","","","","","","","",""
"","do_trial","449","1120652","0.0-234.0-0.0","1645.1000003814697","","","","","","","","49","0,0,0","6","blank","445","null","0.24750177150665806","0.22068781130997867","0.6371892460883081","0","","","","","","","","",""
"","html-keyboard-response","450","1121655","0.0-234.0-1.0","null","<p></p>","null","","","","","","","","","","","","","","","","","","","","","","","",""
"","do_trial","451","1125387","0.0-235.0-0.0","1195","","","","","","","","50","1,0,1","6","blank","446","null","0.3940694501399906","0.2514593758672016","0.5560434770567396","0","","","","","","","","",""
"","html-keyboard-response","452","1126389","0.0-235.0-1.0","null","<p></p>","null","","","","","","","","","","","","","","","","","","","","","","","",""
"","do_trial","453","1129449","0.0-236.0-0.0","521.8000001907349","","","","","","","","51","0,1,1","6","blank","447","null","0.35676893669547804","0.20616549510922738","0.5668337481565894","1","","","","","","","","",""
"","html-keyboard-response","454","1130451","0.0-236.0-1.0","null","<p></p>","null","","","","","","","","","","","","","","","","","","","","","","","",""
"","do_trial","455","1133879","0.0-237.0-0.0","893.5","","","","","","","","51","0,0,1","6","blank","448","null","0.2637984136862958","0.2726786216142796","0.5632813855460639","1","","","","","","","","",""
"","html-keyboard-response","456","1134883","0.0-237.0-1.0","null","<p></p>","null","","","","","","","","","","","","","","","","","","","","","","","",""
"","do_trial","457","1137821","0.0-238.0-0.0","398.5","","","","","","","","51","0,0,0","6","blank","449","null","0.43625776790458776","0.12725763097133663","0.5593709684217724","0","","","","","","","","",""
"","html-keyboard-response","458","1138824","0.0-238.0-1.0","null","<p></p>","null","","","","","","","","","","","","","","","","","","","","","","","",""
"","do_trial","459","1142332","0.0-239.0-0.0","969","","","","","","","","49","0,0,0","6","blank","450","null","0.32990962697268883","0.055779932719917574","0.6360391771904986","0","","","","","","","","",""
"","html-keyboard-response","460","1143335","0.0-239.0-1.0","null","<p></p>","null","","","","","","","","","","","","","","","","","","","","","","","",""
"","do_trial","461","1146349","0.0-240.0-0.0","474.90000009536743","","","","","","","","50","0,0,1","6","blank","451","null","0.3673462269176318","0.08776259138103075","0.7004045087583384","0","","","","","","","","",""
"","html-keyboard-response","462","1147353","0.0-240.0-1.0","null","<p></p>","null","","","","","","","","","","","","","","","","","","","","","","","",""
"","do_recog","463","1150508","0.0-241.0-0.0","1651.0999999046326","","","","","","","","53","","","","452","probe-248","","","","","0","[object Object]","null","null","0","","","",""
"","html-keyboard-response","464","1151511","0.0-241.0-1.0","null","<p></p>","null","","","","","","","","","","","","","","","","","","","","","","","",""
"","do_trial","465","1155030","0.0-242.0-0.0","982.5999999046326","","","","","","","","49","0,0,1","6","blank","453","null","0.35560348565133615","0.07352862310918472","0.6385443713528859","0","","","","","","","","",""
"","html-keyboard-response","466","1156034","0.0-242.0-1.0","null","<p></p>","null","","","","","","","","","","","","","","","","","","","","","","","",""
"","do_recog","467","1159276","0.0-243.0-0.0","1734.5999999046326","","","","","","","","53","","","","454","probe-238","","","","","0","[object Object]","null","null","0","","","",""
"","html-keyboard-response","468","1160282","0.0-243.0-1.0","null","<p></p>","null","","","","","","","","","","","","","","","","","","","","","","","",""
"","do_trial","469","1163954","0.0-244.0-0.0","1133.7999997138977","","","","","","","","49","1,0,1","6","blank","455","null","0.3203727554504328","0.07378779189140251","0.5853273933040594","1","","","","","","","","",""
"","html-keyboard-response","470","1164958","0.0-244.0-1.0","null","<p></p>","null","","","","","","","","","","","","","","","","","","","","","","","",""
"","do_recog","471","1170965","0.0-245.0-0.0","null","","","","","","","","null","","","","456","probe-243","","","","","0","[object Object]","null","null","0","","","",""
"","html-keyboard-response","472","1171969","0.0-245.0-1.0","null","<p></p>","null","","","","","","","","","","","","","","","","","","","","","","","",""
"","do_trial","473","1175595","0.0-246.0-0.0","1091.1999998092651","","","","","","","","49","0,0,0","6","blank","457","null","0.3429963307703566","0.24945870237920328","0.4417551409708096","0","","","","","","","","",""
"","html-keyboard-response","474","1176598","0.0-246.0-1.0","null","<p></p>","null","","","","","","","","","","","","","","","","","","","","","","","",""
"","do_trial","475","1179514","0.0-247.0-0.0","377.5","","","","","","","","50","0,0,1","6","blank","458","null","0.32306335827848637","0.4608828809105205","0.2498462004830305","0","","","","","","","","",""
"","html-keyboard-response","476","1180518","0.0-247.0-1.0","null","<p></p>","null","","","","","","","","","","","","","","","","","","","","","","","",""
"","do_trial","477","1183492","0.0-248.0-0.0","440.09999990463257","","","","","","","","51","1,0,0","6","blank","459","null","0.3232030562756294","0.5250277928545467","0.2013081079154848","0","","","","","","","","",""
"","html-keyboard-response","478","1184495","0.0-248.0-1.0","null","<p></p>","null","","","","","","","","","","","","","","","","","","","","","","","",""
"","do_trial","479","1187442","0.0-249.0-0.0","412","","","","","","","","49","0,1,1","6","blank","460","null","0.34223769924070746","0.7155671437920083","0.16888676464531166","0","","","","","","","","",""
"","html-keyboard-response","480","1188446","0.0-249.0-1.0","null","<p></p>","null","","","","","","","","","","","","","","","","","","","","","","","",""
"","do_trial","481","1191316","0.0-250.0-0.0","331.2000002861023","","","","","","","","50","1,0,0","6","blank","461","null","0.28811673317461806","0.6812534712969733","0.15989270804717248","0","","","","","","","","",""
"","html-keyboard-response","482","1192319","0.0-250.0-1.0","null","<p></p>","null","","","","","","","","","","","","","","","","","","","","","","","",""
"","do_trial","483","1195362","0.0-251.0-0.0","507.8999996185303","","","","","","","","51","0,0,0","6","blank","462","null","0.3458528425483187","0.6755141717901685","0.26222323084196025","0","","","","","","","","",""
"","html-keyboard-response","484","1196365","0.0-251.0-1.0","null","<p></p>","null","","","","","","","","","","","","","","","","","","","","","","","",""
"","do_trial","485","1199212","0.0-252.0-0.0","309.30000019073486","","","","","","","","49","0,0,0","6","blank","463","null","0.30096096141382406","0.574868273676582","0.2713850653643478","0","","","","","","","","",""
"","html-keyboard-response","486","1200214","0.0-252.0-1.0","null","<p></p>","null","","","","","","","","","","","","","","","","","","","","","","","",""
"","do_recog","487","1203923","0.0-253.0-0.0","2203.5999999046326","","","","","","","","56","","","","464","probe-250","","","","","0","[object Object]","null","null","1","","","",""
"","html-keyboard-response","488","1204925","0.0-253.0-1.0","null","<p></p>","null","","","","","","","","","","","","","","","","","","","","","","","",""
"","do_trial","489","1209002","0.0-254.0-0.0","1541.5","","","","","","","","49","0,1,0","6","blank","465","null","0.3566765532430179","0.6715520304852997","0.2532890590306825","0","","","","","","","","",""
"","html-keyboard-response","490","1210005","0.0-254.0-1.0","null","<p></p>","null","","","","","","","","","","","","","","","","","","","","","","","",""
"","do_recog","491","1213142","0.0-255.0-0.0","1629.7999997138977","","","","","","","","56","","","","466","probe-253","","","","","0","[object Object]","null","null","1","","","",""
"","html-keyboard-response","492","1214145","0.0-255.0-1.0","null","<p></p>","null","","","","","","","","","","","","","","","","","","","","","","","",""
"","do_trial","493","1217268","0.0-256.0-0.0","585.3999996185303","","","","","","","","49","0,1,0","6","blank","467","null","0.3315723833567452","0.7237702355674926","0.34189943033364145","0","","","","","","","","",""
"","html-keyboard-response","494","1218271","0.0-256.0-1.0","null","<p></p>","null","","","","","","","","","","","","","","","","","","","","","","","",""
"","do_recog","495","1221890","0.0-257.0-0.0","2113.2000002861023","","","","","","","","56","","","","468","probe-231","","","","","0","[object Object]","null","null","1","","","",""
"","html-keyboard-response","496","1222892","0.0-257.0-1.0","null","<p></p>","null","","","","","","","","","","","","","","","","","","","","","","","",""
"","do_trial","497","1226935","0.0-258.0-0.0","1510.3000001907349","","","","","","","","49","0,0,0","6","blank","469","null","0.283234107302385","0.6437740692953186","0.17672033967574374","0","","","","","","","","",""
"","html-keyboard-response","498","1227939","0.0-258.0-1.0","null","<p></p>","null","","","","","","","","","","","","","","","","","","","","","","","",""
"","do_trial","499","1231834","0.0-259.0-0.0","1356.5","","","","","","","","50","0,0,0","6","blank","470","null","0.2217738397453822","0.7343122201620562","0.07667350818343666","0","","","","","","","","",""
"","html-keyboard-response","500","1232837","0.0-259.0-1.0","null","<p></p>","null","","","","","","","","","","","","","","","","","","","","","","","",""
"","do_trial","501","1236039","0.0-260.0-0.0","665","","","","","","","","51","1,1,0","6","blank","471","null","0.20286900673851554","0.7127601508526253","0.05520754721815177","0","","","","","","","","",""
"","html-keyboard-response","502","1237043","0.0-260.0-1.0","null","<p></p>","null","","","","","","","","","","","","","","","","","","","","","","","",""
"","do_trial","503","1240201","0.0-261.0-0.0","621.5","","","","","","","","49","0,1,0","6","blank","472","null","0.3170305969254079","0.6279909976118364","0.20023297864751066","0","","","","","","","","",""
"","html-keyboard-response","504","1241204","0.0-261.0-1.0","null","<p></p>","null","","","","","","","","","","","","","","","","","","","","","","","",""
"","do_recog","505","1244445","0.0-262.0-0.0","1733.6999998092651","","","","","","","","56","","","","473","probe-244","","","","","0","[object Object]","null","null","1","","","",""
"","html-keyboard-response","506","1245448","0.0-262.0-1.0","null","<p></p>","null","","","","","","","","","","","","","","","","","","","","","","","",""
"","do_trial","507","1249671","0.0-263.0-0.0","1688.5","","","","","","","","49","0,0,0","6","blank","474","null","0.47333289548565194","0.6448717079081493","0.11122449676767093","0","","","","","","","","",""
"","html-keyboard-response","508","1250673","0.0-263.0-1.0","null","<p></p>","null","","","","","","","","","","","","","","","","","","","","","","","",""
"","do_trial","509","1254556","0.0-264.0-0.0","1346.4000000953674","","","","","","","","50","0,1,0","6","blank","475","null","0.4292230273587246","0.7700149207203307","0.07539724098891806","1","","","","","","","","",""
"","html-keyboard-response","510","1255560","0.0-264.0-1.0","null","<p></p>","null","","","","","","","","","","","","","","","","","","","","","","","",""
"","do_trial","511","1258596","0.0-265.0-0.0","497.09999990463257","","","","","","","","50","1,1,0","6","blank","476","null","0.43866767688578995","0.6297426442781708","0.07264450167393159","1","","","","","","","","",""
"","html-keyboard-response","512","1259600","0.0-265.0-1.0","null","<p></p>","null","","","","","","","","","","","","","","","","","","","","","","","",""
"","do_trial","513","1262534","0.0-266.0-0.0","394.90000009536743","","","","","","","","50","0,1,0","6","blank","477","null","0.42065780912843276","0.6156413522745715","0.06228183142744562","1","","","","","","","","",""
"","html-keyboard-response","514","1263537","0.0-266.0-1.0","null","<p></p>","null","","","","","","","","","","","","","","","","","","","","","","","",""
