"success","trial_type","trial_index","time_elapsed","internal_node_id","interactions","blur_events","focus_events","fullscreenenter_events","fullscreenexit_events","rt","stimulus","key_press","subject_id","participant_id","age","gender","prompt","response","choice_outcomes","context_n","context_img_id","trial_n","probe_img_id","pR_red","pR_white","pR_black","outcome","is_valid","image_to_show","probed_trial","probed_context","correct","probe","probed_trial_n","probed_context_n","context_im"
"true","fullscreen","0","10420","0.0-0.0","""event"",""trial"",""time""
""fullscreenenter"",""0"",""9440""
","
","
","""event"",""trial"",""time""
""fullscreenenter"",""0"",""9440""
","
","","","","","","","","","","","","","","","","","","","","","","","","","","",""
"","pavlovia","1","10433","0.0-1.0","""event"",""trial"",""time""
""fullscreenenter"",""0"",""9440""
","
","
","""event"",""trial"",""time""
""fullscreenenter"",""0"",""9440""
","
","","","","","","","","","","","","","","","","","","","","","","","","","","",""
"","welc_back","2","20367","0.0-2.0","""event"",""trial"",""time""
""fullscreenenter"",""0"",""9440""
","
","
","""event"",""trial"",""time""
""fullscreenenter"",""0"",""9440""
","
","null","run_exp/static/audio/clip_29_welcome_back.m4a","null","1405","1457","14","Female","<div class='center'><p>Welcome to day 2!</p><p> Yesterday, you were the head captain of a pirate ship. You asked your fellow pirates to rob other ships of their gold across six different islands.</p></div>","","","","","","","","","","","","","","","","","","",""
"","html-keyboard-response","3","21453","0.0-3.0","""event"",""trial"",""time""
""fullscreenenter"",""0"",""9440""
","
","
","""event"",""trial"",""time""
""fullscreenenter"",""0"",""9440""
","
","1080.1000000000931","<div class='center'><p>Welcome to day 2!</p><p> Yesterday, you were the head captain of a pirate ship. You asked your fellow pirates to rob other ships of their gold across six different islands.</p><p><b>[Press the space bar to continue]</b></p></div>","32","","","","","","","","","","","","","","","","","","","","","","","",""
"","day_1_summary_goal","4","38855","0.0-4.0","""event"",""trial"",""time""
""fullscreenenter"",""0"",""9440""
","
","
","""event"",""trial"",""time""
""fullscreenenter"",""0"",""9440""
","
","null","run_exp/static/audio/clip_30_goal_of_game.m4a","null","","","","","<div class='center'><p>Today, like yesterday, you get to pick which pirate you want to rob the next ship.</p><p>If the pirate is successful in robbing a ship, you get gold coins that look like this: </p><p><img src='run_exp/static/images/tutorial/reward.png' height='150'></p><p> If they were not successful in robbing the ship, then you will get no gold coins and you'll see a big red x like this: </p><p><img src='run_exp/static/images/tutorial/reward_no.png' height='150'></p></div>","","","","","","","","","","","","","","","","","","",""
"","html-keyboard-response","5","40132","0.0-5.0","""event"",""trial"",""time""
""fullscreenenter"",""0"",""9440""
","
","
","""event"",""trial"",""time""
""fullscreenenter"",""0"",""9440""
","
","1270.6999999999534","<div class='center'><p>Today, like yesterday, you get to pick which pirate you want to rob the next ship.</p><p>If the pirate is successful in robbing a ship, you get gold coins that look like this: </p><p><img src='run_exp/static/images/tutorial/reward.png' height='150'></p><p> If they were not successful in robbing the ship, then you will get no gold coins and you'll see a big red x like this: </p><p><img src='run_exp/static/images/tutorial/reward_no.png' height='150'></p><p><b>[Press the space bar to continue]</b></p></div>","32","","","","","","","","","","","","","","","","","","","","","","","",""
"","day_1_summary_pick","6","55023","0.0-6.0","""event"",""trial"",""time""
""fullscreenenter"",""0"",""9440""
","
","
","""event"",""trial"",""time""
""fullscreenenter"",""0"",""9440""
","
","null","run_exp/static/audio/clip_31_how_to_pick_a_pirate.m4a","null","","","","","<div class='center'><p>Also, just like yesterday, you will use the 1,2,3 keys on your keyboard to pick a pirate. Press '1' to choose red beard, '2' to choose white beard, and '3' to choose black beard . You only have 3 seconds to pick a pirate, so please make a choice quickly!</p></div>","","","","","","","","","","","","","","","","","","",""
"","html-keyboard-response","7","57266","0.0-7.0","""event"",""trial"",""time""
""fullscreenenter"",""0"",""9440""
","
","
","""event"",""trial"",""time""
""fullscreenenter"",""0"",""9440""
","
","2240.4000000001397","<div class='center'><p>Also, just like yesterday, you will use the 1,2,3 keys on your keyboard to pick a pirate. Press '1' to choose red beard, '2' to choose white beard, and '3' to choose black beard . You only have 3 seconds to pick a pirate, so please make a choice quickly!</p><p><b>[Press the space bar to continue]</b></p></div>","32","","","","","","","","","","","","","","","","","","","","","","","",""
"","test_phase_begin","8","87922","0.0-8.0","""event"",""trial"",""time""
""fullscreenenter"",""0"",""9440""
","
","
","""event"",""trial"",""time""
""fullscreenenter"",""0"",""9440""
","
","null","run_exp/static/audio/clip_32_final_place.m4a","null","","","","","<div class='center'><p>You’ve arrived at the final island of your journey! Unfortunately, it’s very foggy out, so you won’t be able to see it in the distance like the other islands you've visited.</p><p>You’ll still be deciding which pirate you want to rob a ship like before. However, because of the fog, you also won’t be able to see the ship.</p><p>This means you do not have to remember the ships you rob on this island.</p><p>Unlike yesterday, you won't be visiting multiple islands today. You will stay on this island for the entire game. This game will last ~30 minutes.</p></div>","","","","","","","","","","","","","","","","","","",""
"","html-keyboard-response","9","89303","0.0-9.0","""event"",""trial"",""time""
""fullscreenenter"",""0"",""9440""
","
","
","""event"",""trial"",""time""
""fullscreenenter"",""0"",""9440""
","
","1378.3000000000466","<div class='center'><p>You’ve arrived at the final island of your journey! Unfortunately, it’s very foggy out, so you won’t be able to see it in the distance like the other islands you've visited.</p><p>You’ll still be deciding which pirate you want to rob a ship like before. However, because of the fog, you also won’t be able to see the ship.</p><p>This means you do not have to remember the ships you rob on this island.</p><p>Unlike yesterday, you won't be visiting multiple islands today. You will stay on this island for the entire game. This game will last ~30 minutes.</p><p><b>[Press the space bar to continue]</b></p></div>","32","","","","","","","","","","","","","","","","","","","","","","","",""
"","explain_probe_1","10","97307","0.0-10.0","""event"",""trial"",""time""
""fullscreenenter"",""0"",""9440""
","
","
","""event"",""trial"",""time""
""fullscreenenter"",""0"",""9440""
","
","null","run_exp/static/audio/clip_33_recognition_1.m4a","null","","","","","<div class='center'><p> Sometimes you’ll be shown a ship, and you will be asked if you saw this ship on a past island.</p><p> Here is an example of what you will see.</p><p><img src='run_exp/static/images/tutorial/example_recog_trial.png' height='500'></p></div>","","","","","","","","","","","","","","","","","","",""
"","html-keyboard-response","11","102210","0.0-11.0","""event"",""trial"",""time""
""fullscreenenter"",""0"",""9440""
","
","
","""event"",""trial"",""time""
""fullscreenenter"",""0"",""9440""
","
","4897.700000000186","<div class='center'><p> Sometimes you’ll be shown a ship, and you will be asked if you saw this ship on a past island.</p><p> Here is an example of what you will see.</p><p><img src='run_exp/static/images/tutorial/example_recog_trial.png' height='500'></p><p><b>[Press the space bar to continue]</b></p></div>","32","","","","","","","","","","","","","","","","","","","","","","","",""
"","explain_probe_2","12","124073","0.0-12.0","""event"",""trial"",""time""
""fullscreenenter"",""0"",""9440""
","
","
","""event"",""trial"",""time""
""fullscreenenter"",""0"",""9440""
","
","null","run_exp/static/audio/clip_34_recognition_2.m4a","null","","","","","<div class='center'><p> You will press the 5, 6, 7, 8 keys on your keyboard to respond.</p><p>If you are sure you saw the ship, press <b>5</b> on your keyboard.</p><p> If you think you saw it before but aren't sure, then press <b>6</b>.</p><p> If you think you have <b>not</b> seen it before but aren't sure, then press <b>7</b>.</p><p> If you are sure you did <b>not</b> see the ship before, then press <b>8</b>.</p><p><img src='run_exp/static/images/tutorial/example_recog_trial.png' height='500'></p></div>","","","","","","","","","","","","","","","","","","",""
"","html-keyboard-response","13","124752","0.0-13.0","""event"",""trial"",""time""
""fullscreenenter"",""0"",""9440""
","
","
","""event"",""trial"",""time""
""fullscreenenter"",""0"",""9440""
","
","672.5","<div class='center'><p> You will press the 5, 6, 7, 8 keys on your keyboard to respond.</p><p>If you are sure you saw the ship, press <b>5</b> on your keyboard.</p><p> If you think you saw it before but aren't sure, then press <b>6</b>.</p><p> If you think you have <b>not</b> seen it before but aren't sure, then press <b>7</b>.</p><p> If you are sure you did <b>not</b> see the ship before, then press <b>8</b>.</p><p><img src='run_exp/static/images/tutorial/example_recog_trial.png' height='500'></p><p><b>[Press the space bar to continue]</b></p></div>","32","","","","","","","","","","","","","","","","","","","","","","","",""
"","explain_outcome","14","142192","0.0-14.0","""event"",""trial"",""time""
""fullscreenenter"",""0"",""9440""
","
","
","""event"",""trial"",""time""
""fullscreenenter"",""0"",""9440""
","
","null","run_exp/static/audio/clip_35_recognition_3.m4a","null","","","","","<div class='center'><p> If you remember correctly, then you’ll get a gold coin like this: </p><p><img src='run_exp/static/images/tutorial/reward_small.png' height='200'></p><p>If you do not remember correctly, then you'll see a red x like this: </p><p><img src='run_exp/static/images/tutorial/reward_no.png' height='200'></p><p>Importantly, when you are shown a ship, take the time to remind yourself which island you saw it on. This will help you in the next part of the study.</p></div>","","","","","","","","","","","","","","","","","","",""
"","html-keyboard-response","15","142758","0.0-15.0","""event"",""trial"",""time""
""fullscreenenter"",""0"",""9440""
","
","
","""event"",""trial"",""time""
""fullscreenenter"",""0"",""9440""
","
","560.8000000000466","<div class='center'><p> If you remember correctly, then you’ll get a gold coin like this: </p><p><img src='run_exp/static/images/tutorial/reward_small.png' height='200'></p><p>If you do not remember correctly, then you'll see a red x like this: </p><p><img src='run_exp/static/images/tutorial/reward_no.png' height='200'></p><p>Importantly, when you are shown a ship, take the time to remind yourself which island you saw it on. This will help you in the next part of the study.</p><p><b>[Press the space bar to continue]</b></p></div>","32","","","","","","","","","","","","","","","","","","","","","","","",""
"","begin_test_phase","16","158824","0.0-16.0","""event"",""trial"",""time""
""fullscreenenter"",""0"",""9440""
","
","
","""event"",""trial"",""time""
""fullscreenenter"",""0"",""9440""
","
","null","run_exp/static/audio/clip_36_begin_final.m4a","null","","","","","<div class='center'><p>Let's go over the important points again. Your job is to: </p><p>1. Pick the pirate who is best at robbing ships and will bring you back gold coins. </p><p>2. Correctly remember whether or not you saw a ship before. If you did see the ship before, remind yourself on which island you saw it. </p></div>","","","","","","","","","","","","","","","","","","",""
"","html-keyboard-response","17","162317","0.0-17.0","""event"",""trial"",""time""
""fullscreenenter"",""0"",""9440""
","
","
","""event"",""trial"",""time""
""fullscreenenter"",""0"",""9440""
","
","3282.1999999999534","<div class='center'><p>Let's go over the important points again. Your job is to: </p><p>1. Pick the pirate who is best at robbing ships and will bring you back gold coins. </p><p>2. Correctly remember whether or not you saw a ship before. If you did see the ship before, remind yourself on which island you saw it. </p><p><b>[Press the space bar to continue]</b></p></div>","32","","","","","","","","","","","","","","","","","","","","","","","",""
"","do_welcome","18","166333","0.0-18.0","""event"",""trial"",""time""
""fullscreenenter"",""0"",""9440""
","
","
","""event"",""trial"",""time""
""fullscreenenter"",""0"",""9440""
","
","null","","","","","","","","null","","","","","","","","","","","","","","","","","",""
"","do_trial","19","171512","0.0-19.0-0.0","""event"",""trial"",""time""
""fullscreenenter"",""0"",""9440""
","
","
","""event"",""trial"",""time""
""fullscreenenter"",""0"",""9440""
","
","2560.1999999999534","","","","","","","","49","0,1,0","6","blank","230","null","0.1781797338714597","0.6609813392314291","0.3654198951268061","0","","","","","","","","",""
"","html-keyboard-response","20","172517","0.0-19.0-1.0","""event"",""trial"",""time""
""fullscreenenter"",""0"",""9440""
","
","
","""event"",""trial"",""time""
""fullscreenenter"",""0"",""9440""
","
","null","<p></p>","null","","","","","","","","","","","","","","","","","","","","","","","",""
"","do_trial","21","176083","0.0-20.0-0.0","""event"",""trial"",""time""
""fullscreenenter"",""0"",""9440""
","
","
","""event"",""trial"",""time""
""fullscreenenter"",""0"",""9440""
","
","944","","","","","","","","50","0,0,0","6","blank","231","null","0.27535254155185906","0.6168593544511604","0.27146184907972926","0","","","","","","","","",""
"","html-keyboard-response","22","177087","0.0-20.0-1.0","""event"",""trial"",""time""
""fullscreenenter"",""0"",""9440""
","
","
","""event"",""trial"",""time""
""fullscreenenter"",""0"",""9440""
","
","null","<p></p>","null","","","","","","","","","","","","","","","","","","","","","","","",""
"","do_trial","23","180068","0.0-21.0-0.0","""event"",""trial"",""time""
""fullscreenenter"",""0"",""9440""
","
","
","""event"",""trial"",""time""
""fullscreenenter"",""0"",""9440""
","
","361.30000000004657","","","","","","","","51","0,1,0","6","blank","232","null","0.23551192620632688","0.6941127457637921","0.3427414904780494","0","","","","","","","","",""
"","html-keyboard-response","24","181072","0.0-21.0-1.0","""event"",""trial"",""time""
""fullscreenenter"",""0"",""9440""
","
","
","""event"",""trial"",""time""
""fullscreenenter"",""0"",""9440""
","
","null","<p></p>","null","","","","","","","","","","","","","","","","","","","","","","","",""
"","do_trial","25","185382","0.0-22.0-0.0","""event"",""trial"",""time""
""fullscreenenter"",""0"",""9440""
","
","
","""event"",""trial"",""time""
""fullscreenenter"",""0"",""9440""
","
","1697.8000000000466","","","","","","","","49","0,1,1","6","blank","233","null","0.12026173906894932","0.5095943166908975","0.5291645339027015","0","","","","","","","","",""
"","html-keyboard-response","26","186385","0.0-22.0-1.0","""event"",""trial"",""time""
""fullscreenenter"",""0"",""9440""
","
","
","""event"",""trial"",""time""
""fullscreenenter"",""0"",""9440""
","
","null","<p></p>","null","","","","","","","","","","","","","","","","","","","","","","","",""
"","do_trial","27","189981","0.0-23.0-0.0","""event"",""trial"",""time""
""fullscreenenter"",""0"",""9440""
","
","
","""event"",""trial"",""time""
""fullscreenenter"",""0"",""9440""
","
","987.3999999999069","","","","","","","","50","0,0,1","6","blank","234","null","0.23944181889364102","0.6330582538030595","0.41208622335391015","0","","","","","","","","",""
"","html-keyboard-response","28","190987","0.0-23.0-1.0","""event"",""trial"",""time""
""fullscreenenter"",""0"",""9440""
","
","
","""event"",""trial"",""time""
""fullscreenenter"",""0"",""9440""
","
","null","<p></p>","null","","","","","","","","","","","","","","","","","","","","","","","",""
"","do_trial","29","193996","0.0-24.0-0.0","""event"",""trial"",""time""
""fullscreenenter"",""0"",""9440""
","
","
","""event"",""trial"",""time""
""fullscreenenter"",""0"",""9440""
","
","389.10000000009313","","","","","","","","51","0,1,0","6","blank","235","null","0.1360580776140511","0.5493601434692612","0.31393602718544306","0","","","","","","","","",""
"","html-keyboard-response","30","194999","0.0-24.0-1.0","""event"",""trial"",""time""
""fullscreenenter"",""0"",""9440""
","
","
","""event"",""trial"",""time""
""fullscreenenter"",""0"",""9440""
","
","null","<p></p>","null","","","","","","","","","","","","","","","","","","","","","","","",""
"","do_trial","31","199133","0.0-25.0-0.0","""event"",""trial"",""time""
""fullscreenenter"",""0"",""9440""
","
","
","""event"",""trial"",""time""
""fullscreenenter"",""0"",""9440""
","
","1506.3000000000466","","","","","","","","49","0,1,0","6","blank","236","null","0.13505854602854236","0.46274555350336355","0.22150401856829846","0","","","","","","","","",""
"","html-keyboard-response","32","200140","0.0-25.0-1.0","""event"",""trial"",""time""
""fullscreenenter"",""0"",""9440""
","
","
","""event"",""trial"",""time""
""fullscreenenter"",""0"",""9440""
","
","null","<p></p>","null","","","","","","","","","","","","","","","","","","","","","","","",""
"","do_trial","33","203242","0.0-26.0-0.0","""event"",""trial"",""time""
""fullscreenenter"",""0"",""9440""
","
","
","""event"",""trial"",""time""
""fullscreenenter"",""0"",""9440""
","
","491.0999999998603","","","","","","","","50","0,1,1","6","blank","237","null","0.05394865111646716","0.631851315093726","0.26998474896479124","1","","","","","","","","",""
"","html-keyboard-response","34","204245","0.0-26.0-1.0","""event"",""trial"",""time""
""fullscreenenter"",""0"",""9440""
","
","
","""event"",""trial"",""time""
""fullscreenenter"",""0"",""9440""
","
","null","<p></p>","null","","","","","","","","","","","","","","","","","","","","","","","",""
"","do_trial","35","206870","0.0-27.0-0.0","""event"",""trial"",""time""
""fullscreenenter"",""0"",""9440""
","
","
","""event"",""trial"",""time""
""fullscreenenter"",""0"",""9440""
","
","0.7999999998137355","","","","","","","","51","0,0,1","6","blank","238","null","0.06051980147729532","0.6827137798895798","0.29395270316434213","1","","","","","","","","",""
"","html-keyboard-response","36","207875","0.0-27.0-1.0","""event"",""trial"",""time""
""fullscreenenter"",""0"",""9440""
","
","
","""event"",""trial"",""time""
""fullscreenenter"",""0"",""9440""
","
","null","<p></p>","null","","","","","","","","","","","","","","","","","","","","","","","",""
"","do_trial","37","211315","0.0-28.0-0.0","""event"",""trial"",""time""
""fullscreenenter"",""0"",""9440""
","
","
","""event"",""trial"",""time""
""fullscreenenter"",""0"",""9440""
","
","824.6000000000931","","","","","","","","49","0,1,0","6","blank","239","null","0.10232052220205368","0.7449212243825477","0.2876712735764613","0","","","","","","","","",""
"","html-keyboard-response","38","212319","0.0-28.0-1.0","""event"",""trial"",""time""
""fullscreenenter"",""0"",""9440""
","
","
","""event"",""trial"",""time""
""fullscreenenter"",""0"",""9440""
","
","null","<p></p>","null","","","","","","","","","","","","","","","","","","","","","","","",""
"","do_trial","39","215666","0.0-29.0-0.0","""event"",""trial"",""time""
""fullscreenenter"",""0"",""9440""
","
","
","""event"",""trial"",""time""
""fullscreenenter"",""0"",""9440""
","
","723.3999999999069","","","","","","","","50","0,0,0","6","blank","240","null","0.07860050564603137","0.6274246921315895","0.22897784274195956","0","","","","","","","","",""
"","html-keyboard-response","40","216671","0.0-29.0-1.0","""event"",""trial"",""time""
""fullscreenenter"",""0"",""9440""
","
","
","""event"",""trial"",""time""
""fullscreenenter"",""0"",""9440""
","
","null","<p></p>","null","","","","","","","","","","","","","","","","","","","","","","","",""
"","do_trial","41","219929","0.0-30.0-0.0","""event"",""trial"",""time""
""fullscreenenter"",""0"",""9440""
","
","
","""event"",""trial"",""time""
""fullscreenenter"",""0"",""9440""
","
","647.0999999998603","","","","","","","","51","0,1,0","6","blank","241","null","0.25072970945664674","0.5765535288846507","0.32186350068037217","0","","","","","","","","",""
"","html-keyboard-response","42","220934","0.0-30.0-1.0","""event"",""trial"",""time""
""fullscreenenter"",""0"",""9440""
","
","
","""event"",""trial"",""time""
""fullscreenenter"",""0"",""9440""
","
","null","<p></p>","null","","","","","","","","","","","","","","","","","","","","","","","",""
"","do_trial","43","223922","0.0-31.0-0.0","""event"",""trial"",""time""
""fullscreenenter"",""0"",""9440""
","
","
","""event"",""trial"",""time""
""fullscreenenter"",""0"",""9440""
","
","362.80000000004657","","","","","","","","49","0,0,0","6","blank","242","null","0.5101980338525461","0.4653198310542805","0.24691675233225233","0","","","","","","","","",""
"","html-keyboard-response","44","224924","0.0-31.0-1.0","""event"",""trial"",""time""
""fullscreenenter"",""0"",""9440""
","
","
","""event"",""trial"",""time""
""fullscreenenter"",""0"",""9440""
","
","null","<p></p>","null","","","","","","","","","","","","","","","","","","","","","","","",""
"","do_trial","45","231036","0.0-32.0-0.0","""event"",""trial"",""time""
""fullscreenenter"",""0"",""9440""
","
","
","""event"",""trial"",""time""
""fullscreenenter"",""0"",""9440""
","
","null","","","","","","","","null","0,0,1","6","blank","243","null","0.5356467662803338","0.3456315139019744","0.3524201881103472","","","","","","","","","",""
"","html-keyboard-response","46","232039","0.0-32.0-1.0","""event"",""trial"",""time""
""fullscreenenter"",""0"",""9440""
","
","
","""event"",""trial"",""time""
""fullscreenenter"",""0"",""9440""
","
","null","<p></p>","null","","","","","","","","","","","","","","","","","","","","","","","",""
"","do_trial","47","235132","0.0-33.0-0.0","""event"",""trial"",""time""
""fullscreenenter"",""0"",""9440""
","
","
","""event"",""trial"",""time""
""fullscreenenter"",""0"",""9440""
","
","476.0999999998603","","","","","","","","50","1,0,0","6","blank","244","null","0.4289882151386488","0.3422336108571834","0.40557111300187204","0","","","","","","","","",""
"","html-keyboard-response","48","236134","0.0-33.0-1.0","""event"",""trial"",""time""
""fullscreenenter"",""0"",""9440""
","
","
","""event"",""trial"",""time""
""fullscreenenter"",""0"",""9440""
","
","null","<p></p>","null","","","","","","","","","","","","","","","","","","","","","","","",""
"","do_trial","49","239142","0.0-34.0-0.0","""event"",""trial"",""time""
""fullscreenenter"",""0"",""9440""
","
","
","""event"",""trial"",""time""
""fullscreenenter"",""0"",""9440""
","
","385.19999999995343","","","","","","","","51","0,0,0","6","blank","245","null","0.44393200844729996","0.2864215090106619","0.3627437649197309","0","","","","","","","","",""
"","html-keyboard-response","50","240145","0.0-34.0-1.0","""event"",""trial"",""time""
""fullscreenenter"",""0"",""9440""
","
","
","""event"",""trial"",""time""
""fullscreenenter"",""0"",""9440""
","
","null","<p></p>","null","","","","","","","","","","","","","","","","","","","","","","","",""
"","do_trial","51","243182","0.0-35.0-0.0","""event"",""trial"",""time""
""fullscreenenter"",""0"",""9440""
","
","
","""event"",""trial"",""time""
""fullscreenenter"",""0"",""9440""
","
","427.60000000009313","","","","","","","","49","1,1,0","6","blank","246","null","0.6252786054579818","0.25222292645202665","0.22223608869585124","1","","","","","","","","",""
"","html-keyboard-response","52","244188","0.0-35.0-1.0","""event"",""trial"",""time""
""fullscreenenter"",""0"",""9440""
","
","
","""event"",""trial"",""time""
""fullscreenenter"",""0"",""9440""
","
","null","<p></p>","null","","","","","","","","","","","","","","","","","","","","","","","",""
"","do_recog","53","250210","0.0-36.0-0.0","""event"",""trial"",""time""
""fullscreenenter"",""0"",""9440""
","
","
","""event"",""trial"",""time""
""fullscreenenter"",""0"",""9440""
","
","null","","","","","","","","null","","","","247","probe-114","","","","","1","[object Object]","112","2","0","","","",""
"","html-keyboard-response","54","251218","0.0-36.0-1.0","""event"",""trial"",""time""
""fullscreenenter"",""0"",""9440""
","
","
","""event"",""trial"",""time""
""fullscreenenter"",""0"",""9440""
","
","null","<p></p>","null","","","","","","","","","","","","","","","","","","","","","","","",""
"","do_trial","55","254973","0.0-37.0-0.0","""event"",""trial"",""time""
""fullscreenenter"",""0"",""9440""
","
","
","""event"",""trial"",""time""
""fullscreenenter"",""0"",""9440""
","
","1143.4000000001397","","","","","","","","49","0,0,0","6","blank","248","null","0.6589265361667189","0.14370231642998113","0.2985793402548944","0","","","","","","","","",""
"","html-keyboard-response","56","255978","0.0-37.0-1.0","""event"",""trial"",""time""
""fullscreenenter"",""0"",""9440""
","
","
","""event"",""trial"",""time""
""fullscreenenter"",""0"",""9440""
","
","null","<p></p>","null","","","","","","","","","","","","","","","","","","","","","","","",""
"","do_trial","57","259108","0.0-38.0-0.0","""event"",""trial"",""time""
""fullscreenenter"",""0"",""9440""
","
","
","""event"",""trial"",""time""
""fullscreenenter"",""0"",""9440""
","
","518.6000000000931","","","","","","","","50","0,0,0","6","blank","249","null","0.6935452857929333","0.2290979346817965","0.40561571917083217","0","","","","","","","","",""
"","html-keyboard-response","58","260111","0.0-38.0-1.0","""event"",""trial"",""time""
""fullscreenenter"",""0"",""9440""
","
","
","""event"",""trial"",""time""
""fullscreenenter"",""0"",""9440""
","
","null","<p></p>","null","","","","","","","","","","","","","","","","","","","","","","","",""
"","do_recog","59","263187","0.0-39.0-0.0","""event"",""trial"",""time""
""fullscreenenter"",""0"",""9440""
","
","
","""event"",""trial"",""time""
""fullscreenenter"",""0"",""9440""
","
","1565.1999999999534","","","","","","","","54","","","","250","probe-248","","","","","0","[object Object]","null","null","0","","","",""
"","html-keyboard-response","60","264189","0.0-39.0-1.0","""event"",""trial"",""time""
""fullscreenenter"",""0"",""9440""
","
","
","""event"",""trial"",""time""
""fullscreenenter"",""0"",""9440""
","
","null","<p></p>","null","","","","","","","","","","","","","","","","","","","","","","","",""
"","do_trial","61","267932","0.0-40.0-0.0","""event"",""trial"",""time""
""fullscreenenter"",""0"",""9440""
","
","
","""event"",""trial"",""time""
""fullscreenenter"",""0"",""9440""
","
","1120.8000000000466","","","","","","","","49","1,0,0","6","blank","251","null","0.6555842604702695","0.25878347275724334","0.4478955022191161","1","","","","","","","","",""
"","html-keyboard-response","62","268937","0.0-40.0-1.0","""event"",""trial"",""time""
""fullscreenenter"",""0"",""9440""
","
","
","""event"",""trial"",""time""
""fullscreenenter"",""0"",""9440""
","
","null","<p></p>","null","","","","","","","","","","","","","","","","","","","","","","","",""
"","do_recog","63","272576","0.0-41.0-0.0","""event"",""trial"",""time""
""fullscreenenter"",""0"",""9440""
","
","
","""event"",""trial"",""time""
""fullscreenenter"",""0"",""9440""
","
","2124.1999999999534","","","","","","","","56","","","","252","probe-71","","","","","1","[object Object]","31","0","0","","","",""
"","html-keyboard-response","64","273580","0.0-41.0-1.0","""event"",""trial"",""time""
""fullscreenenter"",""0"",""9440""
","
","
","""event"",""trial"",""time""
""fullscreenenter"",""0"",""9440""
","
","null","<p></p>","null","","","","","","","","","","","","","","","","","","","","","","","",""
"","do_trial","65","276813","0.0-42.0-0.0","""event"",""trial"",""time""
""fullscreenenter"",""0"",""9440""
","
","
","""event"",""trial"",""time""
""fullscreenenter"",""0"",""9440""
","
","618.1000000000931","","","","","","","","49","0,1,1","6","blank","253","null","0.5444823048585177","0.25074711835786434","0.25484874325139895","0","","","","","","","","",""
"","html-keyboard-response","66","277815","0.0-42.0-1.0","""event"",""trial"",""time""
""fullscreenenter"",""0"",""9440""
","
","
","""event"",""trial"",""time""
""fullscreenenter"",""0"",""9440""
","
","null","<p></p>","null","","","","","","","","","","","","","","","","","","","","","","","",""
"","do_trial","67","281423","0.0-43.0-0.0","""event"",""trial"",""time""
""fullscreenenter"",""0"",""9440""
","
","
","""event"",""trial"",""time""
""fullscreenenter"",""0"",""9440""
","
","988.5","","","","","","","","50","0,0,1","6","blank","254","null","0.6190461640331401","0.12014913505308834","0.3088950367176326","0","","","","","","","","",""
"","html-keyboard-response","68","282427","0.0-43.0-1.0","""event"",""trial"",""time""
""fullscreenenter"",""0"",""9440""
","
","
","""event"",""trial"",""time""
""fullscreenenter"",""0"",""9440""
","
","null","<p></p>","null","","","","","","","","","","","","","","","","","","","","","","","",""
"","do_trial","69","285493","0.0-44.0-0.0","""event"",""trial"",""time""
""fullscreenenter"",""0"",""9440""
","
","
","""event"",""trial"",""time""
""fullscreenenter"",""0"",""9440""
","
","449.89999999990687","","","","","","","","51","1,0,0","6","blank","255","null","0.8265812504964762","0.3600177500234901","0.38378255064269645","0","","","","","","","","",""
"","html-keyboard-response","70","286498","0.0-44.0-1.0","""event"",""trial"",""time""
""fullscreenenter"",""0"",""9440""
","
","
","""event"",""trial"",""time""
""fullscreenenter"",""0"",""9440""
","
","null","<p></p>","null","","","","","","","","","","","","","","","","","","","","","","","",""
"","do_recog","71","290296","0.0-45.0-0.0","""event"",""trial"",""time""
""fullscreenenter"",""0"",""9440""
","
","
","""event"",""trial"",""time""
""fullscreenenter"",""0"",""9440""
","
","2288.1999999999534","","","","","","","","54","","","","256","probe-140","","","","","1","[object Object]","194","4","1","","","",""
"","html-keyboard-response","72","291299","0.0-45.0-1.0","""event"",""trial"",""time""
""fullscreenenter"",""0"",""9440""
","
","
","""event"",""trial"",""time""
""fullscreenenter"",""0"",""9440""
","
","null","<p></p>","null","","","","","","","","","","","","","","","","","","","","","","","",""
"","do_trial","73","294600","0.0-46.0-0.0","""event"",""trial"",""time""
""fullscreenenter"",""0"",""9440""
","
","
","""event"",""trial"",""time""
""fullscreenenter"",""0"",""9440""
","
","682.9000000001397","","","","","","","","49","1,1,0","6","blank","257","null","0.7553271144232119","0.22150719645082032","0.47638879153657676","1","","","","","","","","",""
"","html-keyboard-response","74","295605","0.0-46.0-1.0","""event"",""trial"",""time""
""fullscreenenter"",""0"",""9440""
","
","
","""event"",""trial"",""time""
""fullscreenenter"",""0"",""9440""
","
","null","<p></p>","null","","","","","","","","","","","","","","","","","","","","","","","",""
"","do_recog","75","299145","0.0-47.0-0.0","""event"",""trial"",""time""
""fullscreenenter"",""0"",""9440""
","
","
","""event"",""trial"",""time""
""fullscreenenter"",""0"",""9440""
","
","2022.3000000000466","","","","","","","","54","","","","258","probe-29","","","","","1","[object Object]","158","3","1","","","",""
"","html-keyboard-response","76","300150","0.0-47.0-1.0","""event"",""trial"",""time""
""fullscreenenter"",""0"",""9440""
","
","
","""event"",""trial"",""time""
""fullscreenenter"",""0"",""9440""
","
","null","<p></p>","null","","","","","","","","","","","","","","","","","","","","","","","",""
"","do_trial","77","303270","0.0-48.0-0.0","""event"",""trial"",""time""
""fullscreenenter"",""0"",""9440""
","
","
","""event"",""trial"",""time""
""fullscreenenter"",""0"",""9440""
","
","497","","","","","","","","49","1,0,0","6","blank","259","null","0.6527786772788666","0.11916623267440311","0.4177718622579998","1","","","","","","","","",""
"","html-keyboard-response","78","304275","0.0-48.0-1.0","""event"",""trial"",""time""
""fullscreenenter"",""0"",""9440""
","
","
","""event"",""trial"",""time""
""fullscreenenter"",""0"",""9440""
","
","null","<p></p>","null","","","","","","","","","","","","","","","","","","","","","","","",""
"","do_trial","79","307501","0.0-49.0-0.0","""event"",""trial"",""time""
""fullscreenenter"",""0"",""9440""
","
","
","""event"",""trial"",""time""
""fullscreenenter"",""0"",""9440""
","
","602.1999999999534","","","","","","","","50","0,0,1","6","blank","260","null","0.6287746768527872","0.05592505693885905","0.4269518727317113","0","","","","","","","","",""
"","html-keyboard-response","80","308506","0.0-49.0-1.0","""event"",""trial"",""time""
""fullscreenenter"",""0"",""9440""
","
","
","""event"",""trial"",""time""
""fullscreenenter"",""0"",""9440""
","
","null","<p></p>","null","","","","","","","","","","","","","","","","","","","","","","","",""
"","do_trial","81","311589","0.0-50.0-0.0","""event"",""trial"",""time""
""fullscreenenter"",""0"",""9440""
","
","
","""event"",""trial"",""time""
""fullscreenenter"",""0"",""9440""
","
","464.5","","","","","","","","51","1,1,0","6","blank","261","null","0.7561526452671231","0.12957025772296593","0.5478283465279521","0","","","","","","","","",""
"","html-keyboard-response","82","312593","0.0-50.0-1.0","""event"",""trial"",""time""
""fullscreenenter"",""0"",""9440""
","
","
","""event"",""trial"",""time""
""fullscreenenter"",""0"",""9440""
","
","null","<p></p>","null","","","","","","","","","","","","","","","","","","","","","","","",""
"","do_recog","83","315616","0.0-51.0-0.0","""event"",""trial"",""time""
""fullscreenenter"",""0"",""9440""
","
","
","""event"",""trial"",""time""
""fullscreenenter"",""0"",""9440""
","
","1504.1999999999534","","","","","","","","54","","","","262","probe-221","","","","","1","[object Object]","118","2","1","","","",""
"","html-keyboard-response","84","316619","0.0-51.0-1.0","""event"",""trial"",""time""
""fullscreenenter"",""0"",""9440""
","
","
","""event"",""trial"",""time""
""fullscreenenter"",""0"",""9440""
","
","null","<p></p>","null","","","","","","","","","","","","","","","","","","","","","","","",""
"","do_trial","85","319951","0.0-52.0-0.0","""event"",""trial"",""time""
""fullscreenenter"",""0"",""9440""
","
","
","""event"",""trial"",""time""
""fullscreenenter"",""0"",""9440""
","
","714.6999999999534","","","","","","","","49","1,0,1","6","blank","263","null","0.5609224515134195","0.08091757457842343","0.43087950148948834","1","","","","","","","","",""
"","html-keyboard-response","86","320955","0.0-52.0-1.0","""event"",""trial"",""time""
""fullscreenenter"",""0"",""9440""
","
","
","""event"",""trial"",""time""
""fullscreenenter"",""0"",""9440""
","
","null","<p></p>","null","","","","","","","","","","","","","","","","","","","","","","","",""
"","do_recog","87","323956","0.0-53.0-0.0","""event"",""trial"",""time""
""fullscreenenter"",""0"",""9440""
","
","
","""event"",""trial"",""time""
""fullscreenenter"",""0"",""9440""
","
","1488.8000000000466","","","","","","","","54","","","","264","probe-169","","","","","1","[object Object]","71","1","1","","","",""
"","html-keyboard-response","88","324960","0.0-53.0-1.0","""event"",""trial"",""time""
""fullscreenenter"",""0"",""9440""
","
","
","""event"",""trial"",""time""
""fullscreenenter"",""0"",""9440""
","
","null","<p></p>","null","","","","","","","","","","","","","","","","","","","","","","","",""
"","do_trial","89","328259","0.0-54.0-0.0","""event"",""trial"",""time""
""fullscreenenter"",""0"",""9440""
","
","
","""event"",""trial"",""time""
""fullscreenenter"",""0"",""9440""
","
","687.1000000000931","","","","","","","","51","1,0,0","6","blank","265","null","0.6680734721906423","0.06312587644416173","0.318124322302583","0","","","","","","","","",""
"","html-keyboard-response","90","329263","0.0-54.0-1.0","""event"",""trial"",""time""
""fullscreenenter"",""0"",""9440""
","
","
","""event"",""trial"",""time""
""fullscreenenter"",""0"",""9440""
","
","null","<p></p>","null","","","","","","","","","","","","","","","","","","","","","","","",""
"","do_recog","91","331813","0.0-55.0-0.0","""event"",""trial"",""time""
""fullscreenenter"",""0"",""9440""
","
","
","""event"",""trial"",""time""
""fullscreenenter"",""0"",""9440""
","
","1037.1999999999534","","","","","","","","54","","","","266","probe-35","","","","","1","[object Object]","196","4","1","","","",""
"","html-keyboard-response","92","332816","0.0-55.0-1.0","""event"",""trial"",""time""
""fullscreenenter"",""0"",""9440""
","
","
","""event"",""trial"",""time""
""fullscreenenter"",""0"",""9440""
","
","null","<p></p>","null","","","","","","","","","","","","","","","","","","","","","","","",""
"","do_trial","93","336368","0.0-56.0-0.0","""event"",""trial"",""time""
""fullscreenenter"",""0"",""9440""
","
","
","""event"",""trial"",""time""
""fullscreenenter"",""0"",""9440""
","
","937.1999999999534","","","","","","","","49","1,0,0","6","blank","267","null","0.6463542268437087","0.06481925362916317","0.29310257217800734","1","","","","","","","","",""
"","html-keyboard-response","94","337373","0.0-56.0-1.0","""event"",""trial"",""time""
""fullscreenenter"",""0"",""9440""
","
","
","""event"",""trial"",""time""
""fullscreenenter"",""0"",""9440""
","
","null","<p></p>","null","","","","","","","","","","","","","","","","","","","","","","","",""
"","do_recog","95","339856","0.0-57.0-0.0","""event"",""trial"",""time""
""fullscreenenter"",""0"",""9440""
","
","
","""event"",""trial"",""time""
""fullscreenenter"",""0"",""9440""
","
","965.1999999999534","","","","","","","","54","","","","268","probe-127","","","","","1","[object Object]","193","4","1","","","",""
"","html-keyboard-response","96","340859","0.0-57.0-1.0","""event"",""trial"",""time""
""fullscreenenter"",""0"",""9440""
","
","
","""event"",""trial"",""time""
""fullscreenenter"",""0"",""9440""
","
","null","<p></p>","null","","","","","","","","","","","","","","","","","","","","","","","",""
"","break","97","344806","0.0-58.0-0.0","""event"",""trial"",""time""
""fullscreenenter"",""0"",""9440""
","
","
","""event"",""trial"",""time""
""fullscreenenter"",""0"",""9440""
","
","3943.7000000001863","<div class='center'><p>Time to take a quick break! You have 2 minutes to rest, but you can move on sooner if you'd like.</p><p> Press the <b>space bar</b> to continue.</p></div>","32","","","","","","","","","","","","","","","","","","","","","","","",""
"","do_trial","98","348273","0.0-58.0-1.0","""event"",""trial"",""time""
""fullscreenenter"",""0"",""9440""
","
","
","""event"",""trial"",""time""
""fullscreenenter"",""0"",""9440""
","
","853","","","","","","","","49","0,0,0","6","blank","269","null","0.45944228031424394","0.21852888707806792","0.16933524607596595","0","","","","","","","","",""
"","html-keyboard-response","99","349278","0.0-58.0-2.0","""event"",""trial"",""time""
""fullscreenenter"",""0"",""9440""
","
","
","""event"",""trial"",""time""
""fullscreenenter"",""0"",""9440""
","
","null","<p></p>","null","","","","","","","","","","","","","","","","","","","","","","","",""
"","do_recog","100","352036","0.0-59.0-0.0","""event"",""trial"",""time""
""fullscreenenter"",""0"",""9440""
","
","
","""event"",""trial"",""time""
""fullscreenenter"",""0"",""9440""
","
","1245.1999999999534","","","","","","","","54","","","","270","probe-63","","","","","1","[object Object]","77","1","1","","","",""
"","html-keyboard-response","101","353039","0.0-59.0-1.0","""event"",""trial"",""time""
""fullscreenenter"",""0"",""9440""
","
","
","""event"",""trial"",""time""
""fullscreenenter"",""0"",""9440""
","
","null","<p></p>","null","","","","","","","","","","","","","","","","","","","","","","","",""
"","do_trial","102","356430","0.0-60.0-0.0","""event"",""trial"",""time""
""fullscreenenter"",""0"",""9440""
","
","
","""event"",""trial"",""time""
""fullscreenenter"",""0"",""9440""
","
","771.6000000000931","","","","","","","","50","0,1,0","6","blank","271","null","0.5215944815460305","0.17165757380989494","0.18118944508389426","1","","","","","","","","",""
"","html-keyboard-response","103","357432","0.0-60.0-1.0","""event"",""trial"",""time""
""fullscreenenter"",""0"",""9440""
","
","
","""event"",""trial"",""time""
""fullscreenenter"",""0"",""9440""
","
","null","<p></p>","null","","","","","","","","","","","","","","","","","","","","","","","",""
"","do_trial","104","360529","0.0-61.0-0.0","""event"",""trial"",""time""
""fullscreenenter"",""0"",""9440""
","
","
","""event"",""trial"",""time""
""fullscreenenter"",""0"",""9440""
","
","471.60000000009313","","","","","","","","51","1,1,0","6","blank","272","null","0.6049658866436646","0.19251428089903336","0.21017432375571107","0","","","","","","","","",""
"","html-keyboard-response","105","361532","0.0-61.0-1.0","""event"",""trial"",""time""
""fullscreenenter"",""0"",""9440""
","
","
","""event"",""trial"",""time""
""fullscreenenter"",""0"",""9440""
","
","null","<p></p>","null","","","","","","","","","","","","","","","","","","","","","","","",""
"","do_trial","106","365060","0.0-62.0-0.0","""event"",""trial"",""time""
""fullscreenenter"",""0"",""9440""
","
","
","""event"",""trial"",""time""
""fullscreenenter"",""0"",""9440""
","
","911.8000000000466","","","","","","","","49","1,1,0","6","blank","273","null","0.6561922950887982","0.35212255232638795","0.33970229403611873","1","","","","","","","","",""
"","html-keyboard-response","107","366063","0.0-62.0-1.0","""event"",""trial"",""time""
""fullscreenenter"",""0"",""9440""
","
","
","""event"",""trial"",""time""
""fullscreenenter"",""0"",""9440""
","
","null","<p></p>","null","","","","","","","","","","","","","","","","","","","","","","","",""
"","do_recog","108","369109","0.0-63.0-0.0","""event"",""trial"",""time""
""fullscreenenter"",""0"",""9440""
","
","
","""event"",""trial"",""time""
""fullscreenenter"",""0"",""9440""
","
","1534.5","","","","","","","","54","","","","274","probe-144","","","","","1","[object Object]","70","1","1","","","",""
"","html-keyboard-response","109","370113","0.0-63.0-1.0","""event"",""trial"",""time""
""fullscreenenter"",""0"",""9440""
","
","
","""event"",""trial"",""time""
""fullscreenenter"",""0"",""9440""
","
","null","<p></p>","null","","","","","","","","","","","","","","","","","","","","","","","",""
"","do_trial","110","373470","0.0-64.0-0.0","""event"",""trial"",""time""
""fullscreenenter"",""0"",""9440""
","
","
","""event"",""trial"",""time""
""fullscreenenter"",""0"",""9440""
","
","738.5999999998603","","","","","","","","50","0,0,1","6","blank","275","null","0.6366113073115035","0.24172998911472549","0.23269210832887857","0","","","","","","","","",""
"","html-keyboard-response","111","374472","0.0-64.0-1.0","""event"",""trial"",""time""
""fullscreenenter"",""0"",""9440""
","
","
","""event"",""trial"",""time""
""fullscreenenter"",""0"",""9440""
","
","null","<p></p>","null","","","","","","","","","","","","","","","","","","","","","","","",""
"","do_trial","112","377663","0.0-65.0-0.0","""event"",""trial"",""time""
""fullscreenenter"",""0"",""9440""
","
","
","""event"",""trial"",""time""
""fullscreenenter"",""0"",""9440""
","
","575.4000000001397","","","","","","","","51","0,1,0","6","blank","276","null","0.5613348364266942","0.2800250939069225","0.2586299184932306","0","","","","","","","","",""
"","html-keyboard-response","113","378668","0.0-65.0-1.0","""event"",""trial"",""time""
""fullscreenenter"",""0"",""9440""
","
","
","""event"",""trial"",""time""
""fullscreenenter"",""0"",""9440""
","
","null","<p></p>","null","","","","","","","","","","","","","","","","","","","","","","","",""
"","do_trial","114","381708","0.0-66.0-0.0","""event"",""trial"",""time""
""fullscreenenter"",""0"",""9440""
","
","
","""event"",""trial"",""time""
""fullscreenenter"",""0"",""9440""
","
","424.4000000001397","","","","","","","","49","0,1,0","6","blank","277","null","0.6714284071390167","0.20155945331890818","0.28605979112473817","0","","","","","","","","",""
"","html-keyboard-response","115","382711","0.0-66.0-1.0","""event"",""trial"",""time""
""fullscreenenter"",""0"",""9440""
","
","
","""event"",""trial"",""time""
""fullscreenenter"",""0"",""9440""
","
","null","<p></p>","null","","","","","","","","","","","","","","","","","","","","","","","",""
"","do_recog","116","385160","0.0-67.0-0.0","""event"",""trial"",""time""
""fullscreenenter"",""0"",""9440""
","
","
","""event"",""trial"",""time""
""fullscreenenter"",""0"",""9440""
","
","934.1999999999534","","","","","","","","54","","","","278","probe-13","","","","","1","[object Object]","76","1","1","","","",""
"","html-keyboard-response","117","386164","0.0-67.0-1.0","""event"",""trial"",""time""
""fullscreenenter"",""0"",""9440""
","
","
","""event"",""trial"",""time""
""fullscreenenter"",""0"",""9440""
","
","null","<p></p>","null","","","","","","","","","","","","","","","","","","","","","","","",""
"","do_trial","118","389591","0.0-68.0-0.0","""event"",""trial"",""time""
""fullscreenenter"",""0"",""9440""
","
","
","""event"",""trial"",""time""
""fullscreenenter"",""0"",""9440""
","
","805.1999999999534","","","","","","","","50","0,1,0","6","blank","279","null","0.4729186936599619","0.0952618862608647","0.2801108759503182","1","","","","","","","","",""
"","html-keyboard-response","119","390595","0.0-68.0-1.0","""event"",""trial"",""time""
""fullscreenenter"",""0"",""9440""
","
","
","""event"",""trial"",""time""
""fullscreenenter"",""0"",""9440""
","
","null","<p></p>","null","","","","","","","","","","","","","","","","","","","","","","","",""
"","do_trial","120","393842","0.0-69.0-0.0","""event"",""trial"",""time""
""fullscreenenter"",""0"",""9440""
","
","
","""event"",""trial"",""time""
""fullscreenenter"",""0"",""9440""
","
","625.5999999998603","","","","","","","","51","1,0,0","6","blank","280","null","0.4623275045343291","0.13491211368980766","0.3897980556923369","0","","","","","","","","",""
"","html-keyboard-response","121","394845","0.0-69.0-1.0","""event"",""trial"",""time""
""fullscreenenter"",""0"",""9440""
","
","
","""event"",""trial"",""time""
""fullscreenenter"",""0"",""9440""
","
","null","<p></p>","null","","","","","","","","","","","","","","","","","","","","","","","",""
"","do_trial","122","399102","0.0-70.0-0.0","""event"",""trial"",""time""
""fullscreenenter"",""0"",""9440""
","
","
","""event"",""trial"",""time""
""fullscreenenter"",""0"",""9440""
","
","1633.6000000000931","","","","","","","","49","1,0,1","6","blank","281","null","0.5558066771760009","0.05818554391113882","0.4214206598265851","1","","","","","","","","",""
"","html-keyboard-response","123","400106","0.0-70.0-1.0","""event"",""trial"",""time""
""fullscreenenter"",""0"",""9440""
","
","
","""event"",""trial"",""time""
""fullscreenenter"",""0"",""9440""
","
","null","<p></p>","null","","","","","","","","","","","","","","","","","","","","","","","",""
"","do_trial","124","403324","0.0-71.0-0.0","""event"",""trial"",""time""
""fullscreenenter"",""0"",""9440""
","
","
","""event"",""trial"",""time""
""fullscreenenter"",""0"",""9440""
","
","605.3999999999069","","","","","","","","50","0,0,0","6","blank","282","null","0.6335752947442065","0.1022461863673503","0.3256405497355789","0","","","","","","","","",""
"","html-keyboard-response","125","404329","0.0-71.0-1.0","""event"",""trial"",""time""
""fullscreenenter"",""0"",""9440""
","
","
","""event"",""trial"",""time""
""fullscreenenter"",""0"",""9440""
","
","null","<p></p>","null","","","","","","","","","","","","","","","","","","","","","","","",""
"","do_recog","126","406907","0.0-72.0-0.0","""event"",""trial"",""time""
""fullscreenenter"",""0"",""9440""
","
","
","""event"",""trial"",""time""
""fullscreenenter"",""0"",""9440""
","
","1061.6999999999534","","","","","","","","54","","","","283","probe-251","","","","","0","[object Object]","null","null","0","","","",""
"","html-keyboard-response","127","407910","0.0-72.0-1.0","""event"",""trial"",""time""
""fullscreenenter"",""0"",""9440""
","
","
","""event"",""trial"",""time""
""fullscreenenter"",""0"",""9440""
","
","null","<p></p>","null","","","","","","","","","","","","","","","","","","","","","","","",""
"","do_trial","128","411775","0.0-73.0-0.0","""event"",""trial"",""time""
""fullscreenenter"",""0"",""9440""
","
","
","""event"",""trial"",""time""
""fullscreenenter"",""0"",""9440""
","
","1239.5","","","","","","","","49","1,0,0","6","blank","284","null","0.6148744493578113","0.11152440854863808","0.2994835203163345","1","","","","","","","","",""
"","html-keyboard-response","129","412779","0.0-73.0-1.0","""event"",""trial"",""time""
""fullscreenenter"",""0"",""9440""
","
","
","""event"",""trial"",""time""
""fullscreenenter"",""0"",""9440""
","
","null","<p></p>","null","","","","","","","","","","","","","","","","","","","","","","","",""
"","do_recog","130","415562","0.0-74.0-0.0","""event"",""trial"",""time""
""fullscreenenter"",""0"",""9440""
","
","
","""event"",""trial"",""time""
""fullscreenenter"",""0"",""9440""
","
","1265.6999999999534","","","","","","","","54","","","","285","probe-41","","","","","1","[object Object]","152","3","1","","","",""
"","html-keyboard-response","131","416565","0.0-74.0-1.0","""event"",""trial"",""time""
""fullscreenenter"",""0"",""9440""
","
","
","""event"",""trial"",""time""
""fullscreenenter"",""0"",""9440""
","
","null","<p></p>","null","","","","","","","","","","","","","","","","","","","","","","","",""
"","do_trial","132","419857","0.0-75.0-0.0","""event"",""trial"",""time""
""fullscreenenter"",""0"",""9440""
","
","
","""event"",""trial"",""time""
""fullscreenenter"",""0"",""9440""
","
","675.6999999999534","","","","","","","","50","1,1,0","6","blank","286","null","0.5451962987605969","0.1308566690357945","0.20101411963490612","1","","","","","","","","",""
"","html-keyboard-response","133","420860","0.0-75.0-1.0","""event"",""trial"",""time""
""fullscreenenter"",""0"",""9440""
","
","
","""event"",""trial"",""time""
""fullscreenenter"",""0"",""9440""
","
","null","<p></p>","null","","","","","","","","","","","","","","","","","","","","","","","",""
"","do_recog","134","423685","0.0-76.0-0.0","""event"",""trial"",""time""
""fullscreenenter"",""0"",""9440""
","
","
","""event"",""trial"",""time""
""fullscreenenter"",""0"",""9440""
","
","1314.3000000000466","","","","","","","","54","","","","287","probe-172","","","","","1","[object Object]","113","2","1","","","",""
"","html-keyboard-response","135","424687","0.0-76.0-1.0","""event"",""trial"",""time""
""fullscreenenter"",""0"",""9440""
","
","
","""event"",""trial"",""time""
""fullscreenenter"",""0"",""9440""
","
","null","<p></p>","null","","","","","","","","","","","","","","","","","","","","","","","",""
"","do_trial","136","429649","0.0-77.0-0.0","""event"",""trial"",""time""
""fullscreenenter"",""0"",""9440""
","
","
","""event"",""trial"",""time""
""fullscreenenter"",""0"",""9440""
","
","2337","","","","","","","","51","1,1,0","6","blank","288","null","0.6082677856525657","0.20144852161318763","0.3360673638357235","0","","","","","","","","",""
"","html-keyboard-response","137","430655","0.0-77.0-1.0","""event"",""trial"",""time""
""fullscreenenter"",""0"",""9440""
","
","
","""event"",""trial"",""time""
""fullscreenenter"",""0"",""9440""
","
","null","<p></p>","null","","","","","","","","","","","","","","","","","","","","","","","",""
"","do_recog","138","433439","0.0-78.0-0.0","""event"",""trial"",""time""
""fullscreenenter"",""0"",""9440""
","
","
","""event"",""trial"",""time""
""fullscreenenter"",""0"",""9440""
","
","1265.0999999998603","","","","","","","","54","","","","289","probe-208","","","","","1","[object Object]","78","1","1","","","",""
"","html-keyboard-response","139","434444","0.0-78.0-1.0","""event"",""trial"",""time""
""fullscreenenter"",""0"",""9440""
","
","
","""event"",""trial"",""time""
""fullscreenenter"",""0"",""9440""
","
","null","<p></p>","null","","","","","","","","","","","","","","","","","","","","","","","",""
"","do_trial","140","437818","0.0-79.0-0.0","""event"",""trial"",""time""
""fullscreenenter"",""0"",""9440""
","
","
","""event"",""trial"",""time""
""fullscreenenter"",""0"",""9440""
","
","759","","","","","","","","49","1,1,0","6","blank","290","null","0.5748933155774958","0.05648676813720181","0.45946501255709316","1","","","","","","","","",""
"","html-keyboard-response","141","438822","0.0-79.0-1.0","""event"",""trial"",""time""
""fullscreenenter"",""0"",""9440""
","
","
","""event"",""trial"",""time""
""fullscreenenter"",""0"",""9440""
","
","null","<p></p>","null","","","","","","","","","","","","","","","","","","","","","","","",""
"","do_trial","142","441909","0.0-80.0-0.0","""event"",""trial"",""time""
""fullscreenenter"",""0"",""9440""
","
","
","""event"",""trial"",""time""
""fullscreenenter"",""0"",""9440""
","
","472.80000000004657","","","","","","","","50","0,0,0","6","blank","291","null","0.5552707274219212","0.08008934560020863","0.3048861116876406","0","","","","","","","","",""
"","html-keyboard-response","143","442913","0.0-80.0-1.0","""event"",""trial"",""time""
""fullscreenenter"",""0"",""9440""
","
","
","""event"",""trial"",""time""
""fullscreenenter"",""0"",""9440""
","
","null","<p></p>","null","","","","","","","","","","","","","","","","","","","","","","","",""
"","do_recog","144","445582","0.0-81.0-0.0","""event"",""trial"",""time""
""fullscreenenter"",""0"",""9440""
","
","
","""event"",""trial"",""time""
""fullscreenenter"",""0"",""9440""
","
","1157.4000000001397","","","","","","","","54","","","","292","probe-222","","","","","1","[object Object]","156","3","1","","","",""
"","html-keyboard-response","145","446584","0.0-81.0-1.0","""event"",""trial"",""time""
""fullscreenenter"",""0"",""9440""
","
","
","""event"",""trial"",""time""
""fullscreenenter"",""0"",""9440""
","
","null","<p></p>","null","","","","","","","","","","","","","","","","","","","","","","","",""
"","do_trial","146","449723","0.0-82.0-0.0","""event"",""trial"",""time""
""fullscreenenter"",""0"",""9440""
","
","
","""event"",""trial"",""time""
""fullscreenenter"",""0"",""9440""
","
","517.1000000000931","","","","","","","","51","1,1,0","6","blank","293","null","0.4664689623000025","0.2693501790436357","0.3307788093067624","0","","","","","","","","",""
"","html-keyboard-response","147","450726","0.0-82.0-1.0","""event"",""trial"",""time""
""fullscreenenter"",""0"",""9440""
","
","
","""event"",""trial"",""time""
""fullscreenenter"",""0"",""9440""
","
","null","<p></p>","null","","","","","","","","","","","","","","","","","","","","","","","",""
"","do_trial","148","454882","0.0-83.0-0.0","""event"",""trial"",""time""
""fullscreenenter"",""0"",""9440""
","
","
","""event"",""trial"",""time""
""fullscreenenter"",""0"",""9440""
","
","1539.8999999999069","","","","","","","","49","0,0,1","6","blank","294","null","0.5416915987993415","0.06042689598833079","0.32682462506297577","0","","","","","","","","",""
"","html-keyboard-response","149","455885","0.0-83.0-1.0","""event"",""trial"",""time""
""fullscreenenter"",""0"",""9440""
","
","
","""event"",""trial"",""time""
""fullscreenenter"",""0"",""9440""
","
","null","<p></p>","null","","","","","","","","","","","","","","","","","","","","","","","",""
"","do_trial","150","460332","0.0-84.0-0.0","""event"",""trial"",""time""
""fullscreenenter"",""0"",""9440""
","
","
","""event"",""trial"",""time""
""fullscreenenter"",""0"",""9440""
","
","1831.8000000000466","","","","","","","","50","1,0,1","6","blank","295","null","0.5476224613278328","0.20107728605125466","0.12526136559483766","0","","","","","","","","",""
"","html-keyboard-response","151","461338","0.0-84.0-1.0","""event"",""trial"",""time""
""fullscreenenter"",""0"",""9440""
","
","
","""event"",""trial"",""time""
""fullscreenenter"",""0"",""9440""
","
","null","<p></p>","null","","","","","","","","","","","","","","","","","","","","","","","",""
"","do_trial","152","465227","0.0-85.0-0.0","""event"",""trial"",""time""
""fullscreenenter"",""0"",""9440""
","
","
","""event"",""trial"",""time""
""fullscreenenter"",""0"",""9440""
","
","1272.6999999999534","","","","","","","","51","1,0,0","6","blank","296","null","0.5042433395271082","0.22512259408724508","0.18942219360808954","0","","","","","","","","",""
"","html-keyboard-response","153","466229","0.0-85.0-1.0","""event"",""trial"",""time""
""fullscreenenter"",""0"",""9440""
","
","
","""event"",""trial"",""time""
""fullscreenenter"",""0"",""9440""
","
","null","<p></p>","null","","","","","","","","","","","","","","","","","","","","","","","",""
"","do_trial","154","469455","0.0-86.0-0.0","""event"",""trial"",""time""
""fullscreenenter"",""0"",""9440""
","
","
","""event"",""trial"",""time""
""fullscreenenter"",""0"",""9440""
","
","609.3000000000466","","","","","","","","49","1,0,0","6","blank","297","null","0.5147022838220234","0.09497442746364353","0.18740041058703769","1","","","","","","","","",""
"","html-keyboard-response","155","470460","0.0-86.0-1.0","""event"",""trial"",""time""
""fullscreenenter"",""0"",""9440""
","
","
","""event"",""trial"",""time""
""fullscreenenter"",""0"",""9440""
","
","null","<p></p>","null","","","","","","","","","","","","","","","","","","","","","","","",""
"","do_trial","156","473972","0.0-87.0-0.0","""event"",""trial"",""time""
""fullscreenenter"",""0"",""9440""
","
","
","""event"",""trial"",""time""
""fullscreenenter"",""0"",""9440""
","
","890.3000000000466","","","","","","","","50","0,0,0","6","blank","298","null","0.5145958518730308","0.07055484037446895","0.27367784805727324","0","","","","","","","","",""
"","html-keyboard-response","157","474974","0.0-87.0-1.0","""event"",""trial"",""time""
""fullscreenenter"",""0"",""9440""
","
","
","""event"",""trial"",""time""
""fullscreenenter"",""0"",""9440""
","
","null","<p></p>","null","","","","","","","","","","","","","","","","","","","","","","","",""
"","do_recog","158","477735","0.0-88.0-0.0","""event"",""trial"",""time""
""fullscreenenter"",""0"",""9440""
","
","
","""event"",""trial"",""time""
""fullscreenenter"",""0"",""9440""
","
","1249.4000000001397","","","","","","","","54","","","","299","probe-61","","","","","1","[object Object]","37","0","1","","","",""
"","html-keyboard-response","159","478738","0.0-88.0-1.0","""event"",""trial"",""time""
""fullscreenenter"",""0"",""9440""
","
","
","""event"",""trial"",""time""
""fullscreenenter"",""0"",""9440""
","
","null","<p></p>","null","","","","","","","","","","","","","","","","","","","","","","","",""
"","do_trial","160","482209","0.0-89.0-0.0","""event"",""trial"",""time""
""fullscreenenter"",""0"",""9440""
","
","
","""event"",""trial"",""time""
""fullscreenenter"",""0"",""9440""
","
","859.8999999999069","","","","","","","","51","1,1,0","6","blank","300","null","0.5322739501581075","0.1194402660251521","0.44861069822851507","0","","","","","","","","",""
"","html-keyboard-response","161","483214","0.0-89.0-1.0","""event"",""trial"",""time""
""fullscreenenter"",""0"",""9440""
","
","
","""event"",""trial"",""time""
""fullscreenenter"",""0"",""9440""
","
","null","<p></p>","null","","","","","","","","","","","","","","","","","","","","","","","",""
"","do_trial","162","487464","0.0-90.0-0.0","""event"",""trial"",""time""
""fullscreenenter"",""0"",""9440""
","
","
","""event"",""trial"",""time""
""fullscreenenter"",""0"",""9440""
","
","1635.3000000000466","","","","","","","","49","1,0,0","6","blank","301","null","0.4880833892005581","0.15475062581196622","0.6037294481822503","1","","","","","","","","",""
"","html-keyboard-response","163","488468","0.0-90.0-1.0","""event"",""trial"",""time""
""fullscreenenter"",""0"",""9440""
","
","
","""event"",""trial"",""time""
""fullscreenenter"",""0"",""9440""
","
","null","<p></p>","null","","","","","","","","","","","","","","","","","","","","","","","",""
"","do_recog","164","491631","0.0-91.0-0.0","""event"",""trial"",""time""
""fullscreenenter"",""0"",""9440""
","
","
","""event"",""trial"",""time""
""fullscreenenter"",""0"",""9440""
","
","1646.7000000001863","","","","","","","","54","","","","302","probe-191","","","","","1","[object Object]","190","4","1","","","",""
"","html-keyboard-response","165","492634","0.0-91.0-1.0","""event"",""trial"",""time""
""fullscreenenter"",""0"",""9440""
","
","
","""event"",""trial"",""time""
""fullscreenenter"",""0"",""9440""
","
","null","<p></p>","null","","","","","","","","","","","","","","","","","","","","","","","",""
"","do_trial","166","496433","0.0-92.0-0.0","""event"",""trial"",""time""
""fullscreenenter"",""0"",""9440""
","
","
","""event"",""trial"",""time""
""fullscreenenter"",""0"",""9440""
","
","1183.4000000001397","","","","","","","","50","1,0,1","6","blank","303","null","0.3874260958208872","0.12849110114874548","0.7045309703569447","0","","","","","","","","",""
"","html-keyboard-response","167","497437","0.0-92.0-1.0","""event"",""trial"",""time""
""fullscreenenter"",""0"",""9440""
","
","
","""event"",""trial"",""time""
""fullscreenenter"",""0"",""9440""
","
","null","<p></p>","null","","","","","","","","","","","","","","","","","","","","","","","",""
"","do_recog","168","500352","0.0-93.0-0.0","""event"",""trial"",""time""
""fullscreenenter"",""0"",""9440""
","
","
","""event"",""trial"",""time""
""fullscreenenter"",""0"",""9440""
","
","1398.4000000001397","","","","","","","","54","","","","304","probe-147","","","","","1","[object Object]","73","1","1","","","",""
"","html-keyboard-response","169","501356","0.0-93.0-1.0","""event"",""trial"",""time""
""fullscreenenter"",""0"",""9440""
","
","
","""event"",""trial"",""time""
""fullscreenenter"",""0"",""9440""
","
","null","<p></p>","null","","","","","","","","","","","","","","","","","","","","","","","",""
"","do_trial","170","507489","0.0-94.0-0.0","""event"",""trial"",""time""
""fullscreenenter"",""0"",""9440""
","
","
","""event"",""trial"",""time""
""fullscreenenter"",""0"",""9440""
","
","null","","","","","","","","null","0,0,1","6","blank","305","null","0.342797178073163","0.07442170488354002","0.5754841257766714","","","","","","","","","",""
"","html-keyboard-response","171","508493","0.0-94.0-1.0","""event"",""trial"",""time""
""fullscreenenter"",""0"",""9440""
","
","
","""event"",""trial"",""time""
""fullscreenenter"",""0"",""9440""
","
","null","<p></p>","null","","","","","","","","","","","","","","","","","","","","","","","",""
"","do_trial","172","511628","0.0-95.0-0.0","""event"",""trial"",""time""
""fullscreenenter"",""0"",""9440""
","
","
","""event"",""trial"",""time""
""fullscreenenter"",""0"",""9440""
","
","518.3000000000466","","","","","","","","51","1,0,0","6","blank","306","null","0.36752813984642657","0.08074533635138498","0.4919049614363947","0","","","","","","","","",""
"","html-keyboard-response","173","512631","0.0-95.0-1.0","""event"",""trial"",""time""
""fullscreenenter"",""0"",""9440""
","
","
","""event"",""trial"",""time""
""fullscreenenter"",""0"",""9440""
","
","null","<p></p>","null","","","","","","","","","","","","","","","","","","","","","","","",""
"","do_trial","174","516191","0.0-96.0-0.0","""event"",""trial"",""time""
""fullscreenenter"",""0"",""9440""
","
","
","""event"",""trial"",""time""
""fullscreenenter"",""0"",""9440""
","
","947.1000000000931","","","","","","","","49","0,0,0","6","blank","307","null","0.2953426851607156","0.1782150575049894","0.43540041824812603","0","","","","","","","","",""
"","html-keyboard-response","175","517195","0.0-96.0-1.0","""event"",""trial"",""time""
""fullscreenenter"",""0"",""9440""
","
","
","""event"",""trial"",""time""
""fullscreenenter"",""0"",""9440""
","
","null","<p></p>","null","","","","","","","","","","","","","","","","","","","","","","","",""
"","do_trial","176","520527","0.0-97.0-0.0","""event"",""trial"",""time""
""fullscreenenter"",""0"",""9440""
","
","
","""event"",""trial"",""time""
""fullscreenenter"",""0"",""9440""
","
","721.2999999998137","","","","","","","","50","1,0,1","6","blank","308","null","0.34686194557941813","0.1143666313836235","0.38167697012274154","0","","","","","","","","",""
"","html-keyboard-response","177","521529","0.0-97.0-1.0","""event"",""trial"",""time""
""fullscreenenter"",""0"",""9440""
","
","
","""event"",""trial"",""time""
""fullscreenenter"",""0"",""9440""
","
","null","<p></p>","null","","","","","","","","","","","","","","","","","","","","","","","",""
"","break","178","524141","0.0-98.0-0.0","""event"",""trial"",""time""
""fullscreenenter"",""0"",""9440""
","
","
","""event"",""trial"",""time""
""fullscreenenter"",""0"",""9440""
","
","2607.8000000000466","<div class='center'><p>Time to take a quick break! You have 2 minutes to rest, but you can move on sooner if you'd like.</p><p> Press the <b>space bar</b> to continue.</p></div>","32","","","","","","","","","","","","","","","","","","","","","","","",""
"","do_trial","179","527684","0.0-98.0-1.0","""event"",""trial"",""time""
""fullscreenenter"",""0"",""9440""
","
","
","""event"",""trial"",""time""
""fullscreenenter"",""0"",""9440""
","
","929.5","","","","","","","","49","1,0,0","6","blank","309","null","0.40305067014623186","0.2576532871448308","0.4479349156550984","1","","","","","","","","",""
"","html-keyboard-response","180","528689","0.0-98.0-2.0","""event"",""trial"",""time""
""fullscreenenter"",""0"",""9440""
","
","
","""event"",""trial"",""time""
""fullscreenenter"",""0"",""9440""
","
","null","<p></p>","null","","","","","","","","","","","","","","","","","","","","","","","",""
"","do_trial","181","532007","0.0-99.0-0.0","""event"",""trial"",""time""
""fullscreenenter"",""0"",""9440""
","
","
","""event"",""trial"",""time""
""fullscreenenter"",""0"",""9440""
","
","701.3000000000466","","","","","","","","50","1,1,1","6","blank","310","null","0.45607871057815613","0.24112397404203947","0.47692125802099333","1","","","","","","","","",""
"","html-keyboard-response","182","533009","0.0-99.0-1.0","""event"",""trial"",""time""
""fullscreenenter"",""0"",""9440""
","
","
","""event"",""trial"",""time""
""fullscreenenter"",""0"",""9440""
","
","null","<p></p>","null","","","","","","","","","","","","","","","","","","","","","","","",""
"","do_recog","183","535848","0.0-100.0-0.0","""event"",""trial"",""time""
""fullscreenenter"",""0"",""9440""
","
","
","""event"",""trial"",""time""
""fullscreenenter"",""0"",""9440""
","
","1322.6999999999534","","","","","","","","54","","","","311","probe-86","","","","","1","[object Object]","74","1","1","","","",""
"","html-keyboard-response","184","536853","0.0-100.0-1.0","""event"",""trial"",""time""
""fullscreenenter"",""0"",""9440""
","
","
","""event"",""trial"",""time""
""fullscreenenter"",""0"",""9440""
","
","null","<p></p>","null","","","","","","","","","","","","","","","","","","","","","","","",""
"","do_trial","185","540169","0.0-101.0-0.0","""event"",""trial"",""time""
""fullscreenenter"",""0"",""9440""
","
","
","""event"",""trial"",""time""
""fullscreenenter"",""0"",""9440""
","
","700.5","","","","","","","","51","0,0,0","6","blank","312","null","0.3862369247711046","0.25390424565235675","0.6525620853171518","0","","","","","","","","",""
"","html-keyboard-response","186","541174","0.0-101.0-1.0","""event"",""trial"",""time""
""fullscreenenter"",""0"",""9440""
","
","
","""event"",""trial"",""time""
""fullscreenenter"",""0"",""9440""
","
","null","<p></p>","null","","","","","","","","","","","","","","","","","","","","","","","",""
"","do_trial","187","545128","0.0-102.0-0.0","""event"",""trial"",""time""
""fullscreenenter"",""0"",""9440""
","
","
","""event"",""trial"",""time""
""fullscreenenter"",""0"",""9440""
","
","1343.3000000000466","","","","","","","","51","1,1,1","6","blank","313","null","0.3459814692132791","0.17612692995498455","0.6785634360749228","1","","","","","","","","",""
"","html-keyboard-response","188","546132","0.0-102.0-1.0","""event"",""trial"",""time""
""fullscreenenter"",""0"",""9440""
","
","
","""event"",""trial"",""time""
""fullscreenenter"",""0"",""9440""
","
","null","<p></p>","null","","","","","","","","","","","","","","","","","","","","","","","",""
"","do_recog","189","549039","0.0-103.0-0.0","""event"",""trial"",""time""
""fullscreenenter"",""0"",""9440""
","
","
","""event"",""trial"",""time""
""fullscreenenter"",""0"",""9440""
","
","1393.3000000000466","","","","","","","","54","","","","314","probe-193","","","","","1","[object Object]","151","3","1","","","",""
"","html-keyboard-response","190","550044","0.0-103.0-1.0","""event"",""trial"",""time""
""fullscreenenter"",""0"",""9440""
","
","
","""event"",""trial"",""time""
""fullscreenenter"",""0"",""9440""
","
","null","<p></p>","null","","","","","","","","","","","","","","","","","","","","","","","",""
"","do_trial","191","554352","0.0-104.0-0.0","""event"",""trial"",""time""
""fullscreenenter"",""0"",""9440""
","
","
","""event"",""trial"",""time""
""fullscreenenter"",""0"",""9440""
","
","1680.5","","","","","","","","49","0,0,1","6","blank","315","null","0.20436464583900743","0.25038721846766565","0.5436952226811458","0","","","","","","","","",""
"","html-keyboard-response","192","555356","0.0-104.0-1.0","""event"",""trial"",""time""
""fullscreenenter"",""0"",""9440""
","
","
","""event"",""trial"",""time""
""fullscreenenter"",""0"",""9440""
","
","null","<p></p>","null","","","","","","","","","","","","","","","","","","","","","","","",""
"","do_trial","193","558968","0.0-105.0-0.0","""event"",""trial"",""time""
""fullscreenenter"",""0"",""9440""
","
","
","""event"",""trial"",""time""
""fullscreenenter"",""0"",""9440""
","
","980.8000000000466","","","","","","","","50","0,0,1","6","blank","316","null","0.2285753699402573","0.29519771541268774","0.5721025939735848","0","","","","","","","","",""
"","html-keyboard-response","194","559974","0.0-105.0-1.0","""event"",""trial"",""time""
""fullscreenenter"",""0"",""9440""
","
","
","""event"",""trial"",""time""
""fullscreenenter"",""0"",""9440""
","
","null","<p></p>","null","","","","","","","","","","","","","","","","","","","","","","","",""
"","do_trial","195","563504","0.0-106.0-0.0","""event"",""trial"",""time""
""fullscreenenter"",""0"",""9440""
","
","
","""event"",""trial"",""time""
""fullscreenenter"",""0"",""9440""
","
","906.1000000000931","","","","","","","","51","1,0,1","6","blank","317","null","0.27792689831746387","0.1807460457363816","0.7488720295586184","1","","","","","","","","",""
"","html-keyboard-response","196","564506","0.0-106.0-1.0","""event"",""trial"",""time""
""fullscreenenter"",""0"",""9440""
","
","
","""event"",""trial"",""time""
""fullscreenenter"",""0"",""9440""
","
","null","<p></p>","null","","","","","","","","","","","","","","","","","","","","","","","",""
"","do_trial","197","569086","0.0-107.0-0.0","""event"",""trial"",""time""
""fullscreenenter"",""0"",""9440""
","
","
","""event"",""trial"",""time""
""fullscreenenter"",""0"",""9440""
","
","1960.8000000000466","","","","","","","","49","1,0,0","6","blank","318","null","0.3891612797255352","0.11880316373405769","0.5419650824661653","1","","","","","","","","",""
"","html-keyboard-response","198","570091","0.0-107.0-1.0","""event"",""trial"",""time""
""fullscreenenter"",""0"",""9440""
","
","
","""event"",""trial"",""time""
""fullscreenenter"",""0"",""9440""
","
","null","<p></p>","null","","","","","","","","","","","","","","","","","","","","","","","",""
"","do_trial","199","573317","0.0-108.0-0.0","""event"",""trial"",""time""
""fullscreenenter"",""0"",""9440""
","
","
","""event"",""trial"",""time""
""fullscreenenter"",""0"",""9440""
","
","603.8999999999069","","","","","","","","50","1,0,1","6","blank","319","null","0.32308910974040167","0.05758309203606944","0.6653532447924756","0","","","","","","","","",""
"","html-keyboard-response","200","574321","0.0-108.0-1.0","""event"",""trial"",""time""
""fullscreenenter"",""0"",""9440""
","
","
","""event"",""trial"",""time""
""fullscreenenter"",""0"",""9440""
","
","null","<p></p>","null","","","","","","","","","","","","","","","","","","","","","","","",""
"","do_trial","201","577556","0.0-109.0-0.0","""event"",""trial"",""time""
""fullscreenenter"",""0"",""9440""
","
","
","""event"",""trial"",""time""
""fullscreenenter"",""0"",""9440""
","
","614.5","","","","","","","","51","1,0,0","6","blank","320","null","0.4195262831122317","0.1853962803782178","0.5533225259925226","0","","","","","","","","",""
"","html-keyboard-response","202","578559","0.0-109.0-1.0","""event"",""trial"",""time""
""fullscreenenter"",""0"",""9440""
","
","
","""event"",""trial"",""time""
""fullscreenenter"",""0"",""9440""
","
","null","<p></p>","null","","","","","","","","","","","","","","","","","","","","","","","",""
"","do_recog","203","581246","0.0-110.0-0.0","""event"",""trial"",""time""
""fullscreenenter"",""0"",""9440""
","
","
","""event"",""trial"",""time""
""fullscreenenter"",""0"",""9440""
","
","1168.8000000000466","","","","","","","","55","","","","321","probe-155","","","","","1","[object Object]","198","4","0","","","",""
"","html-keyboard-response","204","582250","0.0-110.0-1.0","""event"",""trial"",""time""
""fullscreenenter"",""0"",""9440""
","
","
","""event"",""trial"",""time""
""fullscreenenter"",""0"",""9440""
","
","null","<p></p>","null","","","","","","","","","","","","","","","","","","","","","","","",""
"","do_trial","205","585492","0.0-111.0-0.0","""event"",""trial"",""time""
""fullscreenenter"",""0"",""9440""
","
","
","""event"",""trial"",""time""
""fullscreenenter"",""0"",""9440""
","
","622.7999999998137","","","","","","","","49","0,0,0","6","blank","322","null","0.2101502191557734","0.08500292400616832","0.4868013820827205","0","","","","","","","","",""
"","html-keyboard-response","206","586494","0.0-111.0-1.0","""event"",""trial"",""time""
""fullscreenenter"",""0"",""9440""
","
","
","""event"",""trial"",""time""
""fullscreenenter"",""0"",""9440""
","
","null","<p></p>","null","","","","","","","","","","","","","","","","","","","","","","","",""
"","do_trial","207","589966","0.0-112.0-0.0","""event"",""trial"",""time""
""fullscreenenter"",""0"",""9440""
","
","
","""event"",""trial"",""time""
""fullscreenenter"",""0"",""9440""
","
","864.8000000000466","","","","","","","","50","0,0,0","6","blank","323","null","0.3711592918578547","0.15119627659743454","0.46504493595809926","0","","","","","","","","",""
"","html-keyboard-response","208","590971","0.0-112.0-1.0","""event"",""trial"",""time""
""fullscreenenter"",""0"",""9440""
","
","
","""event"",""trial"",""time""
""fullscreenenter"",""0"",""9440""
","
","null","<p></p>","null","","","","","","","","","","","","","","","","","","","","","","","",""
"","do_trial","209","594688","0.0-113.0-0.0","""event"",""trial"",""time""
""fullscreenenter"",""0"",""9440""
","
","
","""event"",""trial"",""time""
""fullscreenenter"",""0"",""9440""
","
","1101.0999999998603","","","","","","","","51","1,1,0","6","blank","324","null","0.3652795155483657","0.07783313489958958","0.5662041037472921","0","","","","","","","","",""
"","html-keyboard-response","210","595692","0.0-113.0-1.0","""event"",""trial"",""time""
""fullscreenenter"",""0"",""9440""
","
","
","""event"",""trial"",""time""
""fullscreenenter"",""0"",""9440""
","
","null","<p></p>","null","","","","","","","","","","","","","","","","","","","","","","","",""
"","do_trial","211","598753","0.0-114.0-0.0","""event"",""trial"",""time""
""fullscreenenter"",""0"",""9440""
","
","
","""event"",""trial"",""time""
""fullscreenenter"",""0"",""9440""
","
","449.39999999990687","","","","","","","","49","1,0,0","6","blank","325","null","0.25474714822662575","0.12366914113290559","0.5364158525305649","1","","","","","","","","",""
"","html-keyboard-response","212","599757","0.0-114.0-1.0","""event"",""trial"",""time""
""fullscreenenter"",""0"",""9440""
","
","
","""event"",""trial"",""time""
""fullscreenenter"",""0"",""9440""
","
","null","<p></p>","null","","","","","","","","","","","","","","","","","","","","","","","",""
"","do_trial","213","603183","0.0-115.0-0.0","""event"",""trial"",""time""
""fullscreenenter"",""0"",""9440""
","
","
","""event"",""trial"",""time""
""fullscreenenter"",""0"",""9440""
","
","807.1000000000931","","","","","","","","50","0,0,1","6","blank","326","null","0.2925193035695947","0.05017272456447299","0.5870039835826844","0","","","","","","","","",""
"","html-keyboard-response","214","604186","0.0-115.0-1.0","""event"",""trial"",""time""
""fullscreenenter"",""0"",""9440""
","
","
","""event"",""trial"",""time""
""fullscreenenter"",""0"",""9440""
","
","null","<p></p>","null","","","","","","","","","","","","","","","","","","","","","","","",""
"","do_trial","215","607151","0.0-116.0-0.0","""event"",""trial"",""time""
""fullscreenenter"",""0"",""9440""
","
","
","""event"",""trial"",""time""
""fullscreenenter"",""0"",""9440""
","
","349.19999999995343","","","","","","","","51","0,0,0","6","blank","327","null","0.3480965829437521","0.06891585565199035","0.5350048239398767","0","","","","","","","","",""
"","html-keyboard-response","216","608157","0.0-116.0-1.0","""event"",""trial"",""time""
""fullscreenenter"",""0"",""9440""
","
","
","""event"",""trial"",""time""
""fullscreenenter"",""0"",""9440""
","
","null","<p></p>","null","","","","","","","","","","","","","","","","","","","","","","","",""
"","do_recog","217","611045","0.0-117.0-0.0","""event"",""trial"",""time""
""fullscreenenter"",""0"",""9440""
","
","
","""event"",""trial"",""time""
""fullscreenenter"",""0"",""9440""
","
","1372.8000000000466","","","","","","","","54","","","","328","probe-10","","","","","1","[object Object]","30","0","1","","","",""
"","html-keyboard-response","218","612049","0.0-117.0-1.0","""event"",""trial"",""time""
""fullscreenenter"",""0"",""9440""
","
","
","""event"",""trial"",""time""
""fullscreenenter"",""0"",""9440""
","
","null","<p></p>","null","","","","","","","","","","","","","","","","","","","","","","","",""
"","do_trial","219","615362","0.0-118.0-0.0","""event"",""trial"",""time""
""fullscreenenter"",""0"",""9440""
","
","
","""event"",""trial"",""time""
""fullscreenenter"",""0"",""9440""
","
","689.6999999999534","","","","","","","","49","0,0,1","6","blank","329","null","0.22443840634012385","0.1786357612755602","0.5962183622879287","0","","","","","","","","",""
"","html-keyboard-response","220","616365","0.0-118.0-1.0","""event"",""trial"",""time""
""fullscreenenter"",""0"",""9440""
","
","
","""event"",""trial"",""time""
""fullscreenenter"",""0"",""9440""
","
","null","<p></p>","null","","","","","","","","","","","","","","","","","","","","","","","",""
"","do_trial","221","619683","0.0-119.0-0.0","""event"",""trial"",""time""
""fullscreenenter"",""0"",""9440""
","
","
","""event"",""trial"",""time""
""fullscreenenter"",""0"",""9440""
","
","698.8000000000466","","","","","","","","50","0,0,1","6","blank","330","null","0.3042712473908628","0.13450339519143703","0.661498715473783","0","","","","","","","","",""
"","html-keyboard-response","222","620689","0.0-119.0-1.0","""event"",""trial"",""time""
""fullscreenenter"",""0"",""9440""
","
","
","""event"",""trial"",""time""
""fullscreenenter"",""0"",""9440""
","
","null","<p></p>","null","","","","","","","","","","","","","","","","","","","","","","","",""
"","do_recog","223","624318","0.0-120.0-0.0","""event"",""trial"",""time""
""fullscreenenter"",""0"",""9440""
","
","
","""event"",""trial"",""time""
""fullscreenenter"",""0"",""9440""
","
","2110.6999999999534","","","","","","","","54","","","","331","probe-20","","","","","1","[object Object]","39","0","1","","","",""
"","html-keyboard-response","224","625322","0.0-120.0-1.0","""event"",""trial"",""time""
""fullscreenenter"",""0"",""9440""
","
","
","""event"",""trial"",""time""
""fullscreenenter"",""0"",""9440""
","
","null","<p></p>","null","","","","","","","","","","","","","","","","","","","","","","","",""
"","do_trial","225","629277","0.0-121.0-0.0","""event"",""trial"",""time""
""fullscreenenter"",""0"",""9440""
","
","
","""event"",""trial"",""time""
""fullscreenenter"",""0"",""9440""
","
","1337.8000000000466","","","","","","","","49","0,0,0","6","blank","332","null","0.4140934702382925","0.09342143391371834","0.8097137565965874","0","","","","","","","","",""
"","html-keyboard-response","226","630280","0.0-121.0-1.0","""event"",""trial"",""time""
""fullscreenenter"",""0"",""9440""
","
","
","""event"",""trial"",""time""
""fullscreenenter"",""0"",""9440""
","
","null","<p></p>","null","","","","","","","","","","","","","","","","","","","","","","","",""
"","do_trial","227","633553","0.0-122.0-0.0","""event"",""trial"",""time""
""fullscreenenter"",""0"",""9440""
","
","
","""event"",""trial"",""time""
""fullscreenenter"",""0"",""9440""
","
","653.3999999999069","","","","","","","","50","1,0,1","6","blank","333","null","0.4214315122694535","0.20459913560179188","0.6942727245216299","0","","","","","","","","",""
"","html-keyboard-response","228","634556","0.0-122.0-1.0","""event"",""trial"",""time""
""fullscreenenter"",""0"",""9440""
","
","
","""event"",""trial"",""time""
""fullscreenenter"",""0"",""9440""
","
","null","<p></p>","null","","","","","","","","","","","","","","","","","","","","","","","",""
"","do_trial","229","639068","0.0-123.0-0.0","""event"",""trial"",""time""
""fullscreenenter"",""0"",""9440""
","
","
","""event"",""trial"",""time""
""fullscreenenter"",""0"",""9440""
","
","1907.0999999998603","","","","","","","","51","0,0,1","6","blank","334","null","0.45264515750960443","0.20806665183962295","0.779366716898312","1","","","","","","","","",""
"","html-keyboard-response","230","640072","0.0-123.0-1.0","""event"",""trial"",""time""
""fullscreenenter"",""0"",""9440""
","
","
","""event"",""trial"",""time""
""fullscreenenter"",""0"",""9440""
","
","null","<p></p>","null","","","","","","","","","","","","","","","","","","","","","","","",""
"","do_trial","231","643603","0.0-124.0-0.0","""event"",""trial"",""time""
""fullscreenenter"",""0"",""9440""
","
","
","""event"",""trial"",""time""
""fullscreenenter"",""0"",""9440""
","
","912.8000000000466","","","","","","","","49","1,0,0","6","blank","335","null","0.303692682587113","0.27843912281616084","0.7433182248408344","1","","","","","","","","",""
"","html-keyboard-response","232","644609","0.0-124.0-1.0","""event"",""trial"",""time""
""fullscreenenter"",""0"",""9440""
","
","
","""event"",""trial"",""time""
""fullscreenenter"",""0"",""9440""
","
","null","<p></p>","null","","","","","","","","","","","","","","","","","","","","","","","",""
"","do_recog","233","647178","0.0-125.0-0.0","""event"",""trial"",""time""
""fullscreenenter"",""0"",""9440""
","
","
","""event"",""trial"",""time""
""fullscreenenter"",""0"",""9440""
","
","1051.3999999999069","","","","","","","","54","","","","336","probe-237","","","","","0","[object Object]","null","null","0","","","",""
"","html-keyboard-response","234","648182","0.0-125.0-1.0","""event"",""trial"",""time""
""fullscreenenter"",""0"",""9440""
","
","
","""event"",""trial"",""time""
""fullscreenenter"",""0"",""9440""
","
","null","<p></p>","null","","","","","","","","","","","","","","","","","","","","","","","",""
"","do_trial","235","651698","0.0-126.0-0.0","""event"",""trial"",""time""
""fullscreenenter"",""0"",""9440""
","
","
","""event"",""trial"",""time""
""fullscreenenter"",""0"",""9440""
","
","899.5","","","","","","","","49","0,1,1","6","blank","337","null","0.30596465919782445","0.19885403366591956","0.7451905618558854","0","","","","","","","","",""
"","html-keyboard-response","236","652702","0.0-126.0-1.0","""event"",""trial"",""time""
""fullscreenenter"",""0"",""9440""
","
","
","""event"",""trial"",""time""
""fullscreenenter"",""0"",""9440""
","
","null","<p></p>","null","","","","","","","","","","","","","","","","","","","","","","","",""
"","do_trial","237","656017","0.0-127.0-0.0","""event"",""trial"",""time""
""fullscreenenter"",""0"",""9440""
","
","
","""event"",""trial"",""time""
""fullscreenenter"",""0"",""9440""
","
","695.1000000000931","","","","","","","","50","0,0,0","6","blank","338","null","0.258854913956005","0.22006307882315854","0.6742275424197554","0","","","","","","","","",""
"","html-keyboard-response","238","657024","0.0-127.0-1.0","""event"",""trial"",""time""
""fullscreenenter"",""0"",""9440""
","
","
","""event"",""trial"",""time""
""fullscreenenter"",""0"",""9440""
","
","null","<p></p>","null","","","","","","","","","","","","","","","","","","","","","","","",""
"","do_recog","239","659853","0.0-128.0-0.0","""event"",""trial"",""time""
""fullscreenenter"",""0"",""9440""
","
","
","""event"",""trial"",""time""
""fullscreenenter"",""0"",""9440""
","
","1312.4000000001397","","","","","","","","54","","","","339","probe-118","","","","","1","[object Object]","192","4","1","","","",""
"","html-keyboard-response","240","660858","0.0-128.0-1.0","""event"",""trial"",""time""
""fullscreenenter"",""0"",""9440""
","
","
","""event"",""trial"",""time""
""fullscreenenter"",""0"",""9440""
","
","null","<p></p>","null","","","","","","","","","","","","","","","","","","","","","","","",""
"","do_trial","241","665003","0.0-129.0-0.0","""event"",""trial"",""time""
""fullscreenenter"",""0"",""9440""
","
","
","""event"",""trial"",""time""
""fullscreenenter"",""0"",""9440""
","
","1533.5999999998603","","","","","","","","51","1,0,0","6","blank","340","null","0.2535739110940101","0.05075141747020258","0.6399916491173052","0","","","","","","","","",""
"","html-keyboard-response","242","666006","0.0-129.0-1.0","""event"",""trial"",""time""
""fullscreenenter"",""0"",""9440""
","
","
","""event"",""trial"",""time""
""fullscreenenter"",""0"",""9440""
","
","null","<p></p>","null","","","","","","","","","","","","","","","","","","","","","","","",""
"","do_recog","243","668696","0.0-130.0-0.0","""event"",""trial"",""time""
""fullscreenenter"",""0"",""9440""
","
","
","""event"",""trial"",""time""
""fullscreenenter"",""0"",""9440""
","
","1178.5999999998603","","","","","","","","54","","","","341","probe-08","","","","","1","[object Object]","154","3","1","","","",""
"","html-keyboard-response","244","669700","0.0-130.0-1.0","""event"",""trial"",""time""
""fullscreenenter"",""0"",""9440""
","
","
","""event"",""trial"",""time""
""fullscreenenter"",""0"",""9440""
","
","null","<p></p>","null","","","","","","","","","","","","","","","","","","","","","","","",""
"","do_trial","245","673115","0.0-131.0-0.0","""event"",""trial"",""time""
""fullscreenenter"",""0"",""9440""
","
","
","""event"",""trial"",""time""
""fullscreenenter"",""0"",""9440""
","
","792.1000000000931","","","","","","","","49","0,0,1","6","blank","342","null","0.25512332589855","0.0509125455666001","0.44464681361427383","0","","","","","","","","",""
"","html-keyboard-response","246","674120","0.0-131.0-1.0","""event"",""trial"",""time""
""fullscreenenter"",""0"",""9440""
","
","
","""event"",""trial"",""time""
""fullscreenenter"",""0"",""9440""
","
","null","<p></p>","null","","","","","","","","","","","","","","","","","","","","","","","",""
"","do_trial","247","679525","0.0-132.0-0.0","""event"",""trial"",""time""
""fullscreenenter"",""0"",""9440""
","
","
","""event"",""trial"",""time""
""fullscreenenter"",""0"",""9440""
","
","2790.600000000093","","","","","","","","50","0,0,0","6","blank","343","null","0.2556122487250101","0.16406413511409618","0.4865322603657035","0","","","","","","","","",""
"","html-keyboard-response","248","680531","0.0-132.0-1.0","""event"",""trial"",""time""
""fullscreenenter"",""0"",""9440""
","
","
","""event"",""trial"",""time""
""fullscreenenter"",""0"",""9440""
","
","null","<p></p>","null","","","","","","","","","","","","","","","","","","","","","","","",""
"","do_trial","249","683746","0.0-133.0-0.0","""event"",""trial"",""time""
""fullscreenenter"",""0"",""9440""
","
","
","""event"",""trial"",""time""
""fullscreenenter"",""0"",""9440""
","
","603","","","","","","","","51","1,1,1","6","blank","344","null","0.2935500510364281","0.20618070839533445","0.46913512345185693","1","","","","","","","","",""
"","html-keyboard-response","250","684750","0.0-133.0-1.0","""event"",""trial"",""time""
""fullscreenenter"",""0"",""9440""
","
","
","""event"",""trial"",""time""
""fullscreenenter"",""0"",""9440""
","
","null","<p></p>","null","","","","","","","","","","","","","","","","","","","","","","","",""
"","do_trial","251","688625","0.0-134.0-0.0","""event"",""trial"",""time""
""fullscreenenter"",""0"",""9440""
","
","
","""event"",""trial"",""time""
""fullscreenenter"",""0"",""9440""
","
","1253.6000000000931","","","","","","","","49","0,0,1","6","blank","345","null","0.2910157100287966","0.19330192407614202","0.5485942166903702","0","","","","","","","","",""
"","html-keyboard-response","252","689630","0.0-134.0-1.0","""event"",""trial"",""time""
""fullscreenenter"",""0"",""9440""
","
","
","""event"",""trial"",""time""
""fullscreenenter"",""0"",""9440""
","
","null","<p></p>","null","","","","","","","","","","","","","","","","","","","","","","","",""
"","do_trial","253","692699","0.0-135.0-0.0","""event"",""trial"",""time""
""fullscreenenter"",""0"",""9440""
","
","
","""event"",""trial"",""time""
""fullscreenenter"",""0"",""9440""
","
","455.30000000004657","","","","","","","","50","1,0,1","6","blank","346","null","0.229791506204152","0.1452565621811272","0.6014353636152756","0","","","","","","","","",""
"","html-keyboard-response","254","693702","0.0-135.0-1.0","""event"",""trial"",""time""
""fullscreenenter"",""0"",""9440""
","
","
","""event"",""trial"",""time""
""fullscreenenter"",""0"",""9440""
","
","null","<p></p>","null","","","","","","","","","","","","","","","","","","","","","","","",""
"","do_recog","255","696259","0.0-136.0-0.0","""event"",""trial"",""time""
""fullscreenenter"",""0"",""9440""
","
","
","""event"",""trial"",""time""
""fullscreenenter"",""0"",""9440""
","
","1046.4000000001397","","","","","","","","54","","","","347","probe-184","","","","","1","[object Object]","75","1","1","","","",""
"","html-keyboard-response","256","697262","0.0-136.0-1.0","""event"",""trial"",""time""
""fullscreenenter"",""0"",""9440""
","
","
","""event"",""trial"",""time""
""fullscreenenter"",""0"",""9440""
","
","null","<p></p>","null","","","","","","","","","","","","","","","","","","","","","","","",""
"","do_trial","257","700763","0.0-137.0-0.0","""event"",""trial"",""time""
""fullscreenenter"",""0"",""9440""
","
","
","""event"",""trial"",""time""
""fullscreenenter"",""0"",""9440""
","
","879.8000000000466","","","","","","","","51","1,0,0","6","blank","348","null","0.2855458580465129","0.13127779997612152","0.5830167564969068","0","","","","","","","","",""
"","html-keyboard-response","258","701765","0.0-137.0-1.0","""event"",""trial"",""time""
""fullscreenenter"",""0"",""9440""
","
","
","""event"",""trial"",""time""
""fullscreenenter"",""0"",""9440""
","
","null","<p></p>","null","","","","","","","","","","","","","","","","","","","","","","","",""
"","break","259","703269","0.0-138.0-0.0","""event"",""trial"",""time""
""fullscreenenter"",""0"",""9440""
","
","
","""event"",""trial"",""time""
""fullscreenenter"",""0"",""9440""
","
","1500","<div class='center'><p>Time to take a quick break! You have 2 minutes to rest, but you can move on sooner if you'd like.</p><p> Press the <b>space bar</b> to continue.</p></div>","32","","","","","","","","","","","","","","","","","","","","","","","",""
"","do_trial","260","706834","0.0-138.0-1.0","""event"",""trial"",""time""
""fullscreenenter"",""0"",""9440""
","
","
","""event"",""trial"",""time""
""fullscreenenter"",""0"",""9440""
","
","948.5","","","","","","","","49","0,0,0","6","blank","349","null","0.2047934148257832","0.2713599709643288","0.7349504621228462","0","","","","","","","","",""
"","html-keyboard-response","261","707838","0.0-138.0-2.0","""event"",""trial"",""time""
""fullscreenenter"",""0"",""9440""
","
","
","""event"",""trial"",""time""
""fullscreenenter"",""0"",""9440""
","
","null","<p></p>","null","","","","","","","","","","","","","","","","","","","","","","","",""
"","do_trial","262","711070","0.0-139.0-0.0","""event"",""trial"",""time""
""fullscreenenter"",""0"",""9440""
","
","
","""event"",""trial"",""time""
""fullscreenenter"",""0"",""9440""
","
","609.6000000000931","","","","","","","","50","0,0,1","6","blank","350","null","0.07028118126614905","0.2609880000121925","0.7560533948331154","0","","","","","","","","",""
"","html-keyboard-response","263","712075","0.0-139.0-1.0","""event"",""trial"",""time""
""fullscreenenter"",""0"",""9440""
","
","
","""event"",""trial"",""time""
""fullscreenenter"",""0"",""9440""
","
","null","<p></p>","null","","","","","","","","","","","","","","","","","","","","","","","",""
"","do_trial","264","715394","0.0-140.0-0.0","""event"",""trial"",""time""
""fullscreenenter"",""0"",""9440""
","
","
","""event"",""trial"",""time""
""fullscreenenter"",""0"",""9440""
","
","704","","","","","","","","51","0,0,0","6","blank","351","null","0.30026833887736515","0.3746272592721723","0.4670323627669829","0","","","","","","","","",""
"","html-keyboard-response","265","716398","0.0-140.0-1.0","""event"",""trial"",""time""
""fullscreenenter"",""0"",""9440""
","
","
","""event"",""trial"",""time""
""fullscreenenter"",""0"",""9440""
","
","null","<p></p>","null","","","","","","","","","","","","","","","","","","","","","","","",""
"","do_trial","266","719826","0.0-141.0-0.0","""event"",""trial"",""time""
""fullscreenenter"",""0"",""9440""
","
","
","""event"",""trial"",""time""
""fullscreenenter"",""0"",""9440""
","
","813.1999999999534","","","","","","","","49","1,0,0","6","blank","352","null","0.33868807769403675","0.48025914941017983","0.39813789863208443","1","","","","","","","","",""
"","html-keyboard-response","267","720833","0.0-141.0-1.0","""event"",""trial"",""time""
""fullscreenenter"",""0"",""9440""
","
","
","""event"",""trial"",""time""
""fullscreenenter"",""0"",""9440""
","
","null","<p></p>","null","","","","","","","","","","","","","","","","","","","","","","","",""
"","do_trial","268","723946","0.0-142.0-0.0","""event"",""trial"",""time""
""fullscreenenter"",""0"",""9440""
","
","
","""event"",""trial"",""time""
""fullscreenenter"",""0"",""9440""
","
","496.30000000004657","","","","","","","","50","1,1,0","6","blank","353","null","0.3126359673391136","0.5756088068885807","0.15263098908928663","1","","","","","","","","",""
"","html-keyboard-response","269","724949","0.0-142.0-1.0","""event"",""trial"",""time""
""fullscreenenter"",""0"",""9440""
","
","
","""event"",""trial"",""time""
""fullscreenenter"",""0"",""9440""
","
","null","<p></p>","null","","","","","","","","","","","","","","","","","","","","","","","",""
"","do_recog","270","727818","0.0-143.0-0.0","""event"",""trial"",""time""
""fullscreenenter"",""0"",""9440""
","
","
","""event"",""trial"",""time""
""fullscreenenter"",""0"",""9440""
","
","1355.6000000000931","","","","","","","","54","","","","354","probe-134","","","","","1","[object Object]","117","2","1","","","",""
"","html-keyboard-response","271","728824","0.0-143.0-1.0","""event"",""trial"",""time""
""fullscreenenter"",""0"",""9440""
","
","
","""event"",""trial"",""time""
""fullscreenenter"",""0"",""9440""
","
","null","<p></p>","null","","","","","","","","","","","","","","","","","","","","","","","",""
"","do_trial","272","732348","0.0-144.0-0.0","""event"",""trial"",""time""
""fullscreenenter"",""0"",""9440""
","
","
","""event"",""trial"",""time""
""fullscreenenter"",""0"",""9440""
","
","905","","","","","","","","49","0,1,0","6","blank","355","null","0.1761227245585651","0.6043193170010523","0.190691436955165","0","","","","","","","","",""
"","html-keyboard-response","273","733351","0.0-144.0-1.0","""event"",""trial"",""time""
""fullscreenenter"",""0"",""9440""
","
","
","""event"",""trial"",""time""
""fullscreenenter"",""0"",""9440""
","
","null","<p></p>","null","","","","","","","","","","","","","","","","","","","","","","","",""
"","do_trial","274","736659","0.0-145.0-0.0","""event"",""trial"",""time""
""fullscreenenter"",""0"",""9440""
","
","
","""event"",""trial"",""time""
""fullscreenenter"",""0"",""9440""
","
","684.6999999999534","","","","","","","","50","0,1,0","6","blank","356","null","0.17710866821685867","0.6607848309832223","0.2028907631166731","1","","","","","","","","",""
"","html-keyboard-response","275","737665","0.0-145.0-1.0","""event"",""trial"",""time""
""fullscreenenter"",""0"",""9440""
","
","
","""event"",""trial"",""time""
""fullscreenenter"",""0"",""9440""
","
","null","<p></p>","null","","","","","","","","","","","","","","","","","","","","","","","",""
"","do_trial","276","742783","0.0-146.0-0.0","""event"",""trial"",""time""
""fullscreenenter"",""0"",""9440""
","
","
","""event"",""trial"",""time""
""fullscreenenter"",""0"",""9440""
","
","2504.7999999998137","","","","","","","","51","1,0,0","6","blank","357","null","0.1649851685034773","0.576015528923424","0.13283031952903573","0","","","","","","","","",""
"","html-keyboard-response","277","743787","0.0-146.0-1.0","""event"",""trial"",""time""
""fullscreenenter"",""0"",""9440""
","
","
