"success","trial_type","trial_index","time_elapsed","internal_node_id","rt","stimulus","key_press","subject_id","participant_id","age","gender","prompt","response","choice_outcomes","context_n","context_img_id","trial_n","probe_img_id","pR_red","pR_white","pR_black","outcome","is_valid","image_to_show","probed_trial","probed_context","correct","probe","probed_trial_n","probed_context_n","context_im"
"true","fullscreen","0","3296","0.0-0.0","","","","","","","","","","","","","","","","","","","","","","","","","","",""
"","pavlovia","1","3299","0.0-1.0","","","","","","","","","","","","","","","","","","","","","","","","","","",""
"","welc_back","2","15960","0.0-2.0","null","run_exp/static/audio/clip_29_welcome_back.m4a","null","123","227","12","Male","<div class='center'><p>Welcome to day 2!</p><p> Yesterday, you were the head captain of a pirate ship. You and your fellow pirates robbed ships for their gold and traveled to six different islands .</p></div>","","","","","","","","","","","","","","","","","","",""
"","html-keyboard-response","3","16981","0.0-3.0","1020.3999999994412","<div class='center'><p>Welcome to day 2!</p><p> Yesterday, you were the head captain of a pirate ship. You and your fellow pirates robbed ships for their gold and traveled to six different islands .</p><p><b>[Press the space bar to continue]</b></p></div>","32","","","","","","","","","","","","","","","","","","","","","","","",""
"","day_1_summary_goal","4","36939","0.0-4.0","null","run_exp/static/audio/clip_30_goal_of_game.m4a","null","","","","","<div class='center'><p>Today, like yesterday, you get to pick which pirate you want to rob the next ship.</p><p>If the pirate is successful in robbing a ship, you get gold coins that look like this: </p><p><img src='run_exp/static/images/tutorial/reward.png' height='150'></p><p> If they were not successful in robbing the ship, then you will get no gold coins and you'll see a big red x like this: </p><p><img src='run_exp/static/images/tutorial/reward_no.png' height='150'></p></div>","","","","","","","","","","","","","","","","","","",""
"","html-keyboard-response","5","37975","0.0-5.0","1034.8999999994412","<div class='center'><p>Today, like yesterday, you get to pick which pirate you want to rob the next ship.</p><p>If the pirate is successful in robbing a ship, you get gold coins that look like this: </p><p><img src='run_exp/static/images/tutorial/reward.png' height='150'></p><p> If they were not successful in robbing the ship, then you will get no gold coins and you'll see a big red x like this: </p><p><img src='run_exp/static/images/tutorial/reward_no.png' height='150'></p><p><b>[Press the space bar to continue]</b></p></div>","32","","","","","","","","","","","","","","","","","","","","","","","",""
"","day_1_summary_pick","6","55799","0.0-6.0","null","run_exp/static/audio/clip_31_how_to_pick_a_pirate.m4a","null","","","","","<div class='center'><p>Also, just like yesterday, you will use the 1,2,3 keys on your keyboard to pick a pirate. Press '1' to choose red beard, '2' to choose white beard, and '3' to choose black beard . You only have 3 seconds to pick a pirate, so please make a choice quickly!</p></div>","","","","","","","","","","","","","","","","","","",""
"","html-keyboard-response","7","56336","0.0-7.0","536.4000000003725","<div class='center'><p>Also, just like yesterday, you will use the 1,2,3 keys on your keyboard to pick a pirate. Press '1' to choose red beard, '2' to choose white beard, and '3' to choose black beard . You only have 3 seconds to pick a pirate, so please make a choice quickly!</p><p><b>[Press the space bar to continue]</b></p></div>","32","","","","","","","","","","","","","","","","","","","","","","","",""
"","test_phase_begin","8","89618","0.0-8.0","null","run_exp/static/audio/clip_32_final_place.m4a","null","","","","","<div class='center'><p>You’ve arrived at the final island of your journey! Unfortunately, it’s very foggy out, so you won’t be able to see it in the distance like the other islands you've visited.</p><p>You’ll still be deciding which pirate you want to rob a ship like before. However, because of the fog, you also won’t be able to see the ship.</p><p>This means you do not have to remember the ships you rob on this island.</p><p>Unlike yesterday, you won't be visiting multiple islands today. You will stay on this island for the entire game. This game will last ~30 minutes.</p></div>","","","","","","","","","","","","","","","","","","",""
"","html-keyboard-response","9","90553","0.0-9.0","933.5999999996275","<div class='center'><p>You’ve arrived at the final island of your journey! Unfortunately, it’s very foggy out, so you won’t be able to see it in the distance like the other islands you've visited.</p><p>You’ll still be deciding which pirate you want to rob a ship like before. However, because of the fog, you also won’t be able to see the ship.</p><p>This means you do not have to remember the ships you rob on this island.</p><p>Unlike yesterday, you won't be visiting multiple islands today. You will stay on this island for the entire game. This game will last ~30 minutes.</p><p><b>[Press the space bar to continue]</b></p></div>","32","","","","","","","","","","","","","","","","","","","","","","","",""
"","explain_probe_1","10","99979","0.0-10.0","null","run_exp/static/audio/clip_33_recognition_1.m4a","null","","","","","<div class='center'><p> Sometimes you’ll be shown a ship, and you will be asked if you saw this ship on a past island.</p><p> Here is an example of what you will see.</p><p><img src='run_exp/static/images/tutorial/example_recog_trial.png' height='500'></p></div>","","","","","","","","","","","","","","","","","","",""
"","html-keyboard-response","11","101379","0.0-11.0","1399.5999999996275","<div class='center'><p> Sometimes you’ll be shown a ship, and you will be asked if you saw this ship on a past island.</p><p> Here is an example of what you will see.</p><p><img src='run_exp/static/images/tutorial/example_recog_trial.png' height='500'></p><p><b>[Press the space bar to continue]</b></p></div>","32","","","","","","","","","","","","","","","","","","","","","","","",""
"","explain_probe_2","12","128199","0.0-12.0","null","run_exp/static/audio/clip_34_recognition_2.m4a","null","","","","","<div class='center'><p> You will press the 5, 6, 7, 8 keys on your keyboard to respond.</p><p>If you are very sure saw the ship, press <b>5</b> on your keyboard.</p><p> If you think you  saw it before but are not sure, then press <b>6</b>.</p><p> If you think you have <b>not</b> seen it before but are not sure, then press <b>7</b>.</p><p> If you are sure you did <b>not</b> see the ship before, then press <b>8</b>.</p><p><img src='run_exp/static/images/tutorial/example_recog_trial.png' height='500'></p></div>","","","","","","","","","","","","","","","","","","",""
"","html-keyboard-response","13","129395","0.0-13.0","1195.8999999994412","<div class='center'><p> You will press the 5, 6, 7, 8 keys on your keyboard to respond.</p><p>If you are very sure saw the ship, press <b>5</b> on your keyboard.</p><p> If you think you  saw it before but are not sure, then press <b>6</b>.</p><p> If you think you have <b>not</b> seen it before but are not sure, then press <b>7</b>.</p><p> If you are sure you did <b>not</b> see the ship before, then press <b>8</b>.</p><p><img src='run_exp/static/images/tutorial/example_recog_trial.png' height='500'></p><p><b>[Press the space bar to continue]</b></p></div>","32","","","","","","","","","","","","","","","","","","","","","","","",""
"","explain_outcome","14","150938","0.0-14.0","null","run_exp/static/audio/clip_35_recognition_3.m4a","null","","","","","<div class='center'><p> If you remember correctly, then you’ll get a gold coin like this: </p><p><img src='run_exp/static/images/tutorial/reward_small.png' height='200'></p><p>If you do not remember correctly, then you'll see a red x like this: </p><p><img src='run_exp/static/images/tutorial/reward_no.png' height='200'></p><p>Importantly, when you are shown a ship, take the time to remind yourself which island you saw it on. This will help you in the next part of the study.</p></div>","","","","","","","","","","","","","","","","","","",""
"","html-keyboard-response","15","151898","0.0-15.0","958.3999999994412","<div class='center'><p> If you remember correctly, then you’ll get a gold coin like this: </p><p><img src='run_exp/static/images/tutorial/reward_small.png' height='200'></p><p>If you do not remember correctly, then you'll see a red x like this: </p><p><img src='run_exp/static/images/tutorial/reward_no.png' height='200'></p><p>Importantly, when you are shown a ship, take the time to remind yourself which island you saw it on. This will help you in the next part of the study.</p><p><b>[Press the space bar to continue]</b></p></div>","32","","","","","","","","","","","","","","","","","","","","","","","",""
"","begin_test_phase","16","176419","0.0-16.0","null","run_exp/static/audio/clip_36_begin_final.m4a","null","","","","","<div class='center'><p>Let's go over the important points again. Your job is to: </p><p>1. Pick the pirate who is best at robbing ships and will bring you back gold coins. </p><p>2. Correctly remember whether or not you saw a ship before. If you did see the ship before, remind yourself on which island you saw the ship. </p></div>","","","","","","","","","","","","","","","","","","",""
"","html-keyboard-response","17","176789","0.0-17.0","339.20000000018626","<div class='center'><p>Let's go over the important points again. Your job is to: </p><p>1. Pick the pirate who is best at robbing ships and will bring you back gold coins. </p><p>2. Correctly remember whether or not you saw a ship before. If you did see the ship before, remind yourself on which island you saw the ship. </p><p><b>[Press the space bar to continue]</b></p></div>","32","","","","","","","","","","","","","","","","","","","","","","","",""
"","do_welcome","18","180795","0.0-18.0","null","","","","","","","","null","","","","","","","","","","","","","","","","","",""
"","do_trial","19","185018","0.0-19.0-0.0","1674.7999999998137","","","","","","","","50","0,0,0","6","blank","230","null","0.08460493746442917","0.5401616049489893","0.42135895763569564","0","","","","","","","","",""
"","html-keyboard-response","20","186026","0.0-19.0-1.0","null","<p></p>","null","","","","","","","","","","","","","","","","","","","","","","","",""
"","do_trial","21","189057","0.0-20.0-0.0","480.09999999962747","","","","","","","","50","0,1,0","6","blank","231","null","0.13550276422803026","0.5513361967022431","0.34174041660796145","1","","","","","","","","",""
"","html-keyboard-response","22","190070","0.0-20.0-1.0","null","<p></p>","null","","","","","","","","","","","","","","","","","","","","","","","",""
"","do_trial","23","192611","0.0-21.0-0.0","0.10000000055879354","","","","","","","","51","1,0,0","6","blank","232","null","0.20744180727175957","0.5183761670764145","0.37305543824200255","0","","","","","","","","",""
"","html-keyboard-response","24","193625","0.0-21.0-1.0","null","<p></p>","null","","","","","","","","","","","","","","","","","","","","","","","",""
"","do_trial","25","196687","0.0-22.0-0.0","513","","","","","","","","49","0,0,1","6","blank","233","null","0.21431668708048243","0.4413458751714294","0.221998824783882","0","","","","","","","","",""
"","html-keyboard-response","26","197701","0.0-22.0-1.0","null","<p></p>","null","","","","","","","","","","","","","","","","","","","","","","","",""
"","do_trial","27","200691","0.0-23.0-0.0","445.59999999962747","","","","","","","","49","0,1,1","6","blank","234","null","0.054741509241108946","0.4484869939795319","0.33338727057125894","0","","","","","","","","",""
"","html-keyboard-response","28","201707","0.0-23.0-1.0","null","<p></p>","null","","","","","","","","","","","","","","","","","","","","","","","",""
"","do_trial","29","204682","0.0-24.0-0.0","424.3999999994412","","","","","","","","51","0,1,0","6","blank","235","null","0.11165001579095515","0.556872198662245","0.23067763030083135","0","","","","","","","","",""
"","html-keyboard-response","30","205696","0.0-24.0-1.0","null","<p></p>","null","","","","","","","","","","","","","","","","","","","","","","","",""
"","do_trial","31","208328","0.0-25.0-0.0","85.5","","","","","","","","50","0,1,1","6","blank","236","null","0.17927958011173417","0.5375910991871298","0.291959596179867","1","","","","","","","","",""
"","html-keyboard-response","32","209340","0.0-25.0-1.0","null","<p></p>","null","","","","","","","","","","","","","","","","","","","","","","","",""
"","do_trial","33","212000","0.0-26.0-0.0","106.30000000074506","","","","","","","","50","0,0,1","6","blank","237","null","0.191600872141723","0.6062638690777046","0.26076087487954097","0","","","","","","","","",""
"","html-keyboard-response","34","213010","0.0-26.0-1.0","null","<p></p>","null","","","","","","","","","","","","","","","","","","","","","","","",""
"","do_trial","35","215602","0.0-27.0-0.0","51","","","","","","","","50","1,1,0","6","blank","238","null","0.10427920659274673","0.5736317707380296","0.2903390702630653","1","","","","","","","","",""
"","html-keyboard-response","36","216609","0.0-27.0-1.0","null","<p></p>","null","","","","","","","","","","","","","","","","","","","","","","","",""
"","do_trial","37","219217","0.0-28.0-0.0","56.80000000074506","","","","","","","","51","0,1,0","6","blank","239","null","0.26691988050346954","0.5783206078017985","0.30174057787953756","0","","","","","","","","",""
"","html-keyboard-response","38","220231","0.0-28.0-1.0","null","<p></p>","null","","","","","","","","","","","","","","","","","","","","","","","",""
"","do_trial","39","222892","0.0-29.0-0.0","117.5","","","","","","","","49","0,1,1","6","blank","240","null","0.2468786930398717","0.5516829371079168","0.38234149546936236","0","","","","","","","","",""
"","html-keyboard-response","40","223903","0.0-29.0-1.0","null","<p></p>","null","","","","","","","","","","","","","","","","","","","","","","","",""
"","do_recog","41","229914","0.0-30.0-0.0","null","","","","","","","","null","","","","241","probe-150","","","","","1","[object Object]","48","1","0","","","",""
"","html-keyboard-response","42","230923","0.0-30.0-1.0","null","<p></p>","null","","","","","","","","","","","","","","","","","","","","","","","",""
"","do_trial","43","236971","0.0-31.0-0.0","null","","","","","","","","null","0,0,1","6","blank","242","null","0.15923082417341639","0.45539201597247564","0.49290294051757627","","","","","","","","","",""
"","html-keyboard-response","44","237981","0.0-31.0-1.0","null","<p></p>","null","","","","","","","","","","","","","","","","","","","","","","","",""
"","do_recog","45","241660","0.0-32.0-0.0","2159.2999999998137","","","","","","","","56","","","","243","probe-230","","","","","1","[object Object]","162","4","0","","","",""
"","html-keyboard-response","46","242668","0.0-32.0-1.0","null","<p></p>","null","","","","","","","","","","","","","","","","","","","","","","","",""
"","do_trial","47","246326","0.0-33.0-0.0","1103.7999999998137","","","","","","","","49","0,0,1","6","blank","244","null","0.10268719506936744","0.36874838874418586","0.4629198891850978","0","","","","","","","","",""
"","html-keyboard-response","48","247337","0.0-33.0-1.0","null","<p></p>","null","","","","","","","","","","","","","","","","","","","","","","","",""
"","do_trial","49","250443","0.0-34.0-0.0","561","","","","","","","","50","0,1,1","6","blank","245","null","0.23026031549774081","0.27274334934953176","0.5326639425384357","1","","","","","","","","",""
"","html-keyboard-response","50","251455","0.0-34.0-1.0","null","<p></p>","null","","","","","","","","","","","","","","","","","","","","","","","",""
"","do_trial","51","254690","0.0-35.0-0.0","681.7999999998137","","","","","","","","50","1,0,0","6","blank","246","null","0.22953758277819103","0.33890393453939816","0.5410065218235744","0","","","","","","","","",""
"","html-keyboard-response","52","255705","0.0-35.0-1.0","null","<p></p>","null","","","","","","","","","","","","","","","","","","","","","","","",""
"","do_trial","53","258722","0.0-36.0-0.0","464.6000000005588","","","","","","","","50","0,0,0","6","blank","247","null","0.2805739868473415","0.09489616269707192","0.48334833948977673","0","","","","","","","","",""
"","html-keyboard-response","54","259735","0.0-36.0-1.0","null","<p></p>","null","","","","","","","","","","","","","","","","","","","","","","","",""
"","do_trial","55","262373","0.0-37.0-0.0","86.40000000037253","","","","","","","","50","1,0,0","6","blank","248","null","0.35213119229094225","0.14035000149999735","0.4111884106046814","0","","","","","","","","",""
"","html-keyboard-response","56","263383","0.0-37.0-1.0","null","<p></p>","null","","","","","","","","","","","","","","","","","","","","","","","",""
"","do_trial","57","265936","0.0-38.0-0.0","0.20000000018626451","","","","","","","","49","0,1,0","6","blank","249","null","0.35688288627630416","0.33125469394944446","0.4526452081522929","0","","","","","","","","",""
"","html-keyboard-response","58","266949","0.0-38.0-1.0","null","<p></p>","null","","","","","","","","","","","","","","","","","","","","","","","",""
"","do_recog","59","270879","0.0-39.0-0.0","2416.5","","","","","","","","56","","","","250","probe-14","","","","","1","[object Object]","169","4","0","","","",""
"","html-keyboard-response","60","271888","0.0-39.0-1.0","null","<p></p>","null","","","","","","","","","","","","","","","","","","","","","","","",""
"","do_trial","61","276393","0.0-40.0-0.0","1954.9000000003725","","","","","","","","50","0,1,0","6","blank","251","null","0.2865942901825419","0.273499006181426","0.6025492019505735","1","","","","","","","","",""
"","html-keyboard-response","62","277403","0.0-40.0-1.0","null","<p></p>","null","","","","","","","","","","","","","","","","","","","","","","","",""
"","do_recog","63","281407","0.0-41.0-0.0","2492.2000000001863","","","","","","","","55","","","","252","probe-193","","","","","1","[object Object]","86","2","0","","","",""
"","html-keyboard-response","64","282417","0.0-41.0-1.0","null","<p></p>","null","","","","","","","","","","","","","","","","","","","","","","","",""
"","do_trial","65","285542","0.0-42.0-0.0","581.5999999996275","","","","","","","","50","1,0,0","6","blank","253","null","0.33085710883792635","0.2797613793005908","0.6081933193582479","0","","","","","","","","",""
"","html-keyboard-response","66","286552","0.0-42.0-1.0","null","<p></p>","null","","","","","","","","","","","","","","","","","","","","","","","",""
"","do_trial","67","289100","0.0-43.0-0.0","0.09999999962747097","","","","","","","","50","0,0,0","6","blank","254","null","0.270468857762629","0.09128077789793554","0.49393355230430813","0","","","","","","","","",""
"","html-keyboard-response","68","290114","0.0-43.0-1.0","null","<p></p>","null","","","","","","","","","","","","","","","","","","","","","","","",""
"","do_trial","69","292665","0.0-44.0-0.0","2.5","","","","","","","","51","0,0,1","6","blank","255","null","0.3337528402745018","0.0878886341727103","0.5264542715337323","1","","","","","","","","",""
"","html-keyboard-response","70","293677","0.0-44.0-1.0","null","<p></p>","null","","","","","","","","","","","","","","","","","","","","","","","",""
"","do_trial","71","296227","0.0-45.0-0.0","5.1000000005587935","","","","","","","","51","0,0,0","6","blank","256","null","0.35727976641151854","0.06328473661082674","0.44067228173393647","0","","","","","","","","",""
"","html-keyboard-response","72","297237","0.0-45.0-1.0","null","<p></p>","null","","","","","","","","","","","","","","","","","","","","","","","",""
"","do_recog","73","300897","0.0-46.0-0.0","2143","","","","","","","","53","","","","257","probe-37","","","","","1","[object Object]","125","3","1","","","",""
"","html-keyboard-response","74","301908","0.0-46.0-1.0","null","<p></p>","null","","","","","","","","","","","","","","","","","","","","","","","",""
"","do_trial","75","304794","0.0-47.0-0.0","342.20000000018626","","","","","","","","51","0,0,0","6","blank","258","null","0.3575345706699821","0.08008694253355486","0.40842472903583954","0","","","","","","","","",""
"","html-keyboard-response","76","305804","0.0-47.0-1.0","null","<p></p>","null","","","","","","","","","","","","","","","","","","","","","","","",""
"","do_recog","77","309383","0.0-48.0-0.0","2072","","","","","","","","55","","","","259","probe-20","","","","","1","[object Object]","82","2","0","","","",""
"","html-keyboard-response","78","310391","0.0-48.0-1.0","null","<p></p>","null","","","","","","","","","","","","","","","","","","","","","","","",""
"","do_trial","79","313435","0.0-49.0-0.0","496.79999999981374","","","","","","","","49","0,0,1","6","blank","260","null","0.26835342211629487","0.14119826818332937","0.3788278017986902","0","","","","","","","","",""
"","html-keyboard-response","80","314449","0.0-49.0-1.0","null","<p></p>","null","","","","","","","","","","","","","","","","","","","","","","","",""
"","do_trial","81","317104","0.0-50.0-0.0","104","","","","","","","","50","0,0,0","6","blank","261","null","0.1824271856655102","0.20226353258931987","0.36032231663702363","0","","","","","","","","",""
"","html-keyboard-response","82","318112","0.0-50.0-1.0","null","<p></p>","null","","","","","","","","","","","","","","","","","","","","","","","",""
"","do_trial","83","320947","0.0-51.0-0.0","288.09999999962747","","","","","","","","50","0,0,0","6","blank","262","null","0.18424232749956035","0.16804641076383303","0.41047787620407394","0","","","","","","","","",""
"","html-keyboard-response","84","321961","0.0-51.0-1.0","null","<p></p>","null","","","","","","","","","","","","","","","","","","","","","","","",""
"","do_trial","85","325028","0.0-52.0-0.0","528.6000000005588","","","","","","","","50","1,0,1","6","blank","263","null","0.4032462584345281","0.0979157629186237","0.49169865322566125","0","","","","","","","","",""
"","html-keyboard-response","86","326030","0.0-52.0-1.0","null","<p></p>","null","","","","","","","","","","","","","","","","","","","","","","","",""
"","do_recog","87","329258","0.0-53.0-0.0","1711.0999999996275","","","","","","","","53","","","","264","probe-224","","","","","1","[object Object]","80","2","1","","","",""
"","html-keyboard-response","88","330270","0.0-53.0-1.0","null","<p></p>","null","","","","","","","","","","","","","","","","","","","","","","","",""
"","do_trial","89","334625","0.0-54.0-0.0","1809.8999999994412","","","","","","","","50","1,0,0","6","blank","265","null","0.38579515401042236","0.14965925743669717","0.7082987632876333","0","","","","","","","","",""
"","html-keyboard-response","90","335633","0.0-54.0-1.0","null","<p></p>","null","","","","","","","","","","","","","","","","","","","","","","","",""
"","do_recog","91","339513","0.0-55.0-0.0","2365.9000000003725","","","","","","","","56","","","","266","probe-235","","","","","0","[object Object]","null","null","1","","","",""
"","html-keyboard-response","92","340527","0.0-55.0-1.0","null","<p></p>","null","","","","","","","","","","","","","","","","","","","","","","","",""
"","do_trial","93","344464","0.0-56.0-0.0","1383.4000000003725","","","","","","","","50","0,0,0","6","blank","267","null","0.318763122968408","0.08059434538775509","0.6026301565198605","0","","","","","","","","",""
"","html-keyboard-response","94","345472","0.0-56.0-1.0","null","<p></p>","null","","","","","","","","","","","","","","","","","","","","","","","",""
"","do_trial","95","348039","0.0-57.0-0.0","23.200000000186265","","","","","","","","51","1,0,0","6","blank","268","null","0.3205492841307948","0.0787152212638183","0.7365888839799177","0","","","","","","","","",""
"","html-keyboard-response","96","349048","0.0-57.0-1.0","null","<p></p>","null","","","","","","","","","","","","","","","","","","","","","","","",""
"","break","97","351977","0.0-57.0-2.0","2928.2999999998137","<div class='center'><p>Time to take a quick break! You have 2 minutes to rest, but you can move on sooner if you'd like.</p><p> Press the <b>space bar</b> to continue.</p></div>","32","","","","","","","","","","","","","","","","","","","","","","","",""
"","do_trial","98","355468","0.0-57.0-3.0","933.5999999996275","","","","","","","","50","1,0,1","6","blank","269","null","0.4803197566060503","0.06760263725054663","0.7419430042219092","0","","","","","","","","",""
"","html-keyboard-response","99","356480","0.0-57.0-4.0","null","<p></p>","null","","","","","","","","","","","","","","","","","","","","","","","",""
"","do_trial","100","360274","0.0-58.0-0.0","1252.2000000001863","","","","","","","","51","0,0,1","6","blank","270","null","0.3387907912897195","0.07570525324380921","0.837860002382426","1","","","","","","","","",""
"","html-keyboard-response","101","361275","0.0-58.0-1.0","null","<p></p>","null","","","","","","","","","","","","","","","","","","","","","","","",""
"","do_trial","102","363890","0.0-59.0-0.0","69.40000000037253","","","","","","","","51","0,0,1","6","blank","271","null","0.32647200495238204","0.16906248543715297","0.940309109050402","1","","","","","","","","",""
"","html-keyboard-response","103","364903","0.0-59.0-1.0","null","<p></p>","null","","","","","","","","","","","","","","","","","","","","","","","",""
"","do_recog","104","368891","0.0-60.0-0.0","2478","","","","","","","","54","","","","272","probe-15","","","","","1","[object Object]","201","5","1","","","",""
"","html-keyboard-response","105","369901","0.0-60.0-1.0","null","<p></p>","null","","","","","","","","","","","","","","","","","","","","","","","",""
"","do_trial","106","373742","0.0-61.0-0.0","1288.9000000003725","","","","","","","","50","0,0,1","6","blank","273","null","0.30744678096536887","0.17436911137376018","0.8047084267798548","0","","","","","","","","",""
"","html-keyboard-response","107","374746","0.0-61.0-1.0","null","<p></p>","null","","","","","","","","","","","","","","","","","","","","","","","",""
"","do_recog","108","380761","0.0-62.0-0.0","null","","","","","","","","null","","","","274","probe-173","","","","","1","[object Object]","124","3","0","","","",""
"","html-keyboard-response","109","381763","0.0-62.0-1.0","null","<p></p>","null","","","","","","","","","","","","","","","","","","","","","","","",""
"","do_trial","110","384987","0.0-63.0-0.0","684.2000000001863","","","","","","","","50","1,0,1","6","blank","275","null","0.37815250456337873","0.07255474353146","0.7669635737633154","0","","","","","","","","",""
"","html-keyboard-response","111","386000","0.0-63.0-1.0","null","<p></p>","null","","","","","","","","","","","","","","","","","","","","","","","",""
"","do_trial","112","388812","0.0-64.0-0.0","272","","","","","","","","51","0,0,1","6","blank","276","null","0.40274599921613663","0.13576927371936026","0.5819640520373348","1","","","","","","","","",""
"","html-keyboard-response","113","389821","0.0-64.0-1.0","null","<p></p>","null","","","","","","","","","","","","","","","","","","","","","","","",""
"","do_trial","114","392652","0.0-65.0-0.0","282.8999999994412","","","","","","","","51","0,0,1","6","blank","277","null","0.23772141754084317","0.24266115831374444","0.7156405969015327","1","","","","","","","","",""
"","html-keyboard-response","115","393659","0.0-65.0-1.0","null","<p></p>","null","","","","","","","","","","","","","","","","","","","","","","","",""
"","do_trial","116","396528","0.0-66.0-0.0","323.09999999962747","","","","","","","","51","0,0,1","6","blank","278","null","0.39271706571516346","0.1082635564771866","0.5438147793066691","1","","","","","","","","",""
"","html-keyboard-response","117","397532","0.0-66.0-1.0","null","<p></p>","null","","","","","","","","","","","","","","","","","","","","","","","",""
"","do_recog","118","401831","0.0-67.0-0.0","2794.300000000745","","","","","","","","55","","","","279","probe-108","","","","","1","[object Object]","163","4","0","","","",""
"","html-keyboard-response","119","402841","0.0-67.0-1.0","null","<p></p>","null","","","","","","","","","","","","","","","","","","","","","","","",""
"","do_trial","120","407117","0.0-68.0-0.0","1721.5","","","","","","","","51","1,0,1","6","blank","280","null","0.13537670856318448","0.0933948774466766","0.6100396813985982","1","","","","","","","","",""
"","html-keyboard-response","121","408132","0.0-68.0-1.0","null","<p></p>","null","","","","","","","","","","","","","","","","","","","","","","","",""
"","do_trial","122","412097","0.0-69.0-0.0","1424","","","","","","","","51","0,0,1","6","blank","281","null","0.40727037945542904","0.14839493970212655","0.6749458085775807","1","","","","","","","","",""
"","html-keyboard-response","123","413107","0.0-69.0-1.0","null","<p></p>","null","","","","","","","","","","","","","","","","","","","","","","","",""
"","do_recog","124","416312","0.0-70.0-0.0","1686","","","","","","","","53","","","","282","probe-17","","","","","1","[object Object]","123","3","1","","","",""
"","html-keyboard-response","125","417322","0.0-70.0-1.0","null","<p></p>","null","","","","","","","","","","","","","","","","","","","","","","","",""
"","do_trial","126","420921","0.0-71.0-0.0","1052.2999999998137","","","","","","","","51","1,0,1","6","blank","283","null","0.38324611942251524","0.32791705793097253","0.641672864562108","1","","","","","","","","",""
"","html-keyboard-response","127","421934","0.0-71.0-1.0","null","<p></p>","null","","","","","","","","","","","","","","","","","","","","","","","",""
"","do_recog","128","425750","0.0-72.0-0.0","2307","","","","","","","","55","","","","284","probe-167","","","","","1","[object Object]","161","4","0","","","",""
"","html-keyboard-response","129","426758","0.0-72.0-1.0","null","<p></p>","null","","","","","","","","","","","","","","","","","","","","","","","",""
"","do_trial","130","431226","0.0-73.0-0.0","1915.300000000745","","","","","","","","51","1,0,1","6","blank","285","null","0.30108123009805243","0.2570996148320354","0.4641381742447696","1","","","","","","","","",""
"","html-keyboard-response","131","432239","0.0-73.0-1.0","null","<p></p>","null","","","","","","","","","","","","","","","","","","","","","","","",""
"","do_trial","132","435958","0.0-74.0-0.0","1168.3999999994412","","","","","","","","51","0,0,0","6","blank","286","null","0.28287770704546","0.15722282183151637","0.6210522498543577","0","","","","","","","","",""
"","html-keyboard-response","133","436973","0.0-74.0-1.0","null","<p></p>","null","","","","","","","","","","","","","","","","","","","","","","","",""
"","do_trial","134","440401","0.0-75.0-0.0","882.5","","","","","","","","51","0,1,0","6","blank","287","null","0.21431074050317506","0.1466027856390934","0.628793882176889","0","","","","","","","","",""
"","html-keyboard-response","135","441411","0.0-75.0-1.0","null","<p></p>","null","","","","","","","","","","","","","","","","","","","","","","","",""
"","do_trial","136","444768","0.0-76.0-0.0","803.5999999996275","","","","","","","","51","0,0,1","6","blank","288","null","0.2866800071544754","0.18154467266391203","0.6951164161510616","1","","","","","","","","",""
"","html-keyboard-response","137","445780","0.0-76.0-1.0","null","<p></p>","null","","","","","","","","","","","","","","","","","","","","","","","",""
"","do_trial","138","449225","0.0-77.0-0.0","904.5999999996275","","","","","","","","51","1,0,1","6","blank","289","null","0.41199135996645725","0.10027553495673555","0.6674104026562838","1","","","","","","","","",""
"","html-keyboard-response","139","450235","0.0-77.0-1.0","null","<p></p>","null","","","","","","","","","","","","","","","","","","","","","","","",""
"","do_trial","140","453895","0.0-78.0-0.0","1108.4000000003725","","","","","","","","51","1,1,1","6","blank","290","null","0.2630558590117593","0.2575361505371162","0.5810208157261997","1","","","","","","","","",""
"","html-keyboard-response","141","454907","0.0-78.0-1.0","null","<p></p>","null","","","","","","","","","","","","","","","","","","","","","","","",""
"","do_recog","142","458637","0.0-79.0-0.0","2217.7000000001863","","","","","","","","56","","","","291","probe-45","","","","","1","[object Object]","88","2","0","","","",""
"","html-keyboard-response","143","459650","0.0-79.0-1.0","null","<p></p>","null","","","","","","","","","","","","","","","","","","","","","","","",""
"","do_trial","144","464877","0.0-80.0-0.0","2676.2000000001863","","","","","","","","51","0,0,0","6","blank","292","null","0.30268164061596964","0.1051804629251645","0.6112635315918883","0","","","","","","","","",""
"","html-keyboard-response","145","465892","0.0-80.0-1.0","null","<p></p>","null","","","","","","","","","","","","","","","","","","","","","","","",""
"","do_trial","146","468443","0.0-81.0-0.0","0","","","","","","","","51","0,0,1","6","blank","293","null","0.284607416999081","0.15594775065117816","0.7485570979027598","1","","","","","","","","",""
"","html-keyboard-response","147","469446","0.0-81.0-1.0","null","<p></p>","null","","","","","","","","","","","","","","","","","","","","","","","",""
"","do_trial","148","472097","0.0-82.0-0.0","107","","","","","","","","51","0,0,1","6","blank","294","null","0.37001362186369946","0.3201356959825124","0.6099138637461381","1","","","","","","","","",""
"","html-keyboard-response","149","473107","0.0-82.0-1.0","null","<p></p>","null","","","","","","","","","","","","","","","","","","","","","","","",""
"","do_recog","150","476613","0.0-83.0-0.0","1990.7000000001863","","","","","","","","53","","","","295","probe-218","","","","","1","[object Object]","44","1","1","","","",""
"","html-keyboard-response","151","477626","0.0-83.0-1.0","null","<p></p>","null","","","","","","","","","","","","","","","","","","","","","","","",""
"","do_trial","152","482445","0.0-84.0-0.0","2260.9000000003725","","","","","","","","51","0,0,0","6","blank","296","null","0.4291912497626759","0.2596634722910761","0.44394581470407934","0","","","","","","","","",""
"","html-keyboard-response","153","483456","0.0-84.0-1.0","null","<p></p>","null","","","","","","","","","","","","","","","","","","","","","","","",""
"","do_recog","154","486883","0.0-85.0-0.0","1919.7999999998137","","","","","","","","55","","","","297","probe-46","","","","","1","[object Object]","129","3","0","","","",""
"","html-keyboard-response","155","487894","0.0-85.0-1.0","null","<p></p>","null","","","","","","","","","","","","","","","","","","","","","","","",""
"","do_trial","156","492180","0.0-86.0-0.0","1734.800000000745","","","","","","","","51","0,0,1","6","blank","298","null","0.29200858081087755","0.390281171360152","0.31610633634984475","1","","","","","","","","",""
"","html-keyboard-response","157","493191","0.0-86.0-1.0","null","<p></p>","null","","","","","","","","","","","","","","","","","","","","","","","",""
"","do_trial","158","496585","0.0-87.0-0.0","846.0999999996275","","","","","","","","51","0,0,1","6","blank","299","null","0.4421136142698114","0.37261333945027825","0.20953924235354973","1","","","","","","","","",""
"","html-keyboard-response","159","497598","0.0-87.0-1.0","null","<p></p>","null","","","","","","","","","","","","","","","","","","","","","","","",""
"","do_trial","160","500702","0.0-88.0-0.0","551.5999999996275","","","","","","","","51","0,0,0","6","blank","300","null","0.3374366334634498","0.4330005868302461","0.15264271896154166","0","","","","","","","","",""
"","html-keyboard-response","161","501712","0.0-88.0-1.0","null","<p></p>","null","","","","","","","","","","","","","","","","","","","","","","","",""
"","do_trial","162","504802","0.0-89.0-0.0","541.7999999998137","","","","","","","","51","0,1,0","6","blank","301","null","0.4109181479174707","0.43988749909607694","0.30197800673707803","0","","","","","","","","",""
"","html-keyboard-response","163","505814","0.0-89.0-1.0","null","<p></p>","null","","","","","","","","","","","","","","","","","","","","","","","",""
"","do_trial","164","508960","0.0-90.0-0.0","602.7999999998137","","","","","","","","51","1,0,0","6","blank","302","null","0.4978762839965397","0.5819227735864413","0.15232745650525772","0","","","","","","","","",""
"","html-keyboard-response","165","509970","0.0-90.0-1.0","null","<p></p>","null","","","","","","","","","","","","","","","","","","","","","","","",""
"","do_trial","166","513134","0.0-91.0-0.0","620.4000000003725","","","","","","","","51","1,0,1","6","blank","303","null","0.3290569212696318","0.5839831337251871","0.2082994126528863","1","","","","","","","","",""
"","html-keyboard-response","167","514142","0.0-91.0-1.0","null","<p></p>","null","","","","","","","","","","","","","","","","","","","","","","","",""
"","do_recog","168","517684","0.0-92.0-0.0","2031.2000000001863","","","","","","","","53","","","","304","probe-156","","","","","1","[object Object]","84","2","1","","","",""
"","html-keyboard-response","169","518699","0.0-92.0-1.0","null","<p></p>","null","","","","","","","","","","","","","","","","","","","","","","","",""
"","do_trial","170","522042","0.0-93.0-0.0","792.2999999998137","","","","","","","","50","1,1,0","6","blank","305","null","0.3282340953442852","0.4800312852944574","0.07535006607020142","1","","","","","","","","",""
"","html-keyboard-response","171","523051","0.0-93.0-1.0","null","<p></p>","null","","","","","","","","","","","","","","","","","","","","","","","",""
"","do_trial","172","525970","0.0-94.0-0.0","372.5","","","","","","","","50","0,1,0","6","blank","306","null","0.266916826402978","0.4372749474131266","0.0710222199997877","1","","","","","","","","",""
"","html-keyboard-response","173","526981","0.0-94.0-1.0","null","<p></p>","null","","","","","","","","","","","","","","","","","","","","","","","",""
"","do_trial","174","529908","0.0-95.0-0.0","380","","","","","","","","50","0,0,1","6","blank","307","null","0.38682094992728494","0.49007933893680666","0.18902320792733812","0","","","","","","","","",""
"","html-keyboard-response","175","530922","0.0-95.0-1.0","null","<p></p>","null","","","","","","","","","","","","","","","","","","","","","","","",""
"","do_trial","176","533789","0.0-96.0-0.0","326.3999999994412","","","","","","","","50","0,1,0","6","blank","308","null","0.3701346620461834","0.6081890544772416","0.13069216018831525","1","","","","","","","","",""
"","html-keyboard-response","177","534799","0.0-96.0-1.0","null","<p></p>","null","","","","","","","","","","","","","","","","","","","","","","","",""
"","break","178","549782","0.0-96.0-2.0","14982.200000000186","<div class='center'><p>Time to take a quick break! You have 2 minutes to rest, but you can move on sooner if you'd like.</p><p> Press the <b>space bar</b> to continue.</p></div>","32","","","","","","","","","","","","","","","","","","","","","","","",""
"","do_trial","179","554464","0.0-96.0-3.0","2132","","","","","","","","51","0,0,0","6","blank","309","null","0.19484354174403776","0.596209479740644","0.10715174682821006","0","","","","","","","","",""
"","html-keyboard-response","180","555471","0.0-96.0-4.0","null","<p></p>","null","","","","","","","","","","","","","","","","","","","","","","","",""
"","do_trial","181","558392","0.0-97.0-0.0","362","","","","","","","","50","0,0,0","6","blank","310","null","0.2647970895631841","0.6029608617708193","0.10444234313314743","0","","","","","","","","",""
"","html-keyboard-response","182","559407","0.0-97.0-1.0","null","<p></p>","null","","","","","","","","","","","","","","","","","","","","","","","",""
"","do_recog","183","563203","0.0-98.0-0.0","2277.5999999996275","","","","","","","","55","","","","311","probe-142","","","","","1","[object Object]","85","2","0","","","",""
"","html-keyboard-response","184","564209","0.0-98.0-1.0","null","<p></p>","null","","","","","","","","","","","","","","","","","","","","","","","",""
"","do_trial","185","567212","0.0-99.0-0.0","461.69999999925494","","","","","","","","50","0,1,0","6","blank","312","null","0.3686904882571594","0.4797178607531595","0.20249862310397782","1","","","","","","","","",""
"","html-keyboard-response","186","568221","0.0-99.0-1.0","null","<p></p>","null","","","","","","","","","","","","","","","","","","","","","","","",""
"","do_recog","187","571550","0.0-100.0-0.0","1822.9000000003725","","","","","","","","55","","","","313","probe-35","","","","","1","[object Object]","209","5","0","","","",""
"","html-keyboard-response","188","572562","0.0-100.0-1.0","null","<p></p>","null","","","","","","","","","","","","","","","","","","","","","","","",""
"","do_trial","189","575109","0.0-101.0-0.0","0.10000000055879354","","","","","","","","50","0,1,0","6","blank","314","null","0.48056313808217693","0.6063403882603198","0.05511588911389632","1","","","","","","","","",""
"","html-keyboard-response","190","576124","0.0-101.0-1.0","null","<p></p>","null","","","","","","","","","","","","","","","","","","","","","","","",""
"","do_trial","191","579159","0.0-102.0-0.0","492.20000000018626","","","","","","","","50","0,0,0","6","blank","315","null","0.46920689897101414","0.6781444875720409","0.06932276261067843","0","","","","","","","","",""
"","html-keyboard-response","192","580172","0.0-102.0-1.0","null","<p></p>","null","","","","","","","","","","","","","","","","","","","","","","","",""
"","do_trial","193","583602","0.0-103.0-0.0","888.7999999998137","","","","","","","","51","0,1,0","6","blank","316","null","0.4527654462620352","0.6256161020161445","0.06774254407908538","0","","","","","","","","",""
"","html-keyboard-response","194","584614","0.0-103.0-1.0","null","<p></p>","null","","","","","","","","","","","","","","","","","","","","","","","",""
"","do_trial","195","587166","0.0-104.0-0.0","0","","","","","","","","51","0,1,1","6","blank","317","null","0.4040391340699812","0.5822881393111022","0.15424785797553495","1","","","","","","","","",""
"","html-keyboard-response","196","588180","0.0-104.0-1.0","null","<p></p>","null","","","","","","","","","","","","","","","","","","","","","","","",""
"","do_recog","197","591925","0.0-105.0-0.0","2234","","","","","","","","55","","","","318","probe-255","","","","","0","[object Object]","null","null","1","","","",""
"","html-keyboard-response","198","592939","0.0-105.0-1.0","null","<p></p>","null","","","","","","","","","","","","","","","","","","","","","","","",""
"","do_trial","199","595558","0.0-106.0-0.0","76","","","","","","","","51","0,1,0","6","blank","319","null","0.34350971502875044","0.6852097367239226","0.28140626205883446","0","","","","","","","","",""
"","html-keyboard-response","200","596560","0.0-106.0-1.0","null","<p></p>","null","","","","","","","","","","","","","","","","","","","","","","","",""
"","do_recog","201","600142","0.0-107.0-0.0","2064.4000000003725","","","","","","","","54","","","","320","probe-109","","","","","1","[object Object]","166","4","1","","","",""
"","html-keyboard-response","202","601156","0.0-107.0-1.0","null","<p></p>","null","","","","","","","","","","","","","","","","","","","","","","","",""
"","do_trial","203","604338","0.0-108.0-0.0","626.2999999998137","","","","","","","","51","0,1,0","6","blank","321","null","0.35011306881079085","0.6096547141223504","0.29148731856921245","0","","","","","","","","",""
"","html-keyboard-response","204","605346","0.0-108.0-1.0","null","<p></p>","null","","","","","","","","","","","","","","","","","","","","","","","",""
"","do_trial","205","608190","0.0-109.0-0.0","285.40000000037253","","","","","","","","51","1,1,0","6","blank","322","null","0.3958426224895661","0.7060758452590621","0.20466251149569872","0","","","","","","","","",""
"","html-keyboard-response","206","609205","0.0-109.0-1.0","null","<p></p>","null","","","","","","","","","","","","","","","","","","","","","","","",""
"","do_trial","207","611865","0.0-110.0-0.0","111.29999999981374","","","","","","","","49","1,0,0","6","blank","323","null","0.24762599827589163","0.6929737982195564","0.18297430464991837","1","","","","","","","","",""
"","html-keyboard-response","208","612876","0.0-110.0-1.0","null","<p></p>","null","","","","","","","","","","","","","","","","","","","","","","","",""
"","do_trial","209","615487","0.0-111.0-0.0","58.89999999944121","","","","","","","","49","0,1,1","6","blank","324","null","0.20206941983693935","0.5176570057481564","0.1590000166378779","0","","","","","","","","",""
"","html-keyboard-response","210","616490","0.0-111.0-1.0","null","<p></p>","null","","","","","","","","","","","","","","","","","","","","","","","",""
"","do_trial","211","619113","0.0-112.0-0.0","75.59999999962747","","","","","","","","49","0,0,0","6","blank","325","null","0.1869547886970678","0.6267708694809269","0.07713524310979997","0","","","","","","","","",""
"","html-keyboard-response","212","620127","0.0-112.0-1.0","null","<p></p>","null","","","","","","","","","","","","","","","","","","","","","","","",""
"","do_recog","213","623925","0.0-113.0-0.0","2288.7000000001863","","","","","","","","55","","","","326","probe-221","","","","","1","[object Object]","204","5","0","","","",""
"","html-keyboard-response","214","624938","0.0-113.0-1.0","null","<p></p>","null","","","","","","","","","","","","","","","","","","","","","","","",""
"","do_trial","215","629491","0.0-114.0-0.0","2009.3999999994412","","","","","","","","50","0,0,0","6","blank","327","null","0.3223966914599771","0.6077645023598423","0.08605421882932221","0","","","","","","","","",""
"","html-keyboard-response","216","630499","0.0-114.0-1.0","null","<p></p>","null","","","","","","","","","","","","","","","","","","","","","","","",""
"","do_trial","217","633074","0.0-115.0-0.0","30.700000000186265","","","","","","","","51","0,1,1","6","blank","328","null","0.40725832186504507","0.6796156167186643","0.17911581865445084","1","","","","","","","","",""
"","html-keyboard-response","218","634086","0.0-115.0-1.0","null","<p></p>","null","","","","","","","","","","","","","","","","","","","","","","","",""
"","do_recog","219","637326","0.0-116.0-0.0","1724.5","","","","","","","","54","","","","329","probe-92","","","","","1","[object Object]","49","1","1","","","",""
"","html-keyboard-response","220","638331","0.0-116.0-1.0","null","<p></p>","null","","","","","","","","","","","","","","","","","","","","","","","",""
"","do_trial","221","641070","0.0-117.0-0.0","185.40000000037253","","","","","","","","51","0,1,1","6","blank","330","null","0.3103130231970185","0.8751056983799052","0.11481020978163865","1","","","","","","","","",""
"","html-keyboard-response","222","642079","0.0-117.0-1.0","null","<p></p>","null","","","","","","","","","","","","","","","","","","","","","","","",""
"","do_trial","223","644865","0.0-118.0-0.0","232.19999999925494","","","","","","","","51","0,1,0","6","blank","331","null","0.28430331895357197","0.7765383253907474","0.059037455228287884","0","","","","","","","","",""
"","html-keyboard-response","224","645878","0.0-118.0-1.0","null","<p></p>","null","","","","","","","","","","","","","","","","","","","","","","","",""
"","do_trial","225","648436","0.0-119.0-0.0","8.800000000745058","","","","","","","","51","1,1,0","6","blank","332","null","0.18701462160826018","0.7894418599535286","0.05694030522693369","0","","","","","","","","",""
"","html-keyboard-response","226","649446","0.0-119.0-1.0","null","<p></p>","null","","","","","","","","","","","","","","","","","","","","","","","",""
"","do_recog","227","653204","0.0-120.0-0.0","2239.0999999996275","","","","","","","","55","","","","333","probe-103","","","","","1","[object Object]","205","5","0","","","",""
"","html-keyboard-response","228","654212","0.0-120.0-1.0","null","<p></p>","null","","","","","","","","","","","","","","","","","","","","","","","",""
"","do_trial","229","656883","0.0-121.0-0.0","128.79999999981374","","","","","","","","51","1,0,1","6","blank","334","null","0.3754157204238566","0.6969174803709183","0.10429565627545301","1","","","","","","","","",""
"","html-keyboard-response","230","657893","0.0-121.0-1.0","null","<p></p>","null","","","","","","","","","","","","","","","","","","","","","","","",""
"","do_trial","231","660666","0.0-122.0-0.0","230.90000000037253","","","","","","","","51","1,1,0","6","blank","335","null","0.37564578843810015","0.6461606482791374","0.0795113381839069","0","","","","","","","","",""
"","html-keyboard-response","232","661671","0.0-122.0-1.0","null","<p></p>","null","","","","","","","","","","","","","","","","","","","","","","","",""
"","do_trial","233","664274","0.0-123.0-0.0","51.5","","","","","","","","51","0,1,0","6","blank","336","null","0.35983419553032725","0.6065169459006605","0.0655188084496727","0","","","","","","","","",""
"","html-keyboard-response","234","665286","0.0-123.0-1.0","null","<p></p>","null","","","","","","","","","","","","","","","","","","","","","","","",""
"","do_recog","235","668716","0.0-124.0-0.0","1918.699999999255","","","","","","","","54","","","","337","probe-132","","","","","1","[object Object]","203","5","1","","","",""
"","html-keyboard-response","236","669722","0.0-124.0-1.0","null","<p></p>","null","","","","","","","","","","","","","","","","","","","","","","","",""
"","do_trial","237","672635","0.0-125.0-0.0","356.70000000018626","","","","","","","","51","0,1,0","6","blank","338","null","0.4906778121463667","0.5373746411729209","0.11843188111744743","0","","","","","","","","",""
"","html-keyboard-response","238","673645","0.0-125.0-1.0","null","<p></p>","null","","","","","","","","","","","","","","","","","","","","","","","",""
"","do_trial","239","676242","0.0-126.0-0.0","51","","","","","","","","51","1,1,0","6","blank","339","null","0.598905535206326","0.5333718557701709","0.1536750089328022","0","","","","","","","","",""
"","html-keyboard-response","240","677247","0.0-126.0-1.0","null","<p></p>","null","","","","","","","","","","","","","","","","","","","","","","","",""
"","do_trial","241","680715","0.0-127.0-0.0","914","","","","","","","","51","1,1,0","6","blank","340","null","0.5849001224717395","0.4459653495385457","0.1554576433903437","0","","","","","","","","",""
"","html-keyboard-response","242","681726","0.0-127.0-1.0","null","<p></p>","null","","","","","","","","","","","","","","","","","","","","","","","",""
"","do_trial","243","684333","0.0-128.0-0.0","58.19999999925494","","","","","","","","50","0,0,0","6","blank","341","null","0.49584093039764277","0.4006539064167112","0.17688742133477595","0","","","","","","","","",""
"","html-keyboard-response","244","685339","0.0-128.0-1.0","null","<p></p>","null","","","","","","","","","","","","","","","","","","","","","","","",""
"","do_recog","245","688325","0.0-129.0-0.0","1481.2999999998137","","","","","","","","54","","","","342","probe-250","","","","","0","[object Object]","null","null","0","","","",""
"","html-keyboard-response","246","689333","0.0-129.0-1.0","null","<p></p>","null","","","","","","","","","","","","","","","","","","","","","","","",""
"","do_trial","247","692250","0.0-130.0-0.0","365.90000000037253","","","","","","","","50","0,0,0","6","blank","343","null","0.324801614453031","0.4497128078597718","0.07519346950581653","0","","","","","","","","",""
"","html-keyboard-response","248","693260","0.0-130.0-1.0","null","<p></p>","null","","","","","","","","","","","","","","","","","","","","","","","",""
"","do_recog","249","696806","0.0-131.0-0.0","2038.0999999996275","","","","","","","","53","","","","344","probe-140","","","","","1","[object Object]","164","4","1","","","",""
"","html-keyboard-response","250","697819","0.0-131.0-1.0","null","<p></p>","null","","","","","","","","","","","","","","","","","","","","","","","",""
"","do_trial","251","701026","0.0-132.0-0.0","658.7999999998137","","","","","","","","50","0,0,0","6","blank","345","null","0.40321195413905403","0.517269776778329","0.06055207701240797","0","","","","","","","","",""
"","html-keyboard-response","252","702035","0.0-132.0-1.0","null","<p></p>","null","","","","","","","","","","","","","","","","","","","","","","","",""
"","do_trial","253","704874","0.0-133.0-0.0","290.2000000011176","","","","","","","","51","0,1,0","6","blank","346","null","0.32050149844283","0.5560190887957128","0.12567975795352088","0","","","","","","","","",""
"","html-keyboard-response","254","705880","0.0-133.0-1.0","null","<p></p>","null","","","","","","","","","","","","","","","","","","","","","","","",""
"","do_trial","255","708550","0.0-134.0-0.0","120.5","","","","","","","","50","0,1,0","6","blank","347","null","0.2586350077204657","0.5132594744299681","0.2821550698044278","1","","","","","","","","",""
"","html-keyboard-response","256","709562","0.0-134.0-1.0","null","<p></p>","null","","","","","","","","","","","","","","","","","","","","","","","",""
"","do_trial","257","712703","0.0-135.0-0.0","587.6000000014901","","","","","","","","51","0,0,0","6","blank","348","null","0.20154796559159732","0.5088261608489317","0.238649258130714","0","","","","","","","","",""
"","html-keyboard-response","258","713715","0.0-135.0-1.0","null","<p></p>","null","","","","","","","","","","","","","","","","","","","","","","","",""
"","break","259","733255","0.0-135.0-2.0","19540","<div class='center'><p>Time to take a quick break! You have 2 minutes to rest, but you can move on sooner if you'd like.</p><p> Press the <b>space bar</b> to continue.</p></div>","32","","","","","","","","","","","","","","","","","","","","","","","",""
"","do_trial","260","736900","0.0-135.0-3.0","1094.5","","","","","","","","50","0,0,0","6","blank","349","null","0.16469324661778925","0.3695877159610915","0.3233235838513049","0","","","","","","","","",""
"","html-keyboard-response","261","737912","0.0-135.0-4.0","null","<p></p>","null","","","","","","","","","","","","","","","","","","","","","","","",""
"","do_trial","262","740590","0.0-136.0-0.0","136.2000000011176","","","","","","","","51","1,0,1","6","blank","350","null","0.21461377681262392","0.23485892570215597","0.42865592318352436","1","","","","","","","","",""
"","html-keyboard-response","263","741605","0.0-136.0-1.0","null","<p></p>","null","","","","","","","","","","","","","","","","","","","","","","","",""
"","do_recog","264","744846","0.0-137.0-0.0","1721.7999999988824","","","","","","","","54","","","","351","probe-39","","","","","1","[object Object]","87","2","1","","","",""
"","html-keyboard-response","265","745858","0.0-137.0-1.0","null","<p></p>","null","","","","","","","","","","","","","","","","","","","","","","","",""
"","do_trial","266","748400","0.0-138.0-0.0","0.09999999962747097","","","","","","","","51","0,0,1","6","blank","352","null","0.31996562698697084","0.1090922548321229","0.42904431922606306","1","","","","","","","","",""
"","html-keyboard-response","267","749412","0.0-138.0-1.0","null","<p></p>","null","","","","","","","","","","","","","","","","","","","","","","","",""
"","do_trial","268","752085","0.0-139.0-0.0","121.60000000149012","","","","","","","","51","0,0,1","6","blank","353","null","0.3413554895210366","0.1450597551832363","0.4879409510063256","1","","","","","","","","",""
"","html-keyboard-response","269","753095","0.0-139.0-1.0","null","<p></p>","null","","","","","","","","","","","","","","","","","","","","","","","",""
"","do_trial","270","756193","0.0-140.0-0.0","552.1999999992549","","","","","","","","51","1,0,0","6","blank","354","null","0.36935671676610876","0.11094479000406526","0.5625633919265461","0","","","","","","","","",""
"","html-keyboard-response","271","757206","0.0-140.0-1.0","null","<p></p>","null","","","","","","","","","","","","","","","","","","","","","","","",""
"","do_recog","272","760698","0.0-141.0-0.0","1974.699999999255","","","","","","","","55","","","","355","probe-182","","","","","1","[object Object]","42","1","0","","","",""
"","html-keyboard-response","273","761710","0.0-141.0-1.0","null","<p></p>","null","","","","","","","","","","","","","","","","","","","","","","","",""
"","do_trial","274","764479","0.0-142.0-0.0","227.2000000011176","","","","","","","","51","0,0,1","6","blank","356","null","0.28817175722508975","0.08540627196846444","0.5661223259546735","1","","","","","","","","",""
"","html-keyboard-response","275","765487","0.0-142.0-1.0","null","<p></p>","null","","","","","","","","","","","","","","","","","","","","","","","",""
"","do_trial","276","768148","0.0-143.0-0.0","109.59999999962747","","","","","","","","51","0,0,1","6","blank","357","null","0.20527746875914354","0.10867852499818616","0.5427219496304885","1","","","","","","","","",""
"","html-keyboard-response","277","769157","0.0-143.0-1.0","null","<p></p>","null","","","","","","","","","","","","","","","","","","","","","","","",""
"","do_trial","278","772192","0.0-144.0-0.0","490.09999999962747","","","","","","","","51","0,0,0","6","blank","358","null","0.2065368423676261","0.10023265006777404","0.463201452015745","0","","","","","","","","",""
"","html-keyboard-response","279","773205","0.0-144.0-1.0","null","<p></p>","null","","","","","","","","","","","","","","","","","","","","","","","",""
"","do_trial","280","776112","0.0-145.0-0.0","363.1000000014901","","","","","","","","51","0,0,1","6","blank","359","null","0.13540994502534287","0.05212157815549309","0.4704039757391397","1","","","","","","","","",""
"","html-keyboard-response","281","777124","0.0-145.0-1.0","null","<p></p>","null","","","","","","","","","","","","","","","","","","","","","","","",""
"","do_recog","282","781023","0.0-146.0-0.0","2390.9000000003725","","","","","","","","54","","","","360","probe-185","","","","","1","[object Object]","126","3","1","","","",""
"","html-keyboard-response","283","782034","0.0-146.0-1.0","null","<p></p>","null","","","","","","","","","","","","","","","","","","","","","","","",""
"","do_trial","284","784710","0.0-147.0-0.0","126.60000000149012","","","","","","","","51","0,0,0","6","blank","361","null","0.47570419083190735","0.16253663785721176","0.6398567687041328","0","","","","","","","","",""
"","html-keyboard-response","285","785725","0.0-147.0-1.0","null","<p></p>","null","","","","","","","","","","","","","","","","","","","","","","","",""
"","do_trial","286","788521","0.0-148.0-0.0","256.5","","","","","","","","51","1,1,1","6","blank","362","null","0.4655292571137069","0.20677470012671578","0.7107649636497313","1","","","","","","","","",""
"","html-keyboard-response","287","789536","0.0-148.0-1.0","null","<p></p>","null","","","","","","","","","","","","","","","","","","","","","","","",""
"","do_trial","288","792088","0.0-149.0-0.0","8.900000000372529","","","","","","","","51","0,0,1","6","blank","363","null","0.42051548132128086","0.19846755621009662","0.8405486425289401","1","","","","","","","","",""
"","html-keyboard-response","289","793100","0.0-149.0-1.0","null","<p></p>","null","","","","","","","","","","","","","","","","","","","","","","","",""
"","do_recog","290","796356","0.0-150.0-0.0","1741.7999999988824","","","","","","","","54","","","","364","probe-93","","","","","1","[object Object]","165","4","1","","","",""
"","html-keyboard-response","291","797368","0.0-150.0-1.0","null","<p></p>","null","","","","","","","","","","","","","","","","","","","","","","","",""
"","do_trial","292","800034","0.0-151.0-0.0","119.19999999925494","","","","","","","","51","0,0,0","6","blank","365","null","0.4568349584490159","0.22447500173182086","0.7893956818544579","0","","","","","","","","",""
"","html-keyboard-response","293","801043","0.0-151.0-1.0","null","<p></p>","null","","","","","","","","","","","","","","","","","","","","","","","",""
"","do_recog","294","803956","0.0-152.0-0.0","1406.9000000003725","","","","","","","","54","","","","366","probe-121","","","","","1","[object Object]","83","2","1","","","",""
"","html-keyboard-response","295","804967","0.0-152.0-1.0","null","<p></p>","null","","","","","","","","","","","","","","","","","","","","","","","",""
"","do_trial","296","807518","0.0-153.0-0.0","0.19999999925494194","","","","","","","","51","1,0,1","6","blank","367","null","0.3869320623071799","0.23906627513096523","0.8581595915680831","1","","","","","","","","",""
"","html-keyboard-response","297","808533","0.0-153.0-1.0","null","<p></p>","null","","","","","","","","","","","","","","","","","","","","","","","",""
"","do_trial","298","811389","0.0-154.0-0.0","304.6000000014901","","","","","","","","51","0,0,1","6","blank","368","null","0.3535835748517466","0.2182237019689234","0.6927017801245628","1","","","","","","","","",""
"","html-keyboard-response","299","812403","0.0-154.0-1.0","null","<p></p>","null","","","","","","","","","","","","","","","","","","","","","","","",""
"","do_trial","300","815328","0.0-155.0-0.0","377.69999999925494","","","","","","","","51","0,0,1","6","blank","369","null","0.26425820576337783","0.28987784380308174","0.5925761757369417","1","","","","","","","","",""
"","html-keyboard-response","301","816341","0.0-155.0-1.0","null","<p></p>","null","","","","","","","","","","","","","","","","","","","","","","","",""
"","do_recog","302","819815","0.0-156.0-0.0","1961.8999999985099","","","","","","","","53","","","","370","probe-65","","","","","1","[object Object]","43","1","1","","","",""
"","html-keyboard-response","303","820828","0.0-156.0-1.0","null","<p></p>","null","","","","","","","","","","","","","","","","","","","","","","","",""
"","do_trial","304","823864","0.0-157.0-0.0","478.5","","","","","","","","51","1,0,0","6","blank","371","null","0.3118221716323775","0.29425710245919634","0.5487407161323415","0","","","","","","","","",""
"","html-keyboard-response","305","824875","0.0-157.0-1.0","null","<p></p>","null","","","","","","","","","","","","","","","","","","","","","","","",""
"","do_recog","306","828051","0.0-158.0-0.0","1667.1000000014901","","","","","","","","53","","","","372","probe-41","","","","","1","[object Object]","45","1","1","","","",""
"","html-keyboard-response","307","829065","0.0-158.0-1.0","null","<p></p>","null","","","","","","","","","","","","","","","","","","","","","","","",""
"","do_trial","308","832893","0.0-159.0-0.0","1282.4000000003725","","","","","","","","50","0,0,1","6","blank","373","null","0.2621524345590883","0.19540310382763348","0.5093212753071945","0","","","","","","","","",""
"","html-keyboard-response","309","833905","0.0-159.0-1.0","null","<p></p>","null","","","","","","","","","","","","","","","","","","","","","","","",""
"","do_trial","310","836883","0.0-160.0-0.0","426.6000000014901","","","","","","","","51","0,0,0","6","blank","374","null","0.17981959005411882","0.09000447243640995","0.4732356521763934","0","","","","","","","","",""
"","html-keyboard-response","311","837898","0.0-160.0-1.0","null","<p></p>","null","","","","","","","","","","","","","","","","","","","","","","","",""
"","do_trial","312","840446","0.0-161.0-0.0","0.09999999962747097","","","","","","","","51","0,0,1","6","blank","375","null","0.3191113333612392","0.08363486264809092","0.5451019079697585","1","","","","","","","","",""
"","html-keyboard-response","313","841455","0.0-161.0-1.0","null","<p></p>","null","","","","","","","","","","","","","","","","","","","","","","","",""
"","do_trial","314","844062","0.0-162.0-0.0","64.10000000149012","","","","","","","","51","0,0,1","6","blank","376","null","0.3022456121599196","0.11196820185982756","0.5375976841515347","1","","","","","","","","",""
"","html-keyboard-response","315","845074","0.0-162.0-1.0","null","<p></p>","null","","","","","","","","","","","","","","","","","","","","","","","",""
"","do_trial","316","848007","0.0-163.0-0.0","386.30000000074506","","","","","","","","51","0,0,0","6","blank","377","null","0.1728934188270533","0.10054973034751649","0.597424608984971","0","","","","","","","","",""
"","html-keyboard-response","317","849013","0.0-163.0-1.0","null","<p></p>","null","","","","","","","","","","","","","","","","","","","","","","","",""
"","do_trial","318","851626","0.0-164.0-0.0","72","","","","","","","","51","0,1,0","6","blank","378","null","0.14310263144333507","0.07861313163200837","0.5547499491835418","0","","","","","","","","",""
"","html-keyboard-response","319","852636","0.0-164.0-1.0","null","<p></p>","null","","","","","","","","","","","","","","","","","","","","","","","",""
"","do_recog","320","855822","0.0-165.0-0.0","1674.4000000003725","","","","","","","","53","","","","379","probe-19","","","","","1","[object Object]","41","1","1","","","",""
"","html-keyboard-response","321","856834","0.0-165.0-1.0","null","<p></p>","null","","","","","","","","","","","","","","","","","","","","","","","",""
"","do_trial","322","859758","0.0-166.0-0.0","375.3999999985099","","","","","","","","51","0,0,1","6","blank","380","null","0.22736584887508696","0.1283368873298778","0.5650044925272021","1","","","","","","","","",""
"","html-keyboard-response","323","860772","0.0-166.0-1.0","null","<p></p>","null","","","","","","","","","","","","","","","","","","","","","","","",""
"","do_recog","324","864357","0.0-167.0-0.0","2065.5999999996275","","","","","","","","53","","","","381","probe-62","","","","","1","[object Object]","202","5","1","","","",""
"","html-keyboard-response","325","865372","0.0-167.0-1.0","null","<p></p>","null","","","","","","","","","","","","","","","","","","","","","","","",""
"","do_trial","326","867924","0.0-168.0-0.0","0.09999999962747097","","","","","","","","51","0,0,1","6","blank","382","null","0.06315521938562085","0.0820813728103861","0.6001996507432051","1","","","","","","","","",""
"","html-keyboard-response","327","868936","0.0-168.0-1.0","null","<p></p>","null","","","","","","","","","","","","","","","","","","","","","","","",""
"","do_trial","328","871904","0.0-169.0-0.0","426.90000000037253","","","","","","","","51","0,0,0","6","blank","383","null","0.1773110039153228","0.14127226072967078","0.5770609068847694","0","","","","","","","","",""
"","html-keyboard-response","329","872915","0.0-169.0-1.0","null","<p></p>","null","","","","","","","","","","","","","","","","","","","","","","","",""
"","do_trial","330","875791","0.0-170.0-0.0","320.80000000074506","","","","","","","","51","1,0,1","6","blank","384","null","0.3323801708912923","0.09735018736454056","0.5442158397865267","1","","","","","","","","",""
"","html-keyboard-response","331","876807","0.0-170.0-1.0","null","<p></p>","null","","","","","","","","","","","","","","","","","","","","","","","",""
"","do_trial","332","879474","0.0-171.0-0.0","109.09999999962747","","","","","","","","51","1,0,0","6","blank","385","null","0.35776393239228077","0.08412646590214053","0.5847587796929895","0","","","","","","","","",""
"","html-keyboard-response","333","880477","0.0-171.0-1.0","null","<p></p>","null","","","","","","","","","","","","","","","","","","","","","","","",""
"","do_recog","334","883990","0.0-172.0-0.0","1998.6000000014901","","","","","","","","53","","","","386","probe-84","","","","","1","[object Object]","122","3","1","","","",""
"","html-keyboard-response","335","885000","0.0-172.0-1.0","null","<p></p>","null","","","","","","","","","","","","","","","","","","","","","","","",""
"","do_trial","336","888364","0.0-173.0-0.0","824.1000000014901","","","","","","","","51","1,1,0","6","blank","387","null","0.3908376201810703","0.0700583489187994","0.46271434867119626","0","","","","","","","","",""
"","html-keyboard-response","337","889371","0.0-173.0-1.0","null","<p></p>","null","","","","","","","","","","","","","","","","","","","","","","","",""
"","do_trial","338","892070","0.0-174.0-0.0","144.59999999962747","","","","","","","","51","1,0,1","6","blank","388","null","0.4347360455573292","0.050203760788456515","0.3435629162758786","1","","","","","","","","",""
"","html-keyboard-response","339","893085","0.0-174.0-1.0","null","<p></p>","null","","","","","","","","","","","","","","","","","","","","","","","",""
"","break","340","914287","0.0-174.0-2.0","21200.900000000373","<div class='center'><p>Time to take a quick break! You have 2 minutes to rest, but you can move on sooner if you'd like.</p><p> Press the <b>space bar</b> to continue.</p></div>","32","","","","","","","","","","","","","","","","","","","","","","","",""
"","do_trial","341","918013","0.0-174.0-3.0","1176.8999999985099","","","","","","","","51","0,0,1","6","blank","389","null","0.42943226878133056","0.2737246809943133","0.4909543804224039","1","","","","","","","","",""
"","html-keyboard-response","342","919028","0.0-174.0-4.0","null","<p></p>","null","","","","","","","","","","","","","","","","","","","","","","","",""
"","do_trial","343","922267","0.0-175.0-0.0","687","","","","","","","","51","0,1,1","6","blank","390","null","0.2826879983743356","0.13723241646612994","0.4934160274904913","1","","","","","","","","",""
"","html-keyboard-response","344","923282","0.0-175.0-1.0","null","<p></p>","null","","","","","","","","","","","","","","","","","","","","","","","",""
"","do_trial","345","926083","0.0-176.0-0.0","255.59999999962747","","","","","","","","51","0,0,1","6","blank","391","null","0.3295559894667891","0.056532728946802314","0.517516244105258","1","","","","","","","","",""
"","html-keyboard-response","346","927092","0.0-176.0-1.0","null","<p></p>","null","","","","","","","","","","","","","","","","","","","","","","","",""
"","do_trial","347","929755","0.0-177.0-0.0","107.79999999888241","","","","","","","","51","1,0,1","6","blank","392","null","0.45547328066295073","0.0505916941529264","0.5249412368368832","1","","","","","","","","",""
"","html-keyboard-response","348","930767","0.0-177.0-1.0","null","<p></p>","null","","","","","","","","","","","","","","","","","","","","","","","",""
"","do_trial","349","933411","0.0-178.0-0.0","95.59999999962747","","","","","","","","51","1,0,1","6","blank","393","null","0.3725081495284931","0.05212484663453983","0.7388619694834044","1","","","","","","","","",""
"","html-keyboard-response","350","934422","0.0-178.0-1.0","null","<p></p>","null","","","","","","","","","","","","","","","","","","","","","","","",""
"","do_recog","351","938318","0.0-179.0-0.0","2378.4000000003725","","","","","","","","54","","","","394","probe-220","","","","","1","[object Object]","200","5","1","","","",""
"","html-keyboard-response","352","939326","0.0-179.0-1.0","null","<p></p>","null","","","","","","","","","","","","","","","","","","","","","","","",""
"","do_trial","353","942203","0.0-180.0-0.0","330.7000000011176","","","","","","","","51","0,0,0","6","blank","395","null","0.25051652951452547","0.12273088780538988","0.5143385809855672","0","","","","","","","","",""
"","html-keyboard-response","354","943215","0.0-180.0-1.0","null","<p></p>","null","","","","","","","","","","","","","","","","","","","","","","","",""
"","do_trial","355","945766","0.0-181.0-0.0","0","","","","","","","","51","0,1,1","6","blank","396","null","0.31462324169606815","0.1355256390080595","0.6921792777976518","1","","","","","","","","",""
"","html-keyboard-response","356","946778","0.0-181.0-1.0","null","<p></p>","null","","","","","","","","","","","","","","","","","","","","","","","",""
"","do_trial","357","949691","0.0-182.0-0.0","361","","","","","","","","51","0,0,1","6","blank","397","null","0.23595778228640357","0.13090699283949633","0.5258225648088264","1","","","","","","","","",""
"","html-keyboard-response","358","950704","0.0-182.0-1.0","null","<p></p>","null","","","","","","","","","","","","","","","","","","","","","","","",""
"","do_trial","359","953251","0.0-183.0-0.0","0.09999999962747097","","","","","","","","51","0,0,1","6","blank","398","null","0.29051173035651784","0.1792304924043265","0.5829333781560365","1","","","","","","","","",""
"","html-keyboard-response","360","954259","0.0-183.0-1.0","null","<p></p>","null","","","","","","","","","","","","","","","","","","","","","","","",""
"","do_recog","361","957384","0.0-184.0-0.0","1616.300000000745","","","","","","","","53","","","","399","probe-90","","","","","1","[object Object]","120","3","1","","","",""
"","html-keyboard-response","362","958393","0.0-184.0-1.0","null","<p></p>","null","","","","","","","","","","","","","","","","","","","","","","","",""
"","do_trial","363","961035","0.0-185.0-0.0","101.09999999962747","","","","","","","","51","0,0,0","6","blank","400","null","0.42810044351522364","0.14903141829365604","0.5335660099541757","0","","","","","","","","",""
"","html-keyboard-response","364","962038","0.0-185.0-1.0","null","<p></p>","null","","","","","","","","","","","","","","","","","","","","","","","",""
"","do_trial","365","964595","0.0-186.0-0.0","11","","","","","","","","51","0,1,0","6","blank","401","null","0.3332978055250899","0.2561001569843101","0.37793059922473804","0","","","","","","","","",""
"","html-keyboard-response","366","965597","0.0-186.0-1.0","null","<p></p>","null","","","","","","","","","","","","","","","","","","","","","","","",""
"","do_trial","367","968148","0.0-187.0-0.0","0.09999999962747097","","","","","","","","51","0,1,1","6","blank","402","null","0.2058547329184616","0.5087268881173581","0.4643985408819768","1","","","","","","","","",""
"","html-keyboard-response","368","969162","0.0-187.0-1.0","null","<p></p>","null","","","","","","","","","","","","","","","","","","","","","","","",""
"","do_trial","369","972144","0.0-188.0-0.0","427.8999999985099","","","","","","","","51","1,1,0","6","blank","403","null","0.07572199276680419","0.46786997544374925","0.39076169976419667","0","","","","","","","","",""
"","html-keyboard-response","370","973153","0.0-188.0-1.0","null","<p></p>","null","","","","","","","","","","","","","","","","","","","","","","","",""
"","do_recog","371","977423","0.0-189.0-0.0","2754.39999999851","","","","","","","","56","","","","404","probe-102","","","","","1","[object Object]","168","4","0","","","",""
"","html-keyboard-response","372","978434","0.0-189.0-1.0","null","<p></p>","null","","","","","","","","","","","","","","","","","","","","","","","",""
"","do_trial","373","980982","0.0-190.0-0.0","0","","","","","","","","51","0,0,0","6","blank","405","null","0.0825276958463796","0.4931608435291506","0.22563790584553498","0","","","","","","","","",""
"","html-keyboard-response","374","981987","0.0-190.0-1.0","null","<p></p>","null","","","","","","","","","","","","","","","","","","","","","","","",""
"","do_recog","375","985807","0.0-191.0-0.0","2310.7999999988824","","","","","","","","53","","","","406","probe-54","","","","","1","[object Object]","121","3","1","","","",""
"","html-keyboard-response","376","986811","0.0-191.0-1.0","null","<p></p>","null","","","","","","","","","","","","","","","","","","","","","","","",""
"","do_trial","377","989647","0.0-192.0-0.0","289.5","","","","","","","","51","0,0,0","6","blank","407","null","0.30008578037167477","0.3767250895038954","0.23280593364212723","0","","","","","","","","",""
"","html-keyboard-response","378","990652","0.0-192.0-1.0","null","<p></p>","null","","","","","","","","","","","","","","","","","","","","","","","",""
"","do_trial","379","993253","0.0-193.0-0.0","51.09999999962747","","","","","","","","51","0,0,0","6","blank","408","null","0.06996030544921439","0.5662504805005817","0.3385505384494378","0","","","","","","","","",""
"","html-keyboard-response","380","994260","0.0-193.0-1.0","null","<p></p>","null","","","","","","","","","","","","","","","","","","","","","","","",""
"","do_trial","381","996901","0.0-194.0-0.0","99.09999999962747","","","","","","","","50","0,0,1","6","blank","409","null","0.10890417534269682","0.523280643408365","0.29511271541850637","0","","","","","","","","",""
"","html-keyboard-response","382","997909","0.0-194.0-1.0","null","<p></p>","null","","","","","","","","","","","","","","","","","","","","","","","",""
"","do_recog","383","1000999","0.0-195.0-0.0","1571.9000000003725","","","","","","","","53","","","","410","probe-50","","","","","1","[object Object]","160","4","1","","","",""
"","html-keyboard-response","384","1002008","0.0-195.0-1.0","null","<p></p>","null","","","","","","","","","","","","","","","","","","","","","","","",""
"","do_trial","385","1005178","0.0-196.0-0.0","621.0999999996275","","","","","","","","50","0,1,1","6","blank","411","null","0.054459469590511074","0.5235183397130951","0.3405003744113973","1","","","","","","","","",""
"","html-keyboard-response","386","1006188","0.0-196.0-1.0","null","<p></p>","null","","","","","","","","","","","","","","","","","","","","","","","",""
"","do_recog","387","1010166","0.0-197.0-0.0","2468","","","","","","","","53","","","","412","probe-55","","","","","1","[object Object]","89","2","1","","","",""
"","html-keyboard-response","388","1011168","0.0-197.0-1.0","null","<p></p>","null","","","","","","","","","","","","","","","","","","","","","","","",""
"","do_trial","389","1013998","0.0-198.0-0.0","280.2000000011176","","","","","","","","50","0,1,0","6","blank","413","null","0.08850088431034601","0.5097506852983315","0.35559752832376634","1","","","","","","","","",""
"","html-keyboard-response","390","1015008","0.0-198.0-1.0","null","<p></p>","null","","","","","","","","","","","","","","","","","","","","","","","",""
"","do_recog","391","1021032","0.0-199.0-0.0","null","","","","","","","","null","","","","414","probe-115","","","","","1","[object Object]","207","5","0","","","",""
"","html-keyboard-response","392","1022044","0.0-199.0-1.0","null","<p></p>","null","","","","","","","","","","","","","","","","","","","","","","","",""
"","do_trial","393","1025060","0.0-200.0-0.0","473.30000000074506","","","","","","","","50","1,0,1","6","blank","415","null","0.09774419701650423","0.5341118772499204","0.44622324657556556","0","","","","","","","","",""
"","html-keyboard-response","394","1026069","0.0-200.0-1.0","null","<p></p>","null","","","","","","","","","","","","","","","","","","","","","","","",""
"","do_trial","395","1028715","0.0-201.0-0.0","101.59999999962747","","","","","","","","49","0,1,1","6","blank","416","null","0.17386894543758782","0.5653845758251668","0.3798651159030436","0","","","","","","","","",""
"","html-keyboard-response","396","1029727","0.0-201.0-1.0","null","<p></p>","null","","","","","","","","","","","","","","","","","","","","","","","",""
"","do_trial","397","1032269","0.0-202.0-0.0","0.09999999962747097","","","","","","","","51","0,0,0","6","blank","417","null","0.1293889139134757","0.6071903252513259","0.30946161822242546","0","","","","","","","","",""
"","html-keyboard-response","398","1033271","0.0-202.0-1.0","null","<p></p>","null","","","","","","","","","","","","","","","","","","","","","","","",""
"","do_trial","399","1035850","0.0-203.0-0.0","36.40000000037253","","","","","","","","51","0,0,0","6","blank","418","null","0.062057862911472306","0.6817077174543394","0.3124563870618243","0","","","","","","","","",""
"","html-keyboard-response","400","1036857","0.0-203.0-1.0","null","<p></p>","null","","","","","","","","","","","","","","","","","","","","","","","",""
"","do_recog","401","1040432","0.0-204.0-0.0","2060.800000000745","","","","","","","","54","","","","419","probe-203","","","","","1","[object Object]","206","5","1","","","",""
"","html-keyboard-response","402","1041442","0.0-204.0-1.0","null","<p></p>","null","","","","","","","","","","","","","","","","","","","","","","","",""
"","do_trial","403","1044380","0.0-205.0-0.0","391.80000000074506","","","","","","","","51","0,1,0","6","blank","420","null","0.22336784259712084","0.628958179897879","0.2851913619669713","0","","","","","","","","",""
"","html-keyboard-response","404","1045397","0.0-205.0-1.0","null","<p></p>","null","","","","","","","","","","","","","","","","","","","","","","","",""
"","do_trial","405","1047946","0.0-206.0-0.0","0.10000000149011612","","","","","","","","50","0,0,0","6","blank","421","null","0.28148200570297394","0.5679544954955409","0.2859292389153484","0","","","","","","","","",""
"","html-keyboard-response","406","1048954","0.0-206.0-1.0","null","<p></p>","null","","","","","","","","","","","","","","","","","","","","","","","",""
"","do_recog","407","1051972","0.0-207.0-0.0","1499.4000000003725","","","","","","","","53","","","","422","probe-146","","","","","1","[object Object]","40","1","1","","","",""
"","html-keyboard-response","408","1052981","0.0-207.0-1.0","null","<p></p>","null","","","","","","","","","","","","","","","","","","","","","","","",""
"","do_trial","409","1055648","0.0-208.0-0.0","117.80000000074506","","","","","","","","51","0,0,0","6","blank","423","null","0.25234363199641346","0.5153111129751623","0.39673007206056843","0","","","","","","","","",""
"","html-keyboard-response","410","1056662","0.0-208.0-1.0","null","<p></p>","null","","","","","","","","","","","","","","","","","","","","","","","",""
"","do_trial","411","1059231","0.0-209.0-0.0","19.799999998882413","","","","","","","","51","0,1,0","6","blank","424","null","0.18409604375489544","0.7273514915972354","0.419136167434588","0","","","","","","","","",""
"","html-keyboard-response","412","1060241","0.0-209.0-1.0","null","<p></p>","null","","","","","","","","","","","","","","","","","","","","","","","",""
"","do_trial","413","1062790","0.0-210.0-0.0","0.09999999962747097","","","","","","","","50","1,0,0","6","blank","425","null","0.20522202491675084","0.7965787148904536","0.28906660059594125","0","","","","","","","","",""
"","html-keyboard-response","414","1063805","0.0-210.0-1.0","null","<p></p>","null","","","","","","","","","","","","","","","","","","","","","","","",""
"","do_trial","415","1066451","0.0-211.0-0.0","105.40000000037253","","","","","","","","50","0,1,0","6","blank","426","null","0.3020177256453484","0.7257436854448216","0.14004698090144646","1","","","","","","","","",""
"","html-keyboard-response","416","1067464","0.0-211.0-1.0","null","<p></p>","null","","","","","","","","","","","","","","","","","","","","","","","",""
"","do_trial","417","1070093","0.0-212.0-0.0","77.90000000037253","","","","","","","","50","0,1,1","6","blank","427","null","0.16808062287904244","0.7401989082813907","0.12169188413602619","1","","","","","","","","",""
"","html-keyboard-response","418","1071108","0.0-212.0-1.0","null","<p></p>","null","","","","","","","","","","","","","","","","","","","","","","","",""
"","break","419","1076241","0.0-213.0-0.0","5132","<div class='center'><p>Time to take a quick break! You have 2 minutes to rest, but you can move on sooner if you'd like.</p><p> Press the <b>space bar</b> to continue.</p></div>","32","","","","","","","","","","","","","","","","","","","","","","","",""
"","do_recog","420","1082258","0.0-213.0-1.0","null","","","","","","","","null","","","","428","probe-126","","","","","1","[object Object]","128","3","0","","","",""
"","html-keyboard-response","421","1083270","0.0-213.0-2.0","null","<p></p>","null","","","","","","","","","","","","","","","","","","","","","","","",""
"","do_trial","422","1086974","0.0-214.0-0.0","1152.2000000011176","","","","","","","","50","0,0,0","6","blank","429","null","0.06929432238355648","0.7598024884591942","0.05887210593910478","0","","","","","","","","",""
"","html-keyboard-response","423","1087988","0.0-214.0-1.0","null","<p></p>","null","","","","","","","","","","","","","","","","","","","","","","","",""
"","do_trial","424","1090575","0.0-215.0-0.0","31.699999999254942","","","","","","","","51","0,1,0","6","blank","430","null","0.08576861922760903","0.736400939182227","0.22073355356208782","0","","","","","","","","",""
"","html-keyboard-response","425","1091583","0.0-215.0-1.0","null","<p></p>","null","","","","","","","","","","","","","","","","","","","","","","","",""
"","do_recog","426","1094626","0.0-216.0-0.0","1531.0999999996275","","","","","","","","54","","","","431","probe-223","","","","","1","[object Object]","127","3","1","","","",""
"","html-keyboard-response","427","1095628","0.0-216.0-1.0","null","<p></p>","null","","","","","","","","","","","","","","","","","","","","","","","",""
"","do_trial","428","1098178","0.0-217.0-0.0","11.399999998509884","","","","","","","","50","0,0,0","6","blank","432","null","0.21113026557969428","0.7246867209241765","0.4006960616104871","0","","","","","","","","",""
"","html-keyboard-response","429","1099191","0.0-217.0-1.0","null","<p></p>","null","","","","","","","","","","","","","","","","","","","","","","","",""
"","do_trial","430","1101745","0.0-218.0-0.0","0.09999999962747097","","","","","","","","51","0,1,0","6","blank","433","null","0.0977625843619272","0.7011193880965608","0.30844590006817285","0","","","","","","","","",""
"","html-keyboard-response","431","1102755","0.0-218.0-1.0","null","<p></p>","null","","","","","","","","","","","","","","","","","","","","","","","",""
"","do_recog","432","1105532","0.0-219.0-0.0","1270.8999999985099","","","","","","","","54","","","","434","probe-100","","","","","1","[object Object]","47","1","1","","","",""
"","html-keyboard-response","433","1106541","0.0-219.0-1.0","null","<p></p>","null","","","","","","","","","","","","","","","","","","","","","","","",""
"","do_trial","434","1109159","0.0-220.0-0.0","68.30000000074506","","","","","","","","50","1,1,0","6","blank","435","null","0.11170619281606424","0.6225763085678628","0.24109531523255545","1","","","","","","","","",""
"","html-keyboard-response","435","1110171","0.0-220.0-1.0","null","<p></p>","null","","","","","","","","","","","","","","","","","","","","","","","",""
"","do_trial","436","1112820","0.0-221.0-0.0","93.10000000149012","","","","","","","","50","0,1,0","6","blank","436","null","0.22393813950675248","0.6199456365108073","0.17305749828138603","1","","","","","","","","",""
"","html-keyboard-response","437","1113831","0.0-221.0-1.0","null","<p></p>","null","","","","","","","","","","","","","","","","","","","","","","","",""
"","do_trial","438","1116472","0.0-222.0-0.0","90","","","","","","","","50","0,0,0","6","blank","437","null","0.33479267741221125","0.589338567404403","0.28945062100617436","0","","","","","","","","",""
"","html-keyboard-response","439","1117482","0.0-222.0-1.0","null","<p></p>","null","","","","","","","","","","","","","","","","","","","","","","","",""
"","do_recog","440","1120190","0.0-223.0-0.0","1202.3999999985099","","","","","","","","54","","","","438","probe-124","","","","","1","[object Object]","81","2","1","","","",""
"","html-keyboard-response","441","1121205","0.0-223.0-1.0","null","<p></p>","null","","","","","","","","","","","","","","","","","","","","","","","",""
"","do_trial","442","1123786","0.0-224.0-0.0","36.40000000037253","","","","","","","","50","0,0,1","6","blank","439","null","0.1882921405265565","0.5393519647049708","0.34029862023410423","0","","","","","","","","",""
"","html-keyboard-response","443","1124796","0.0-224.0-1.0","null","<p></p>","null","","","","","","","","","","","","","","","","","","","","","","","",""
"","do_trial","444","1127347","0.0-225.0-0.0","0.09999999962747097","","","","","","","","50","1,1,1","6","blank","440","null","0.13035649948437683","0.5940160933975339","0.37316351134659853","1","","","","","","","","",""
"","html-keyboard-response","445","1128359","0.0-225.0-1.0","null","<p></p>","null","","","","","","","","","","","","","","","","","","","","","","","",""
"","do_trial","446","1131004","0.0-226.0-0.0","101.80000000074506","","","","","","","","50","1,1,0","6","blank","441","null","0.12608802100815866","0.461393992712796","0.34232634752382873","1","","","","","","","","",""
"","html-keyboard-response","447","1132021","0.0-226.0-1.0","null","<p></p>","null","","","","","","","","","","","","","","","","","","","","","","","",""
"","do_trial","448","1134652","0.0-227.0-0.0","92.29999999888241","","","","","","","","50","0,1,1","6","blank","442","null","0.055060452626052706","0.6598185017396011","0.42649177213205347","1","","","","","","","","",""
"","html-keyboard-response","449","1135668","0.0-227.0-1.0","null","<p></p>","null","","","","","","","","","","","","","","","","","","","","","","","",""
"","do_recog","450","1138047","0.0-228.0-0.0","860.7000000011176","","","","","","","","54","","","","443","probe-96","","","","","1","[object Object]","208","5","1","","","",""
"","html-keyboard-response","451","1139057","0.0-228.0-1.0","null","<p></p>","null","","","","","","","","","","","","","","","","","","","","","","","",""
"","do_trial","452","1141718","0.0-229.0-0.0","110.59999999962747","","","","","","","","50","0,0,0","6","blank","444","null","0.1837466933233083","0.6779608640733135","0.25475037330844","0","","","","","","","","",""
"","html-keyboard-response","453","1142728","0.0-229.0-1.0","null","<p></p>","null","","","","","","","","","","","","","","","","","","","","","","","",""
"","do_trial","454","1145358","0.0-230.0-0.0","74.20000000111759","","","","","","","","50","0,0,0","6","blank","445","null","0.26006249802068576","0.5620560089525285","0.32360250165158727","0","","","","","","","","",""
"","html-keyboard-response","455","1146369","0.0-230.0-1.0","null","<p></p>","null","","","","","","","","","","","","","","","","","","","","","","","",""
"","do_trial","456","1149029","0.0-231.0-0.0","117.90000000037253","","","","","","","","50","0,0,0","6","blank","446","null","0.1966591494994126","0.5880023953555243","0.4314110752427093","0","","","","","","","","",""
"","html-keyboard-response","457","1150043","0.0-231.0-1.0","null","<p></p>","null","","","","","","","","","","","","","","","","","","","","","","","",""
"","do_trial","458","1152611","0.0-232.0-0.0","25.5","","","","","","","","50","0,1,1","6","blank","447","null","0.2504911946613106","0.7465945587960998","0.4346311558746108","1","","","","","","","","",""
"","html-keyboard-response","459","1153618","0.0-232.0-1.0","null","<p></p>","null","","","","","","","","","","","","","","","","","","","","","","","",""
"","do_trial","460","1156257","0.0-233.0-0.0","83","","","","","","","","50","0,0,0","6","blank","448","null","0.15301098083230188","0.6731335904894946","0.3398582545941808","0","","","","","","","","",""
"","html-keyboard-response","461","1157265","0.0-233.0-1.0","null","<p></p>","null","","","","","","","","","","","","","","","","","","","","","","","",""
"","do_recog","462","1160406","0.0-234.0-0.0","1624.0999999996275","","","","","","","","54","","","","449","probe-119","","","","","1","[object Object]","46","1","1","","","",""
"","html-keyboard-response","463","1161410","0.0-234.0-1.0","null","<p></p>","null","","","","","","","","","","","","","","","","","","","","","","","",""
"","do_trial","464","1164125","0.0-235.0-0.0","161.40000000037253","","","","","","","","50","1,1,0","6","blank","450","null","0.28367566916753156","0.659658303784088","0.26569142393301626","1","","","","","","","","",""
"","html-keyboard-response","465","1165137","0.0-235.0-1.0","null","<p></p>","null","","","","","","","","","","","","","","","","","","","","","","","",""
"","do_trial","466","1167721","0.0-236.0-0.0","31","","","","","","","","50","0,1,1","6","blank","451","null","0.21533932068683503","0.695848937772542","0.4311557431127979","1","","","","","","","","",""
"","html-keyboard-response","467","1168733","0.0-236.0-1.0","null","<p></p>","null","","","","","","","","","","","","","","","","","","","","","","","",""
"","do_trial","468","1171334","0.0-237.0-0.0","55.19999999925494","","","","","","","","50","0,1,0","6","blank","452","null","0.20387945687592365","0.649234606598258","0.3673982120902932","1","","","","","","","","",""
"","html-keyboard-response","469","1172347","0.0-237.0-1.0","null","<p></p>","null","","","","","","","","","","","","","","","","","","","","","","","",""
"","do_trial","470","1174900","0.0-238.0-0.0","0.09999999962747097","","","","","","","","50","0,0,0","6","blank","453","null","0.14233348301740853","0.5377941434925093","0.30509223130436014","0","","","","","","","","",""
"","html-keyboard-response","471","1175909","0.0-238.0-1.0","null","<p></p>","null","","","","","","","","","","","","","","","","","","","","","","","",""
"","do_recog","472","1179051","0.0-239.0-0.0","1629","","","","","","","","54","","","","454","probe-83","","","","","1","[object Object]","167","4","1","","","",""
"","html-keyboard-response","473","1180063","0.0-239.0-1.0","null","<p></p>","null","","","","","","","","","","","","","","","","","","","","","","","",""
"","do_trial","474","1182790","0.0-240.0-0.0","177","","","","","","","","50","0,1,1","6","blank","455","null","0.12928223475000336","0.26067938764190624","0.5636879064544791","1","","","","","","","","",""
"","html-keyboard-response","475","1183801","0.0-240.0-1.0","null","<p></p>","null","","","","","","","","","","","","","","","","","","","","","","","",""
"","do_recog","476","1186620","0.0-241.0-0.0","1299.199999999255","","","","","","","","54","","","","456","probe-251","","","","","0","[object Object]","null","null","0","","","",""
"","html-keyboard-response","477","1187636","0.0-241.0-1.0","null","<p></p>","null","","","","","","","","","","","","","","","","","","","","","","","",""
"","do_trial","478","1190224","0.0-242.0-0.0","44.30000000074506","","","","","","","","50","0,0,1","6","blank","457","null","0.07133549046109261","0.3476912838327078","0.604172870496065","0","","","","","","","","",""
"","html-keyboard-response","479","1191236","0.0-242.0-1.0","null","<p></p>","null","","","","","","","","","","","","","","","","","","","","","","","",""
"","do_recog","480","1193780","0.0-243.0-0.0","1033.1000000014901","","","","","","","","54","","","","458","probe-243","","","","","0","[object Object]","null","null","0","","","",""
"","html-keyboard-response","481","1194793","0.0-243.0-1.0","null","<p></p>","null","","","","","","","","","","","","","","","","","","","","","","","",""
"","do_trial","482","1197487","0.0-244.0-0.0","145.30000000074506","","","","","","","","50","1,0,0","6","blank","459","null","0.29229668803620973","0.18719794156550393","0.5556690820798648","0","","","","","","","","",""
"","html-keyboard-response","483","1198499","0.0-244.0-1.0","null","<p></p>","null","","","","","","","","","","","","","","","","","","","","","","","",""
"","do_trial","484","1201102","0.0-245.0-0.0","53.899999998509884","","","","","","","","50","0,0,0","6","blank","460","null","0.3104190458970213","0.16893768301724688","0.6918739739629644","0","","","","","","","","",""
"","html-keyboard-response","485","1202113","0.0-245.0-1.0","null","<p></p>","null","","","","","","","","","","","","","","","","","","","","","","","",""
"","do_recog","486","1205019","0.0-246.0-0.0","1388.300000000745","","","","","","","","54","","","","461","probe-249","","","","","0","[object Object]","null","null","0","","","",""
"","html-keyboard-response","487","1206028","0.0-246.0-1.0","null","<p></p>","null","","","","","","","","","","","","","","","","","","","","","","","",""
"","do_trial","488","1208581","0.0-247.0-0.0","0.09999999962747097","","","","","","","","51","0,0,1","6","blank","462","null","0.3099055183845144","0.25403290195316247","0.5706483368878728","1","","","","","","","","",""
"","html-keyboard-response","489","1209593","0.0-247.0-1.0","null","<p></p>","null","","","","","","","","","","","","","","","","","","","","","","","",""
"","do_trial","490","1212435","0.0-248.0-0.0","299.19999999925494","","","","","","","","51","1,1,1","6","blank","463","null","0.3894920733555594","0.340446008039368","0.5645009991968714","1","","","","","","","","",""
"","html-keyboard-response","491","1213447","0.0-248.0-1.0","null","<p></p>","null","","","","","","","","","","","","","","","","","","","","","","","",""
"","do_trial","492","1216073","0.0-249.0-0.0","80.19999999925494","","","","","","","","51","0,0,1","6","blank","464","null","0.31959503670036665","0.3282705230268595","0.613468841676415","1","","","","","","","","",""
"","html-keyboard-response","493","1217082","0.0-249.0-1.0","null","<p></p>","null","","","","","","","","","","","","","","","","","","","","","","","",""
"","do_recog","494","1220737","0.0-250.0-0.0","2145.9000000003725","","","","","","","","54","","","","465","probe-248","","","","","0","[object Object]","null","null","0","","","",""
"","html-keyboard-response","495","1221746","0.0-250.0-1.0","null","<p></p>","null","","","","","","","","","","","","","","","","","","","","","","","",""
"","do_trial","496","1224431","0.0-251.0-0.0","131.10000000149012","","","","","","","","51","1,0,0","6","blank","466","null","0.449508131698079","0.20992598330247358","0.578574727082854","0","","","","","","","","",""
"","html-keyboard-response","497","1225443","0.0-251.0-1.0","null","<p></p>","null","","","","","","","","","","","","","","","","","","","","","","","",""
"","do_trial","498","1228049","0.0-252.0-0.0","57.899999998509884","","","","","","","","51","0,0,1","6","blank","467","null","0.39600862945120663","0.05368305301124245","0.7091073020489025","1","","","","","","","","",""
"","html-keyboard-response","499","1229059","0.0-252.0-1.0","null","<p></p>","null","","","","","","","","","","","","","","","","","","","","","","","",""
"","break","500","1238559","0.0-252.0-2.0","9498.5","<div class='center'><p>Time to take a quick break! You have 2 minutes to rest, but you can move on sooner if you'd like.</p><p> Press the <b>space bar</b> to continue.</p></div>","32","","","","","","","","","","","","","","","","","","","","","","","",""
"","do_trial","501","1242353","0.0-252.0-3.0","1243.800000000745","","","","","","","","51","0,0,0","6","blank","468","null","0.3949737078102792","0.19631048379742327","0.7771729698546085","0","","","","","","","","",""
"","html-keyboard-response","502","1243365","0.0-252.0-4.0","null","<p></p>","null","","","","","","","","","","","","","","","","","","","","","","","",""
"","do_trial","503","1246039","0.0-253.0-0.0","126.39999999850988","","","","","","","","51","0,0,0","6","blank","469","null","0.269883140666383","0.1615304548684609","0.6466334197368759","0","","","","","","","","",""
"","html-keyboard-response","504","1247055","0.0-253.0-1.0","null","<p></p>","null","","","","","","","","","","","","","","","","","","","","","","","",""
"","do_trial","505","1249594","0.0-254.0-0.0","0","","","","","","","","50","0,0,0","6","blank","470","null","0.20224271556034726","0.11805766133570521","0.6654737822961466","0","","","","","","","","",""
"","html-keyboard-response","506","1250608","0.0-254.0-1.0","null","<p></p>","null","","","","","","","","","","","","","","","","","","","","","","","",""
"","do_trial","507","1253160","0.0-255.0-0.0","0.19999999925494194","","","","","","","","50","0,0,0","6","blank","471","null","0.1654568839156417","0.10460078992406746","0.595302381289865","0","","","","","","","","",""
