"success","trial_type","trial_index","time_elapsed","internal_node_id","interactions","blur_events","focus_events","fullscreenenter_events","fullscreenexit_events","rt","stimulus","key_press","subject_id","participant_id","age","gender","prompt","response","choice_outcomes","context_n","context_img_id","trial_n","probe_img_id","pR_red","pR_white","pR_black","outcome","is_valid","image_to_show","probed_trial","probed_context","correct","probe","probed_trial_n","probed_context_n","context_im"
"true","fullscreen","0","3585","0.0-0.0","""event"",""trial"",""time""
""focus"",""0"",""0""
""blur"",""0"",""0""
""focus"",""0"",""0""
""blur"",""0"",""0""
""focus"",""0"",""0""
""blur"",""0"",""0""
""focus"",""0"",""0""
""blur"",""0"",""225""
""focus"",""0"",""1114""
""fullscreenenter"",""0"",""2810""
","""event"",""trial"",""time""
""blur"",""0"",""0""
""blur"",""0"",""0""
""blur"",""0"",""0""
""blur"",""0"",""225""
","""event"",""trial"",""time""
""focus"",""0"",""0""
""focus"",""0"",""0""
""focus"",""0"",""0""
""focus"",""0"",""0""
""focus"",""0"",""1114""
","""event"",""trial"",""time""
""fullscreenenter"",""0"",""2810""
","
","","","","","","","","","","","","","","","","","","","","","","","","","","",""
"","pavlovia","1","3588","0.0-1.0","""event"",""trial"",""time""
""focus"",""0"",""0""
""blur"",""0"",""0""
""focus"",""0"",""0""
""blur"",""0"",""0""
""focus"",""0"",""0""
""blur"",""0"",""0""
""focus"",""0"",""0""
""blur"",""0"",""225""
""focus"",""0"",""1114""
""fullscreenenter"",""0"",""2810""
""fullscreenexit"",""2"",""4177""
""blur"",""2"",""6097""
","""event"",""trial"",""time""
""blur"",""0"",""0""
""blur"",""0"",""0""
""blur"",""0"",""0""
""blur"",""0"",""225""
""blur"",""2"",""6097""
","""event"",""trial"",""time""
""focus"",""0"",""0""
""focus"",""0"",""0""
""focus"",""0"",""0""
""focus"",""0"",""0""
""focus"",""0"",""1114""
","""event"",""trial"",""time""
""fullscreenenter"",""0"",""2810""
","""event"",""trial"",""time""
""fullscreenexit"",""2"",""4177""
","","","","","","","","","","","","","","","","","","","","","","","","","","",""
"","welc_back","2","13443","0.0-2.0","""event"",""trial"",""time""
""focus"",""0"",""0""
""blur"",""0"",""0""
""focus"",""0"",""0""
""blur"",""0"",""0""
""focus"",""0"",""0""
""blur"",""0"",""0""
""focus"",""0"",""0""
""blur"",""0"",""225""
""focus"",""0"",""1114""
""fullscreenenter"",""0"",""2810""
""fullscreenexit"",""2"",""4177""
""blur"",""2"",""6097""
""focus"",""3"",""15812""
","""event"",""trial"",""time""
""blur"",""0"",""0""
""blur"",""0"",""0""
""blur"",""0"",""0""
""blur"",""0"",""225""
""blur"",""2"",""6097""
","""event"",""trial"",""time""
""focus"",""0"",""0""
""focus"",""0"",""0""
""focus"",""0"",""0""
""focus"",""0"",""0""
""focus"",""0"",""1114""
""focus"",""3"",""15812""
","""event"",""trial"",""time""
""fullscreenenter"",""0"",""2810""
","""event"",""trial"",""time""
""fullscreenexit"",""2"",""4177""
","null","run_exp/static/audio/clip_29_welcome_back.m4a","null","424","37","16","Male","<div class='center'><p>Welcome to day 2!</p><p> Yesterday, you were the head captain of a pirate ship. You asked your fellow pirates to rob other ships of their gold across six different islands.</p></div>","","","","","","","","","","","","","","","","","","",""
"","html-keyboard-response","3","17098","0.0-3.0","""event"",""trial"",""time""
""focus"",""0"",""0""
""blur"",""0"",""0""
""focus"",""0"",""0""
""blur"",""0"",""0""
""focus"",""0"",""0""
""blur"",""0"",""0""
""focus"",""0"",""0""
""blur"",""0"",""225""
""focus"",""0"",""1114""
""fullscreenenter"",""0"",""2810""
""fullscreenexit"",""2"",""4177""
""blur"",""2"",""6097""
""focus"",""3"",""15812""
""blur"",""4"",""18961""
""focus"",""4"",""29643""
","""event"",""trial"",""time""
""blur"",""0"",""0""
""blur"",""0"",""0""
""blur"",""0"",""0""
""blur"",""0"",""225""
""blur"",""2"",""6097""
""blur"",""4"",""18961""
","""event"",""trial"",""time""
""focus"",""0"",""0""
""focus"",""0"",""0""
""focus"",""0"",""0""
""focus"",""0"",""0""
""focus"",""0"",""1114""
""focus"",""3"",""15812""
""focus"",""4"",""29643""
","""event"",""trial"",""time""
""fullscreenenter"",""0"",""2810""
","""event"",""trial"",""time""
""fullscreenexit"",""2"",""4177""
","3652","<div class='center'><p>Welcome to day 2!</p><p> Yesterday, you were the head captain of a pirate ship. You asked your fellow pirates to rob other ships of their gold across six different islands.</p><p><b>[Press the space bar to continue]</b></p></div>","32","","","","","","","","","","","","","","","","","","","","","","","",""
"","day_1_summary_goal","4","34353","0.0-4.0","""event"",""trial"",""time""
""focus"",""0"",""0""
""blur"",""0"",""0""
""focus"",""0"",""0""
""blur"",""0"",""0""
""focus"",""0"",""0""
""blur"",""0"",""0""
""focus"",""0"",""0""
""blur"",""0"",""225""
""focus"",""0"",""1114""
""fullscreenenter"",""0"",""2810""
""fullscreenexit"",""2"",""4177""
""blur"",""2"",""6097""
""focus"",""3"",""15812""
""blur"",""4"",""18961""
""focus"",""4"",""29643""
","""event"",""trial"",""time""
""blur"",""0"",""0""
""blur"",""0"",""0""
""blur"",""0"",""0""
""blur"",""0"",""225""
""blur"",""2"",""6097""
""blur"",""4"",""18961""
","""event"",""trial"",""time""
""focus"",""0"",""0""
""focus"",""0"",""0""
""focus"",""0"",""0""
""focus"",""0"",""0""
""focus"",""0"",""1114""
""focus"",""3"",""15812""
""focus"",""4"",""29643""
","""event"",""trial"",""time""
""fullscreenenter"",""0"",""2810""
","""event"",""trial"",""time""
""fullscreenexit"",""2"",""4177""
","null","run_exp/static/audio/clip_30_goal_of_game.m4a","null","","","","","<div class='center'><p>Today, like yesterday, you get to pick which pirate you want to rob the next ship.</p><p>If the pirate is successful in robbing a ship, you get gold coins that look like this: </p><p><img src='run_exp/static/images/tutorial/reward.png' height='150'></p><p> If they were not successful in robbing the ship, then you will get no gold coins and you'll see a big red x like this: </p><p><img src='run_exp/static/images/tutorial/reward_no.png' height='150'></p></div>","","","","","","","","","","","","","","","","","","",""
"","html-keyboard-response","5","35337","0.0-5.0","""event"",""trial"",""time""
""focus"",""0"",""0""
""blur"",""0"",""0""
""focus"",""0"",""0""
""blur"",""0"",""0""
""focus"",""0"",""0""
""blur"",""0"",""0""
""focus"",""0"",""0""
""blur"",""0"",""225""
""focus"",""0"",""1114""
""fullscreenenter"",""0"",""2810""
""fullscreenexit"",""2"",""4177""
""blur"",""2"",""6097""
""focus"",""3"",""15812""
""blur"",""4"",""18961""
""focus"",""4"",""29643""
""blur"",""6"",""41250""
","""event"",""trial"",""time""
""blur"",""0"",""0""
""blur"",""0"",""0""
""blur"",""0"",""0""
""blur"",""0"",""225""
""blur"",""2"",""6097""
""blur"",""4"",""18961""
""blur"",""6"",""41250""
","""event"",""trial"",""time""
""focus"",""0"",""0""
""focus"",""0"",""0""
""focus"",""0"",""0""
""focus"",""0"",""0""
""focus"",""0"",""1114""
""focus"",""3"",""15812""
""focus"",""4"",""29643""
","""event"",""trial"",""time""
""fullscreenenter"",""0"",""2810""
","""event"",""trial"",""time""
""fullscreenexit"",""2"",""4177""
","977","<div class='center'><p>Today, like yesterday, you get to pick which pirate you want to rob the next ship.</p><p>If the pirate is successful in robbing a ship, you get gold coins that look like this: </p><p><img src='run_exp/static/images/tutorial/reward.png' height='150'></p><p> If they were not successful in robbing the ship, then you will get no gold coins and you'll see a big red x like this: </p><p><img src='run_exp/static/images/tutorial/reward_no.png' height='150'></p><p><b>[Press the space bar to continue]</b></p></div>","32","","","","","","","","","","","","","","","","","","","","","","","",""
"","day_1_summary_pick","6","50093","0.0-6.0","""event"",""trial"",""time""
""focus"",""0"",""0""
""blur"",""0"",""0""
""focus"",""0"",""0""
""blur"",""0"",""0""
""focus"",""0"",""0""
""blur"",""0"",""0""
""focus"",""0"",""0""
""blur"",""0"",""225""
""focus"",""0"",""1114""
""fullscreenenter"",""0"",""2810""
""fullscreenexit"",""2"",""4177""
""blur"",""2"",""6097""
""focus"",""3"",""15812""
""blur"",""4"",""18961""
""focus"",""4"",""29643""
""blur"",""6"",""41250""
""focus"",""7"",""56323""
","""event"",""trial"",""time""
""blur"",""0"",""0""
""blur"",""0"",""0""
""blur"",""0"",""0""
""blur"",""0"",""225""
""blur"",""2"",""6097""
""blur"",""4"",""18961""
""blur"",""6"",""41250""
","""event"",""trial"",""time""
""focus"",""0"",""0""
""focus"",""0"",""0""
""focus"",""0"",""0""
""focus"",""0"",""0""
""focus"",""0"",""1114""
""focus"",""3"",""15812""
""focus"",""4"",""29643""
""focus"",""7"",""56323""
","""event"",""trial"",""time""
""fullscreenenter"",""0"",""2810""
","""event"",""trial"",""time""
""fullscreenexit"",""2"",""4177""
","null","run_exp/static/audio/clip_31_how_to_pick_a_pirate.m4a","null","","","","","<div class='center'><p>Also, just like yesterday, you will use the 1,2,3 keys on your keyboard to pick a pirate. Press '1' to choose red beard, '2' to choose white beard, and '3' to choose black beard . You only have 3 seconds to pick a pirate, so please make a choice quickly!</p></div>","","","","","","","","","","","","","","","","","","",""
"","html-keyboard-response","7","57449","0.0-7.0","""event"",""trial"",""time""
""focus"",""0"",""0""
""blur"",""0"",""0""
""focus"",""0"",""0""
""blur"",""0"",""0""
""focus"",""0"",""0""
""blur"",""0"",""0""
""focus"",""0"",""0""
""blur"",""0"",""225""
""focus"",""0"",""1114""
""fullscreenenter"",""0"",""2810""
""fullscreenexit"",""2"",""4177""
""blur"",""2"",""6097""
""focus"",""3"",""15812""
""blur"",""4"",""18961""
""focus"",""4"",""29643""
""blur"",""6"",""41250""
""focus"",""7"",""56323""
""blur"",""8"",""58345""
","""event"",""trial"",""time""
""blur"",""0"",""0""
""blur"",""0"",""0""
""blur"",""0"",""0""
""blur"",""0"",""225""
""blur"",""2"",""6097""
""blur"",""4"",""18961""
""blur"",""6"",""41250""
""blur"",""8"",""58345""
","""event"",""trial"",""time""
""focus"",""0"",""0""
""focus"",""0"",""0""
""focus"",""0"",""0""
""focus"",""0"",""0""
""focus"",""0"",""1114""
""focus"",""3"",""15812""
""focus"",""4"",""29643""
""focus"",""7"",""56323""
","""event"",""trial"",""time""
""fullscreenenter"",""0"",""2810""
","""event"",""trial"",""time""
""fullscreenexit"",""2"",""4177""
","7354","<div class='center'><p>Also, just like yesterday, you will use the 1,2,3 keys on your keyboard to pick a pirate. Press '1' to choose red beard, '2' to choose white beard, and '3' to choose black beard . You only have 3 seconds to pick a pirate, so please make a choice quickly!</p><p><b>[Press the space bar to continue]</b></p></div>","32","","","","","","","","","","","","","","","","","","","","","","","",""
"","test_phase_begin","8","87892","0.0-8.0","""event"",""trial"",""time""
""focus"",""0"",""0""
""blur"",""0"",""0""
""focus"",""0"",""0""
""blur"",""0"",""0""
""focus"",""0"",""0""
""blur"",""0"",""0""
""focus"",""0"",""0""
""blur"",""0"",""225""
""focus"",""0"",""1114""
""fullscreenenter"",""0"",""2810""
""fullscreenexit"",""2"",""4177""
""blur"",""2"",""6097""
""focus"",""3"",""15812""
""blur"",""4"",""18961""
""focus"",""4"",""29643""
""blur"",""6"",""41250""
""focus"",""7"",""56323""
""blur"",""8"",""58345""
""focus"",""9"",""94747""
","""event"",""trial"",""time""
""blur"",""0"",""0""
""blur"",""0"",""0""
""blur"",""0"",""0""
""blur"",""0"",""225""
""blur"",""2"",""6097""
""blur"",""4"",""18961""
""blur"",""6"",""41250""
""blur"",""8"",""58345""
","""event"",""trial"",""time""
""focus"",""0"",""0""
""focus"",""0"",""0""
""focus"",""0"",""0""
""focus"",""0"",""0""
""focus"",""0"",""1114""
""focus"",""3"",""15812""
""focus"",""4"",""29643""
""focus"",""7"",""56323""
""focus"",""9"",""94747""
","""event"",""trial"",""time""
""fullscreenenter"",""0"",""2810""
","""event"",""trial"",""time""
""fullscreenexit"",""2"",""4177""
","null","run_exp/static/audio/clip_32_final_place.m4a","null","","","","","<div class='center'><p>You’ve arrived at the final island of your journey! Unfortunately, it’s very foggy out, so you won’t be able to see it in the distance like the other islands you've visited.</p><p>You’ll still be deciding which pirate you want to rob a ship like before. However, because of the fog, you also won’t be able to see the ship.</p><p>This means you do not have to remember the ships you rob on this island.</p><p>Unlike yesterday, you won't be visiting multiple islands today. You will stay on this island for the entire game. This game will last ~30 minutes.</p></div>","","","","","","","","","","","","","","","","","","",""
"","html-keyboard-response","9","95256","0.0-9.0","""event"",""trial"",""time""
""focus"",""0"",""0""
""blur"",""0"",""0""
""focus"",""0"",""0""
""blur"",""0"",""0""
""focus"",""0"",""0""
""blur"",""0"",""0""
""focus"",""0"",""0""
""blur"",""0"",""225""
""focus"",""0"",""1114""
""fullscreenenter"",""0"",""2810""
""fullscreenexit"",""2"",""4177""
""blur"",""2"",""6097""
""focus"",""3"",""15812""
""blur"",""4"",""18961""
""focus"",""4"",""29643""
""blur"",""6"",""41250""
""focus"",""7"",""56323""
""blur"",""8"",""58345""
""focus"",""9"",""94747""
""blur"",""10"",""96874""
","""event"",""trial"",""time""
""blur"",""0"",""0""
""blur"",""0"",""0""
""blur"",""0"",""0""
""blur"",""0"",""225""
""blur"",""2"",""6097""
""blur"",""4"",""18961""
""blur"",""6"",""41250""
""blur"",""8"",""58345""
""blur"",""10"",""96874""
","""event"",""trial"",""time""
""focus"",""0"",""0""
""focus"",""0"",""0""
""focus"",""0"",""0""
""focus"",""0"",""0""
""focus"",""0"",""1114""
""focus"",""3"",""15812""
""focus"",""4"",""29643""
""focus"",""7"",""56323""
""focus"",""9"",""94747""
","""event"",""trial"",""time""
""fullscreenenter"",""0"",""2810""
","""event"",""trial"",""time""
""fullscreenexit"",""2"",""4177""
","7363","<div class='center'><p>You’ve arrived at the final island of your journey! Unfortunately, it’s very foggy out, so you won’t be able to see it in the distance like the other islands you've visited.</p><p>You’ll still be deciding which pirate you want to rob a ship like before. However, because of the fog, you also won’t be able to see the ship.</p><p>This means you do not have to remember the ships you rob on this island.</p><p>Unlike yesterday, you won't be visiting multiple islands today. You will stay on this island for the entire game. This game will last ~30 minutes.</p><p><b>[Press the space bar to continue]</b></p></div>","32","","","","","","","","","","","","","","","","","","","","","","","",""
"","explain_probe_1","10","103019","0.0-10.0","""event"",""trial"",""time""
""focus"",""0"",""0""
""blur"",""0"",""0""
""focus"",""0"",""0""
""blur"",""0"",""0""
""focus"",""0"",""0""
""blur"",""0"",""0""
""focus"",""0"",""0""
""blur"",""0"",""225""
""focus"",""0"",""1114""
""fullscreenenter"",""0"",""2810""
""fullscreenexit"",""2"",""4177""
""blur"",""2"",""6097""
""focus"",""3"",""15812""
""blur"",""4"",""18961""
""focus"",""4"",""29643""
""blur"",""6"",""41250""
""focus"",""7"",""56323""
""blur"",""8"",""58345""
""focus"",""9"",""94747""
""blur"",""10"",""96874""
""focus"",""11"",""104033""
","""event"",""trial"",""time""
""blur"",""0"",""0""
""blur"",""0"",""0""
""blur"",""0"",""0""
""blur"",""0"",""225""
""blur"",""2"",""6097""
""blur"",""4"",""18961""
""blur"",""6"",""41250""
""blur"",""8"",""58345""
""blur"",""10"",""96874""
","""event"",""trial"",""time""
""focus"",""0"",""0""
""focus"",""0"",""0""
""focus"",""0"",""0""
""focus"",""0"",""0""
""focus"",""0"",""1114""
""focus"",""3"",""15812""
""focus"",""4"",""29643""
""focus"",""7"",""56323""
""focus"",""9"",""94747""
""focus"",""11"",""104033""
","""event"",""trial"",""time""
""fullscreenenter"",""0"",""2810""
","""event"",""trial"",""time""
""fullscreenexit"",""2"",""4177""
","null","run_exp/static/audio/clip_33_recognition_1.m4a","null","","","","","<div class='center'><p> Sometimes you’ll be shown a ship, and you will be asked if you saw this ship on a past island.</p><p> Here is an example of what you will see.</p><p><img src='run_exp/static/images/tutorial/example_recog_trial.png' height='500'></p></div>","","","","","","","","","","","","","","","","","","",""
"","html-keyboard-response","11","108776","0.0-11.0","""event"",""trial"",""time""
""focus"",""0"",""0""
""blur"",""0"",""0""
""focus"",""0"",""0""
""blur"",""0"",""0""
""focus"",""0"",""0""
""blur"",""0"",""0""
""focus"",""0"",""0""
""blur"",""0"",""225""
""focus"",""0"",""1114""
""fullscreenenter"",""0"",""2810""
""fullscreenexit"",""2"",""4177""
""blur"",""2"",""6097""
""focus"",""3"",""15812""
""blur"",""4"",""18961""
""focus"",""4"",""29643""
""blur"",""6"",""41250""
""focus"",""7"",""56323""
""blur"",""8"",""58345""
""focus"",""9"",""94747""
""blur"",""10"",""96874""
""focus"",""11"",""104033""
""blur"",""12"",""111433""
","""event"",""trial"",""time""
""blur"",""0"",""0""
""blur"",""0"",""0""
""blur"",""0"",""0""
""blur"",""0"",""225""
""blur"",""2"",""6097""
""blur"",""4"",""18961""
""blur"",""6"",""41250""
""blur"",""8"",""58345""
""blur"",""10"",""96874""
""blur"",""12"",""111433""
","""event"",""trial"",""time""
""focus"",""0"",""0""
""focus"",""0"",""0""
""focus"",""0"",""0""
""focus"",""0"",""0""
""focus"",""0"",""1114""
""focus"",""3"",""15812""
""focus"",""4"",""29643""
""focus"",""7"",""56323""
""focus"",""9"",""94747""
""focus"",""11"",""104033""
","""event"",""trial"",""time""
""fullscreenenter"",""0"",""2810""
","""event"",""trial"",""time""
""fullscreenexit"",""2"",""4177""
","5757","<div class='center'><p> Sometimes you’ll be shown a ship, and you will be asked if you saw this ship on a past island.</p><p> Here is an example of what you will see.</p><p><img src='run_exp/static/images/tutorial/example_recog_trial.png' height='500'></p><p><b>[Press the space bar to continue]</b></p></div>","32","","","","","","","","","","","","","","","","","","","","","","","",""
"","explain_probe_2","12","130541","0.0-12.0","""event"",""trial"",""time""
""focus"",""0"",""0""
""blur"",""0"",""0""
""focus"",""0"",""0""
""blur"",""0"",""0""
""focus"",""0"",""0""
""blur"",""0"",""0""
""focus"",""0"",""0""
""blur"",""0"",""225""
""focus"",""0"",""1114""
""fullscreenenter"",""0"",""2810""
""fullscreenexit"",""2"",""4177""
""blur"",""2"",""6097""
""focus"",""3"",""15812""
""blur"",""4"",""18961""
""focus"",""4"",""29643""
""blur"",""6"",""41250""
""focus"",""7"",""56323""
""blur"",""8"",""58345""
""focus"",""9"",""94747""
""blur"",""10"",""96874""
""focus"",""11"",""104033""
""blur"",""12"",""111433""
""focus"",""13"",""137083""
","""event"",""trial"",""time""
""blur"",""0"",""0""
""blur"",""0"",""0""
""blur"",""0"",""0""
""blur"",""0"",""225""
""blur"",""2"",""6097""
""blur"",""4"",""18961""
""blur"",""6"",""41250""
""blur"",""8"",""58345""
""blur"",""10"",""96874""
""blur"",""12"",""111433""
","""event"",""trial"",""time""
""focus"",""0"",""0""
""focus"",""0"",""0""
""focus"",""0"",""0""
""focus"",""0"",""0""
""focus"",""0"",""1114""
""focus"",""3"",""15812""
""focus"",""4"",""29643""
""focus"",""7"",""56323""
""focus"",""9"",""94747""
""focus"",""11"",""104033""
""focus"",""13"",""137083""
","""event"",""trial"",""time""
""fullscreenenter"",""0"",""2810""
","""event"",""trial"",""time""
""fullscreenexit"",""2"",""4177""
","null","run_exp/static/audio/clip_34_recognition_2.m4a","null","","","","","<div class='center'><p> You will press the 5, 6, 7, 8 keys on your keyboard to respond.</p><p>If you are sure you saw the ship, press <b>5</b> on your keyboard.</p><p> If you think you saw it before but aren't sure, then press <b>6</b>.</p><p> If you think you have <b>not</b> seen it before but aren't sure, then press <b>7</b>.</p><p> If you are sure you did <b>not</b> see the ship before, then press <b>8</b>.</p><p><img src='run_exp/static/images/tutorial/example_recog_trial.png' height='500'></p></div>","","","","","","","","","","","","","","","","","","",""
"","html-keyboard-response","13","137641","0.0-13.0","""event"",""trial"",""time""
""focus"",""0"",""0""
""blur"",""0"",""0""
""focus"",""0"",""0""
""blur"",""0"",""0""
""focus"",""0"",""0""
""blur"",""0"",""0""
""focus"",""0"",""0""
""blur"",""0"",""225""
""focus"",""0"",""1114""
""fullscreenenter"",""0"",""2810""
""fullscreenexit"",""2"",""4177""
""blur"",""2"",""6097""
""focus"",""3"",""15812""
""blur"",""4"",""18961""
""focus"",""4"",""29643""
""blur"",""6"",""41250""
""focus"",""7"",""56323""
""blur"",""8"",""58345""
""focus"",""9"",""94747""
""blur"",""10"",""96874""
""focus"",""11"",""104033""
""blur"",""12"",""111433""
""focus"",""13"",""137083""
""blur"",""14"",""139577""
""focus"",""14"",""152467""
","""event"",""trial"",""time""
""blur"",""0"",""0""
""blur"",""0"",""0""
""blur"",""0"",""0""
""blur"",""0"",""225""
""blur"",""2"",""6097""
""blur"",""4"",""18961""
""blur"",""6"",""41250""
""blur"",""8"",""58345""
""blur"",""10"",""96874""
""blur"",""12"",""111433""
""blur"",""14"",""139577""
","""event"",""trial"",""time""
""focus"",""0"",""0""
""focus"",""0"",""0""
""focus"",""0"",""0""
""focus"",""0"",""0""
""focus"",""0"",""1114""
""focus"",""3"",""15812""
""focus"",""4"",""29643""
""focus"",""7"",""56323""
""focus"",""9"",""94747""
""focus"",""11"",""104033""
""focus"",""13"",""137083""
""focus"",""14"",""152467""
","""event"",""trial"",""time""
""fullscreenenter"",""0"",""2810""
","""event"",""trial"",""time""
""fullscreenexit"",""2"",""4177""
","7097","<div class='center'><p> You will press the 5, 6, 7, 8 keys on your keyboard to respond.</p><p>If you are sure you saw the ship, press <b>5</b> on your keyboard.</p><p> If you think you saw it before but aren't sure, then press <b>6</b>.</p><p> If you think you have <b>not</b> seen it before but aren't sure, then press <b>7</b>.</p><p> If you are sure you did <b>not</b> see the ship before, then press <b>8</b>.</p><p><img src='run_exp/static/images/tutorial/example_recog_trial.png' height='500'></p><p><b>[Press the space bar to continue]</b></p></div>","32","","","","","","","","","","","","","","","","","","","","","","","",""
"","explain_outcome","14","154953","0.0-14.0","""event"",""trial"",""time""
""focus"",""0"",""0""
""blur"",""0"",""0""
""focus"",""0"",""0""
""blur"",""0"",""0""
""focus"",""0"",""0""
""blur"",""0"",""0""
""focus"",""0"",""0""
""blur"",""0"",""225""
""focus"",""0"",""1114""
""fullscreenenter"",""0"",""2810""
""fullscreenexit"",""2"",""4177""
""blur"",""2"",""6097""
""focus"",""3"",""15812""
""blur"",""4"",""18961""
""focus"",""4"",""29643""
""blur"",""6"",""41250""
""focus"",""7"",""56323""
""blur"",""8"",""58345""
""focus"",""9"",""94747""
""blur"",""10"",""96874""
""focus"",""11"",""104033""
""blur"",""12"",""111433""
""focus"",""13"",""137083""
""blur"",""14"",""139577""
""focus"",""14"",""152467""
","""event"",""trial"",""time""
""blur"",""0"",""0""
""blur"",""0"",""0""
""blur"",""0"",""0""
""blur"",""0"",""225""
""blur"",""2"",""6097""
""blur"",""4"",""18961""
""blur"",""6"",""41250""
""blur"",""8"",""58345""
""blur"",""10"",""96874""
""blur"",""12"",""111433""
""blur"",""14"",""139577""
","""event"",""trial"",""time""
""focus"",""0"",""0""
""focus"",""0"",""0""
""focus"",""0"",""0""
""focus"",""0"",""0""
""focus"",""0"",""1114""
""focus"",""3"",""15812""
""focus"",""4"",""29643""
""focus"",""7"",""56323""
""focus"",""9"",""94747""
""focus"",""11"",""104033""
""focus"",""13"",""137083""
""focus"",""14"",""152467""
","""event"",""trial"",""time""
""fullscreenenter"",""0"",""2810""
","""event"",""trial"",""time""
""fullscreenexit"",""2"",""4177""
","null","run_exp/static/audio/clip_35_recognition_3.m4a","null","","","","","<div class='center'><p> If you remember correctly, then you’ll get a gold coin like this: </p><p><img src='run_exp/static/images/tutorial/reward_small.png' height='200'></p><p>If you do not remember correctly, then you'll see a red x like this: </p><p><img src='run_exp/static/images/tutorial/reward_no.png' height='200'></p><p>Importantly, when you are shown a ship, take the time to remind yourself which island you saw it on. This will help you in the next part of the study.</p></div>","","","","","","","","","","","","","","","","","","",""
"","html-keyboard-response","15","155528","0.0-15.0","""event"",""trial"",""time""
""focus"",""0"",""0""
""blur"",""0"",""0""
""focus"",""0"",""0""
""blur"",""0"",""0""
""focus"",""0"",""0""
""blur"",""0"",""0""
""focus"",""0"",""0""
""blur"",""0"",""225""
""focus"",""0"",""1114""
""fullscreenenter"",""0"",""2810""
""fullscreenexit"",""2"",""4177""
""blur"",""2"",""6097""
""focus"",""3"",""15812""
""blur"",""4"",""18961""
""focus"",""4"",""29643""
""blur"",""6"",""41250""
""focus"",""7"",""56323""
""blur"",""8"",""58345""
""focus"",""9"",""94747""
""blur"",""10"",""96874""
""focus"",""11"",""104033""
""blur"",""12"",""111433""
""focus"",""13"",""137083""
""blur"",""14"",""139577""
""focus"",""14"",""152467""
","""event"",""trial"",""time""
""blur"",""0"",""0""
""blur"",""0"",""0""
""blur"",""0"",""0""
""blur"",""0"",""225""
""blur"",""2"",""6097""
""blur"",""4"",""18961""
""blur"",""6"",""41250""
""blur"",""8"",""58345""
""blur"",""10"",""96874""
""blur"",""12"",""111433""
""blur"",""14"",""139577""
","""event"",""trial"",""time""
""focus"",""0"",""0""
""focus"",""0"",""0""
""focus"",""0"",""0""
""focus"",""0"",""0""
""focus"",""0"",""1114""
""focus"",""3"",""15812""
""focus"",""4"",""29643""
""focus"",""7"",""56323""
""focus"",""9"",""94747""
""focus"",""11"",""104033""
""focus"",""13"",""137083""
""focus"",""14"",""152467""
","""event"",""trial"",""time""
""fullscreenenter"",""0"",""2810""
","""event"",""trial"",""time""
""fullscreenexit"",""2"",""4177""
","572","<div class='center'><p> If you remember correctly, then you’ll get a gold coin like this: </p><p><img src='run_exp/static/images/tutorial/reward_small.png' height='200'></p><p>If you do not remember correctly, then you'll see a red x like this: </p><p><img src='run_exp/static/images/tutorial/reward_no.png' height='200'></p><p>Importantly, when you are shown a ship, take the time to remind yourself which island you saw it on. This will help you in the next part of the study.</p><p><b>[Press the space bar to continue]</b></p></div>","32","","","","","","","","","","","","","","","","","","","","","","","",""
"","begin_test_phase","16","171401","0.0-16.0","""event"",""trial"",""time""
""focus"",""0"",""0""
""blur"",""0"",""0""
""focus"",""0"",""0""
""blur"",""0"",""0""
""focus"",""0"",""0""
""blur"",""0"",""0""
""focus"",""0"",""0""
""blur"",""0"",""225""
""focus"",""0"",""1114""
""fullscreenenter"",""0"",""2810""
""fullscreenexit"",""2"",""4177""
""blur"",""2"",""6097""
""focus"",""3"",""15812""
""blur"",""4"",""18961""
""focus"",""4"",""29643""
""blur"",""6"",""41250""
""focus"",""7"",""56323""
""blur"",""8"",""58345""
""focus"",""9"",""94747""
""blur"",""10"",""96874""
""focus"",""11"",""104033""
""blur"",""12"",""111433""
""focus"",""13"",""137083""
""blur"",""14"",""139577""
""focus"",""14"",""152467""
","""event"",""trial"",""time""
""blur"",""0"",""0""
""blur"",""0"",""0""
""blur"",""0"",""0""
""blur"",""0"",""225""
""blur"",""2"",""6097""
""blur"",""4"",""18961""
""blur"",""6"",""41250""
""blur"",""8"",""58345""
""blur"",""10"",""96874""
""blur"",""12"",""111433""
""blur"",""14"",""139577""
","""event"",""trial"",""time""
""focus"",""0"",""0""
""focus"",""0"",""0""
""focus"",""0"",""0""
""focus"",""0"",""0""
""focus"",""0"",""1114""
""focus"",""3"",""15812""
""focus"",""4"",""29643""
""focus"",""7"",""56323""
""focus"",""9"",""94747""
""focus"",""11"",""104033""
""focus"",""13"",""137083""
""focus"",""14"",""152467""
","""event"",""trial"",""time""
""fullscreenenter"",""0"",""2810""
","""event"",""trial"",""time""
""fullscreenexit"",""2"",""4177""
","null","run_exp/static/audio/clip_36_begin_final.m4a","null","","","","","<div class='center'><p>Let's go over the important points again. Your job is to: </p><p>1. Pick the pirate who is best at robbing ships and will bring you back gold coins. </p><p>2. Correctly remember whether or not you saw a ship before. If you did see the ship before, remind yourself on which island you saw it. </p></div>","","","","","","","","","","","","","","","","","","",""
"","html-keyboard-response","17","171848","0.0-17.0","""event"",""trial"",""time""
""focus"",""0"",""0""
""blur"",""0"",""0""
""focus"",""0"",""0""
""blur"",""0"",""0""
""focus"",""0"",""0""
""blur"",""0"",""0""
""focus"",""0"",""0""
""blur"",""0"",""225""
""focus"",""0"",""1114""
""fullscreenenter"",""0"",""2810""
""fullscreenexit"",""2"",""4177""
""blur"",""2"",""6097""
""focus"",""3"",""15812""
""blur"",""4"",""18961""
""focus"",""4"",""29643""
""blur"",""6"",""41250""
""focus"",""7"",""56323""
""blur"",""8"",""58345""
""focus"",""9"",""94747""
""blur"",""10"",""96874""
""focus"",""11"",""104033""
""blur"",""12"",""111433""
""focus"",""13"",""137083""
""blur"",""14"",""139577""
""focus"",""14"",""152467""
","""event"",""trial"",""time""
""blur"",""0"",""0""
""blur"",""0"",""0""
""blur"",""0"",""0""
""blur"",""0"",""225""
""blur"",""2"",""6097""
""blur"",""4"",""18961""
""blur"",""6"",""41250""
""blur"",""8"",""58345""
""blur"",""10"",""96874""
""blur"",""12"",""111433""
""blur"",""14"",""139577""
","""event"",""trial"",""time""
""focus"",""0"",""0""
""focus"",""0"",""0""
""focus"",""0"",""0""
""focus"",""0"",""0""
""focus"",""0"",""1114""
""focus"",""3"",""15812""
""focus"",""4"",""29643""
""focus"",""7"",""56323""
""focus"",""9"",""94747""
""focus"",""11"",""104033""
""focus"",""13"",""137083""
""focus"",""14"",""152467""
","""event"",""trial"",""time""
""fullscreenenter"",""0"",""2810""
","""event"",""trial"",""time""
""fullscreenexit"",""2"",""4177""
","387","<div class='center'><p>Let's go over the important points again. Your job is to: </p><p>1. Pick the pirate who is best at robbing ships and will bring you back gold coins. </p><p>2. Correctly remember whether or not you saw a ship before. If you did see the ship before, remind yourself on which island you saw it. </p><p><b>[Press the space bar to continue]</b></p></div>","32","","","","","","","","","","","","","","","","","","","","","","","",""
"","do_welcome","18","175889","0.0-18.0","""event"",""trial"",""time""
""focus"",""0"",""0""
""blur"",""0"",""0""
""focus"",""0"",""0""
""blur"",""0"",""0""
""focus"",""0"",""0""
""blur"",""0"",""0""
""focus"",""0"",""0""
""blur"",""0"",""225""
""focus"",""0"",""1114""
""fullscreenenter"",""0"",""2810""
""fullscreenexit"",""2"",""4177""
""blur"",""2"",""6097""
""focus"",""3"",""15812""
""blur"",""4"",""18961""
""focus"",""4"",""29643""
""blur"",""6"",""41250""
""focus"",""7"",""56323""
""blur"",""8"",""58345""
""focus"",""9"",""94747""
""blur"",""10"",""96874""
""focus"",""11"",""104033""
""blur"",""12"",""111433""
""focus"",""13"",""137083""
""blur"",""14"",""139577""
""focus"",""14"",""152467""
","""event"",""trial"",""time""
""blur"",""0"",""0""
""blur"",""0"",""0""
""blur"",""0"",""0""
""blur"",""0"",""225""
""blur"",""2"",""6097""
""blur"",""4"",""18961""
""blur"",""6"",""41250""
""blur"",""8"",""58345""
""blur"",""10"",""96874""
""blur"",""12"",""111433""
""blur"",""14"",""139577""
","""event"",""trial"",""time""
""focus"",""0"",""0""
""focus"",""0"",""0""
""focus"",""0"",""0""
""focus"",""0"",""0""
""focus"",""0"",""1114""
""focus"",""3"",""15812""
""focus"",""4"",""29643""
""focus"",""7"",""56323""
""focus"",""9"",""94747""
""focus"",""11"",""104033""
""focus"",""13"",""137083""
""focus"",""14"",""152467""
","""event"",""trial"",""time""
""fullscreenenter"",""0"",""2810""
","""event"",""trial"",""time""
""fullscreenexit"",""2"",""4177""
","null","","","","","","","","null","","","","","","","","","","","","","","","","","",""
"","do_trial","19","181943","0.0-19.0-0.0","""event"",""trial"",""time""
""focus"",""0"",""0""
""blur"",""0"",""0""
""focus"",""0"",""0""
""blur"",""0"",""0""
""focus"",""0"",""0""
""blur"",""0"",""0""
""focus"",""0"",""0""
""blur"",""0"",""225""
""focus"",""0"",""1114""
""fullscreenenter"",""0"",""2810""
""fullscreenexit"",""2"",""4177""
""blur"",""2"",""6097""
""focus"",""3"",""15812""
""blur"",""4"",""18961""
""focus"",""4"",""29643""
""blur"",""6"",""41250""
""focus"",""7"",""56323""
""blur"",""8"",""58345""
""focus"",""9"",""94747""
""blur"",""10"",""96874""
""focus"",""11"",""104033""
""blur"",""12"",""111433""
""focus"",""13"",""137083""
""blur"",""14"",""139577""
""focus"",""14"",""152467""
","""event"",""trial"",""time""
""blur"",""0"",""0""
""blur"",""0"",""0""
""blur"",""0"",""0""
""blur"",""0"",""225""
""blur"",""2"",""6097""
""blur"",""4"",""18961""
""blur"",""6"",""41250""
""blur"",""8"",""58345""
""blur"",""10"",""96874""
""blur"",""12"",""111433""
""blur"",""14"",""139577""
","""event"",""trial"",""time""
""focus"",""0"",""0""
""focus"",""0"",""0""
""focus"",""0"",""0""
""focus"",""0"",""0""
""focus"",""0"",""1114""
""focus"",""3"",""15812""
""focus"",""4"",""29643""
""focus"",""7"",""56323""
""focus"",""9"",""94747""
""focus"",""11"",""104033""
""focus"",""13"",""137083""
""focus"",""14"",""152467""
","""event"",""trial"",""time""
""fullscreenenter"",""0"",""2810""
","""event"",""trial"",""time""
""fullscreenexit"",""2"",""4177""
","null","","","","","","","","null","1,0,1","6","blank","230","null","0.6071935192329314","0.1957996617527787","0.3840620142263895","","","","","","","","","",""
"","html-keyboard-response","20","182946","0.0-19.0-1.0","""event"",""trial"",""time""
""focus"",""0"",""0""
""blur"",""0"",""0""
""focus"",""0"",""0""
""blur"",""0"",""0""
""focus"",""0"",""0""
""blur"",""0"",""0""
""focus"",""0"",""0""
""blur"",""0"",""225""
""focus"",""0"",""1114""
""fullscreenenter"",""0"",""2810""
""fullscreenexit"",""2"",""4177""
""blur"",""2"",""6097""
""focus"",""3"",""15812""
""blur"",""4"",""18961""
""focus"",""4"",""29643""
""blur"",""6"",""41250""
""focus"",""7"",""56323""
""blur"",""8"",""58345""
""focus"",""9"",""94747""
""blur"",""10"",""96874""
""focus"",""11"",""104033""
""blur"",""12"",""111433""
""focus"",""13"",""137083""
""blur"",""14"",""139577""
""focus"",""14"",""152467""
","""event"",""trial"",""time""
""blur"",""0"",""0""
""blur"",""0"",""0""
""blur"",""0"",""0""
""blur"",""0"",""225""
""blur"",""2"",""6097""
""blur"",""4"",""18961""
""blur"",""6"",""41250""
""blur"",""8"",""58345""
""blur"",""10"",""96874""
""blur"",""12"",""111433""
""blur"",""14"",""139577""
","""event"",""trial"",""time""
""focus"",""0"",""0""
""focus"",""0"",""0""
""focus"",""0"",""0""
""focus"",""0"",""0""
""focus"",""0"",""1114""
""focus"",""3"",""15812""
""focus"",""4"",""29643""
""focus"",""7"",""56323""
""focus"",""9"",""94747""
""focus"",""11"",""104033""
""focus"",""13"",""137083""
""focus"",""14"",""152467""
","""event"",""trial"",""time""
""fullscreenenter"",""0"",""2810""
","""event"",""trial"",""time""
""fullscreenexit"",""2"",""4177""
","null","<p></p>","null","","","","","","","","","","","","","","","","","","","","","","","",""
"","do_trial","21","185838","0.0-20.0-0.0","""event"",""trial"",""time""
""focus"",""0"",""0""
""blur"",""0"",""0""
""focus"",""0"",""0""
""blur"",""0"",""0""
""focus"",""0"",""0""
""blur"",""0"",""0""
""focus"",""0"",""0""
""blur"",""0"",""225""
""focus"",""0"",""1114""
""fullscreenenter"",""0"",""2810""
""fullscreenexit"",""2"",""4177""
""blur"",""2"",""6097""
""focus"",""3"",""15812""
""blur"",""4"",""18961""
""focus"",""4"",""29643""
""blur"",""6"",""41250""
""focus"",""7"",""56323""
""blur"",""8"",""58345""
""focus"",""9"",""94747""
""blur"",""10"",""96874""
""focus"",""11"",""104033""
""blur"",""12"",""111433""
""focus"",""13"",""137083""
""blur"",""14"",""139577""
""focus"",""14"",""152467""
","""event"",""trial"",""time""
""blur"",""0"",""0""
""blur"",""0"",""0""
""blur"",""0"",""0""
""blur"",""0"",""225""
""blur"",""2"",""6097""
""blur"",""4"",""18961""
""blur"",""6"",""41250""
""blur"",""8"",""58345""
""blur"",""10"",""96874""
""blur"",""12"",""111433""
""blur"",""14"",""139577""
","""event"",""trial"",""time""
""focus"",""0"",""0""
""focus"",""0"",""0""
""focus"",""0"",""0""
""focus"",""0"",""0""
""focus"",""0"",""1114""
""focus"",""3"",""15812""
""focus"",""4"",""29643""
""focus"",""7"",""56323""
""focus"",""9"",""94747""
""focus"",""11"",""104033""
""focus"",""13"",""137083""
""focus"",""14"",""152467""
","""event"",""trial"",""time""
""fullscreenenter"",""0"",""2810""
","""event"",""trial"",""time""
""fullscreenexit"",""2"",""4177""
","351","","","","","","","","49","1,0,0","6","blank","231","null","0.7757270793266474","0.0609293217789223","0.23088336459610032","1","","","","","","","","",""
"","html-keyboard-response","22","186839","0.0-20.0-1.0","""event"",""trial"",""time""
""focus"",""0"",""0""
""blur"",""0"",""0""
""focus"",""0"",""0""
""blur"",""0"",""0""
""focus"",""0"",""0""
""blur"",""0"",""0""
""focus"",""0"",""0""
""blur"",""0"",""225""
""focus"",""0"",""1114""
""fullscreenenter"",""0"",""2810""
""fullscreenexit"",""2"",""4177""
""blur"",""2"",""6097""
""focus"",""3"",""15812""
""blur"",""4"",""18961""
""focus"",""4"",""29643""
""blur"",""6"",""41250""
""focus"",""7"",""56323""
""blur"",""8"",""58345""
""focus"",""9"",""94747""
""blur"",""10"",""96874""
""focus"",""11"",""104033""
""blur"",""12"",""111433""
""focus"",""13"",""137083""
""blur"",""14"",""139577""
""focus"",""14"",""152467""
","""event"",""trial"",""time""
""blur"",""0"",""0""
""blur"",""0"",""0""
""blur"",""0"",""0""
""blur"",""0"",""225""
""blur"",""2"",""6097""
""blur"",""4"",""18961""
""blur"",""6"",""41250""
""blur"",""8"",""58345""
""blur"",""10"",""96874""
""blur"",""12"",""111433""
""blur"",""14"",""139577""
","""event"",""trial"",""time""
""focus"",""0"",""0""
""focus"",""0"",""0""
""focus"",""0"",""0""
""focus"",""0"",""0""
""focus"",""0"",""1114""
""focus"",""3"",""15812""
""focus"",""4"",""29643""
""focus"",""7"",""56323""
""focus"",""9"",""94747""
""focus"",""11"",""104033""
""focus"",""13"",""137083""
""focus"",""14"",""152467""
","""event"",""trial"",""time""
""fullscreenenter"",""0"",""2810""
","""event"",""trial"",""time""
""fullscreenexit"",""2"",""4177""
","null","<p></p>","null","","","","","","","","","","","","","","","","","","","","","","","",""
"","do_trial","23","190126","0.0-21.0-0.0","""event"",""trial"",""time""
""focus"",""0"",""0""
""blur"",""0"",""0""
""focus"",""0"",""0""
""blur"",""0"",""0""
""focus"",""0"",""0""
""blur"",""0"",""0""
""focus"",""0"",""0""
""blur"",""0"",""225""
""focus"",""0"",""1114""
""fullscreenenter"",""0"",""2810""
""fullscreenexit"",""2"",""4177""
""blur"",""2"",""6097""
""focus"",""3"",""15812""
""blur"",""4"",""18961""
""focus"",""4"",""29643""
""blur"",""6"",""41250""
""focus"",""7"",""56323""
""blur"",""8"",""58345""
""focus"",""9"",""94747""
""blur"",""10"",""96874""
""focus"",""11"",""104033""
""blur"",""12"",""111433""
""focus"",""13"",""137083""
""blur"",""14"",""139577""
""focus"",""14"",""152467""
","""event"",""trial"",""time""
""blur"",""0"",""0""
""blur"",""0"",""0""
""blur"",""0"",""0""
""blur"",""0"",""225""
""blur"",""2"",""6097""
""blur"",""4"",""18961""
""blur"",""6"",""41250""
""blur"",""8"",""58345""
""blur"",""10"",""96874""
""blur"",""12"",""111433""
""blur"",""14"",""139577""
","""event"",""trial"",""time""
""focus"",""0"",""0""
""focus"",""0"",""0""
""focus"",""0"",""0""
""focus"",""0"",""0""
""focus"",""0"",""1114""
""focus"",""3"",""15812""
""focus"",""4"",""29643""
""focus"",""7"",""56323""
""focus"",""9"",""94747""
""focus"",""11"",""104033""
""focus"",""13"",""137083""
""focus"",""14"",""152467""
","""event"",""trial"",""time""
""fullscreenenter"",""0"",""2810""
","""event"",""trial"",""time""
""fullscreenexit"",""2"",""4177""
","744","","","","","","","","49","0,1,0","6","blank","232","null","0.5888316319960137","0.2456315010397462","0.22371100084576703","0","","","","","","","","",""
"","html-keyboard-response","24","191128","0.0-21.0-1.0","""event"",""trial"",""time""
""focus"",""0"",""0""
""blur"",""0"",""0""
""focus"",""0"",""0""
""blur"",""0"",""0""
""focus"",""0"",""0""
""blur"",""0"",""0""
""focus"",""0"",""0""
""blur"",""0"",""225""
""focus"",""0"",""1114""
""fullscreenenter"",""0"",""2810""
""fullscreenexit"",""2"",""4177""
""blur"",""2"",""6097""
""focus"",""3"",""15812""
""blur"",""4"",""18961""
""focus"",""4"",""29643""
""blur"",""6"",""41250""
""focus"",""7"",""56323""
""blur"",""8"",""58345""
""focus"",""9"",""94747""
""blur"",""10"",""96874""
""focus"",""11"",""104033""
""blur"",""12"",""111433""
""focus"",""13"",""137083""
""blur"",""14"",""139577""
""focus"",""14"",""152467""
","""event"",""trial"",""time""
""blur"",""0"",""0""
""blur"",""0"",""0""
""blur"",""0"",""0""
""blur"",""0"",""225""
""blur"",""2"",""6097""
""blur"",""4"",""18961""
""blur"",""6"",""41250""
""blur"",""8"",""58345""
""blur"",""10"",""96874""
""blur"",""12"",""111433""
""blur"",""14"",""139577""
","""event"",""trial"",""time""
""focus"",""0"",""0""
""focus"",""0"",""0""
""focus"",""0"",""0""
""focus"",""0"",""0""
""focus"",""0"",""1114""
""focus"",""3"",""15812""
""focus"",""4"",""29643""
""focus"",""7"",""56323""
""focus"",""9"",""94747""
""focus"",""11"",""104033""
""focus"",""13"",""137083""
""focus"",""14"",""152467""
","""event"",""trial"",""time""
""fullscreenenter"",""0"",""2810""
","""event"",""trial"",""time""
""fullscreenexit"",""2"",""4177""
","null","<p></p>","null","","","","","","","","","","","","","","","","","","","","","","","",""
"","do_trial","25","194029","0.0-22.0-0.0","""event"",""trial"",""time""
""focus"",""0"",""0""
""blur"",""0"",""0""
""focus"",""0"",""0""
""blur"",""0"",""0""
""focus"",""0"",""0""
""blur"",""0"",""0""
""focus"",""0"",""0""
""blur"",""0"",""225""
""focus"",""0"",""1114""
""fullscreenenter"",""0"",""2810""
""fullscreenexit"",""2"",""4177""
""blur"",""2"",""6097""
""focus"",""3"",""15812""
""blur"",""4"",""18961""
""focus"",""4"",""29643""
""blur"",""6"",""41250""
""focus"",""7"",""56323""
""blur"",""8"",""58345""
""focus"",""9"",""94747""
""blur"",""10"",""96874""
""focus"",""11"",""104033""
""blur"",""12"",""111433""
""focus"",""13"",""137083""
""blur"",""14"",""139577""
""focus"",""14"",""152467""
","""event"",""trial"",""time""
""blur"",""0"",""0""
""blur"",""0"",""0""
""blur"",""0"",""0""
""blur"",""0"",""225""
""blur"",""2"",""6097""
""blur"",""4"",""18961""
""blur"",""6"",""41250""
""blur"",""8"",""58345""
""blur"",""10"",""96874""
""blur"",""12"",""111433""
""blur"",""14"",""139577""
","""event"",""trial"",""time""
""focus"",""0"",""0""
""focus"",""0"",""0""
""focus"",""0"",""0""
""focus"",""0"",""0""
""focus"",""0"",""1114""
""focus"",""3"",""15812""
""focus"",""4"",""29643""
""focus"",""7"",""56323""
""focus"",""9"",""94747""
""focus"",""11"",""104033""
""focus"",""13"",""137083""
""focus"",""14"",""152467""
","""event"",""trial"",""time""
""fullscreenenter"",""0"",""2810""
","""event"",""trial"",""time""
""fullscreenexit"",""2"",""4177""
","359","","","","","","","","50","1,1,0","6","blank","233","null","0.6044219054498329","0.14699405215634495","0.2116702274604805","1","","","","","","","","",""
"","html-keyboard-response","26","195030","0.0-22.0-1.0","""event"",""trial"",""time""
""focus"",""0"",""0""
""blur"",""0"",""0""
""focus"",""0"",""0""
""blur"",""0"",""0""
""focus"",""0"",""0""
""blur"",""0"",""0""
""focus"",""0"",""0""
""blur"",""0"",""225""
""focus"",""0"",""1114""
""fullscreenenter"",""0"",""2810""
""fullscreenexit"",""2"",""4177""
""blur"",""2"",""6097""
""focus"",""3"",""15812""
""blur"",""4"",""18961""
""focus"",""4"",""29643""
""blur"",""6"",""41250""
""focus"",""7"",""56323""
""blur"",""8"",""58345""
""focus"",""9"",""94747""
""blur"",""10"",""96874""
""focus"",""11"",""104033""
""blur"",""12"",""111433""
""focus"",""13"",""137083""
""blur"",""14"",""139577""
""focus"",""14"",""152467""
","""event"",""trial"",""time""
""blur"",""0"",""0""
""blur"",""0"",""0""
""blur"",""0"",""0""
""blur"",""0"",""225""
""blur"",""2"",""6097""
""blur"",""4"",""18961""
""blur"",""6"",""41250""
""blur"",""8"",""58345""
""blur"",""10"",""96874""
""blur"",""12"",""111433""
""blur"",""14"",""139577""
","""event"",""trial"",""time""
""focus"",""0"",""0""
""focus"",""0"",""0""
""focus"",""0"",""0""
""focus"",""0"",""0""
""focus"",""0"",""1114""
""focus"",""3"",""15812""
""focus"",""4"",""29643""
""focus"",""7"",""56323""
""focus"",""9"",""94747""
""focus"",""11"",""104033""
""focus"",""13"",""137083""
""focus"",""14"",""152467""
","""event"",""trial"",""time""
""fullscreenenter"",""0"",""2810""
","""event"",""trial"",""time""
""fullscreenexit"",""2"",""4177""
","null","<p></p>","null","","","","","","","","","","","","","","","","","","","","","","","",""
"","do_trial","27","197916","0.0-23.0-0.0","""event"",""trial"",""time""
""focus"",""0"",""0""
""blur"",""0"",""0""
""focus"",""0"",""0""
""blur"",""0"",""0""
""focus"",""0"",""0""
""blur"",""0"",""0""
""focus"",""0"",""0""
""blur"",""0"",""225""
""focus"",""0"",""1114""
""fullscreenenter"",""0"",""2810""
""fullscreenexit"",""2"",""4177""
""blur"",""2"",""6097""
""focus"",""3"",""15812""
""blur"",""4"",""18961""
""focus"",""4"",""29643""
""blur"",""6"",""41250""
""focus"",""7"",""56323""
""blur"",""8"",""58345""
""focus"",""9"",""94747""
""blur"",""10"",""96874""
""focus"",""11"",""104033""
""blur"",""12"",""111433""
""focus"",""13"",""137083""
""blur"",""14"",""139577""
""focus"",""14"",""152467""
","""event"",""trial"",""time""
""blur"",""0"",""0""
""blur"",""0"",""0""
""blur"",""0"",""0""
""blur"",""0"",""225""
""blur"",""2"",""6097""
""blur"",""4"",""18961""
""blur"",""6"",""41250""
""blur"",""8"",""58345""
""blur"",""10"",""96874""
""blur"",""12"",""111433""
""blur"",""14"",""139577""
","""event"",""trial"",""time""
""focus"",""0"",""0""
""focus"",""0"",""0""
""focus"",""0"",""0""
""focus"",""0"",""0""
""focus"",""0"",""1114""
""focus"",""3"",""15812""
""focus"",""4"",""29643""
""focus"",""7"",""56323""
""focus"",""9"",""94747""
""focus"",""11"",""104033""
""focus"",""13"",""137083""
""focus"",""14"",""152467""
","""event"",""trial"",""time""
""fullscreenenter"",""0"",""2810""
","""event"",""trial"",""time""
""fullscreenexit"",""2"",""4177""
","362","","","","","","","","50","1,0,0","6","blank","234","null","0.5922220450316565","0.19759416195156035","0.2321536632169634","0","","","","","","","","",""
"","html-keyboard-response","28","198918","0.0-23.0-1.0","""event"",""trial"",""time""
""focus"",""0"",""0""
""blur"",""0"",""0""
""focus"",""0"",""0""
""blur"",""0"",""0""
""focus"",""0"",""0""
""blur"",""0"",""0""
""focus"",""0"",""0""
""blur"",""0"",""225""
""focus"",""0"",""1114""
""fullscreenenter"",""0"",""2810""
""fullscreenexit"",""2"",""4177""
""blur"",""2"",""6097""
""focus"",""3"",""15812""
""blur"",""4"",""18961""
""focus"",""4"",""29643""
""blur"",""6"",""41250""
""focus"",""7"",""56323""
""blur"",""8"",""58345""
""focus"",""9"",""94747""
""blur"",""10"",""96874""
""focus"",""11"",""104033""
""blur"",""12"",""111433""
""focus"",""13"",""137083""
""blur"",""14"",""139577""
""focus"",""14"",""152467""
","""event"",""trial"",""time""
""blur"",""0"",""0""
""blur"",""0"",""0""
""blur"",""0"",""0""
""blur"",""0"",""225""
""blur"",""2"",""6097""
""blur"",""4"",""18961""
""blur"",""6"",""41250""
""blur"",""8"",""58345""
""blur"",""10"",""96874""
""blur"",""12"",""111433""
""blur"",""14"",""139577""
","""event"",""trial"",""time""
""focus"",""0"",""0""
""focus"",""0"",""0""
""focus"",""0"",""0""
""focus"",""0"",""0""
""focus"",""0"",""1114""
""focus"",""3"",""15812""
""focus"",""4"",""29643""
""focus"",""7"",""56323""
""focus"",""9"",""94747""
""focus"",""11"",""104033""
""focus"",""13"",""137083""
""focus"",""14"",""152467""
","""event"",""trial"",""time""
""fullscreenenter"",""0"",""2810""
","""event"",""trial"",""time""
""fullscreenexit"",""2"",""4177""
","null","<p></p>","null","","","","","","","","","","","","","","","","","","","","","","","",""
"","do_trial","29","201853","0.0-24.0-0.0","""event"",""trial"",""time""
""focus"",""0"",""0""
""blur"",""0"",""0""
""focus"",""0"",""0""
""blur"",""0"",""0""
""focus"",""0"",""0""
""blur"",""0"",""0""
""focus"",""0"",""0""
""blur"",""0"",""225""
""focus"",""0"",""1114""
""fullscreenenter"",""0"",""2810""
""fullscreenexit"",""2"",""4177""
""blur"",""2"",""6097""
""focus"",""3"",""15812""
""blur"",""4"",""18961""
""focus"",""4"",""29643""
""blur"",""6"",""41250""
""focus"",""7"",""56323""
""blur"",""8"",""58345""
""focus"",""9"",""94747""
""blur"",""10"",""96874""
""focus"",""11"",""104033""
""blur"",""12"",""111433""
""focus"",""13"",""137083""
""blur"",""14"",""139577""
""focus"",""14"",""152467""
","""event"",""trial"",""time""
""blur"",""0"",""0""
""blur"",""0"",""0""
""blur"",""0"",""0""
""blur"",""0"",""225""
""blur"",""2"",""6097""
""blur"",""4"",""18961""
""blur"",""6"",""41250""
""blur"",""8"",""58345""
""blur"",""10"",""96874""
""blur"",""12"",""111433""
""blur"",""14"",""139577""
","""event"",""trial"",""time""
""focus"",""0"",""0""
""focus"",""0"",""0""
""focus"",""0"",""0""
""focus"",""0"",""0""
""focus"",""0"",""1114""
""focus"",""3"",""15812""
""focus"",""4"",""29643""
""focus"",""7"",""56323""
""focus"",""9"",""94747""
""focus"",""11"",""104033""
""focus"",""13"",""137083""
""focus"",""14"",""152467""
","""event"",""trial"",""time""
""fullscreenenter"",""0"",""2810""
","""event"",""trial"",""time""
""fullscreenexit"",""2"",""4177""
","389","","","","","","","","51","1,1,0","6","blank","235","null","0.6780004365909774","0.19813862450715763","0.39408360999659264","0","","","","","","","","",""
"","html-keyboard-response","30","202854","0.0-24.0-1.0","""event"",""trial"",""time""
""focus"",""0"",""0""
""blur"",""0"",""0""
""focus"",""0"",""0""
""blur"",""0"",""0""
""focus"",""0"",""0""
""blur"",""0"",""0""
""focus"",""0"",""0""
""blur"",""0"",""225""
""focus"",""0"",""1114""
""fullscreenenter"",""0"",""2810""
""fullscreenexit"",""2"",""4177""
""blur"",""2"",""6097""
""focus"",""3"",""15812""
""blur"",""4"",""18961""
""focus"",""4"",""29643""
""blur"",""6"",""41250""
""focus"",""7"",""56323""
""blur"",""8"",""58345""
""focus"",""9"",""94747""
""blur"",""10"",""96874""
""focus"",""11"",""104033""
""blur"",""12"",""111433""
""focus"",""13"",""137083""
""blur"",""14"",""139577""
""focus"",""14"",""152467""
","""event"",""trial"",""time""
""blur"",""0"",""0""
""blur"",""0"",""0""
""blur"",""0"",""0""
""blur"",""0"",""225""
""blur"",""2"",""6097""
""blur"",""4"",""18961""
""blur"",""6"",""41250""
""blur"",""8"",""58345""
""blur"",""10"",""96874""
""blur"",""12"",""111433""
""blur"",""14"",""139577""
","""event"",""trial"",""time""
""focus"",""0"",""0""
""focus"",""0"",""0""
""focus"",""0"",""0""
""focus"",""0"",""0""
""focus"",""0"",""1114""
""focus"",""3"",""15812""
""focus"",""4"",""29643""
""focus"",""7"",""56323""
""focus"",""9"",""94747""
""focus"",""11"",""104033""
""focus"",""13"",""137083""
""focus"",""14"",""152467""
","""event"",""trial"",""time""
""fullscreenenter"",""0"",""2810""
","""event"",""trial"",""time""
""fullscreenexit"",""2"",""4177""
","null","<p></p>","null","","","","","","","","","","","","","","","","","","","","","","","",""
"","do_trial","31","205741","0.0-25.0-0.0","""event"",""trial"",""time""
""focus"",""0"",""0""
""blur"",""0"",""0""
""focus"",""0"",""0""
""blur"",""0"",""0""
""focus"",""0"",""0""
""blur"",""0"",""0""
""focus"",""0"",""0""
""blur"",""0"",""225""
""focus"",""0"",""1114""
""fullscreenenter"",""0"",""2810""
""fullscreenexit"",""2"",""4177""
""blur"",""2"",""6097""
""focus"",""3"",""15812""
""blur"",""4"",""18961""
""focus"",""4"",""29643""
""blur"",""6"",""41250""
""focus"",""7"",""56323""
""blur"",""8"",""58345""
""focus"",""9"",""94747""
""blur"",""10"",""96874""
""focus"",""11"",""104033""
""blur"",""12"",""111433""
""focus"",""13"",""137083""
""blur"",""14"",""139577""
""focus"",""14"",""152467""
","""event"",""trial"",""time""
""blur"",""0"",""0""
""blur"",""0"",""0""
""blur"",""0"",""0""
""blur"",""0"",""225""
""blur"",""2"",""6097""
""blur"",""4"",""18961""
""blur"",""6"",""41250""
""blur"",""8"",""58345""
""blur"",""10"",""96874""
""blur"",""12"",""111433""
""blur"",""14"",""139577""
","""event"",""trial"",""time""
""focus"",""0"",""0""
""focus"",""0"",""0""
""focus"",""0"",""0""
""focus"",""0"",""0""
""focus"",""0"",""1114""
""focus"",""3"",""15812""
""focus"",""4"",""29643""
""focus"",""7"",""56323""
""focus"",""9"",""94747""
""focus"",""11"",""104033""
""focus"",""13"",""137083""
""focus"",""14"",""152467""
","""event"",""trial"",""time""
""fullscreenenter"",""0"",""2810""
","""event"",""trial"",""time""
""fullscreenexit"",""2"",""4177""
","357","","","","","","","","49","0,0,0","6","blank","236","null","0.7185805410457402","0.2186611026688878","0.45159685357615803","0","","","","","","","","",""
"","html-keyboard-response","32","206741","0.0-25.0-1.0","""event"",""trial"",""time""
""focus"",""0"",""0""
""blur"",""0"",""0""
""focus"",""0"",""0""
""blur"",""0"",""0""
""focus"",""0"",""0""
""blur"",""0"",""0""
""focus"",""0"",""0""
""blur"",""0"",""225""
""focus"",""0"",""1114""
""fullscreenenter"",""0"",""2810""
""fullscreenexit"",""2"",""4177""
""blur"",""2"",""6097""
""focus"",""3"",""15812""
""blur"",""4"",""18961""
""focus"",""4"",""29643""
""blur"",""6"",""41250""
""focus"",""7"",""56323""
""blur"",""8"",""58345""
""focus"",""9"",""94747""
""blur"",""10"",""96874""
""focus"",""11"",""104033""
""blur"",""12"",""111433""
""focus"",""13"",""137083""
""blur"",""14"",""139577""
""focus"",""14"",""152467""
","""event"",""trial"",""time""
""blur"",""0"",""0""
""blur"",""0"",""0""
""blur"",""0"",""0""
""blur"",""0"",""225""
""blur"",""2"",""6097""
""blur"",""4"",""18961""
""blur"",""6"",""41250""
""blur"",""8"",""58345""
""blur"",""10"",""96874""
""blur"",""12"",""111433""
""blur"",""14"",""139577""
","""event"",""trial"",""time""
""focus"",""0"",""0""
""focus"",""0"",""0""
""focus"",""0"",""0""
""focus"",""0"",""0""
""focus"",""0"",""1114""
""focus"",""3"",""15812""
""focus"",""4"",""29643""
""focus"",""7"",""56323""
""focus"",""9"",""94747""
""focus"",""11"",""104033""
""focus"",""13"",""137083""
""focus"",""14"",""152467""
","""event"",""trial"",""time""
""fullscreenenter"",""0"",""2810""
","""event"",""trial"",""time""
""fullscreenexit"",""2"",""4177""
","null","<p></p>","null","","","","","","","","","","","","","","","","","","","","","","","",""
"","do_trial","33","209628","0.0-26.0-0.0","""event"",""trial"",""time""
""focus"",""0"",""0""
""blur"",""0"",""0""
""focus"",""0"",""0""
""blur"",""0"",""0""
""focus"",""0"",""0""
""blur"",""0"",""0""
""focus"",""0"",""0""
""blur"",""0"",""225""
""focus"",""0"",""1114""
""fullscreenenter"",""0"",""2810""
""fullscreenexit"",""2"",""4177""
""blur"",""2"",""6097""
""focus"",""3"",""15812""
""blur"",""4"",""18961""
""focus"",""4"",""29643""
""blur"",""6"",""41250""
""focus"",""7"",""56323""
""blur"",""8"",""58345""
""focus"",""9"",""94747""
""blur"",""10"",""96874""
""focus"",""11"",""104033""
""blur"",""12"",""111433""
""focus"",""13"",""137083""
""blur"",""14"",""139577""
""focus"",""14"",""152467""
","""event"",""trial"",""time""
""blur"",""0"",""0""
""blur"",""0"",""0""
""blur"",""0"",""0""
""blur"",""0"",""225""
""blur"",""2"",""6097""
""blur"",""4"",""18961""
""blur"",""6"",""41250""
""blur"",""8"",""58345""
""blur"",""10"",""96874""
""blur"",""12"",""111433""
""blur"",""14"",""139577""
","""event"",""trial"",""time""
""focus"",""0"",""0""
""focus"",""0"",""0""
""focus"",""0"",""0""
""focus"",""0"",""0""
""focus"",""0"",""1114""
""focus"",""3"",""15812""
""focus"",""4"",""29643""
""focus"",""7"",""56323""
""focus"",""9"",""94747""
""focus"",""11"",""104033""
""focus"",""13"",""137083""
""focus"",""14"",""152467""
","""event"",""trial"",""time""
""fullscreenenter"",""0"",""2810""
","""event"",""trial"",""time""
""fullscreenexit"",""2"",""4177""
","350","","","","","","","","50","1,0,0","6","blank","237","null","0.5959870788516304","0.09374545356531318","0.41597438222530947","0","","","","","","","","",""
"","html-keyboard-response","34","210630","0.0-26.0-1.0","""event"",""trial"",""time""
""focus"",""0"",""0""
""blur"",""0"",""0""
""focus"",""0"",""0""
""blur"",""0"",""0""
""focus"",""0"",""0""
""blur"",""0"",""0""
""focus"",""0"",""0""
""blur"",""0"",""225""
""focus"",""0"",""1114""
""fullscreenenter"",""0"",""2810""
""fullscreenexit"",""2"",""4177""
""blur"",""2"",""6097""
""focus"",""3"",""15812""
""blur"",""4"",""18961""
""focus"",""4"",""29643""
""blur"",""6"",""41250""
""focus"",""7"",""56323""
""blur"",""8"",""58345""
""focus"",""9"",""94747""
""blur"",""10"",""96874""
""focus"",""11"",""104033""
""blur"",""12"",""111433""
""focus"",""13"",""137083""
""blur"",""14"",""139577""
""focus"",""14"",""152467""
","""event"",""trial"",""time""
""blur"",""0"",""0""
""blur"",""0"",""0""
""blur"",""0"",""0""
""blur"",""0"",""225""
""blur"",""2"",""6097""
""blur"",""4"",""18961""
""blur"",""6"",""41250""
""blur"",""8"",""58345""
""blur"",""10"",""96874""
""blur"",""12"",""111433""
""blur"",""14"",""139577""
","""event"",""trial"",""time""
""focus"",""0"",""0""
""focus"",""0"",""0""
""focus"",""0"",""0""
""focus"",""0"",""0""
""focus"",""0"",""1114""
""focus"",""3"",""15812""
""focus"",""4"",""29643""
""focus"",""7"",""56323""
""focus"",""9"",""94747""
""focus"",""11"",""104033""
""focus"",""13"",""137083""
""focus"",""14"",""152467""
","""event"",""trial"",""time""
""fullscreenenter"",""0"",""2810""
","""event"",""trial"",""time""
""fullscreenexit"",""2"",""4177""
","null","<p></p>","null","","","","","","","","","","","","","","","","","","","","","","","",""
"","do_trial","35","213564","0.0-27.0-0.0","""event"",""trial"",""time""
""focus"",""0"",""0""
""blur"",""0"",""0""
""focus"",""0"",""0""
""blur"",""0"",""0""
""focus"",""0"",""0""
""blur"",""0"",""0""
""focus"",""0"",""0""
""blur"",""0"",""225""
""focus"",""0"",""1114""
""fullscreenenter"",""0"",""2810""
""fullscreenexit"",""2"",""4177""
""blur"",""2"",""6097""
""focus"",""3"",""15812""
""blur"",""4"",""18961""
""focus"",""4"",""29643""
""blur"",""6"",""41250""
""focus"",""7"",""56323""
""blur"",""8"",""58345""
""focus"",""9"",""94747""
""blur"",""10"",""96874""
""focus"",""11"",""104033""
""blur"",""12"",""111433""
""focus"",""13"",""137083""
""blur"",""14"",""139577""
""focus"",""14"",""152467""
","""event"",""trial"",""time""
""blur"",""0"",""0""
""blur"",""0"",""0""
""blur"",""0"",""0""
""blur"",""0"",""225""
""blur"",""2"",""6097""
""blur"",""4"",""18961""
""blur"",""6"",""41250""
""blur"",""8"",""58345""
""blur"",""10"",""96874""
""blur"",""12"",""111433""
""blur"",""14"",""139577""
","""event"",""trial"",""time""
""focus"",""0"",""0""
""focus"",""0"",""0""
""focus"",""0"",""0""
""focus"",""0"",""0""
""focus"",""0"",""1114""
""focus"",""3"",""15812""
""focus"",""4"",""29643""
""focus"",""7"",""56323""
""focus"",""9"",""94747""
""focus"",""11"",""104033""
""focus"",""13"",""137083""
""focus"",""14"",""152467""
","""event"",""trial"",""time""
""fullscreenenter"",""0"",""2810""
","""event"",""trial"",""time""
""fullscreenexit"",""2"",""4177""
","391","","","","","","","","49","1,0,0","6","blank","238","null","0.595909789385555","0.19154667799672076","0.3136117469345948","1","","","","","","","","",""
"","html-keyboard-response","36","214565","0.0-27.0-1.0","""event"",""trial"",""time""
""focus"",""0"",""0""
""blur"",""0"",""0""
""focus"",""0"",""0""
""blur"",""0"",""0""
""focus"",""0"",""0""
""blur"",""0"",""0""
""focus"",""0"",""0""
""blur"",""0"",""225""
""focus"",""0"",""1114""
""fullscreenenter"",""0"",""2810""
""fullscreenexit"",""2"",""4177""
""blur"",""2"",""6097""
""focus"",""3"",""15812""
""blur"",""4"",""18961""
""focus"",""4"",""29643""
""blur"",""6"",""41250""
""focus"",""7"",""56323""
""blur"",""8"",""58345""
""focus"",""9"",""94747""
""blur"",""10"",""96874""
""focus"",""11"",""104033""
""blur"",""12"",""111433""
""focus"",""13"",""137083""
""blur"",""14"",""139577""
""focus"",""14"",""152467""
","""event"",""trial"",""time""
""blur"",""0"",""0""
""blur"",""0"",""0""
""blur"",""0"",""0""
""blur"",""0"",""225""
""blur"",""2"",""6097""
""blur"",""4"",""18961""
""blur"",""6"",""41250""
""blur"",""8"",""58345""
""blur"",""10"",""96874""
""blur"",""12"",""111433""
""blur"",""14"",""139577""
","""event"",""trial"",""time""
""focus"",""0"",""0""
""focus"",""0"",""0""
""focus"",""0"",""0""
""focus"",""0"",""0""
""focus"",""0"",""1114""
""focus"",""3"",""15812""
""focus"",""4"",""29643""
""focus"",""7"",""56323""
""focus"",""9"",""94747""
""focus"",""11"",""104033""
""focus"",""13"",""137083""
""focus"",""14"",""152467""
","""event"",""trial"",""time""
""fullscreenenter"",""0"",""2810""
","""event"",""trial"",""time""
""fullscreenexit"",""2"",""4177""
","null","<p></p>","null","","","","","","","","","","","","","","","","","","","","","","","",""
"","do_trial","37","217469","0.0-28.0-0.0","""event"",""trial"",""time""
""focus"",""0"",""0""
""blur"",""0"",""0""
""focus"",""0"",""0""
""blur"",""0"",""0""
""focus"",""0"",""0""
""blur"",""0"",""0""
""focus"",""0"",""0""
""blur"",""0"",""225""
""focus"",""0"",""1114""
""fullscreenenter"",""0"",""2810""
""fullscreenexit"",""2"",""4177""
""blur"",""2"",""6097""
""focus"",""3"",""15812""
""blur"",""4"",""18961""
""focus"",""4"",""29643""
""blur"",""6"",""41250""
""focus"",""7"",""56323""
""blur"",""8"",""58345""
""focus"",""9"",""94747""
""blur"",""10"",""96874""
""focus"",""11"",""104033""
""blur"",""12"",""111433""
""focus"",""13"",""137083""
""blur"",""14"",""139577""
""focus"",""14"",""152467""
","""event"",""trial"",""time""
""blur"",""0"",""0""
""blur"",""0"",""0""
""blur"",""0"",""0""
""blur"",""0"",""225""
""blur"",""2"",""6097""
""blur"",""4"",""18961""
""blur"",""6"",""41250""
""blur"",""8"",""58345""
""blur"",""10"",""96874""
""blur"",""12"",""111433""
""blur"",""14"",""139577""
","""event"",""trial"",""time""
""focus"",""0"",""0""
""focus"",""0"",""0""
""focus"",""0"",""0""
""focus"",""0"",""0""
""focus"",""0"",""1114""
""focus"",""3"",""15812""
""focus"",""4"",""29643""
""focus"",""7"",""56323""
""focus"",""9"",""94747""
""focus"",""11"",""104033""
""focus"",""13"",""137083""
""focus"",""14"",""152467""
","""event"",""trial"",""time""
""fullscreenenter"",""0"",""2810""
","""event"",""trial"",""time""
""fullscreenexit"",""2"",""4177""
","367","","","","","","","","49","1,1,0","6","blank","239","null","0.5959585564404233","0.2742897662597771","0.1474425419749576","1","","","","","","","","",""
"","html-keyboard-response","38","218472","0.0-28.0-1.0","""event"",""trial"",""time""
""focus"",""0"",""0""
""blur"",""0"",""0""
""focus"",""0"",""0""
""blur"",""0"",""0""
""focus"",""0"",""0""
""blur"",""0"",""0""
""focus"",""0"",""0""
""blur"",""0"",""225""
""focus"",""0"",""1114""
""fullscreenenter"",""0"",""2810""
""fullscreenexit"",""2"",""4177""
""blur"",""2"",""6097""
""focus"",""3"",""15812""
""blur"",""4"",""18961""
""focus"",""4"",""29643""
""blur"",""6"",""41250""
""focus"",""7"",""56323""
""blur"",""8"",""58345""
""focus"",""9"",""94747""
""blur"",""10"",""96874""
""focus"",""11"",""104033""
""blur"",""12"",""111433""
""focus"",""13"",""137083""
""blur"",""14"",""139577""
""focus"",""14"",""152467""
","""event"",""trial"",""time""
""blur"",""0"",""0""
""blur"",""0"",""0""
""blur"",""0"",""0""
""blur"",""0"",""225""
""blur"",""2"",""6097""
""blur"",""4"",""18961""
""blur"",""6"",""41250""
""blur"",""8"",""58345""
""blur"",""10"",""96874""
""blur"",""12"",""111433""
""blur"",""14"",""139577""
","""event"",""trial"",""time""
""focus"",""0"",""0""
""focus"",""0"",""0""
""focus"",""0"",""0""
""focus"",""0"",""0""
""focus"",""0"",""1114""
""focus"",""3"",""15812""
""focus"",""4"",""29643""
""focus"",""7"",""56323""
""focus"",""9"",""94747""
""focus"",""11"",""104033""
""focus"",""13"",""137083""
""focus"",""14"",""152467""
","""event"",""trial"",""time""
""fullscreenenter"",""0"",""2810""
","""event"",""trial"",""time""
""fullscreenexit"",""2"",""4177""
","null","<p></p>","null","","","","","","","","","","","","","","","","","","","","","","","",""
"","do_trial","39","221516","0.0-29.0-0.0","""event"",""trial"",""time""
""focus"",""0"",""0""
""blur"",""0"",""0""
""focus"",""0"",""0""
""blur"",""0"",""0""
""focus"",""0"",""0""
""blur"",""0"",""0""
""focus"",""0"",""0""
""blur"",""0"",""225""
""focus"",""0"",""1114""
""fullscreenenter"",""0"",""2810""
""fullscreenexit"",""2"",""4177""
""blur"",""2"",""6097""
""focus"",""3"",""15812""
""blur"",""4"",""18961""
""focus"",""4"",""29643""
""blur"",""6"",""41250""
""focus"",""7"",""56323""
""blur"",""8"",""58345""
""focus"",""9"",""94747""
""blur"",""10"",""96874""
""focus"",""11"",""104033""
""blur"",""12"",""111433""
""focus"",""13"",""137083""
""blur"",""14"",""139577""
""focus"",""14"",""152467""
","""event"",""trial"",""time""
""blur"",""0"",""0""
""blur"",""0"",""0""
""blur"",""0"",""0""
""blur"",""0"",""225""
""blur"",""2"",""6097""
""blur"",""4"",""18961""
""blur"",""6"",""41250""
""blur"",""8"",""58345""
""blur"",""10"",""96874""
""blur"",""12"",""111433""
""blur"",""14"",""139577""
","""event"",""trial"",""time""
""focus"",""0"",""0""
""focus"",""0"",""0""
""focus"",""0"",""0""
""focus"",""0"",""0""
""focus"",""0"",""1114""
""focus"",""3"",""15812""
""focus"",""4"",""29643""
""focus"",""7"",""56323""
""focus"",""9"",""94747""
""focus"",""11"",""104033""
""focus"",""13"",""137083""
""focus"",""14"",""152467""
","""event"",""trial"",""time""
""fullscreenenter"",""0"",""2810""
","""event"",""trial"",""time""
""fullscreenexit"",""2"",""4177""
","506","","","","","","","","49","1,0,0","6","blank","240","null","0.5283754679333491","0.20002951894911689","0.1697006658676315","1","","","","","","","","",""
"","html-keyboard-response","40","222518","0.0-29.0-1.0","""event"",""trial"",""time""
""focus"",""0"",""0""
""blur"",""0"",""0""
""focus"",""0"",""0""
""blur"",""0"",""0""
""focus"",""0"",""0""
""blur"",""0"",""0""
""focus"",""0"",""0""
""blur"",""0"",""225""
""focus"",""0"",""1114""
""fullscreenenter"",""0"",""2810""
""fullscreenexit"",""2"",""4177""
""blur"",""2"",""6097""
""focus"",""3"",""15812""
""blur"",""4"",""18961""
""focus"",""4"",""29643""
""blur"",""6"",""41250""
""focus"",""7"",""56323""
""blur"",""8"",""58345""
""focus"",""9"",""94747""
""blur"",""10"",""96874""
""focus"",""11"",""104033""
""blur"",""12"",""111433""
""focus"",""13"",""137083""
""blur"",""14"",""139577""
""focus"",""14"",""152467""
","""event"",""trial"",""time""
""blur"",""0"",""0""
""blur"",""0"",""0""
""blur"",""0"",""0""
""blur"",""0"",""225""
""blur"",""2"",""6097""
""blur"",""4"",""18961""
""blur"",""6"",""41250""
""blur"",""8"",""58345""
""blur"",""10"",""96874""
""blur"",""12"",""111433""
""blur"",""14"",""139577""
","""event"",""trial"",""time""
""focus"",""0"",""0""
""focus"",""0"",""0""
""focus"",""0"",""0""
""focus"",""0"",""0""
""focus"",""0"",""1114""
""focus"",""3"",""15812""
""focus"",""4"",""29643""
""focus"",""7"",""56323""
""focus"",""9"",""94747""
""focus"",""11"",""104033""
""focus"",""13"",""137083""
""focus"",""14"",""152467""
","""event"",""trial"",""time""
""fullscreenenter"",""0"",""2810""
","""event"",""trial"",""time""
""fullscreenexit"",""2"",""4177""
","null","<p></p>","null","","","","","","","","","","","","","","","","","","","","","","","",""
"","do_trial","41","225420","0.0-30.0-0.0","""event"",""trial"",""time""
""focus"",""0"",""0""
""blur"",""0"",""0""
""focus"",""0"",""0""
""blur"",""0"",""0""
""focus"",""0"",""0""
""blur"",""0"",""0""
""focus"",""0"",""0""
""blur"",""0"",""225""
""focus"",""0"",""1114""
""fullscreenenter"",""0"",""2810""
""fullscreenexit"",""2"",""4177""
""blur"",""2"",""6097""
""focus"",""3"",""15812""
""blur"",""4"",""18961""
""focus"",""4"",""29643""
""blur"",""6"",""41250""
""focus"",""7"",""56323""
""blur"",""8"",""58345""
""focus"",""9"",""94747""
""blur"",""10"",""96874""
""focus"",""11"",""104033""
""blur"",""12"",""111433""
""focus"",""13"",""137083""
""blur"",""14"",""139577""
""focus"",""14"",""152467""
","""event"",""trial"",""time""
""blur"",""0"",""0""
""blur"",""0"",""0""
""blur"",""0"",""0""
""blur"",""0"",""225""
""blur"",""2"",""6097""
""blur"",""4"",""18961""
""blur"",""6"",""41250""
""blur"",""8"",""58345""
""blur"",""10"",""96874""
""blur"",""12"",""111433""
""blur"",""14"",""139577""
","""event"",""trial"",""time""
""focus"",""0"",""0""
""focus"",""0"",""0""
""focus"",""0"",""0""
""focus"",""0"",""0""
""focus"",""0"",""1114""
""focus"",""3"",""15812""
""focus"",""4"",""29643""
""focus"",""7"",""56323""
""focus"",""9"",""94747""
""focus"",""11"",""104033""
""focus"",""13"",""137083""
""focus"",""14"",""152467""
","""event"",""trial"",""time""
""fullscreenenter"",""0"",""2810""
","""event"",""trial"",""time""
""fullscreenexit"",""2"",""4177""
","365","","","","","","","","49","1,0,0","6","blank","241","null","0.5841649996610022","0.30160736190457366","0.26283556307335265","1","","","","","","","","",""
"","html-keyboard-response","42","226421","0.0-30.0-1.0","""event"",""trial"",""time""
""focus"",""0"",""0""
""blur"",""0"",""0""
""focus"",""0"",""0""
""blur"",""0"",""0""
""focus"",""0"",""0""
""blur"",""0"",""0""
""focus"",""0"",""0""
""blur"",""0"",""225""
""focus"",""0"",""1114""
""fullscreenenter"",""0"",""2810""
""fullscreenexit"",""2"",""4177""
""blur"",""2"",""6097""
""focus"",""3"",""15812""
""blur"",""4"",""18961""
""focus"",""4"",""29643""
""blur"",""6"",""41250""
""focus"",""7"",""56323""
""blur"",""8"",""58345""
""focus"",""9"",""94747""
""blur"",""10"",""96874""
""focus"",""11"",""104033""
""blur"",""12"",""111433""
""focus"",""13"",""137083""
""blur"",""14"",""139577""
""focus"",""14"",""152467""
","""event"",""trial"",""time""
""blur"",""0"",""0""
""blur"",""0"",""0""
""blur"",""0"",""0""
""blur"",""0"",""225""
""blur"",""2"",""6097""
""blur"",""4"",""18961""
""blur"",""6"",""41250""
""blur"",""8"",""58345""
""blur"",""10"",""96874""
""blur"",""12"",""111433""
""blur"",""14"",""139577""
","""event"",""trial"",""time""
""focus"",""0"",""0""
""focus"",""0"",""0""
""focus"",""0"",""0""
""focus"",""0"",""0""
""focus"",""0"",""1114""
""focus"",""3"",""15812""
""focus"",""4"",""29643""
""focus"",""7"",""56323""
""focus"",""9"",""94747""
""focus"",""11"",""104033""
""focus"",""13"",""137083""
""focus"",""14"",""152467""
","""event"",""trial"",""time""
""fullscreenenter"",""0"",""2810""
","""event"",""trial"",""time""
""fullscreenexit"",""2"",""4177""
","null","<p></p>","null","","","","","","","","","","","","","","","","","","","","","","","",""
"","do_trial","43","229275","0.0-31.0-0.0","""event"",""trial"",""time""
""focus"",""0"",""0""
""blur"",""0"",""0""
""focus"",""0"",""0""
""blur"",""0"",""0""
""focus"",""0"",""0""
""blur"",""0"",""0""
""focus"",""0"",""0""
""blur"",""0"",""225""
""focus"",""0"",""1114""
""fullscreenenter"",""0"",""2810""
""fullscreenexit"",""2"",""4177""
""blur"",""2"",""6097""
""focus"",""3"",""15812""
""blur"",""4"",""18961""
""focus"",""4"",""29643""
""blur"",""6"",""41250""
""focus"",""7"",""56323""
""blur"",""8"",""58345""
""focus"",""9"",""94747""
""blur"",""10"",""96874""
""focus"",""11"",""104033""
""blur"",""12"",""111433""
""focus"",""13"",""137083""
""blur"",""14"",""139577""
""focus"",""14"",""152467""
","""event"",""trial"",""time""
""blur"",""0"",""0""
""blur"",""0"",""0""
""blur"",""0"",""0""
""blur"",""0"",""225""
""blur"",""2"",""6097""
""blur"",""4"",""18961""
""blur"",""6"",""41250""
""blur"",""8"",""58345""
""blur"",""10"",""96874""
""blur"",""12"",""111433""
""blur"",""14"",""139577""
","""event"",""trial"",""time""
""focus"",""0"",""0""
""focus"",""0"",""0""
""focus"",""0"",""0""
""focus"",""0"",""0""
""focus"",""0"",""1114""
""focus"",""3"",""15812""
""focus"",""4"",""29643""
""focus"",""7"",""56323""
""focus"",""9"",""94747""
""focus"",""11"",""104033""
""focus"",""13"",""137083""
""focus"",""14"",""152467""
","""event"",""trial"",""time""
""fullscreenenter"",""0"",""2810""
","""event"",""trial"",""time""
""fullscreenexit"",""2"",""4177""
","319","","","","","","","","49","0,1,0","6","blank","242","null","0.4427822808240719","0.47853683533279934","0.14611807978645291","0","","","","","","","","",""
"","html-keyboard-response","44","230277","0.0-31.0-1.0","""event"",""trial"",""time""
""focus"",""0"",""0""
""blur"",""0"",""0""
""focus"",""0"",""0""
""blur"",""0"",""0""
""focus"",""0"",""0""
""blur"",""0"",""0""
""focus"",""0"",""0""
""blur"",""0"",""225""
""focus"",""0"",""1114""
""fullscreenenter"",""0"",""2810""
""fullscreenexit"",""2"",""4177""
""blur"",""2"",""6097""
""focus"",""3"",""15812""
""blur"",""4"",""18961""
""focus"",""4"",""29643""
""blur"",""6"",""41250""
""focus"",""7"",""56323""
""blur"",""8"",""58345""
""focus"",""9"",""94747""
""blur"",""10"",""96874""
""focus"",""11"",""104033""
""blur"",""12"",""111433""
""focus"",""13"",""137083""
""blur"",""14"",""139577""
""focus"",""14"",""152467""
","""event"",""trial"",""time""
""blur"",""0"",""0""
""blur"",""0"",""0""
""blur"",""0"",""0""
""blur"",""0"",""225""
""blur"",""2"",""6097""
""blur"",""4"",""18961""
""blur"",""6"",""41250""
""blur"",""8"",""58345""
""blur"",""10"",""96874""
""blur"",""12"",""111433""
""blur"",""14"",""139577""
","""event"",""trial"",""time""
""focus"",""0"",""0""
""focus"",""0"",""0""
""focus"",""0"",""0""
""focus"",""0"",""0""
""focus"",""0"",""1114""
""focus"",""3"",""15812""
""focus"",""4"",""29643""
""focus"",""7"",""56323""
""focus"",""9"",""94747""
""focus"",""11"",""104033""
""focus"",""13"",""137083""
""focus"",""14"",""152467""
","""event"",""trial"",""time""
""fullscreenenter"",""0"",""2810""
","""event"",""trial"",""time""
""fullscreenexit"",""2"",""4177""
","null","<p></p>","null","","","","","","","","","","","","","","","","","","","","","","","",""
"","do_trial","45","233148","0.0-32.0-0.0","""event"",""trial"",""time""
""focus"",""0"",""0""
""blur"",""0"",""0""
""focus"",""0"",""0""
""blur"",""0"",""0""
""focus"",""0"",""0""
""blur"",""0"",""0""
""focus"",""0"",""0""
""blur"",""0"",""225""
""focus"",""0"",""1114""
""fullscreenenter"",""0"",""2810""
""fullscreenexit"",""2"",""4177""
""blur"",""2"",""6097""
""focus"",""3"",""15812""
""blur"",""4"",""18961""
""focus"",""4"",""29643""
""blur"",""6"",""41250""
""focus"",""7"",""56323""
""blur"",""8"",""58345""
""focus"",""9"",""94747""
""blur"",""10"",""96874""
""focus"",""11"",""104033""
""blur"",""12"",""111433""
""focus"",""13"",""137083""
""blur"",""14"",""139577""
""focus"",""14"",""152467""
","""event"",""trial"",""time""
""blur"",""0"",""0""
""blur"",""0"",""0""
""blur"",""0"",""0""
""blur"",""0"",""225""
""blur"",""2"",""6097""
""blur"",""4"",""18961""
""blur"",""6"",""41250""
""blur"",""8"",""58345""
""blur"",""10"",""96874""
""blur"",""12"",""111433""
""blur"",""14"",""139577""
","""event"",""trial"",""time""
""focus"",""0"",""0""
""focus"",""0"",""0""
""focus"",""0"",""0""
""focus"",""0"",""0""
""focus"",""0"",""1114""
""focus"",""3"",""15812""
""focus"",""4"",""29643""
""focus"",""7"",""56323""
""focus"",""9"",""94747""
""focus"",""11"",""104033""
""focus"",""13"",""137083""
""focus"",""14"",""152467""
","""event"",""trial"",""time""
""fullscreenenter"",""0"",""2810""
","""event"",""trial"",""time""
""fullscreenexit"",""2"",""4177""
","327","","","","","","","","50","0,1,1","6","blank","243","null","0.30809967482540207","0.5651961623859222","0.11095450461715768","1","","","","","","","","",""
"","html-keyboard-response","46","234151","0.0-32.0-1.0","""event"",""trial"",""time""
""focus"",""0"",""0""
""blur"",""0"",""0""
""focus"",""0"",""0""
""blur"",""0"",""0""
""focus"",""0"",""0""
""blur"",""0"",""0""
""focus"",""0"",""0""
""blur"",""0"",""225""
""focus"",""0"",""1114""
""fullscreenenter"",""0"",""2810""
""fullscreenexit"",""2"",""4177""
""blur"",""2"",""6097""
""focus"",""3"",""15812""
""blur"",""4"",""18961""
""focus"",""4"",""29643""
""blur"",""6"",""41250""
""focus"",""7"",""56323""
""blur"",""8"",""58345""
""focus"",""9"",""94747""
""blur"",""10"",""96874""
""focus"",""11"",""104033""
""blur"",""12"",""111433""
""focus"",""13"",""137083""
""blur"",""14"",""139577""
""focus"",""14"",""152467""
","""event"",""trial"",""time""
""blur"",""0"",""0""
""blur"",""0"",""0""
""blur"",""0"",""0""
""blur"",""0"",""225""
""blur"",""2"",""6097""
""blur"",""4"",""18961""
""blur"",""6"",""41250""
""blur"",""8"",""58345""
""blur"",""10"",""96874""
""blur"",""12"",""111433""
""blur"",""14"",""139577""
","""event"",""trial"",""time""
""focus"",""0"",""0""
""focus"",""0"",""0""
""focus"",""0"",""0""
""focus"",""0"",""0""
""focus"",""0"",""1114""
""focus"",""3"",""15812""
""focus"",""4"",""29643""
""focus"",""7"",""56323""
""focus"",""9"",""94747""
""focus"",""11"",""104033""
""focus"",""13"",""137083""
""focus"",""14"",""152467""
","""event"",""trial"",""time""
""fullscreenenter"",""0"",""2810""
","""event"",""trial"",""time""
""fullscreenexit"",""2"",""4177""
","null","<p></p>","null","","","","","","","","","","","","","","","","","","","","","","","",""
"","do_recog","47","240156","0.0-33.0-0.0","""event"",""trial"",""time""
""focus"",""0"",""0""
""blur"",""0"",""0""
""focus"",""0"",""0""
""blur"",""0"",""0""
""focus"",""0"",""0""
""blur"",""0"",""0""
""focus"",""0"",""0""
""blur"",""0"",""225""
""focus"",""0"",""1114""
""fullscreenenter"",""0"",""2810""
""fullscreenexit"",""2"",""4177""
""blur"",""2"",""6097""
""focus"",""3"",""15812""
""blur"",""4"",""18961""
""focus"",""4"",""29643""
""blur"",""6"",""41250""
""focus"",""7"",""56323""
""blur"",""8"",""58345""
""focus"",""9"",""94747""
""blur"",""10"",""96874""
""focus"",""11"",""104033""
""blur"",""12"",""111433""
""focus"",""13"",""137083""
""blur"",""14"",""139577""
""focus"",""14"",""152467""
","""event"",""trial"",""time""
""blur"",""0"",""0""
""blur"",""0"",""0""
""blur"",""0"",""0""
""blur"",""0"",""225""
""blur"",""2"",""6097""
""blur"",""4"",""18961""
""blur"",""6"",""41250""
""blur"",""8"",""58345""
""blur"",""10"",""96874""
""blur"",""12"",""111433""
""blur"",""14"",""139577""
","""event"",""trial"",""time""
""focus"",""0"",""0""
""focus"",""0"",""0""
""focus"",""0"",""0""
""focus"",""0"",""0""
""focus"",""0"",""1114""
""focus"",""3"",""15812""
""focus"",""4"",""29643""
""focus"",""7"",""56323""
""focus"",""9"",""94747""
""focus"",""11"",""104033""
""focus"",""13"",""137083""
""focus"",""14"",""152467""
","""event"",""trial"",""time""
""fullscreenenter"",""0"",""2810""
","""event"",""trial"",""time""
""fullscreenexit"",""2"",""4177""
","null","","","","","","","","null","","","","244","probe-09","","","","","1","[object Object]","39","0","0","","","",""
"","html-keyboard-response","48","241158","0.0-33.0-1.0","""event"",""trial"",""time""
""focus"",""0"",""0""
""blur"",""0"",""0""
""focus"",""0"",""0""
""blur"",""0"",""0""
""focus"",""0"",""0""
""blur"",""0"",""0""
""focus"",""0"",""0""
""blur"",""0"",""225""
""focus"",""0"",""1114""
""fullscreenenter"",""0"",""2810""
""fullscreenexit"",""2"",""4177""
""blur"",""2"",""6097""
""focus"",""3"",""15812""
""blur"",""4"",""18961""
""focus"",""4"",""29643""
""blur"",""6"",""41250""
""focus"",""7"",""56323""
""blur"",""8"",""58345""
""focus"",""9"",""94747""
""blur"",""10"",""96874""
""focus"",""11"",""104033""
""blur"",""12"",""111433""
""focus"",""13"",""137083""
""blur"",""14"",""139577""
""focus"",""14"",""152467""
","""event"",""trial"",""time""
""blur"",""0"",""0""
""blur"",""0"",""0""
""blur"",""0"",""0""
""blur"",""0"",""225""
""blur"",""2"",""6097""
""blur"",""4"",""18961""
""blur"",""6"",""41250""
""blur"",""8"",""58345""
""blur"",""10"",""96874""
""blur"",""12"",""111433""
""blur"",""14"",""139577""
","""event"",""trial"",""time""
""focus"",""0"",""0""
""focus"",""0"",""0""
""focus"",""0"",""0""
""focus"",""0"",""0""
""focus"",""0"",""1114""
""focus"",""3"",""15812""
""focus"",""4"",""29643""
""focus"",""7"",""56323""
""focus"",""9"",""94747""
""focus"",""11"",""104033""
""focus"",""13"",""137083""
""focus"",""14"",""152467""
","""event"",""trial"",""time""
""fullscreenenter"",""0"",""2810""
","""event"",""trial"",""time""
""fullscreenexit"",""2"",""4177""
","null","<p></p>","null","","","","","","","","","","","","","","","","","","","","","","","",""
"","do_trial","49","244861","0.0-34.0-0.0","""event"",""trial"",""time""
""focus"",""0"",""0""
""blur"",""0"",""0""
""focus"",""0"",""0""
""blur"",""0"",""0""
""focus"",""0"",""0""
""blur"",""0"",""0""
""focus"",""0"",""0""
""blur"",""0"",""225""
""focus"",""0"",""1114""
""fullscreenenter"",""0"",""2810""
""fullscreenexit"",""2"",""4177""
""blur"",""2"",""6097""
""focus"",""3"",""15812""
""blur"",""4"",""18961""
""focus"",""4"",""29643""
""blur"",""6"",""41250""
""focus"",""7"",""56323""
""blur"",""8"",""58345""
""focus"",""9"",""94747""
""blur"",""10"",""96874""
""focus"",""11"",""104033""
""blur"",""12"",""111433""
""focus"",""13"",""137083""
""blur"",""14"",""139577""
""focus"",""14"",""152467""
","""event"",""trial"",""time""
""blur"",""0"",""0""
""blur"",""0"",""0""
""blur"",""0"",""0""
""blur"",""0"",""225""
""blur"",""2"",""6097""
""blur"",""4"",""18961""
""blur"",""6"",""41250""
""blur"",""8"",""58345""
""blur"",""10"",""96874""
""blur"",""12"",""111433""
""blur"",""14"",""139577""
","""event"",""trial"",""time""
""focus"",""0"",""0""
""focus"",""0"",""0""
""focus"",""0"",""0""
""focus"",""0"",""0""
""focus"",""0"",""1114""
""focus"",""3"",""15812""
""focus"",""4"",""29643""
""focus"",""7"",""56323""
""focus"",""9"",""94747""
""focus"",""11"",""104033""
""focus"",""13"",""137083""
""focus"",""14"",""152467""
","""event"",""trial"",""time""
""fullscreenenter"",""0"",""2810""
","""event"",""trial"",""time""
""fullscreenexit"",""2"",""4177""
","1178","","","","","","","","49","0,1,0","6","blank","245","null","0.40276493342043607","0.7342232071310474","0.2199514631093571","0","","","","","","","","",""
"","html-keyboard-response","50","245862","0.0-34.0-1.0","""event"",""trial"",""time""
""focus"",""0"",""0""
""blur"",""0"",""0""
""focus"",""0"",""0""
""blur"",""0"",""0""
""focus"",""0"",""0""
""blur"",""0"",""0""
""focus"",""0"",""0""
""blur"",""0"",""225""
""focus"",""0"",""1114""
""fullscreenenter"",""0"",""2810""
""fullscreenexit"",""2"",""4177""
""blur"",""2"",""6097""
""focus"",""3"",""15812""
""blur"",""4"",""18961""
""focus"",""4"",""29643""
""blur"",""6"",""41250""
""focus"",""7"",""56323""
""blur"",""8"",""58345""
""focus"",""9"",""94747""
""blur"",""10"",""96874""
""focus"",""11"",""104033""
""blur"",""12"",""111433""
""focus"",""13"",""137083""
""blur"",""14"",""139577""
""focus"",""14"",""152467""
","""event"",""trial"",""time""
""blur"",""0"",""0""
""blur"",""0"",""0""
""blur"",""0"",""0""
""blur"",""0"",""225""
""blur"",""2"",""6097""
""blur"",""4"",""18961""
""blur"",""6"",""41250""
""blur"",""8"",""58345""
""blur"",""10"",""96874""
""blur"",""12"",""111433""
""blur"",""14"",""139577""
","""event"",""trial"",""time""
""focus"",""0"",""0""
""focus"",""0"",""0""
""focus"",""0"",""0""
""focus"",""0"",""0""
""focus"",""0"",""1114""
""focus"",""3"",""15812""
""focus"",""4"",""29643""
""focus"",""7"",""56323""
""focus"",""9"",""94747""
""focus"",""11"",""104033""
""focus"",""13"",""137083""
""focus"",""14"",""152467""
","""event"",""trial"",""time""
""fullscreenenter"",""0"",""2810""
","""event"",""trial"",""time""
""fullscreenexit"",""2"",""4177""
","null","<p></p>","null","","","","","","","","","","","","","","","","","","","","","","","",""
"","do_recog","51","248566","0.0-35.0-0.0","""event"",""trial"",""time""
""focus"",""0"",""0""
""blur"",""0"",""0""
""focus"",""0"",""0""
""blur"",""0"",""0""
""focus"",""0"",""0""
""blur"",""0"",""0""
""focus"",""0"",""0""
""blur"",""0"",""225""
""focus"",""0"",""1114""
""fullscreenenter"",""0"",""2810""
""fullscreenexit"",""2"",""4177""
""blur"",""2"",""6097""
""focus"",""3"",""15812""
""blur"",""4"",""18961""
""focus"",""4"",""29643""
""blur"",""6"",""41250""
""focus"",""7"",""56323""
""blur"",""8"",""58345""
""focus"",""9"",""94747""
""blur"",""10"",""96874""
""focus"",""11"",""104033""
""blur"",""12"",""111433""
""focus"",""13"",""137083""
""blur"",""14"",""139577""
""focus"",""14"",""152467""
","""event"",""trial"",""time""
""blur"",""0"",""0""
""blur"",""0"",""0""
""blur"",""0"",""0""
""blur"",""0"",""225""
""blur"",""2"",""6097""
""blur"",""4"",""18961""
""blur"",""6"",""41250""
""blur"",""8"",""58345""
""blur"",""10"",""96874""
""blur"",""12"",""111433""
""blur"",""14"",""139577""
","""event"",""trial"",""time""
""focus"",""0"",""0""
""focus"",""0"",""0""
""focus"",""0"",""0""
""focus"",""0"",""0""
""focus"",""0"",""1114""
""focus"",""3"",""15812""
""focus"",""4"",""29643""
""focus"",""7"",""56323""
""focus"",""9"",""94747""
""focus"",""11"",""104033""
""focus"",""13"",""137083""
""focus"",""14"",""152467""
","""event"",""trial"",""time""
""fullscreenenter"",""0"",""2810""
","""event"",""trial"",""time""
""fullscreenexit"",""2"",""4177""
","1198","","","","","","","","56","","","","246","probe-107","","","","","1","[object Object]","110","2","0","","","",""
"","html-keyboard-response","52","249568","0.0-35.0-1.0","""event"",""trial"",""time""
""focus"",""0"",""0""
""blur"",""0"",""0""
""focus"",""0"",""0""
""blur"",""0"",""0""
""focus"",""0"",""0""
""blur"",""0"",""0""
""focus"",""0"",""0""
""blur"",""0"",""225""
""focus"",""0"",""1114""
""fullscreenenter"",""0"",""2810""
""fullscreenexit"",""2"",""4177""
""blur"",""2"",""6097""
""focus"",""3"",""15812""
""blur"",""4"",""18961""
""focus"",""4"",""29643""
""blur"",""6"",""41250""
""focus"",""7"",""56323""
""blur"",""8"",""58345""
""focus"",""9"",""94747""
""blur"",""10"",""96874""
""focus"",""11"",""104033""
""blur"",""12"",""111433""
""focus"",""13"",""137083""
""blur"",""14"",""139577""
""focus"",""14"",""152467""
","""event"",""trial"",""time""
""blur"",""0"",""0""
""blur"",""0"",""0""
""blur"",""0"",""0""
""blur"",""0"",""225""
""blur"",""2"",""6097""
""blur"",""4"",""18961""
""blur"",""6"",""41250""
""blur"",""8"",""58345""
""blur"",""10"",""96874""
""blur"",""12"",""111433""
""blur"",""14"",""139577""
","""event"",""trial"",""time""
""focus"",""0"",""0""
""focus"",""0"",""0""
""focus"",""0"",""0""
""focus"",""0"",""0""
""focus"",""0"",""1114""
""focus"",""3"",""15812""
""focus"",""4"",""29643""
""focus"",""7"",""56323""
""focus"",""9"",""94747""
""focus"",""11"",""104033""
""focus"",""13"",""137083""
""focus"",""14"",""152467""
","""event"",""trial"",""time""
""fullscreenenter"",""0"",""2810""
","""event"",""trial"",""time""
""fullscreenexit"",""2"",""4177""
","null","<p></p>","null","","","","","","","","","","","","","","","","","","","","","","","",""
"","do_trial","53","252971","0.0-36.0-0.0","""event"",""trial"",""time""
""focus"",""0"",""0""
""blur"",""0"",""0""
""focus"",""0"",""0""
""blur"",""0"",""0""
""focus"",""0"",""0""
""blur"",""0"",""0""
""focus"",""0"",""0""
""blur"",""0"",""225""
""focus"",""0"",""1114""
""fullscreenenter"",""0"",""2810""
""fullscreenexit"",""2"",""4177""
""blur"",""2"",""6097""
""focus"",""3"",""15812""
""blur"",""4"",""18961""
""focus"",""4"",""29643""
""blur"",""6"",""41250""
""focus"",""7"",""56323""
""blur"",""8"",""58345""
""focus"",""9"",""94747""
""blur"",""10"",""96874""
""focus"",""11"",""104033""
""blur"",""12"",""111433""
""focus"",""13"",""137083""
""blur"",""14"",""139577""
""focus"",""14"",""152467""
","""event"",""trial"",""time""
""blur"",""0"",""0""
""blur"",""0"",""0""
""blur"",""0"",""0""
""blur"",""0"",""225""
""blur"",""2"",""6097""
""blur"",""4"",""18961""
""blur"",""6"",""41250""
""blur"",""8"",""58345""
""blur"",""10"",""96874""
""blur"",""12"",""111433""
""blur"",""14"",""139577""
","""event"",""trial"",""time""
""focus"",""0"",""0""
""focus"",""0"",""0""
""focus"",""0"",""0""
""focus"",""0"",""0""
""focus"",""0"",""1114""
""focus"",""3"",""15812""
""focus"",""4"",""29643""
""focus"",""7"",""56323""
""focus"",""9"",""94747""
""focus"",""11"",""104033""
""focus"",""13"",""137083""
""focus"",""14"",""152467""
","""event"",""trial"",""time""
""fullscreenenter"",""0"",""2810""
","""event"",""trial"",""time""
""fullscreenexit"",""2"",""4177""
","862","","","","","","","","49","0,1,0","6","blank","247","null","0.28162823868856096","0.7502136436514304","0.1594743532790867","0","","","","","","","","",""
"","html-keyboard-response","54","253973","0.0-36.0-1.0","""event"",""trial"",""time""
""focus"",""0"",""0""
""blur"",""0"",""0""
""focus"",""0"",""0""
""blur"",""0"",""0""
""focus"",""0"",""0""
""blur"",""0"",""0""
""focus"",""0"",""0""
""blur"",""0"",""225""
""focus"",""0"",""1114""
""fullscreenenter"",""0"",""2810""
""fullscreenexit"",""2"",""4177""
""blur"",""2"",""6097""
""focus"",""3"",""15812""
""blur"",""4"",""18961""
""focus"",""4"",""29643""
""blur"",""6"",""41250""
""focus"",""7"",""56323""
""blur"",""8"",""58345""
""focus"",""9"",""94747""
""blur"",""10"",""96874""
""focus"",""11"",""104033""
""blur"",""12"",""111433""
""focus"",""13"",""137083""
""blur"",""14"",""139577""
""focus"",""14"",""152467""
","""event"",""trial"",""time""
""blur"",""0"",""0""
""blur"",""0"",""0""
""blur"",""0"",""0""
""blur"",""0"",""225""
""blur"",""2"",""6097""
""blur"",""4"",""18961""
""blur"",""6"",""41250""
""blur"",""8"",""58345""
""blur"",""10"",""96874""
""blur"",""12"",""111433""
""blur"",""14"",""139577""
","""event"",""trial"",""time""
""focus"",""0"",""0""
""focus"",""0"",""0""
""focus"",""0"",""0""
""focus"",""0"",""0""
""focus"",""0"",""1114""
""focus"",""3"",""15812""
""focus"",""4"",""29643""
""focus"",""7"",""56323""
""focus"",""9"",""94747""
""focus"",""11"",""104033""
""focus"",""13"",""137083""
""focus"",""14"",""152467""
","""event"",""trial"",""time""
""fullscreenenter"",""0"",""2810""
","""event"",""trial"",""time""
""fullscreenexit"",""2"",""4177""
","null","<p></p>","null","","","","","","","","","","","","","","","","","","","","","","","",""
"","do_recog","55","256677","0.0-37.0-0.0","""event"",""trial"",""time""
""focus"",""0"",""0""
""blur"",""0"",""0""
""focus"",""0"",""0""
""blur"",""0"",""0""
""focus"",""0"",""0""
""blur"",""0"",""0""
""focus"",""0"",""0""
""blur"",""0"",""225""
""focus"",""0"",""1114""
""fullscreenenter"",""0"",""2810""
""fullscreenexit"",""2"",""4177""
""blur"",""2"",""6097""
""focus"",""3"",""15812""
""blur"",""4"",""18961""
""focus"",""4"",""29643""
""blur"",""6"",""41250""
""focus"",""7"",""56323""
""blur"",""8"",""58345""
""focus"",""9"",""94747""
""blur"",""10"",""96874""
""focus"",""11"",""104033""
""blur"",""12"",""111433""
""focus"",""13"",""137083""
""blur"",""14"",""139577""
""focus"",""14"",""152467""
","""event"",""trial"",""time""
""blur"",""0"",""0""
""blur"",""0"",""0""
""blur"",""0"",""0""
""blur"",""0"",""225""
""blur"",""2"",""6097""
""blur"",""4"",""18961""
""blur"",""6"",""41250""
""blur"",""8"",""58345""
""blur"",""10"",""96874""
""blur"",""12"",""111433""
""blur"",""14"",""139577""
","""event"",""trial"",""time""
""focus"",""0"",""0""
""focus"",""0"",""0""
""focus"",""0"",""0""
""focus"",""0"",""0""
""focus"",""0"",""1114""
""focus"",""3"",""15812""
""focus"",""4"",""29643""
""focus"",""7"",""56323""
""focus"",""9"",""94747""
""focus"",""11"",""104033""
""focus"",""13"",""137083""
""focus"",""14"",""152467""
","""event"",""trial"",""time""
""fullscreenenter"",""0"",""2810""
","""event"",""trial"",""time""
""fullscreenexit"",""2"",""4177""
","1197","","","","","","","","56","","","","248","probe-40","","","","","1","[object Object]","117","2","0","","","",""
"","html-keyboard-response","56","257677","0.0-37.0-1.0","""event"",""trial"",""time""
""focus"",""0"",""0""
""blur"",""0"",""0""
""focus"",""0"",""0""
""blur"",""0"",""0""
""focus"",""0"",""0""
""blur"",""0"",""0""
""focus"",""0"",""0""
""blur"",""0"",""225""
""focus"",""0"",""1114""
""fullscreenenter"",""0"",""2810""
""fullscreenexit"",""2"",""4177""
""blur"",""2"",""6097""
""focus"",""3"",""15812""
""blur"",""4"",""18961""
""focus"",""4"",""29643""
""blur"",""6"",""41250""
""focus"",""7"",""56323""
""blur"",""8"",""58345""
""focus"",""9"",""94747""
""blur"",""10"",""96874""
""focus"",""11"",""104033""
""blur"",""12"",""111433""
""focus"",""13"",""137083""
""blur"",""14"",""139577""
""focus"",""14"",""152467""
","""event"",""trial"",""time""
""blur"",""0"",""0""
""blur"",""0"",""0""
""blur"",""0"",""0""
""blur"",""0"",""225""
""blur"",""2"",""6097""
""blur"",""4"",""18961""
""blur"",""6"",""41250""
""blur"",""8"",""58345""
""blur"",""10"",""96874""
""blur"",""12"",""111433""
""blur"",""14"",""139577""
","""event"",""trial"",""time""
""focus"",""0"",""0""
""focus"",""0"",""0""
""focus"",""0"",""0""
""focus"",""0"",""0""
""focus"",""0"",""1114""
""focus"",""3"",""15812""
""focus"",""4"",""29643""
""focus"",""7"",""56323""
""focus"",""9"",""94747""
""focus"",""11"",""104033""
""focus"",""13"",""137083""
""focus"",""14"",""152467""
","""event"",""trial"",""time""
""fullscreenenter"",""0"",""2810""
","""event"",""trial"",""time""
""fullscreenexit"",""2"",""4177""
","null","<p></p>","null","","","","","","","","","","","","","","","","","","","","","","","",""
"","do_trial","57","260987","0.0-38.0-0.0","""event"",""trial"",""time""
""focus"",""0"",""0""
""blur"",""0"",""0""
""focus"",""0"",""0""
""blur"",""0"",""0""
""focus"",""0"",""0""
""blur"",""0"",""0""
""focus"",""0"",""0""
""blur"",""0"",""225""
""focus"",""0"",""1114""
""fullscreenenter"",""0"",""2810""
""fullscreenexit"",""2"",""4177""
""blur"",""2"",""6097""
""focus"",""3"",""15812""
""blur"",""4"",""18961""
""focus"",""4"",""29643""
""blur"",""6"",""41250""
""focus"",""7"",""56323""
""blur"",""8"",""58345""
""focus"",""9"",""94747""
""blur"",""10"",""96874""
""focus"",""11"",""104033""
""blur"",""12"",""111433""
""focus"",""13"",""137083""
""blur"",""14"",""139577""
""focus"",""14"",""152467""
","""event"",""trial"",""time""
""blur"",""0"",""0""
""blur"",""0"",""0""
""blur"",""0"",""0""
""blur"",""0"",""225""
""blur"",""2"",""6097""
""blur"",""4"",""18961""
""blur"",""6"",""41250""
""blur"",""8"",""58345""
""blur"",""10"",""96874""
""blur"",""12"",""111433""
""blur"",""14"",""139577""
","""event"",""trial"",""time""
""focus"",""0"",""0""
""focus"",""0"",""0""
""focus"",""0"",""0""
""focus"",""0"",""0""
""focus"",""0"",""1114""
""focus"",""3"",""15812""
""focus"",""4"",""29643""
""focus"",""7"",""56323""
""focus"",""9"",""94747""
""focus"",""11"",""104033""
""focus"",""13"",""137083""
""focus"",""14"",""152467""
","""event"",""trial"",""time""
""fullscreenenter"",""0"",""2810""
","""event"",""trial"",""time""
""fullscreenexit"",""2"",""4177""
","760","","","","","","","","51","1,1,0","6","blank","249","null","0.2872799291698443","0.5446361277725822","0.24128532063224242","0","","","","","","","","",""
"","html-keyboard-response","58","261989","0.0-38.0-1.0","""event"",""trial"",""time""
""focus"",""0"",""0""
""blur"",""0"",""0""
""focus"",""0"",""0""
""blur"",""0"",""0""
""focus"",""0"",""0""
""blur"",""0"",""0""
""focus"",""0"",""0""
""blur"",""0"",""225""
""focus"",""0"",""1114""
""fullscreenenter"",""0"",""2810""
""fullscreenexit"",""2"",""4177""
""blur"",""2"",""6097""
""focus"",""3"",""15812""
""blur"",""4"",""18961""
""focus"",""4"",""29643""
""blur"",""6"",""41250""
""focus"",""7"",""56323""
""blur"",""8"",""58345""
""focus"",""9"",""94747""
""blur"",""10"",""96874""
""focus"",""11"",""104033""
""blur"",""12"",""111433""
""focus"",""13"",""137083""
""blur"",""14"",""139577""
""focus"",""14"",""152467""
","""event"",""trial"",""time""
""blur"",""0"",""0""
""blur"",""0"",""0""
""blur"",""0"",""0""
""blur"",""0"",""225""
""blur"",""2"",""6097""
""blur"",""4"",""18961""
""blur"",""6"",""41250""
""blur"",""8"",""58345""
""blur"",""10"",""96874""
""blur"",""12"",""111433""
""blur"",""14"",""139577""
","""event"",""trial"",""time""
""focus"",""0"",""0""
""focus"",""0"",""0""
""focus"",""0"",""0""
""focus"",""0"",""0""
""focus"",""0"",""1114""
""focus"",""3"",""15812""
""focus"",""4"",""29643""
""focus"",""7"",""56323""
""focus"",""9"",""94747""
""focus"",""11"",""104033""
""focus"",""13"",""137083""
""focus"",""14"",""152467""
","""event"",""trial"",""time""
""fullscreenenter"",""0"",""2810""
","""event"",""trial"",""time""
""fullscreenexit"",""2"",""4177""
","null","<p></p>","null","","","","","","","","","","","","","","","","","","","","","","","",""
"","do_trial","59","265084","0.0-39.0-0.0","""event"",""trial"",""time""
""focus"",""0"",""0""
""blur"",""0"",""0""
""focus"",""0"",""0""
""blur"",""0"",""0""
""focus"",""0"",""0""
""blur"",""0"",""0""
""focus"",""0"",""0""
""blur"",""0"",""225""
""focus"",""0"",""1114""
""fullscreenenter"",""0"",""2810""
""fullscreenexit"",""2"",""4177""
""blur"",""2"",""6097""
""focus"",""3"",""15812""
""blur"",""4"",""18961""
""focus"",""4"",""29643""
""blur"",""6"",""41250""
""focus"",""7"",""56323""
""blur"",""8"",""58345""
""focus"",""9"",""94747""
""blur"",""10"",""96874""
""focus"",""11"",""104033""
""blur"",""12"",""111433""
""focus"",""13"",""137083""
""blur"",""14"",""139577""
""focus"",""14"",""152467""
","""event"",""trial"",""time""
""blur"",""0"",""0""
""blur"",""0"",""0""
""blur"",""0"",""0""
""blur"",""0"",""225""
""blur"",""2"",""6097""
""blur"",""4"",""18961""
""blur"",""6"",""41250""
""blur"",""8"",""58345""
""blur"",""10"",""96874""
""blur"",""12"",""111433""
""blur"",""14"",""139577""
