success,trial_type,trial_index,time_elapsed,internal_node_id,rt,stimulus,subject_id,key_press,response,choice_outcomes,context_n,context_img_id,trial_n,probe_img_id,pR_red,pR_white,pR_black,outcome,is_valid,image_to_show,probed_trial,probed_context,correct,context_id
TRUE,fullscreen,0,14438,0.0-0.0,,,,,,,,,,,,,,,,,,,,
,pavlovia,1,14444,0.0-1.0,,,,,,,,,,,,,,,,,,,,
,html-keyboard-response,2,17139,0.0-2.0,2693.2,"<div class='center'><p>Like yesterday,as the head captain of the ship, you have one important things to do: </p><b><p> Pick the pirate who you think will be most successful at robbing the next ship.</p></b><p>This is important in determining how much bonus money you’ll win.</p><br><p>The game will start by showing you the pirates. First pick a pirate using the <b> 1, 2, 3 </b> buttons on your keyboard. </p><p> Press <b>'1'</b> to choose red beard, <b>'2'</b> to choose white beard, and <b>'3'</b> to choose black beard</p><p> You only have 3 seconds to pick a pirate, so please make a choice quickly! If you are too slow, you’ll have to wait a bit during the time out.</p><p> Don’t feel rushed, but please do try to make a choice every time.</p><p>How good a pirate is at robbing a ship will change depending on the place they are in and how good the defenses are of the ship.</p><p><b>[Press the space bar to begin the practice game]</b></p></div>",615237946418da243413ef37,32,,,,,,,,,,,,,,,,
,html-keyboard-response,3,22855,0.0-3.0,5714.4,"<div class='center'><p>You’ve arrived at the final island of your journey! Unfortunately, it’s very foggy out, so you won’t be able to see it in the distance like the previous islands you've visited.</p><p>You’ll still be deciding which pirate you want to rob a ship like before. However, because of the fog, you also won’t be able to see the ship.</p><p>This means you do not have to remember the ships you rob on this island.</p><p><b>[Press the space bar to continue]</b></p></div>",,32,,,,,,,,,,,,,,,,
,html-keyboard-response,4,26244,0.0-4.0,3387.8,"<div class='center'><p> Sometimes you’ll be shown a ship, and you will be asked if you saw this ship on a past island.</p><p> Here is an example of what you will see.</p><p><b>[Press the space bar to continue]</b></p><p><img src='run_exp/static/images/tutorial/example_recog_trial.png' height='500'></p></div>",,32,,,,,,,,,,,,,,,,
,html-keyboard-response,5,28723,0.0-5.0,2477.3,"<div class='center'><p> You will press the 5, 6, 7, 8 buttons on your keyboard to respond.</p><p>If you are very sure saw the ship, press <b>5</b> on your keyboard.</p><p> If you think you  saw it before but are not sure, then press <b>6</b>.</p><p> If you think you have not seen it before but are not sure, then press <b>7</b>.</p><p> If you are sure you did not see the ship before, then press <b>8</b>.</p><p><b>[Press the space bar to continue]</b></p><p><img src='run_exp/static/images/tutorial/example_recog_trial.png' height='500'></p></div>",,32,,,,,,,,,,,,,,,,
,html-keyboard-response,6,29922,0.0-6.0,1197.4,"<div class='center'><p> If you remember correctly, then you’ll get a gold coin like this: </p><p><img src='run_exp/static/images/tutorial/reward_small.png' height='200'></p><p>If you do not remember correctly, then you'll see a red x like this: </p><p><img src='run_exp/static/images/tutorial/reward_no.png' height='200'></p><p>Importantly, when you are shown a ship, take the time to remind yourself which island you saw it on. This will help you in the next part of the study.</p><p><b>[Press the space bar to continue]</b></p></div>",,32,,,,,,,,,,,,,,,,
,html-keyboard-response,7,32311,0.0-7.0,2386.8,"<div class='center'><p>Let's go over the important points again. Your job is to: </p><p>1. Pick the pirate who is best at robbing ships and will bring you back gold coins. </p><p>2. Correctly remember whether or not you saw a ship before. If you did see the ship before, remind yourself on which island you saw the ship. </p><p><b>[Press the space bar to begin the next part of the study]</b></p></div>",,32,,,,,,,,,,,,,,,,
,do_welcome,8,33847,0.0-8.0,null,,,,null,,,,,,,,,,,,,,,
,do_trial,9,37684,0.0-9.0-0.0,1248.6,,,,49,"0,1,1",6,blank,230,null,0.230030914,0.468462922,0.165150621,0,,,,,,
,html-keyboard-response,10,38702,0.0-9.0-1.0,null,<p></p>,,null,,,,,,,,,,,,,,,,
,do_trial,11,41656,0.0-10.0-0.0,390.9,,,,50,"0,0,0",6,blank,231,null,0.259449308,0.379955799,0.154088545,0,,,,,,
,html-keyboard-response,12,42668,0.0-10.0-1.0,null,<p></p>,,null,,,,,,,,,,,,,,,,
,do_trial,13,45664,0.0-11.0-0.0,409.1,,,,51,"0,1,0",6,blank,232,null,0.25363146,0.546827658,0.232833507,0,,,,,,
,html-keyboard-response,14,46681,0.0-11.0-1.0,null,<p></p>,,null,,,,,,,,,,,,,,,,
,do_trial,15,49444,0.0-12.0-0.0,201,,,,49,"0,0,0",6,blank,233,null,0.285367592,0.398055057,0.068411902,0,,,,,,
,html-keyboard-response,16,50460,0.0-12.0-1.0,null,<p></p>,,null,,,,,,,,,,,,,,,,
,do_trial,17,53303,0.0-13.0-0.0,271.6999999,,,,50,"1,1,0",6,blank,234,null,0.337581955,0.569034888,0.115763973,1,,,,,,
,html-keyboard-response,18,54319,0.0-13.0-1.0,null,<p></p>,,null,,,,,,,,,,,,,,,,
,do_trial,19,57260,0.0-14.0-0.0,347.1,,,,50,"1,0,0",6,blank,235,null,0.435142437,0.564396692,0.153941417,0,,,,,,
,html-keyboard-response,20,58264,0.0-14.0-1.0,null,<p></p>,,null,,,,,,,,,,,,,,,,
,do_trial,21,61081,0.0-15.0-0.0,209.5,,,,50,"0,1,0",6,blank,236,null,0.487137664,0.496539546,0.217219461,1,,,,,,
,html-keyboard-response,22,62084,0.0-15.0-1.0,null,<p></p>,,null,,,,,,,,,,,,,,,,
,do_trial,23,65379,0.0-16.0-0.0,705.4,,,,50,"0,0,0",6,blank,237,null,0.528913814,0.684989217,0.207972686,0,,,,,,
,html-keyboard-response,24,66380,0.0-16.0-1.0,null,<p></p>,,null,,,,,,,,,,,,,,,,
,do_trial,25,69371,0.0-17.0-0.0,413.6,,,,50,"0,1,1",6,blank,238,null,0.330474705,0.660654398,0.148651301,1,,,,,,
,html-keyboard-response,26,70385,0.0-17.0-1.0,null,<p></p>,,null,,,,,,,,,,,,,,,,
,do_trial,27,73441,0.0-18.0-0.0,460.6,,,,50,"0,0,0",6,blank,239,null,0.220535414,0.590806725,0.178101625,0,,,,,,
,html-keyboard-response,28,74444,0.0-18.0-1.0,null,<p></p>,,null,,,,,,,,,,,,,,,,
,do_trial,29,77560,0.0-19.0-0.0,544.7,,,,50,"0,0,0",6,blank,240,null,0.207819568,0.57901909,0.12554431,0,,,,,,
,html-keyboard-response,30,78563,0.0-19.0-1.0,null,<p></p>,,null,,,,,,,,,,,,,,,,
,do_trial,31,81673,0.0-20.0-0.0,521,,,,50,"0,1,0",6,blank,241,null,0.119852823,0.699967296,0.211375071,1,,,,,,
,html-keyboard-response,32,82676,0.0-20.0-1.0,null,<p></p>,,null,,,,,,,,,,,,,,,,
,do_recog,33,86110,0.0-21.0-0.0,1913.7,,,,53,,,,242,probe-04,,,,,1,[object Object],41,1,1,
,html-keyboard-response,34,87126,0.0-21.0-1.0,null,<p></p>,,null,,,,,,,,,,,,,,,,
,do_trial,35,90394,0.0-22.0-0.0,672.9,,,,49,"0,1,1",6,blank,243,null,0.22223436,0.537461832,0.334441033,0,,,,,,
,html-keyboard-response,36,91397,0.0-22.0-1.0,null,<p></p>,,null,,,,,,,,,,,,,,,,
,do_trial,37,94448,0.0-23.0-0.0,462.5,,,,49,"0,0,1",6,blank,244,null,0.206068126,0.435467988,0.481961061,0,,,,,,
,html-keyboard-response,38,95453,0.0-23.0-1.0,null,<p></p>,,null,,,,,,,,,,,,,,,,
,do_trial,39,98285,0.0-24.0-0.0,238,,,,50,"0,1,1",6,blank,245,null,0.181271317,0.39153282,0.459145774,1,,,,,,
,html-keyboard-response,40,99298,0.0-24.0-1.0,null,<p></p>,,null,,,,,,,,,,,,,,,,
,do_trial,41,102757,0.0-25.0-0.0,889.4,,,,50,"0,1,1",6,blank,246,null,0.281739662,0.339317436,0.593405862,1,,,,,,
,html-keyboard-response,42,103772,0.0-25.0-1.0,null,<p></p>,,null,,,,,,,,,,,,,,,,
,do_recog,43,107565,0.0-26.0-0.0,2269.5,,,,56,,,,247,probe-117,,,,,1,[object Object],201,5,0,
,html-keyboard-response,44,108581,0.0-26.0-1.0,null,<p></p>,,null,,,,,,,,,,,,,,,,
,do_trial,45,112247,0.0-27.0-0.0,1070.7,,,,50,"0,0,1",6,blank,248,null,0.256408242,0.168920327,0.592776963,0,,,,,,
,html-keyboard-response,46,113264,0.0-27.0-1.0,null,<p></p>,,null,,,,,,,,,,,,,,,,
,do_trial,47,116442,0.0-28.0-0.0,597,,,,51,"0,0,0",6,blank,249,null,0.11705864,0.063913072,0.567084309,0,,,,,,
,html-keyboard-response,48,117458,0.0-28.0-1.0,null,<p></p>,,null,,,,,,,,,,,,,,,,
,do_trial,49,120342,0.0-29.0-0.0,296.3,,,,50,"0,1,1",6,blank,250,null,0.081907622,0.160358045,0.401310897,1,,,,,,
,html-keyboard-response,50,121358,0.0-29.0-1.0,null,<p></p>,,null,,,,,,,,,,,,,,,,
,do_trial,51,124313,0.0-30.0-0.0,361.3,,,,50,"0,0,1",6,blank,251,null,0.090776783,0.243618519,0.523158823,0,,,,,,
,html-keyboard-response,52,125328,0.0-30.0-1.0,null,<p></p>,,null,,,,,,,,,,,,,,,,
,do_trial,53,128245,0.0-31.0-0.0,324.7,,,,50,"0,0,1",6,blank,252,null,0.117582286,0.328380211,0.590971536,0,,,,,,
,html-keyboard-response,54,129250,0.0-31.0-1.0,null,<p></p>,,null,,,,,,,,,,,,,,,,
,do_trial,55,132192,0.0-32.0-0.0,362.1,,,,50,"0,1,1",6,blank,253,null,0.101965212,0.397058316,0.58167775,1,,,,,,
,html-keyboard-response,56,133195,0.0-32.0-1.0,null,<p></p>,,null,,,,,,,,,,,,,,,,
,do_recog,57,135750,0.0-33.0-0.0,1032.4,,,,53,,,,254,probe-155,,,,,1,[object Object],81,2,1,
,html-keyboard-response,58,136763,0.0-33.0-1.0,null,<p></p>,,null,,,,,,,,,,,,,,,,
,do_trial,59,139704,0.0-34.0-0.0,371.5,,,,50,"0,0,1",6,blank,255,null,0.069901908,0.415683512,0.579545018,0,,,,,,
,html-keyboard-response,60,140717,0.0-34.0-1.0,null,<p></p>,,null,,,,,,,,,,,,,,,,
,do_recog,61,143334,0.0-35.0-0.0,1102,,,,53,,,,256,probe-133,,,,,1,[object Object],206,5,1,
,html-keyboard-response,62,144349,0.0-35.0-1.0,null,<p></p>,,null,,,,,,,,,,,,,,,,
,do_trial,63,147477,0.0-36.0-0.0,543.2,,,,50,"0,0,1",6,blank,257,null,0.06019159,0.196107946,0.49548044,0,,,,,,
,html-keyboard-response,64,148480,0.0-36.0-1.0,null,<p></p>,,null,,,,,,,,,,,,,,,,
,do_recog,65,150689,0.0-37.0-0.0,694.8000001,,,,53,,,,258,probe-97,,,,,1,[object Object],160,4,1,
,html-keyboard-response,66,151706,0.0-37.0-1.0,null,<p></p>,,null,,,,,,,,,,,,,,,,
,do_trial,67,154604,0.0-38.0-0.0,307.6999999,,,,50,"0,0,1",6,blank,259,null,0.086102531,0.298130148,0.599650387,0,,,,,,
,html-keyboard-response,68,155617,0.0-38.0-1.0,null,<p></p>,,null,,,,,,,,,,,,,,,,
,do_trial,69,158708,0.0-39.0-0.0,498,,,,49,"0,0,0",6,blank,260,null,0.061461496,0.314501086,0.611393408,0,,,,,,
,html-keyboard-response,70,159727,0.0-39.0-1.0,null,<p></p>,,null,,,,,,,,,,,,,,,,
,do_trial,71,162626,0.0-40.0-0.0,303.9,,,,50,"0,0,0",6,blank,261,null,0.157304255,0.270827301,0.545041747,0,,,,,,
,html-keyboard-response,72,163643,0.0-40.0-1.0,null,<p></p>,,null,,,,,,,,,,,,,,,,
,do_trial,73,166538,0.0-41.0-0.0,310.7,,,,50,"0,0,1",6,blank,262,null,0.166313439,0.268308068,0.577653446,0,,,,,,
,html-keyboard-response,74,167554,0.0-41.0-1.0,null,<p></p>,,null,,,,,,,,,,,,,,,,
,do_trial,75,170462,0.0-42.0-0.0,327.6999999,,,,50,"0,0,0",6,blank,263,null,0.308913719,0.15920025,0.666619027,0,,,,,,
,html-keyboard-response,76,171467,0.0-42.0-1.0,null,<p></p>,,null,,,,,,,,,,,,,,,,
,do_trial,77,174395,0.0-43.0-0.0,343.8000001,,,,51,"0,0,1",6,blank,264,null,0.230857504,0.114275999,0.661285674,1,,,,,,
,html-keyboard-response,78,175397,0.0-43.0-1.0,null,<p></p>,,null,,,,,,,,,,,,,,,,
,do_trial,79,178368,0.0-44.0-0.0,398.8000001,,,,51,"1,0,0",6,blank,265,null,0.280966663,0.138053871,0.570646364,0,,,,,,
,html-keyboard-response,80,179381,0.0-44.0-1.0,null,<p></p>,,null,,,,,,,,,,,,,,,,
,do_recog,81,181729,0.0-45.0-0.0,827.1,,,,53,,,,266,probe-207,,,,,1,[object Object],125,3,1,
,html-keyboard-response,82,182746,0.0-45.0-1.0,null,<p></p>,,null,,,,,,,,,,,,,,,,
,do_trial,83,185676,0.0-46.0-0.0,354.6999999,,,,50,"0,0,1",6,blank,267,null,0.229099465,0.101233706,0.565705731,0,,,,,,
,html-keyboard-response,84,186686,0.0-46.0-1.0,null,<p></p>,,null,,,,,,,,,,,,,,,,
,do_trial,85,189520,0.0-47.0-0.0,253.9000001,,,,51,"0,0,1",6,blank,268,null,0.119832233,0.209356008,0.66827087,1,,,,,,
,html-keyboard-response,86,190536,0.0-47.0-1.0,null,<p></p>,,null,,,,,,,,,,,,,,,,
,do_trial,87,193658,0.0-48.0-0.0,531.6,,,,51,"0,0,0",6,blank,269,null,0.141161122,0.222852204,0.595217632,0,,,,,,
,html-keyboard-response,88,194674,0.0-48.0-1.0,null,<p></p>,,null,,,,,,,,,,,,,,,,
,do_trial,89,197688,0.0-49.0-0.0,428.6,,,,51,"0,0,1",6,blank,270,null,0.066184729,0.182029168,0.507047991,1,,,,,,
,html-keyboard-response,90,198705,0.0-49.0-1.0,null,<p></p>,,null,,,,,,,,,,,,,,,,
,do_recog,91,201040,0.0-50.0-0.0,817.5,,,,53,,,,271,probe-77,,,,,1,[object Object],165,4,1,
,html-keyboard-response,92,202042,0.0-50.0-1.0,null,<p></p>,,null,,,,,,,,,,,,,,,,
,do_trial,93,204928,0.0-51.0-0.0,309.3,,,,50,"0,0,1",6,blank,272,null,0.267411644,0.119386041,0.481799904,0,,,,,,
,html-keyboard-response,94,205942,0.0-51.0-1.0,null,<p></p>,,null,,,,,,,,,,,,,,,,
,do_recog,95,208065,0.0-52.0-0.0,599.2,,,,53,,,,273,probe-206,,,,,1,[object Object],168,4,1,
,html-keyboard-response,96,209080,0.0-52.0-1.0,null,<p></p>,,null,,,,,,,,,,,,,,,,
,do_trial,97,211872,0.0-53.0-0.0,209.8,,,,51,"0,1,0",6,blank,274,null,0.235465921,0.210930611,0.427323554,0,,,,,,
,html-keyboard-response,98,212874,0.0-53.0-1.0,null,<p></p>,,null,,,,,,,,,,,,,,,,
,do_recog,99,214893,0.0-54.0-0.0,497,,,,53,,,,275,probe-67,,,,,1,[object Object],128,3,1,
,html-keyboard-response,100,215908,0.0-54.0-1.0,null,<p></p>,,null,,,,,,,,,,,,,,,,
,do_trial,101,219221,0.0-55.0-0.0,710.1999999,,,,51,"0,1,0",6,blank,276,null,0.146903128,0.279558991,0.321857333,0,,,,,,
,html-keyboard-response,102,220237,0.0-55.0-1.0,null,<p></p>,,null,,,,,,,,,,,,,,,,
,do_trial,103,223074,0.0-56.0-0.0,262.5999999,,,,49,"0,0,1",6,blank,277,null,0.184370012,0.149339954,0.473185136,0,,,,,,
,html-keyboard-response,104,224091,0.0-56.0-1.0,null,<p></p>,,null,,,,,,,,,,,,,,,,
,do_trial,105,227156,0.0-57.0-0.0,479.6999999,,,,50,"0,0,0",6,blank,278,null,0.25612312,0.10941541,0.563373048,0,,,,,,
,html-keyboard-response,106,228172,0.0-57.0-1.0,null,<p></p>,,null,,,,,,,,,,,,,,,,
,do_trial,107,231128,0.0-58.0-0.0,389.6,,,,51,"1,0,0",6,blank,279,null,0.299443216,0.297597085,0.532309279,0,,,,,,
,html-keyboard-response,108,232132,0.0-58.0-1.0,null,<p></p>,,null,,,,,,,,,,,,,,,,
,do_recog,109,234289,0.0-59.0-0.0,631.6999999,,,,53,,,,280,probe-42,,,,,1,[object Object],89,2,1,
,html-keyboard-response,110,235303,0.0-59.0-1.0,null,<p></p>,,null,,,,,,,,,,,,,,,,
,do_trial,111,238232,0.0-60.0-0.0,341.1,,,,51,"1,0,0",6,blank,281,null,0.347220689,0.32638723,0.495843159,0,,,,,,
,html-keyboard-response,112,239244,0.0-60.0-1.0,null,<p></p>,,null,,,,,,,,,,,,,,,,
,do_recog,113,241384,0.0-61.0-0.0,626.7,,,,53,,,,282,probe-141,,,,,1,[object Object],126,3,1,
,html-keyboard-response,114,242396,0.0-61.0-1.0,null,<p></p>,,null,,,,,,,,,,,,,,,,
,do_trial,115,245425,0.0-62.0-0.0,448.5,,,,51,"0,1,0",6,blank,283,null,0.279303184,0.311140661,0.473925143,0,,,,,,
,html-keyboard-response,116,246428,0.0-62.0-1.0,null,<p></p>,,null,,,,,,,,,,,,,,,,
,do_recog,117,248544,0.0-63.0-0.0,600,,,,53,,,,284,probe-147,,,,,1,[object Object],169,4,1,
,html-keyboard-response,118,249559,0.0-63.0-1.0,null,<p></p>,,null,,,,,,,,,,,,,,,,
,do_trial,119,252522,0.0-64.0-0.0,369.4,,,,50,"1,0,0",6,blank,285,null,0.311561631,0.400979407,0.609020394,0,,,,,,
,html-keyboard-response,120,253539,0.0-64.0-1.0,null,<p></p>,,null,,,,,,,,,,,,,,,,
,do_trial,121,256677,0.0-65.0-0.0,551.3,,,,51,"1,1,1",6,blank,286,null,0.400757837,0.477539839,0.614148893,1,,,,,,
,html-keyboard-response,122,257691,0.0-65.0-1.0,null,<p></p>,,null,,,,,,,,,,,,,,,,
,do_trial,123,260772,0.0-66.0-0.0,489.2,,,,51,"0,0,0",6,blank,287,null,0.301250068,0.389871746,0.593837511,0,,,,,,
,html-keyboard-response,124,261785,0.0-66.0-1.0,null,<p></p>,,null,,,,,,,,,,,,,,,,
,do_trial,125,264693,0.0-67.0-0.0,307.1,,,,51,"1,0,1",6,blank,288,null,0.359004884,0.389900536,0.525203264,1,,,,,,
,html-keyboard-response,126,265707,0.0-67.0-1.0,null,<p></p>,,null,,,,,,,,,,,,,,,,
,do_trial,127,268606,0.0-68.0-0.0,327.9,,,,51,"1,0,0",6,blank,289,null,0.302565444,0.352967402,0.486938303,0,,,,,,
,html-keyboard-response,128,269622,0.0-68.0-1.0,null,<p></p>,,null,,,,,,,,,,,,,,,,
,do_trial,129,272520,0.0-69.0-0.0,320.6999999,,,,51,"0,0,1",6,blank,290,null,0.225659889,0.341766902,0.618382578,1,,,,,,
,html-keyboard-response,130,273532,0.0-69.0-1.0,null,<p></p>,,null,,,,,,,,,,,,,,,,
,do_trial,131,276400,0.0-70.0-0.0,286.9,,,,51,"1,0,1",6,blank,291,null,0.081933728,0.365490688,0.530425918,1,,,,,,
,html-keyboard-response,132,277401,0.0-70.0-1.0,null,<p></p>,,null,,,,,,,,,,,,,,,,
,do_recog,133,279559,0.0-71.0-0.0,638.1,,,,53,,,,292,probe-228,,,,,1,[object Object],83,2,1,
,html-keyboard-response,134,280572,0.0-71.0-1.0,null,<p></p>,,null,,,,,,,,,,,,,,,,
,do_trial,135,283505,0.0-72.0-0.0,356.4000001,,,,51,"0,1,0",6,blank,293,null,0.188218929,0.403468244,0.523849739,0,,,,,,
,html-keyboard-response,136,284508,0.0-72.0-1.0,null,<p></p>,,null,,,,,,,,,,,,,,,,
,do_trial,137,287477,0.0-73.0-0.0,388.1,,,,51,"0,0,1",6,blank,294,null,0.188172837,0.468596096,0.528050808,1,,,,,,
,html-keyboard-response,138,288483,0.0-73.0-1.0,null,<p></p>,,null,,,,,,,,,,,,,,,,
,do_trial,139,291553,0.0-74.0-0.0,485,,,,51,"0,1,1",6,blank,295,null,0.372425026,0.511066395,0.284339742,1,,,,,,
,html-keyboard-response,140,292569,0.0-74.0-1.0,null,<p></p>,,null,,,,,,,,,,,,,,,,
,do_trial,141,295592,0.0-75.0-0.0,426.5,,,,51,"0,1,0",6,blank,296,null,0.428144283,0.273959806,0.203241765,0,,,,,,
,html-keyboard-response,142,296606,0.0-75.0-1.0,null,<p></p>,,null,,,,,,,,,,,,,,,,
,do_recog,143,298673,0.0-76.0-0.0,549.0999999,,,,53,,,,297,probe-07,,,,,1,[object Object],82,2,1,
,html-keyboard-response,144,299685,0.0-76.0-1.0,null,<p></p>,,null,,,,,,,,,,,,,,,,
,do_trial,145,302855,0.0-77.0-0.0,586,,,,51,"1,1,0",6,blank,298,null,0.540061946,0.326842371,0.293025986,0,,,,,,
,html-keyboard-response,146,303860,0.0-77.0-1.0,null,<p></p>,,null,,,,,,,,,,,,,,,,
,do_trial,147,307301,0.0-78.0-0.0,865.7,,,,49,"0,0,1",6,blank,299,null,0.635912937,0.256840341,0.245998969,0,,,,,,
,html-keyboard-response,148,308316,0.0-78.0-1.0,null,<p></p>,,null,,,,,,,,,,,,,,,,
,do_recog,149,310531,0.0-79.0-0.0,696.9,,,,53,,,,300,probe-66,,,,,1,[object Object],88,2,1,
,html-keyboard-response,150,311536,0.0-79.0-1.0,null,<p></p>,,null,,,,,,,,,,,,,,,,
,do_trial,151,314404,0.0-80.0-0.0,289.1999999,,,,50,"0,1,0",6,blank,301,null,0.683899812,0.390887762,0.192179834,1,,,,,,
,html-keyboard-response,152,315413,0.0-80.0-1.0,null,<p></p>,,null,,,,,,,,,,,,,,,,
,do_recog,153,317482,0.0-81.0-0.0,551.5,,,,53,,,,302,probe-68,,,,,1,[object Object],161,4,1,
,html-keyboard-response,154,318498,0.0-81.0-1.0,null,<p></p>,,null,,,,,,,,,,,,,,,,
,do_trial,155,321506,0.0-82.0-0.0,423.2,,,,50,"1,0,0",6,blank,303,null,0.77623274,0.229295434,0.15097312,0,,,,,,
,html-keyboard-response,156,322523,0.0-82.0-1.0,null,<p></p>,,null,,,,,,,,,,,,,,,,
,do_trial,157,325368,0.0-83.0-0.0,271.8000001,,,,50,"0,0,0",6,blank,304,null,0.602825582,0.196563477,0.128111115,0,,,,,,
,html-keyboard-response,158,326371,0.0-83.0-1.0,null,<p></p>,,null,,,,,,,,,,,,,,,,
,do_recog,159,328444,0.0-84.0-0.0,559.7,,,,53,,,,305,probe-200,,,,,1,[object Object],129,3,1,
,html-keyboard-response,160,329446,0.0-84.0-1.0,null,<p></p>,,null,,,,,,,,,,,,,,,,
,do_trial,161,332224,0.0-85.0-0.0,190.2,,,,51,"1,0,0",6,blank,306,null,0.583431899,0.143330093,0.071482043,0,,,,,,
,html-keyboard-response,162,333232,0.0-85.0-1.0,null,<p></p>,,null,,,,,,,,,,,,,,,,
,do_recog,163,335237,0.0-86.0-0.0,493.6999999,,,,53,,,,307,probe-96,,,,,1,[object Object],42,1,1,
,html-keyboard-response,164,336239,0.0-86.0-1.0,null,<p></p>,,null,,,,,,,,,,,,,,,,
,do_trial,165,339680,0.0-87.0-0.0,846,,,,51,"0,0,0",6,blank,308,null,0.428214138,0.089663712,0.080370093,0,,,,,,
,html-keyboard-response,166,340682,0.0-87.0-1.0,null,<p></p>,,null,,,,,,,,,,,,,,,,
,do_trial,167,343766,0.0-88.0-0.0,506.4,,,,51,"1,1,0",6,blank,309,null,0.485824083,0.275417143,0.210868676,0,,,,,,
,html-keyboard-response,168,344784,0.0-88.0-1.0,null,<p></p>,,null,,,,,,,,,,,,,,,,
,do_trial,169,348013,0.0-89.0-0.0,652.4000001,,,,50,"0,0,0",6,blank,310,null,0.684941451,0.401513274,0.152658901,0,,,,,,
,html-keyboard-response,170,349016,0.0-89.0-1.0,null,<p></p>,,null,,,,,,,,,,,,,,,,
,do_trial,171,351940,0.0-90.0-0.0,338.2,,,,50,"1,0,0",6,blank,311,null,0.647619494,0.299819717,0.195095346,0,,,,,,
,html-keyboard-response,172,352956,0.0-90.0-1.0,null,<p></p>,,null,,,,,,,,,,,,,,,,
,do_trial,173,355953,0.0-91.0-0.0,389.5,,,,50,"0,0,0",6,blank,312,null,0.522081093,0.247652845,0.137457811,0,,,,,,
,html-keyboard-response,174,356954,0.0-91.0-1.0,null,<p></p>,,null,,,,,,,,,,,,,,,,
,do_recog,175,358932,0.0-92.0-0.0,459.5,,,,53,,,,313,probe-49,,,,,1,[object Object],80,2,1,
,html-keyboard-response,176,359947,0.0-92.0-1.0,null,<p></p>,,null,,,,,,,,,,,,,,,,
,do_trial,177,362939,0.0-93.0-0.0,411.3,,,,51,"0,0,0",6,blank,314,null,0.431318381,0.226156129,0.080166137,0,,,,,,
,html-keyboard-response,178,363949,0.0-93.0-1.0,null,<p></p>,,null,,,,,,,,,,,,,,,,
,do_recog,179,365974,0.0-94.0-0.0,508.4000001,,,,53,,,,315,probe-249,,,,,0,[object Object],null,null,0,
,html-keyboard-response,180,366976,0.0-94.0-1.0,null,<p></p>,,null,,,,,,,,,,,,,,,,
,do_trial,181,369948,0.0-95.0-0.0,386.4,,,,51,"0,1,0",6,blank,316,null,0.638140291,0.306943873,0.133390603,0,,,,,,
,html-keyboard-response,182,370959,0.0-95.0-1.0,null,<p></p>,,null,,,,,,,,,,,,,,,,
,do_trial,183,374142,0.0-96.0-0.0,583.7,,,,51,"0,1,0",6,blank,317,null,0.634455902,0.408985945,0.113342217,0,,,,,,
,html-keyboard-response,184,375144,0.0-96.0-1.0,null,<p></p>,,null,,,,,,,,,,,,,,,,
,do_trial,185,378137,0.0-97.0-0.0,419.7,,,,51,"1,1,1",6,blank,318,null,0.670327561,0.398244771,0.137833354,1,,,,,,
,html-keyboard-response,186,379151,0.0-97.0-1.0,null,<p></p>,,null,,,,,,,,,,,,,,,,
,do_trial,187,382149,0.0-98.0-0.0,416,,,,51,"1,1,0",6,blank,319,null,0.662214142,0.343969557,0.13205876,0,,,,,,
,html-keyboard-response,188,383152,0.0-98.0-1.0,null,<p></p>,,null,,,,,,,,,,,,,,,,
,do_trial,189,386273,0.0-99.0-0.0,536.4,,,,51,"1,0,1",6,blank,320,null,0.750724331,0.412424931,0.119028477,1,,,,,,
,html-keyboard-response,190,387288,0.0-99.0-1.0,null,<p></p>,,null,,,,,,,,,,,,,,,,
,do_recog,191,389323,0.0-100.0-0.0,516.6999999,,,,56,,,,321,probe-178,,,,,1,[object Object],84,2,0,
,html-keyboard-response,192,390325,0.0-100.0-1.0,null,<p></p>,,null,,,,,,,,,,,,,,,,
,do_trial,193,393511,0.0-101.0-0.0,598.6,,,,51,"0,0,0",6,blank,322,null,0.633679222,0.404911134,0.154068742,0,,,,,,
,html-keyboard-response,194,394514,0.0-101.0-1.0,null,<p></p>,,null,,,,,,,,,,,,,,,,
,do_trial,195,397784,0.0-102.0-0.0,684.9,,,,51,"1,0,0",6,blank,323,null,0.687889002,0.409974632,0.169054007,0,,,,,,
,html-keyboard-response,196,398799,0.0-102.0-1.0,null,<p></p>,,null,,,,,,,,,,,,,,,,
,do_trial,197,401973,0.0-103.0-0.0,597.8,,,,51,"1,0,0",6,blank,324,null,0.570137827,0.459421726,0.20633302,0,,,,,,
,html-keyboard-response,198,402988,0.0-103.0-1.0,null,<p></p>,,null,,,,,,,,,,,,,,,,
,do_trial,199,406166,0.0-104.0-0.0,606.8,,,,49,"1,1,1",6,blank,325,null,0.434429546,0.401785571,0.070658256,1,,,,,,
,html-keyboard-response,200,407181,0.0-104.0-1.0,null,<p></p>,,null,,,,,,,,,,,,,,,,
,do_recog,201,409749,0.0-105.0-0.0,1052.1,,,,53,,,,326,probe-38,,,,,1,[object Object],162,4,1,
,html-keyboard-response,202,410763,0.0-105.0-1.0,null,<p></p>,,null,,,,,,,,,,,,,,,,
,do_trial,203,413736,0.0-106.0-0.0,391.6999999,,,,49,"1,0,1",6,blank,327,null,0.448538648,0.308527753,0.093634061,1,,,,,,
,html-keyboard-response,204,414747,0.0-106.0-1.0,null,<p></p>,,null,,,,,,,,,,,,,,,,
,do_trial,205,417616,0.0-107.0-0.0,290.3000001,,,,49,"0,0,0",6,blank,328,null,0.505310632,0.094481662,0.172629932,0,,,,,,
,html-keyboard-response,206,418628,0.0-107.0-1.0,null,<p></p>,,null,,,,,,,,,,,,,,,,
,do_trial,207,421543,0.0-108.0-0.0,332.9,,,,49,"1,1,0",6,blank,329,null,0.634736023,0.243483054,0.159354362,1,,,,,,
,html-keyboard-response,208,422545,0.0-108.0-1.0,null,<p></p>,,null,,,,,,,,,,,,,,,,
,do_recog,209,424843,0.0-109.0-0.0,780.4,,,,53,,,,330,probe-187,,,,,1,[object Object],122,3,1,
,html-keyboard-response,210,425859,0.0-109.0-1.0,null,<p></p>,,null,,,,,,,,,,,,,,,,
,do_trial,211,428772,0.0-110.0-0.0,331.9000001,,,,49,"1,1,1",6,blank,331,null,0.750133165,0.185698495,0.109035607,1,,,,,,
,html-keyboard-response,212,429777,0.0-110.0-1.0,null,<p></p>,,null,,,,,,,,,,,,,,,,
,do_trial,213,432772,0.0-111.0-0.0,405.1,,,,49,"1,1,0",6,blank,332,null,0.735989402,0.204523318,0.064593601,1,,,,,,
,html-keyboard-response,214,433774,0.0-111.0-1.0,null,<p></p>,,null,,,,,,,,,,,,,,,,
,do_trial,215,436785,0.0-112.0-0.0,433.9,,,,49,"1,1,0",6,blank,333,null,0.700960385,0.265631578,0.156490542,1,,,,,,
,html-keyboard-response,216,437802,0.0-112.0-1.0,null,<p></p>,,null,,,,,,,,,,,,,,,,
,do_trial,217,440759,0.0-113.0-0.0,366.8,,,,49,"0,0,0",6,blank,334,null,0.618092163,0.220736358,0.160743634,0,,,,,,
,html-keyboard-response,218,441776,0.0-113.0-1.0,null,<p></p>,,null,,,,,,,,,,,,,,,,
,do_trial,219,444604,0.0-114.0-0.0,253.5,,,,49,"1,0,0",6,blank,335,null,0.537711318,0.314023588,0.118870976,1,,,,,,
,html-keyboard-response,220,445622,0.0-114.0-1.0,null,<p></p>,,null,,,,,,,,,,,,,,,,
,do_trial,221,448515,0.0-115.0-0.0,313.9,,,,49,"0,0,0",6,blank,336,null,0.494387287,0.435941425,0.073191384,0,,,,,,
,html-keyboard-response,222,449518,0.0-115.0-1.0,null,<p></p>,,null,,,,,,,,,,,,,,,,
,do_recog,223,451799,0.0-116.0-0.0,765,,,,53,,,,337,probe-106,,,,,1,[object Object],163,4,1,
,html-keyboard-response,224,452802,0.0-116.0-1.0,null,<p></p>,,null,,,,,,,,,,,,,,,,
,do_trial,225,455633,0.0-117.0-0.0,253.1,,,,49,"1,1,0",6,blank,338,null,0.539875471,0.404138157,0.057025837,1,,,,,,
,html-keyboard-response,226,456648,0.0-117.0-1.0,null,<p></p>,,null,,,,,,,,,,,,,,,,
,do_trial,227,459539,0.0-118.0-0.0,292.9,,,,49,"1,1,0",6,blank,339,null,0.560832873,0.404340832,0.113275528,1,,,,,,
,html-keyboard-response,228,460549,0.0-118.0-1.0,null,<p></p>,,null,,,,,,,,,,,,,,,,
,do_trial,229,463442,0.0-119.0-0.0,309.8,,,,49,"1,0,0",6,blank,340,null,0.568200611,0.368082066,0.055761867,1,,,,,,
,html-keyboard-response,230,464456,0.0-119.0-1.0,null,<p></p>,,null,,,,,,,,,,,,,,,,
,do_trial,231,467302,0.0-120.0-0.0,270.7,,,,49,"0,1,0",6,blank,341,null,0.48364605,0.357911602,0.159958234,0,,,,,,
,html-keyboard-response,232,468318,0.0-120.0-1.0,null,<p></p>,,null,,,,,,,,,,,,,,,,
,do_trial,233,471122,0.0-121.0-0.0,231.4,,,,49,"1,0,1",6,blank,342,null,0.479250043,0.340751724,0.179803926,1,,,,,,
,html-keyboard-response,234,472132,0.0-121.0-1.0,null,<p></p>,,null,,,,,,,,,,,,,,,,
,do_trial,235,475032,0.0-122.0-0.0,316.8,,,,49,"1,0,0",6,blank,343,null,0.460198715,0.402347392,0.159374685,1,,,,,,
,html-keyboard-response,236,476046,0.0-122.0-1.0,null,<p></p>,,null,,,,,,,,,,,,,,,,
,do_recog,237,478498,0.0-123.0-0.0,930.8,,,,53,,,,344,probe-118,,,,,1,[object Object],127,3,1,
,html-keyboard-response,238,479510,0.0-123.0-1.0,null,<p></p>,,null,,,,,,,,,,,,,,,,
,do_trial,239,482456,0.0-124.0-0.0,344.3,,,,49,"1,0,1",6,blank,345,null,0.405492659,0.451317954,0.286438441,1,,,,,,
,html-keyboard-response,240,483470,0.0-124.0-1.0,null,<p></p>,,null,,,,,,,,,,,,,,,,
,do_recog,241,485875,0.0-125.0-0.0,898,,,,53,,,,346,probe-126,,,,,1,[object Object],120,3,1,
,html-keyboard-response,242,486883,0.0-125.0-1.0,null,<p></p>,,null,,,,,,,,,,,,,,,,
,do_trial,243,489815,0.0-126.0-0.0,349.3,,,,49,"1,1,0",6,blank,347,null,0.2628127,0.596253409,0.276025873,1,,,,,,
,html-keyboard-response,244,490831,0.0-126.0-1.0,null,<p></p>,,null,,,,,,,,,,,,,,,,
,do_recog,245,493177,0.0-127.0-0.0,823,,,,53,,,,348,probe-122,,,,,1,[object Object],86,2,1,
,html-keyboard-response,246,494192,0.0-127.0-1.0,null,<p></p>,,null,,,,,,,,,,,,,,,,
,do_trial,247,497103,0.0-128.0-0.0,337.1,,,,49,"1,1,0",6,blank,349,null,0.297156646,0.65543989,0.215711537,1,,,,,,
,html-keyboard-response,248,498118,0.0-128.0-1.0,null,<p></p>,,null,,,,,,,,,,,,,,,,
,do_trial,249,501103,0.0-129.0-0.0,401.7,,,,49,"1,1,0",6,blank,350,null,0.390729834,0.691641584,0.060392655,1,,,,,,
,html-keyboard-response,250,502112,0.0-129.0-1.0,null,<p></p>,,null,,,,,,,,,,,,,,,,
,do_trial,251,505070,0.0-130.0-0.0,385.1,,,,49,"0,1,0",6,blank,351,null,0.496335983,0.704366374,0.050605623,0,,,,,,
,html-keyboard-response,252,506083,0.0-130.0-1.0,null,<p></p>,,null,,,,,,,,,,,,,,,,
,do_recog,253,508718,0.0-131.0-0.0,1116,,,,53,,,,352,probe-154,,,,,1,[object Object],49,1,1,
,html-keyboard-response,254,509730,0.0-131.0-1.0,null,<p></p>,,null,,,,,,,,,,,,,,,,
,do_trial,255,512738,0.0-132.0-0.0,425.8000001,,,,49,"1,1,0",6,blank,353,null,0.444660762,0.764207195,0.139188422,1,,,,,,
,html-keyboard-response,256,513741,0.0-132.0-1.0,null,<p></p>,,null,,,,,,,,,,,,,,,,
,do_trial,257,516735,0.0-133.0-0.0,415.8,,,,49,"0,0,0",6,blank,354,null,0.246426192,0.66513936,0.265338588,0,,,,,,
,html-keyboard-response,258,517751,0.0-133.0-1.0,null,<p></p>,,null,,,,,,,,,,,,,,,,
,do_trial,259,520672,0.0-134.0-0.0,343.4,,,,49,"1,1,0",6,blank,355,null,0.334644223,0.577865658,0.157907251,1,,,,,,
,html-keyboard-response,260,521684,0.0-134.0-1.0,null,<p></p>,,null,,,,,,,,,,,,,,,,
,do_trial,261,524630,0.0-135.0-0.0,368.6,,,,49,"1,1,0",6,blank,356,null,0.290809377,0.609197809,0.051502242,1,,,,,,
,html-keyboard-response,262,525646,0.0-135.0-1.0,null,<p></p>,,null,,,,,,,,,,,,,,,,
,do_trial,263,528532,0.0-136.0-0.0,301.1,,,,49,"0,1,0",6,blank,357,null,0.229042936,0.560094651,0.172262979,0,,,,,,
,html-keyboard-response,264,529536,0.0-136.0-1.0,null,<p></p>,,null,,,,,,,,,,,,,,,,
,do_trial,265,532465,0.0-137.0-0.0,346.5999999,,,,49,"0,0,0",6,blank,358,null,0.346528128,0.546482796,0.181734979,0,,,,,,
,html-keyboard-response,266,533482,0.0-137.0-1.0,null,<p></p>,,null,,,,,,,,,,,,,,,,
,do_recog,267,536171,0.0-138.0-0.0,1177.3,,,,53,,,,359,probe-213,,,,,1,[object Object],205,5,1,
,html-keyboard-response,268,537183,0.0-138.0-1.0,null,<p></p>,,null,,,,,,,,,,,,,,,,
,do_trial,269,540168,0.0-139.0-0.0,408.6,,,,49,"0,1,0",6,blank,360,null,0.327933583,0.685126614,0.238550448,0,,,,,,
,html-keyboard-response,270,541183,0.0-139.0-1.0,null,<p></p>,,null,,,,,,,,,,,,,,,,
,do_recog,271,543591,0.0-140.0-0.0,897,,,,53,,,,361,probe-93,,,,,1,[object Object],166,4,1,
,html-keyboard-response,272,544605,0.0-140.0-1.0,null,<p></p>,,null,,,,,,,,,,,,,,,,
,do_trial,273,547585,0.0-141.0-0.0,387.6,,,,49,"0,1,0",6,blank,362,null,0.369195893,0.653485587,0.109472428,0,,,,,,
,html-keyboard-response,274,548601,0.0-141.0-1.0,null,<p></p>,,null,,,,,,,,,,,,,,,,
,do_trial,275,551584,0.0-142.0-0.0,386.4,,,,49,"0,1,0",6,blank,363,null,0.385359341,0.77075231,0.081053437,0,,,,,,
,html-keyboard-response,276,552597,0.0-142.0-1.0,null,<p></p>,,null,,,,,,,,,,,,,,,,
,do_trial,277,555558,0.0-143.0-0.0,387.6,,,,51,"0,1,0",6,blank,364,null,0.40267897,0.768250006,0.158462521,0,,,,,,
,html-keyboard-response,278,556572,0.0-143.0-1.0,null,<p></p>,,null,,,,,,,,,,,,,,,,
,do_trial,279,559482,0.0-144.0-0.0,348.0999999,,,,50,"0,1,0",6,blank,365,null,0.204197268,0.662644948,0.228559957,1,,,,,,
,html-keyboard-response,280,560486,0.0-144.0-1.0,null,<p></p>,,null,,,,,,,,,,,,,,,,
,do_trial,281,563365,0.0-145.0-0.0,300.3000001,,,,50,"0,1,1",6,blank,366,null,0.216368457,0.595362217,0.234826191,1,,,,,,
,html-keyboard-response,282,564378,0.0-145.0-1.0,null,<p></p>,,null,,,,,,,,,,,,,,,,
,do_recog,283,566707,0.0-146.0-0.0,807.9000001,,,,53,,,,367,probe-84,,,,,1,[object Object],44,1,1,
,html-keyboard-response,284,567722,0.0-146.0-1.0,null,<p></p>,,null,,,,,,,,,,,,,,,,
,do_trial,285,570628,0.0-147.0-0.0,337,,,,50,"0,1,1",6,blank,368,null,0.262808242,0.423597813,0.383015565,1,,,,,,
,html-keyboard-response,286,571643,0.0-147.0-1.0,null,<p></p>,,null,,,,,,,,,,,,,,,,
,do_recog,287,574146,0.0-148.0-0.0,981.7,,,,56,,,,369,probe-233,,,,,0,[object Object],null,null,1,
,html-keyboard-response,288,575162,0.0-148.0-1.0,null,<p></p>,,null,,,,,,,,,,,,,,,,
,do_trial,289,578130,0.0-149.0-0.0,374.5,,,,50,"1,0,0",6,blank,370,null,0.191699984,0.476049685,0.223104247,0,,,,,,
,html-keyboard-response,290,579143,0.0-149.0-1.0,null,<p></p>,,null,,,,,,,,,,,,,,,,
,do_recog,291,581696,0.0-150.0-0.0,1038.6,,,,53,,,,371,probe-28,,,,,1,[object Object],46,1,1,
,html-keyboard-response,292,582712,0.0-150.0-1.0,null,<p></p>,,null,,,,,,,,,,,,,,,,
,do_trial,293,585898,0.0-151.0-0.0,590.7,,,,49,"1,1,1",6,blank,372,null,0.226130103,0.536537956,0.28860948,1,,,,,,
,html-keyboard-response,294,586911,0.0-151.0-1.0,null,<p></p>,,null,,,,,,,,,,,,,,,,
,do_trial,295,590004,0.0-152.0-0.0,510.5,,,,49,"0,0,0",6,blank,373,null,0.185840781,0.493987845,0.305636851,0,,,,,,
,html-keyboard-response,296,591010,0.0-152.0-1.0,null,<p></p>,,null,,,,,,,,,,,,,,,,
,do_trial,297,593930,0.0-153.0-0.0,340.4,,,,50,"0,1,0",6,blank,374,null,0.112875443,0.642263154,0.200644736,1,,,,,,
,html-keyboard-response,298,594945,0.0-153.0-1.0,null,<p></p>,,null,,,,,,,,,,,,,,,,
,do_trial,299,597853,0.0-154.0-0.0,333.0999999,,,,50,"0,0,0",6,blank,375,null,0.127549487,0.699224097,0.241920917,0,,,,,,
,html-keyboard-response,300,598862,0.0-154.0-1.0,null,<p></p>,,null,,,,,,,,,,,,,,,,
,do_trial,301,601696,0.0-155.0-0.0,251,,,,50,"0,1,0",6,blank,376,null,0.157601696,0.730525484,0.075196107,1,,,,,,
,html-keyboard-response,302,602698,0.0-155.0-1.0,null,<p></p>,,null,,,,,,,,,,,,,,,,
,do_trial,303,605603,0.0-156.0-0.0,332,,,,50,"0,1,0",6,blank,377,null,0.058947307,0.727525712,0.068112994,1,,,,,,
,html-keyboard-response,304,606615,0.0-156.0-1.0,null,<p></p>,,null,,,,,,,,,,,,,,,,
,do_recog,305,608991,0.0-157.0-0.0,856,,,,53,,,,378,probe-189,,,,,1,[object Object],204,5,1,
,html-keyboard-response,306,610005,0.0-157.0-1.0,null,<p></p>,,null,,,,,,,,,,,,,,,,
,do_trial,307,612937,0.0-158.0-0.0,345,,,,50,"0,0,0",6,blank,379,null,0.191765018,0.544560726,0.075659615,0,,,,,,
,html-keyboard-response,308,613953,0.0-158.0-1.0,null,<p></p>,,null,,,,,,,,,,,,,,,,
,do_trial,309,616802,0.0-159.0-0.0,281.1,,,,50,"1,1,0",6,blank,380,null,0.397960853,0.622900212,0.119770761,1,,,,,,
,html-keyboard-response,310,617803,0.0-159.0-1.0,null,<p></p>,,null,,,,,,,,,,,,,,,,
,do_trial,311,620679,0.0-160.0-0.0,289.5,,,,50,"0,1,0",6,blank,381,null,0.368240278,0.607234399,0.072451682,1,,,,,,
,html-keyboard-response,312,621695,0.0-160.0-1.0,null,<p></p>,,null,,,,,,,,,,,,,,,,
,do_trial,313,624691,0.0-161.0-0.0,413,,,,50,"1,1,1",6,blank,382,null,0.462430612,0.689010141,0.247683926,1,,,,,,
,html-keyboard-response,314,625700,0.0-161.0-1.0,null,<p></p>,,null,,,,,,,,,,,,,,,,
,do_recog,315,628207,0.0-162.0-0.0,991,,,,53,,,,383,probe-169,,,,,1,[object Object],209,5,1,
,html-keyboard-response,316,629220,0.0-162.0-1.0,null,<p></p>,,null,,,,,,,,,,,,,,,,
,do_trial,317,632342,0.0-163.0-0.0,519,,,,50,"0,1,0",6,blank,384,null,0.50001525,0.60210646,0.153873627,1,,,,,,
,html-keyboard-response,318,633357,0.0-163.0-1.0,null,<p></p>,,null,,,,,,,,,,,,,,,,
,do_recog,319,635748,0.0-164.0-0.0,874,,,,53,,,,385,probe-157,,,,,1,[object Object],164,4,1,
,html-keyboard-response,320,636762,0.0-164.0-1.0,null,<p></p>,,null,,,,,,,,,,,,,,,,
,do_trial,321,639893,0.0-165.0-0.0,555.4000001,,,,49,"1,1,0",6,blank,386,null,0.343715774,0.622413235,0.06914887,1,,,,,,
,html-keyboard-response,322,640907,0.0-165.0-1.0,null,<p></p>,,null,,,,,,,,,,,,,,,,
,do_trial,323,644152,0.0-166.0-0.0,665.2,,,,49,"0,1,0",6,blank,387,null,0.24643036,0.664007914,0.149412312,0,,,,,,
,html-keyboard-response,324,645164,0.0-166.0-1.0,null,<p></p>,,null,,,,,,,,,,,,,,,,
,do_trial,325,647949,0.0-167.0-0.0,207.3000001,,,,49,"1,0,0",6,blank,388,null,0.323380245,0.769622659,0.21414149,1,,,,,,
,html-keyboard-response,326,648967,0.0-167.0-1.0,null,<p></p>,,null,,,,,,,,,,,,,,,,
,do_trial,327,651943,0.0-168.0-0.0,386.3,,,,49,"1,1,0",6,blank,389,null,0.545279357,0.719389817,0.207600402,1,,,,,,
,html-keyboard-response,328,652958,0.0-168.0-1.0,null,<p></p>,,null,,,,,,,,,,,,,,,,
,do_trial,329,655953,0.0-169.0-0.0,417.7,,,,49,"1,1,0",6,blank,390,null,0.490133418,0.685627078,0.206880182,1,,,,,,
,html-keyboard-response,330,656970,0.0-169.0-1.0,null,<p></p>,,null,,,,,,,,,,,,,,,,
,do_recog,331,659283,0.0-170.0-0.0,796.5,,,,53,,,,391,probe-143,,,,,1,[object Object],167,4,1,
,html-keyboard-response,332,660299,0.0-170.0-1.0,null,<p></p>,,null,,,,,,,,,,,,,,,,
,do_trial,333,663385,0.0-171.0-0.0,504.5999999,,,,49,"1,1,1",6,blank,392,null,0.485111726,0.628104667,0.283733387,1,,,,,,
,html-keyboard-response,334,664402,0.0-171.0-1.0,null,<p></p>,,null,,,,,,,,,,,,,,,,
,do_trial,335,667503,0.0-172.0-0.0,517.8000001,,,,49,"0,0,1",6,blank,393,null,0.554389063,0.419289374,0.265181846,0,,,,,,
,html-keyboard-response,336,668515,0.0-172.0-1.0,null,<p></p>,,null,,,,,,,,,,,,,,,,
,do_trial,337,671541,0.0-173.0-0.0,456.4,,,,50,"1,0,0",6,blank,394,null,0.404328032,0.361889349,0.051039603,0,,,,,,
,html-keyboard-response,338,672552,0.0-173.0-1.0,null,<p></p>,,null,,,,,,,,,,,,,,,,
,do_trial,339,675526,0.0-174.0-0.0,395.6999999,,,,51,"0,1,0",6,blank,395,null,0.350218141,0.383035429,0.059379054,0,,,,,,
,html-keyboard-response,340,676536,0.0-174.0-1.0,null,<p></p>,,null,,,,,,,,,,,,,,,,
,do_trial,341,679526,0.0-175.0-0.0,406.2,,,,49,"0,0,0",6,blank,396,null,0.376145398,0.473023116,0.094135393,0,,,,,,
,html-keyboard-response,342,680529,0.0-175.0-1.0,null,<p></p>,,null,,,,,,,,,,,,,,,,
,do_trial,343,683595,0.0-176.0-0.0,478.9,,,,50,"0,0,1",6,blank,397,null,0.367356102,0.398611244,0.106011494,0,,,,,,
,html-keyboard-response,344,684609,0.0-176.0-1.0,null,<p></p>,,null,,,,,,,,,,,,,,,,
,do_recog,345,686955,0.0-177.0-0.0,826.6,,,,53,,,,398,probe-226,,,,,1,[object Object],45,1,1,
,html-keyboard-response,346,687969,0.0-177.0-1.0,null,<p></p>,,null,,,,,,,,,,,,,,,,
,do_trial,347,690925,0.0-178.0-0.0,372.9,,,,49,"1,0,0",6,blank,399,null,0.35347563,0.39718176,0.074386472,1,,,,,,
,html-keyboard-response,348,691939,0.0-178.0-1.0,null,<p></p>,,null,,,,,,,,,,,,,,,,
,do_trial,349,694763,0.0-179.0-0.0,229,,,,49,"0,0,1",6,blank,400,null,0.305402652,0.287232992,0.311589237,0,,,,,,
,html-keyboard-response,350,695776,0.0-179.0-1.0,null,<p></p>,,null,,,,,,,,,,,,,,,,
,do_trial,351,698789,0.0-180.0-0.0,428.6,,,,50,"0,1,1",6,blank,401,null,0.209130005,0.258045176,0.349682868,1,,,,,,
,html-keyboard-response,352,699796,0.0-180.0-1.0,null,<p></p>,,null,,,,,,,,,,,,,,,,
,do_trial,353,702777,0.0-181.0-0.0,408,,,,50,"0,0,0",6,blank,402,null,0.158201832,0.221814981,0.454734155,0,,,,,,
,html-keyboard-response,354,703792,0.0-181.0-1.0,null,<p></p>,,null,,,,,,,,,,,,,,,,
,do_trial,355,706767,0.0-182.0-0.0,392.5999999,,,,49,"0,0,0",6,blank,403,null,0.197331461,0.193801013,0.682389566,0,,,,,,
,html-keyboard-response,356,707778,0.0-182.0-1.0,null,<p></p>,,null,,,,,,,,,,,,,,,,
,do_trial,357,711233,0.0-183.0-0.0,869.1,,,,50,"1,0,0",6,blank,404,null,0.128628379,0.305470823,0.586015568,0,,,,,,
,html-keyboard-response,358,712245,0.0-183.0-1.0,null,<p></p>,,null,,,,,,,,,,,,,,,,
,do_trial,359,715102,0.0-184.0-0.0,262.8000001,,,,49,"1,1,1",6,blank,405,null,0.22376636,0.419358961,0.620370992,1,,,,,,
,html-keyboard-response,360,716119,0.0-184.0-1.0,null,<p></p>,,null,,,,,,,,,,,,,,,,
,do_recog,361,718537,0.0-185.0-0.0,900.5,,,,53,,,,406,probe-86,,,,,1,[object Object],124,3,1,
,html-keyboard-response,362,719551,0.0-185.0-1.0,null,<p></p>,,null,,,,,,,,,,,,,,,,
,do_trial,363,722557,0.0-186.0-0.0,430,,,,49,"0,0,1",6,blank,407,null,0.098029826,0.473808055,0.756608135,0,,,,,,
,html-keyboard-response,364,723570,0.0-186.0-1.0,null,<p></p>,,null,,,,,,,,,,,,,,,,
,do_recog,365,726403,0.0-187.0-0.0,1309.1,,,,55,,,,408,probe-245,,,,,0,[object Object],null,null,1,
,html-keyboard-response,366,727414,0.0-187.0-1.0,null,<p></p>,,null,,,,,,,,,,,,,,,,
,do_trial,367,730451,0.0-188.0-0.0,448.4,,,,49,"0,0,1",6,blank,409,null,0.116658105,0.438330268,0.757467579,0,,,,,,
,html-keyboard-response,368,731462,0.0-188.0-1.0,null,<p></p>,,null,,,,,,,,,,,,,,,,
,do_trial,369,734482,0.0-189.0-0.0,449.9,,,,50,"1,0,1",6,blank,410,null,0.096581411,0.350504416,0.587237755,0,,,,,,
,html-keyboard-response,370,735493,0.0-189.0-1.0,null,<p></p>,,null,,,,,,,,,,,,,,,,
,do_recog,371,737771,0.0-190.0-0.0,760.7,,,,54,,,,411,probe-221,,,,,1,[object Object],203,5,1,
,html-keyboard-response,372,738785,0.0-190.0-1.0,null,<p></p>,,null,,,,,,,,,,,,,,,,
,do_trial,373,741767,0.0-191.0-0.0,391.4,,,,51,"0,1,0",6,blank,412,null,0.090927895,0.466651918,0.464182338,0,,,,,,
,html-keyboard-response,374,742779,0.0-191.0-1.0,null,<p></p>,,null,,,,,,,,,,,,,,,,
,do_trial,375,745695,0.0-192.0-0.0,328.5,,,,50,"0,0,1",6,blank,413,null,0.115363075,0.405932483,0.530837946,0,,,,,,
,html-keyboard-response,376,746708,0.0-192.0-1.0,null,<p></p>,,null,,,,,,,,,,,,,,,,
,do_trial,377,749763,0.0-193.0-0.0,466.1,,,,49,"0,0,1",6,blank,414,null,0.202228346,0.373010519,0.431165099,0,,,,,,
,html-keyboard-response,378,750775,0.0-193.0-1.0,null,<p></p>,,null,,,,,,,,,,,,,,,,
,do_trial,379,753623,0.0-194.0-0.0,265.2,,,,49,"0,0,0",6,blank,415,null,0.178331098,0.469445136,0.549775423,0,,,,,,
,html-keyboard-response,380,754636,0.0-194.0-1.0,null,<p></p>,,null,,,,,,,,,,,,,,,,
,do_recog,381,756967,0.0-195.0-0.0,809.4,,,,53,,,,416,probe-20,,,,,1,[object Object],48,1,1,
,html-keyboard-response,382,757979,0.0-195.0-1.0,null,<p></p>,,null,,,,,,,,,,,,,,,,
,do_trial,383,760837,0.0-196.0-0.0,284.8,,,,50,"0,1,0",6,blank,417,null,0.060821592,0.258721285,0.589109053,1,,,,,,
,html-keyboard-response,384,761850,0.0-196.0-1.0,null,<p></p>,,null,,,,,,,,,,,,,,,,
,do_trial,385,764767,0.0-197.0-0.0,331,,,,50,"0,1,1",6,blank,418,null,0.099464043,0.342370572,0.703011835,1,,,,,,
,html-keyboard-response,386,765773,0.0-197.0-1.0,null,<p></p>,,null,,,,,,,,,,,,,,,,
,do_trial,387,768782,0.0-198.0-0.0,423.6,,,,50,"0,0,1",6,blank,419,null,0.105659361,0.301577747,0.623721444,0,,,,,,
,html-keyboard-response,388,769798,0.0-198.0-1.0,null,<p></p>,,null,,,,,,,,,,,,,,,,
,do_trial,389,772747,0.0-199.0-0.0,374.3000001,,,,50,"0,0,0",6,blank,420,null,0.169636484,0.361718546,0.519955965,0,,,,,,
,html-keyboard-response,390,773758,0.0-199.0-1.0,null,<p></p>,,null,,,,,,,,,,,,,,,,
,do_trial,391,776736,0.0-200.0-0.0,393.3000001,,,,50,"0,0,1",6,blank,421,null,0.13663409,0.329053656,0.711274431,0,,,,,,
,html-keyboard-response,392,777745,0.0-200.0-1.0,null,<p></p>,,null,,,,,,,,,,,,,,,,
,do_trial,393,780649,0.0-201.0-0.0,333.3000001,,,,50,"0,0,0",6,blank,422,null,0.112319912,0.33890845,0.519463624,0,,,,,,
,html-keyboard-response,394,781662,0.0-201.0-1.0,null,<p></p>,,null,,,,,,,,,,,,,,,,
,do_recog,395,784395,0.0-202.0-0.0,1214.2,,,,53,,,,423,probe-163,,,,,1,[object Object],85,2,1,
,html-keyboard-response,396,785412,0.0-202.0-1.0,null,<p></p>,,null,,,,,,,,,,,,,,,,
,do_trial,397,788447,0.0-203.0-0.0,445.9000001,,,,49,"0,1,0",6,blank,424,null,0.163163471,0.475160421,0.534145511,0,,,,,,
,html-keyboard-response,398,789462,0.0-203.0-1.0,null,<p></p>,,null,,,,,,,,,,,,,,,,
,do_trial,399,792366,0.0-204.0-0.0,325.6,,,,49,"0,0,0",6,blank,425,null,0.179658755,0.38436362,0.645175397,0,,,,,,
,html-keyboard-response,400,793382,0.0-204.0-1.0,null,<p></p>,,null,,,,,,,,,,,,,,,,
,do_trial,401,796392,0.0-205.0-0.0,437.6,,,,50,"0,1,0",6,blank,426,null,0.176735884,0.396229812,0.580528605,1,,,,,,
,html-keyboard-response,402,797406,0.0-205.0-1.0,null,<p></p>,,null,,,,,,,,,,,,,,,,
,do_trial,403,800387,0.0-206.0-0.0,402.4,,,,50,"0,0,0",6,blank,427,null,0.093668262,0.285670098,0.535225328,0,,,,,,
,html-keyboard-response,404,801389,0.0-206.0-1.0,null,<p></p>,,null,,,,,,,,,,,,,,,,
,do_trial,405,804333,0.0-207.0-0.0,360,,,,50,"0,0,1",6,blank,428,null,0.051083126,0.459782572,0.572332291,0,,,,,,
,html-keyboard-response,406,805349,0.0-207.0-1.0,null,<p></p>,,null,,,,,,,,,,,,,,,,
,do_trial,407,808213,0.0-208.0-0.0,277,,,,50,"1,0,1",6,blank,429,null,0.092623977,0.297764481,0.594903187,0,,,,,,
,html-keyboard-response,408,809225,0.0-208.0-1.0,null,<p></p>,,null,,,,,,,,,,,,,,,,
,do_recog,409,811969,0.0-209.0-0.0,1221.4,,,,53,,,,430,probe-36,,,,,1,[object Object],40,1,1,
,html-keyboard-response,410,812977,0.0-209.0-1.0,null,<p></p>,,null,,,,,,,,,,,,,,,,
,do_trial,411,815983,0.0-210.0-0.0,427.6,,,,49,"0,1,0",6,blank,431,null,0.106457011,0.190904942,0.499823986,0,,,,,,
,html-keyboard-response,412,816997,0.0-210.0-1.0,null,<p></p>,,null,,,,,,,,,,,,,,,,
,do_trial,413,819931,0.0-211.0-0.0,347.6,,,,50,"0,0,0",6,blank,432,null,0.065355664,0.26706152,0.401455574,0,,,,,,
,html-keyboard-response,414,820942,0.0-211.0-1.0,null,<p></p>,,null,,,,,,,,,,,,,,,,
,do_trial,415,824080,0.0-212.0-0.0,558,,,,51,"0,0,0",6,blank,433,null,0.051013569,0.354325665,0.537606876,0,,,,,,
,html-keyboard-response,416,825095,0.0-212.0-1.0,null,<p></p>,,null,,,,,,,,,,,,,,,,
,do_trial,417,829348,0.0-213.0-0.0,1661.9,,,,49,"0,0,1",6,blank,434,null,0.087303031,0.31394761,0.503411228,0,,,,,,
,html-keyboard-response,418,830363,0.0-213.0-1.0,null,<p></p>,,null,,,,,,,,,,,,,,,,
,do_recog,419,833087,0.0-214.0-0.0,1211.3,,,,53,,,,435,probe-160,,,,,1,[object Object],207,5,1,
,html-keyboard-response,420,834099,0.0-214.0-1.0,null,<p></p>,,null,,,,,,,,,,,,,,,,
,do_trial,421,837615,0.0-215.0-0.0,925,,,,50,"1,1,1",6,blank,436,null,0.185064309,0.393838035,0.509103768,1,,,,,,
,html-keyboard-response,422,838625,0.0-215.0-1.0,null,<p></p>,,null,,,,,,,,,,,,,,,,
,do_trial,423,841871,0.0-216.0-0.0,666.2,,,,50,"1,0,1",6,blank,437,null,0.088992239,0.364197299,0.612407693,0,,,,,,
,html-keyboard-response,424,842886,0.0-216.0-1.0,null,<p></p>,,null,,,,,,,,,,,,,,,,
,do_trial,425,845893,0.0-217.0-0.0,422,,,,50,"0,1,1",6,blank,438,null,0.087727584,0.341167065,0.708561,1,,,,,,
,html-keyboard-response,426,846901,0.0-217.0-1.0,null,<p></p>,,null,,,,,,,,,,,,,,,,
,do_trial,427,849905,0.0-218.0-0.0,422.8000001,,,,50,"0,0,1",6,blank,439,null,0.157039279,0.341224295,0.659731222,0,,,,,,
,html-keyboard-response,428,850919,0.0-218.0-1.0,null,<p></p>,,null,,,,,,,,,,,,,,,,
,do_recog,429,853427,0.0-219.0-0.0,988.9000001,,,,53,,,,440,probe-130,,,,,1,[object Object],43,1,1,
,html-keyboard-response,430,854434,0.0-219.0-1.0,null,<p></p>,,null,,,,,,,,,,,,,,,,
,do_trial,431,857601,0.0-220.0-0.0,590,,,,50,"0,0,1",6,blank,441,null,0.158574177,0.24692372,0.712099991,0,,,,,,
,html-keyboard-response,432,858613,0.0-220.0-1.0,null,<p></p>,,null,,,,,,,,,,,,,,,,
,do_trial,433,861460,0.0-221.0-0.0,259,,,,50,"1,0,1",6,blank,442,null,0.144293802,0.311013003,0.673671618,0,,,,,,
,html-keyboard-response,434,862471,0.0-221.0-1.0,null,<p></p>,,null,,,,,,,,,,,,,,,,
,do_recog,435,864861,0.0-222.0-0.0,866.6,,,,53,,,,443,probe-148,,,,,1,[object Object],208,5,1,
,html-keyboard-response,436,865873,0.0-222.0-1.0,null,<p></p>,,null,,,,,,,,,,,,,,,,
,do_trial,437,868903,0.0-223.0-0.0,438.5,,,,50,"1,0,0",6,blank,444,null,0.102807044,0.201884652,0.644542701,0,,,,,,
,html-keyboard-response,438,869909,0.0-223.0-1.0,null,<p></p>,,null,,,,,,,,,,,,,,,,
,do_recog,439,872188,0.0-224.0-0.0,761.9000001,,,,53,,,,445,probe-39,,,,,1,[object Object],47,1,1,
,html-keyboard-response,440,873201,0.0-224.0-1.0,null,<p></p>,,null,,,,,,,,,,,,,,,,
,do_trial,441,876220,0.0-225.0-0.0,431.6,,,,50,"0,1,1",6,blank,446,null,0.136818192,0.218846773,0.625290784,1,,,,,,
,html-keyboard-response,442,877233,0.0-225.0-1.0,null,<p></p>,,null,,,,,,,,,,,,,,,,
,do_trial,443,880151,0.0-226.0-0.0,348.2,,,,50,"0,0,1",6,blank,447,null,0.101386583,0.308091889,0.582965263,0,,,,,,
,html-keyboard-response,444,881165,0.0-226.0-1.0,null,<p></p>,,null,,,,,,,,,,,,,,,,
,do_trial,445,884213,0.0-227.0-0.0,469.5,,,,50,"0,0,1",6,blank,448,null,0.070055473,0.327656082,0.552477274,0,,,,,,
,html-keyboard-response,446,885224,0.0-227.0-1.0,null,<p></p>,,null,,,,,,,,,,,,,,,,
,do_recog,447,887666,0.0-228.0-0.0,923.1,,,,53,,,,449,probe-139,,,,,1,[object Object],123,3,1,
,html-keyboard-response,448,888673,0.0-228.0-1.0,null,<p></p>,,null,,,,,,,,,,,,,,,,
,do_trial,449,891713,0.0-229.0-0.0,458.5,,,,50,"0,1,0",6,blank,450,null,0.29598727,0.428961252,0.508590281,1,,,,,,
,html-keyboard-response,450,892725,0.0-229.0-1.0,null,<p></p>,,null,,,,,,,,,,,,,,,,
,do_trial,451,895741,0.0-230.0-0.0,439.7,,,,50,"0,1,0",6,blank,451,null,0.471850935,0.388310474,0.437154924,1,,,,,,
,html-keyboard-response,452,896757,0.0-230.0-1.0,null,<p></p>,,null,,,,,,,,,,,,,,,,
,do_trial,453,899923,0.0-231.0-0.0,578.1999999,,,,50,"1,0,0",6,blank,452,null,0.531628142,0.175464185,0.28407148,0,,,,,,
,html-keyboard-response,454,900934,0.0-231.0-1.0,null,<p></p>,,null,,,,,,,,,,,,,,,,
,do_recog,455,903971,0.0-232.0-0.0,1527.1,,,,56,,,,453,probe-03,,,,,1,[object Object],121,3,0,
,html-keyboard-response,456,904980,0.0-232.0-1.0,null,<p></p>,,null,,,,,,,,,,,,,,,,
,do_trial,457,907990,0.0-233.0-0.0,427.5,,,,50,"1,0,0",6,blank,454,null,0.555559443,0.137473205,0.402869006,0,,,,,,
,html-keyboard-response,458,909007,0.0-233.0-1.0,null,<p></p>,,null,,,,,,,,,,,,,,,,
,do_recog,459,911439,0.0-234.0-0.0,913.7,,,,53,,,,455,probe-197,,,,,1,[object Object],202,5,1,
,html-keyboard-response,460,912448,0.0-234.0-1.0,null,<p></p>,,null,,,,,,,,,,,,,,,,
,do_trial,461,916508,0.0-235.0-0.0,1481.2,,,,50,"1,0,1",6,blank,456,null,0.522133651,0.212547947,0.336263093,0,,,,,,
,html-keyboard-response,462,917510,0.0-235.0-1.0,null,<p></p>,,null,,,,,,,,,,,,,,,,
,do_recog,463,919701,0.0-236.0-0.0,677.3000001,,,,53,,,,457,probe-26,,,,,1,[object Object],200,5,1,
,html-keyboard-response,464,920713,0.0-236.0-1.0,null,<p></p>,,null,,,,,,,,,,,,,,,,
,do_trial,465,923773,0.0-237.0-0.0,478.8000001,,,,50,"1,0,0",6,blank,458,null,0.620748841,0.168786829,0.400210064,0,,,,,,
,html-keyboard-response,466,924778,0.0-237.0-1.0,null,<p></p>,,null,,,,,,,,,,,,,,,,
,do_trial,467,927735,0.0-238.0-0.0,378.1999999,,,,51,"0,0,0",6,blank,459,null,0.685149296,0.326259579,0.367834669,0,,,,,,
,html-keyboard-response,468,928747,0.0-238.0-1.0,null,<p></p>,,null,,,,,,,,,,,,,,,,
,do_recog,469,931313,0.0-239.0-0.0,1045.7,,,,53,,,,460,probe-158,,,,,1,[object Object],87,2,1,
,html-keyboard-response,470,932327,0.0-239.0-1.0,null,<p></p>,,null,,,,,,,,,,,,,,,,
,do_trial,471,935666,0.0-240.0-0.0,741.8000001,,,,49,"0,0,0",6,blank,461,null,0.720113002,0.383426396,0.367350661,0,,,,,,
,html-keyboard-response,472,936678,0.0-240.0-1.0,null,<p></p>,,null,,,,,,,,,,,,,,,,
,do_recog,473,939777,0.0-241.0-0.0,1577.4,,,,53,,,,462,probe-236,,,,,0,[object Object],null,null,0,
,html-keyboard-response,474,940794,0.0-241.0-1.0,null,<p></p>,,null,,,,,,,,,,,,,,,,
,do_trial,475,943753,0.0-242.0-0.0,378,,,,49,"1,1,0",6,blank,463,null,0.70072849,0.243281064,0.442518197,1,,,,,,
,html-keyboard-response,476,944764,0.0-242.0-1.0,null,<p></p>,,null,,,,,,,,,,,,,,,,
,do_recog,477,947489,0.0-243.0-0.0,1211.7,,,,56,,,,464,probe-252,,,,,0,[object Object],null,null,1,
,html-keyboard-response,478,948499,0.0-243.0-1.0,null,<p></p>,,null,,,,,,,,,,,,,,,,
,do_trial,479,951523,0.0-244.0-0.0,450.7,,,,49,"0,0,0",6,blank,465,null,0.618678023,0.258274279,0.383081182,0,,,,,,
,html-keyboard-response,480,952533,0.0-244.0-1.0,null,<p></p>,,null,,,,,,,,,,,,,,,,
,do_recog,481,955316,0.0-245.0-0.0,1259.1,,,,56,,,,466,probe-234,,,,,0,[object Object],null,null,1,
,html-keyboard-response,482,956328,0.0-245.0-1.0,null,<p></p>,,null,,,,,,,,,,,,,,,,
,do_trial,483,959349,0.0-246.0-0.0,443.5999999,,,,50,"1,0,1",6,blank,467,null,0.647314639,0.091257204,0.361879091,0,,,,,,
,html-keyboard-response,484,960355,0.0-246.0-1.0,null,<p></p>,,null,,,,,,,,,,,,,,,,
,do_recog,485,962915,0.0-247.0-0.0,1042.2,,,,56,,,,468,probe-242,,,,,0,[object Object],null,null,1,
,html-keyboard-response,486,963928,0.0-247.0-1.0,null,<p></p>,,null,,,,,,,,,,,,,,,,
,do_trial,487,966869,0.0-248.0-0.0,358.5,,,,49,"0,1,0",6,blank,469,null,0.674556061,0.165539622,0.354900691,0,,,,,,
,html-keyboard-response,488,967880,0.0-248.0-1.0,null,<p></p>,,null,,,,,,,,,,,,,,,,
,do_recog,489,970156,0.0-249.0-0.0,752.6999999,,,,56,,,,470,probe-243,,,,,0,[object Object],null,null,1,
,html-keyboard-response,490,971171,0.0-249.0-1.0,null,<p></p>,,null,,,,,,,,,,,,,,,,
,do_trial,491,974150,0.0-250.0-0.0,380.8,,,,51,"1,0,0",6,blank,471,null,0.844355086,0.057254663,0.309670479,0,,,,,,
,html-keyboard-response,492,975163,0.0-250.0-1.0,null,<p></p>,,null,,,,,,,,,,,,,,,,
,do_trial,493,978258,0.0-251.0-0.0,512.3,,,,50,"1,0,0",6,blank,472,null,0.702770436,0.068056215,0.233426844,0,,,,,,
,html-keyboard-response,494,979273,0.0-251.0-1.0,null,<p></p>,,null,,,,,,,,,,,,,,,,
,do_recog,495,982097,0.0-252.0-0.0,1313.3,,,,56,,,,473,probe-238,,,,,0,[object Object],null,null,1,
,html-keyboard-response,496,983111,0.0-252.0-1.0,null,<p></p>,,null,,,,,,,,,,,,,,,,
,do_trial,497,986198,0.0-253.0-0.0,498.4,,,,49,"1,0,0",6,blank,474,null,0.58988046,0.069104515,0.298560385,1,,,,,,
,html-keyboard-response,498,987209,0.0-253.0-1.0,null,<p></p>,,null,,,,,,,,,,,,,,,,
,do_trial,499,990240,0.0-254.0-0.0,446.1,,,,49,"1,1,0",6,blank,475,null,0.452031391,0.096586955,0.347523479,1,,,,,,
,html-keyboard-response,500,991249,0.0-254.0-1.0,null,<p></p>,,null,,,,,,,,,,,,,,,,
,do_trial,501,994194,0.0-255.0-0.0,362.0999999,,,,49,"1,0,0",6,blank,476,null,0.371502354,0.153394946,0.237553398,1,,,,,,
,html-keyboard-response,502,995209,0.0-255.0-1.0,null,<p></p>,,null,,,,,,,,,,,,,,,,
,do_trial,503,998151,0.0-256.0-0.0,359,,,,49,"0,1,0",6,blank,477,null,0.366335131,0.160725341,0.362998153,0,,,,,,
,html-keyboard-response,504,999165,0.0-256.0-1.0,null,<p></p>,,null,,,,,,,,,,,,,,,,
,do_trial,505,1002162,0.0-257.0-0.0,399.8000001,,,,49,"1,0,1",6,blank,478,null,0.463999848,0.165525808,0.369365524,1,,,,,,
,html-keyboard-response,506,1003175,0.0-257.0-1.0,null,<p></p>,,null,,,,,,,,,,,,,,,,
,do_recog,507,1005636,0.0-258.0-0.0,953.4,,,,56,,,,479,probe-244,,,,,0,[object Object],null,null,1,
,html-keyboard-response,508,1006649,0.0-258.0-1.0,null,<p></p>,,null,,,,,,,,,,,,,,,,
,do_pick_best_pirate,509,1010346,0.0-259.0-0.0,2684.1,,,,50,,,,,,,,,,,,,,,
,do_pick_best_pirate,510,1014704,0.0-260.0-0.0,3349.9,,,,49,,,,,,,,,,,,,,,
,do_pick_best_pirate,511,1017128,0.0-261.0-0.0,1416.2,,,,50,,,,,,,,,,,,,,,
,do_pick_best_pirate,512,1019551,0.0-262.0-0.0,1411.5,,,,50,,,,,,,,,,,,,,,
,do_pick_best_pirate,513,1023485,0.0-263.0-0.0,2925.4,,,,50,,,,,,,,,,,,,,,
,do_pick_best_pirate,514,1026846,0.0-264.0-0.0,2340.6,,,,49,,,,,,,,,,,,,,,
,html-keyboard-response,515,1036683,0.0-265.0-0.0,9835.3,<p>You are all done with the experiment!</p><p> You made $15 plus $3 in bonus payment!</p><p>Thank you for participating. You will recieve your payment within 3 days.<p><b>[Press the space bar to end the experiment]</b></p></div>,,32,,,,,,,,,,,,,,,,