"success","trial_type","trial_index","time_elapsed","internal_node_id","interactions","blur_events","focus_events","fullscreenenter_events","fullscreenexit_events","rt","stimulus","key_press","subject_id","participant_id","age","gender","prompt","response","choice_outcomes","context_n","context_img_id","trial_n","probe_img_id","pR_red","pR_white","pR_black","outcome","is_valid","image_to_show","probed_trial","probed_context","correct","probe","probed_trial_n","probed_context_n","context_im"
"true","fullscreen","0","2370","0.0-0.0","""event"",""trial"",""time""
""fullscreenenter"",""0"",""1412""
","
","
","""event"",""trial"",""time""
""fullscreenenter"",""0"",""1412""
","
","","","","","","","","","","","","","","","","","","","","","","","","","","",""
"","pavlovia","1","2372","0.0-1.0","""event"",""trial"",""time""
""fullscreenenter"",""0"",""1412""
","
","
","""event"",""trial"",""time""
""fullscreenenter"",""0"",""1412""
","
","","","","","","","","","","","","","","","","","","","","","","","","","","",""
"","welc_back","2","12170","0.0-2.0","""event"",""trial"",""time""
""fullscreenenter"",""0"",""1412""
","
","
","""event"",""trial"",""time""
""fullscreenenter"",""0"",""1412""
","
","null","run_exp/static/audio/clip_29_welcome_back.m4a","null","470","843","15","Female","<div class='center'><p>Welcome to day 2!</p><p> Yesterday, you were the head captain of a pirate ship. You asked your fellow pirates to rob other ships of their gold across six different islands.</p></div>","","","","","","","","","","","","","","","","","","",""
"","html-keyboard-response","3","24176","0.0-3.0","""event"",""trial"",""time""
""fullscreenenter"",""0"",""1412""
","
","
","""event"",""trial"",""time""
""fullscreenenter"",""0"",""1412""
","
","12002.200000047684","<div class='center'><p>Welcome to day 2!</p><p> Yesterday, you were the head captain of a pirate ship. You asked your fellow pirates to rob other ships of their gold across six different islands.</p><p><b>[Press the space bar to continue]</b></p></div>","32","","","","","","","","","","","","","","","","","","","","","","","",""
"","day_1_summary_goal","4","41356","0.0-4.0","""event"",""trial"",""time""
""fullscreenenter"",""0"",""1412""
","
","
","""event"",""trial"",""time""
""fullscreenenter"",""0"",""1412""
","
","null","run_exp/static/audio/clip_30_goal_of_game.m4a","null","","","","","<div class='center'><p>Today, like yesterday, you get to pick which pirate you want to rob the next ship.</p><p>If the pirate is successful in robbing a ship, you get gold coins that look like this: </p><p><img src='run_exp/static/images/tutorial/reward.png' height='150'></p><p> If they were not successful in robbing the ship, then you will get no gold coins and you'll see a big red x like this: </p><p><img src='run_exp/static/images/tutorial/reward_no.png' height='150'></p></div>","","","","","","","","","","","","","","","","","","",""
"","html-keyboard-response","5","42683","0.0-5.0","""event"",""trial"",""time""
""fullscreenenter"",""0"",""1412""
","
","
","""event"",""trial"",""time""
""fullscreenenter"",""0"",""1412""
","
","1324.0999999046326","<div class='center'><p>Today, like yesterday, you get to pick which pirate you want to rob the next ship.</p><p>If the pirate is successful in robbing a ship, you get gold coins that look like this: </p><p><img src='run_exp/static/images/tutorial/reward.png' height='150'></p><p> If they were not successful in robbing the ship, then you will get no gold coins and you'll see a big red x like this: </p><p><img src='run_exp/static/images/tutorial/reward_no.png' height='150'></p><p><b>[Press the space bar to continue]</b></p></div>","32","","","","","","","","","","","","","","","","","","","","","","","",""
"","day_1_summary_pick","6","57395","0.0-6.0","""event"",""trial"",""time""
""fullscreenenter"",""0"",""1412""
","
","
","""event"",""trial"",""time""
""fullscreenenter"",""0"",""1412""
","
","null","run_exp/static/audio/clip_31_how_to_pick_a_pirate.m4a","null","","","","","<div class='center'><p>Also, just like yesterday, you will use the 1,2,3 keys on your keyboard to pick a pirate. Press '1' to choose red beard, '2' to choose white beard, and '3' to choose black beard . You only have 3 seconds to pick a pirate, so please make a choice quickly!</p></div>","","","","","","","","","","","","","","","","","","",""
"","html-keyboard-response","7","60130","0.0-7.0","""event"",""trial"",""time""
""fullscreenenter"",""0"",""1412""
","
","
","""event"",""trial"",""time""
""fullscreenenter"",""0"",""1412""
","
","2734.100000023842","<div class='center'><p>Also, just like yesterday, you will use the 1,2,3 keys on your keyboard to pick a pirate. Press '1' to choose red beard, '2' to choose white beard, and '3' to choose black beard . You only have 3 seconds to pick a pirate, so please make a choice quickly!</p><p><b>[Press the space bar to continue]</b></p></div>","32","","","","","","","","","","","","","","","","","","","","","","","",""
"","test_phase_begin","8","90556","0.0-8.0","""event"",""trial"",""time""
""fullscreenenter"",""0"",""1412""
","
","
","""event"",""trial"",""time""
""fullscreenenter"",""0"",""1412""
","
","null","run_exp/static/audio/clip_32_final_place.m4a","null","","","","","<div class='center'><p>You’ve arrived at the final island of your journey! Unfortunately, it’s very foggy out, so you won’t be able to see it in the distance like the other islands you've visited.</p><p>You’ll still be deciding which pirate you want to rob a ship like before. However, because of the fog, you also won’t be able to see the ship.</p><p>This means you do not have to remember the ships you rob on this island.</p><p>Unlike yesterday, you won't be visiting multiple islands today. You will stay on this island for the entire game. This game will last ~30 minutes.</p></div>","","","","","","","","","","","","","","","","","","",""
"","html-keyboard-response","9","93075","0.0-9.0","""event"",""trial"",""time""
""fullscreenenter"",""0"",""1412""
","
","
","""event"",""trial"",""time""
""fullscreenenter"",""0"",""1412""
","
","2517.600000023842","<div class='center'><p>You’ve arrived at the final island of your journey! Unfortunately, it’s very foggy out, so you won’t be able to see it in the distance like the other islands you've visited.</p><p>You’ll still be deciding which pirate you want to rob a ship like before. However, because of the fog, you also won’t be able to see the ship.</p><p>This means you do not have to remember the ships you rob on this island.</p><p>Unlike yesterday, you won't be visiting multiple islands today. You will stay on this island for the entire game. This game will last ~30 minutes.</p><p><b>[Press the space bar to continue]</b></p></div>","32","","","","","","","","","","","","","","","","","","","","","","","",""
"","explain_probe_1","10","100836","0.0-10.0","""event"",""trial"",""time""
""fullscreenenter"",""0"",""1412""
","
","
","""event"",""trial"",""time""
""fullscreenenter"",""0"",""1412""
","
","null","run_exp/static/audio/clip_33_recognition_1.m4a","null","","","","","<div class='center'><p> Sometimes you’ll be shown a ship, and you will be asked if you saw this ship on a past island.</p><p> Here is an example of what you will see.</p><p><img src='run_exp/static/images/tutorial/example_recog_trial.png' height='500'></p></div>","","","","","","","","","","","","","","","","","","",""
"","html-keyboard-response","11","103413","0.0-11.0","""event"",""trial"",""time""
""fullscreenenter"",""0"",""1412""
","
","
","""event"",""trial"",""time""
""fullscreenenter"",""0"",""1412""
","
","2580.600000023842","<div class='center'><p> Sometimes you’ll be shown a ship, and you will be asked if you saw this ship on a past island.</p><p> Here is an example of what you will see.</p><p><img src='run_exp/static/images/tutorial/example_recog_trial.png' height='500'></p><p><b>[Press the space bar to continue]</b></p></div>","32","","","","","","","","","","","","","","","","","","","","","","","",""
"","explain_probe_2","12","125151","0.0-12.0","""event"",""trial"",""time""
""fullscreenenter"",""0"",""1412""
","
","
","""event"",""trial"",""time""
""fullscreenenter"",""0"",""1412""
","
","null","run_exp/static/audio/clip_34_recognition_2.m4a","null","","","","","<div class='center'><p> You will press the 5, 6, 7, 8 keys on your keyboard to respond.</p><p>If you are sure you saw the ship, press <b>5</b> on your keyboard.</p><p> If you think you saw it before but aren't sure, then press <b>6</b>.</p><p> If you think you have <b>not</b> seen it before but aren't sure, then press <b>7</b>.</p><p> If you are sure you did <b>not</b> see the ship before, then press <b>8</b>.</p><p><img src='run_exp/static/images/tutorial/example_recog_trial.png' height='500'></p></div>","","","","","","","","","","","","","","","","","","",""
"","html-keyboard-response","13","126244","0.0-13.0","""event"",""trial"",""time""
""fullscreenenter"",""0"",""1412""
","
","
","""event"",""trial"",""time""
""fullscreenenter"",""0"",""1412""
","
","1090.7999999523163","<div class='center'><p> You will press the 5, 6, 7, 8 keys on your keyboard to respond.</p><p>If you are sure you saw the ship, press <b>5</b> on your keyboard.</p><p> If you think you saw it before but aren't sure, then press <b>6</b>.</p><p> If you think you have <b>not</b> seen it before but aren't sure, then press <b>7</b>.</p><p> If you are sure you did <b>not</b> see the ship before, then press <b>8</b>.</p><p><img src='run_exp/static/images/tutorial/example_recog_trial.png' height='500'></p><p><b>[Press the space bar to continue]</b></p></div>","32","","","","","","","","","","","","","","","","","","","","","","","",""
"","explain_outcome","14","143471","0.0-14.0","""event"",""trial"",""time""
""fullscreenenter"",""0"",""1412""
","
","
","""event"",""trial"",""time""
""fullscreenenter"",""0"",""1412""
","
","null","run_exp/static/audio/clip_35_recognition_3.m4a","null","","","","","<div class='center'><p> If you remember correctly, then you’ll get a gold coin like this: </p><p><img src='run_exp/static/images/tutorial/reward_small.png' height='200'></p><p>If you do not remember correctly, then you'll see a red x like this: </p><p><img src='run_exp/static/images/tutorial/reward_no.png' height='200'></p><p>Importantly, when you are shown a ship, take the time to remind yourself which island you saw it on. This will help you in the next part of the study.</p></div>","","","","","","","","","","","","","","","","","","",""
"","html-keyboard-response","15","144691","0.0-15.0","""event"",""trial"",""time""
""fullscreenenter"",""0"",""1412""
","
","
","""event"",""trial"",""time""
""fullscreenenter"",""0"",""1412""
","
","1218.5","<div class='center'><p> If you remember correctly, then you’ll get a gold coin like this: </p><p><img src='run_exp/static/images/tutorial/reward_small.png' height='200'></p><p>If you do not remember correctly, then you'll see a red x like this: </p><p><img src='run_exp/static/images/tutorial/reward_no.png' height='200'></p><p>Importantly, when you are shown a ship, take the time to remind yourself which island you saw it on. This will help you in the next part of the study.</p><p><b>[Press the space bar to continue]</b></p></div>","32","","","","","","","","","","","","","","","","","","","","","","","",""
"","begin_test_phase","16","160529","0.0-16.0","""event"",""trial"",""time""
""fullscreenenter"",""0"",""1412""
","
","
","""event"",""trial"",""time""
""fullscreenenter"",""0"",""1412""
","
","null","run_exp/static/audio/clip_36_begin_final.m4a","null","","","","","<div class='center'><p>Let's go over the important points again. Your job is to: </p><p>1. Pick the pirate who is best at robbing ships and will bring you back gold coins. </p><p>2. Correctly remember whether or not you saw a ship before. If you did see the ship before, remind yourself on which island you saw it. </p></div>","","","","","","","","","","","","","","","","","","",""
"","html-keyboard-response","17","162566","0.0-17.0","""event"",""trial"",""time""
""fullscreenenter"",""0"",""1412""
","
","
","""event"",""trial"",""time""
""fullscreenenter"",""0"",""1412""
","
","1999.8999999761581","<div class='center'><p>Let's go over the important points again. Your job is to: </p><p>1. Pick the pirate who is best at robbing ships and will bring you back gold coins. </p><p>2. Correctly remember whether or not you saw a ship before. If you did see the ship before, remind yourself on which island you saw it. </p><p><b>[Press the space bar to continue]</b></p></div>","32","","","","","","","","","","","","","","","","","","","","","","","",""
"","do_welcome","18","166605","0.0-18.0","""event"",""trial"",""time""
""fullscreenenter"",""0"",""1412""
","
","
","""event"",""trial"",""time""
""fullscreenenter"",""0"",""1412""
","
","null","","","","","","","","null","","","","","","","","","","","","","","","","","",""
"","do_trial","19","170694","0.0-19.0-0.0","""event"",""trial"",""time""
""fullscreenenter"",""0"",""1412""
","
","
","""event"",""trial"",""time""
""fullscreenenter"",""0"",""1412""
","
","1499.5","","","","","","","","49","0,0,1","6","blank","230","null","0.5424674772469702","0.1032353904919729","0.40533998158895546","0","","","","","","","","",""
"","html-keyboard-response","20","171715","0.0-19.0-1.0","""event"",""trial"",""time""
""fullscreenenter"",""0"",""1412""
","
","
","""event"",""trial"",""time""
""fullscreenenter"",""0"",""1412""
","
","null","<p></p>","null","","","","","","","","","","","","","","","","","","","","","","","",""
"","do_trial","21","175719","0.0-20.0-0.0","""event"",""trial"",""time""
""fullscreenenter"",""0"",""1412""
","
","
","""event"",""trial"",""time""
""fullscreenenter"",""0"",""1412""
","
","1424.5","","","","","","","","49","0,0,0","6","blank","231","null","0.44250516355262315","0.059317128841775056","0.25565717017036504","0","","","","","","","","",""
"","html-keyboard-response","22","176728","0.0-20.0-1.0","""event"",""trial"",""time""
""fullscreenenter"",""0"",""1412""
","
","
","""event"",""trial"",""time""
""fullscreenenter"",""0"",""1412""
","
","null","<p></p>","null","","","","","","","","","","","","","","","","","","","","","","","",""
"","do_trial","23","179635","0.0-21.0-0.0","""event"",""trial"",""time""
""fullscreenenter"",""0"",""1412""
","
","
","""event"",""trial"",""time""
""fullscreenenter"",""0"",""1412""
","
","336.40000009536743","","","","","","","","49","0,0,0","6","blank","232","null","0.47048265173138976","0.06328087870230735","0.3052505856799974","0","","","","","","","","",""
"","html-keyboard-response","24","180644","0.0-21.0-1.0","""event"",""trial"",""time""
""fullscreenenter"",""0"",""1412""
","
","
","""event"",""trial"",""time""
""fullscreenenter"",""0"",""1412""
","
","null","<p></p>","null","","","","","","","","","","","","","","","","","","","","","","","",""
"","do_trial","25","183698","0.0-22.0-0.0","""event"",""trial"",""time""
""fullscreenenter"",""0"",""1412""
","
","
","""event"",""trial"",""time""
""fullscreenenter"",""0"",""1412""
","
","480.39999997615814","","","","","","","","50","0,0,0","6","blank","233","null","0.47562638444455724","0.07992158892356942","0.29501028682662367","0","","","","","","","","",""
"","html-keyboard-response","26","184709","0.0-22.0-1.0","""event"",""trial"",""time""
""fullscreenenter"",""0"",""1412""
","
","
","""event"",""trial"",""time""
""fullscreenenter"",""0"",""1412""
","
","null","<p></p>","null","","","","","","","","","","","","","","","","","","","","","","","",""
"","do_trial","27","187361","0.0-23.0-0.0","""event"",""trial"",""time""
""fullscreenenter"",""0"",""1412""
","
","
","""event"",""trial"",""time""
""fullscreenenter"",""0"",""1412""
","
","75.19999992847443","","","","","","","","50","0,0,1","6","blank","234","null","0.4863810309914547","0.08614087554722889","0.33874417223200437","0","","","","","","","","",""
"","html-keyboard-response","28","188376","0.0-23.0-1.0","""event"",""trial"",""time""
""fullscreenenter"",""0"",""1412""
","
","
","""event"",""trial"",""time""
""fullscreenenter"",""0"",""1412""
","
","null","<p></p>","null","","","","","","","","","","","","","","","","","","","","","","","",""
"","do_trial","29","191500","0.0-24.0-0.0","""event"",""trial"",""time""
""fullscreenenter"",""0"",""1412""
","
","
","""event"",""trial"",""time""
""fullscreenenter"",""0"",""1412""
","
","562.4000000953674","","","","","","","","50","0,0,0","6","blank","235","null","0.49044713694712566","0.20129904809075952","0.24705697391691375","0","","","","","","","","",""
"","html-keyboard-response","30","192509","0.0-24.0-1.0","""event"",""trial"",""time""
""fullscreenenter"",""0"",""1412""
","
","
","""event"",""trial"",""time""
""fullscreenenter"",""0"",""1412""
","
","null","<p></p>","null","","","","","","","","","","","","","","","","","","","","","","","",""
"","do_trial","31","195726","0.0-25.0-0.0","""event"",""trial"",""time""
""fullscreenenter"",""0"",""1412""
","
","
","""event"",""trial"",""time""
""fullscreenenter"",""0"",""1412""
","
","649.1999999284744","","","","","","","","51","0,0,0","6","blank","236","null","0.48902143647080193","0.22781722098150894","0.24763039399090025","0","","","","","","","","",""
"","html-keyboard-response","32","196744","0.0-25.0-1.0","""event"",""trial"",""time""
""fullscreenenter"",""0"",""1412""
","
","
","""event"",""trial"",""time""
""fullscreenenter"",""0"",""1412""
","
","null","<p></p>","null","","","","","","","","","","","","","","","","","","","","","","","",""
"","do_trial","33","200027","0.0-26.0-0.0","""event"",""trial"",""time""
""fullscreenenter"",""0"",""1412""
","
","
","""event"",""trial"",""time""
""fullscreenenter"",""0"",""1412""
","
","716","","","","","","","","51","1,0,0","6","blank","237","null","0.667275517543562","0.21112772866715465","0.1984699796578913","0","","","","","","","","",""
"","html-keyboard-response","34","201043","0.0-26.0-1.0","""event"",""trial"",""time""
""fullscreenenter"",""0"",""1412""
","
","
","""event"",""trial"",""time""
""fullscreenenter"",""0"",""1412""
","
","null","<p></p>","null","","","","","","","","","","","","","","","","","","","","","","","",""
"","do_trial","35","204144","0.0-27.0-0.0","""event"",""trial"",""time""
""fullscreenenter"",""0"",""1412""
","
","
","""event"",""trial"",""time""
""fullscreenenter"",""0"",""1412""
","
","531.5","","","","","","","","51","1,0,0","6","blank","238","null","0.7097805354807499","0.136317970338975","0.1383418788670519","0","","","","","","","","",""
"","html-keyboard-response","36","205159","0.0-27.0-1.0","""event"",""trial"",""time""
""fullscreenenter"",""0"",""1412""
","
","
","""event"",""trial"",""time""
""fullscreenenter"",""0"",""1412""
","
","null","<p></p>","null","","","","","","","","","","","","","","","","","","","","","","","",""
"","do_trial","37","208177","0.0-28.0-0.0","""event"",""trial"",""time""
""fullscreenenter"",""0"",""1412""
","
","
","""event"",""trial"",""time""
""fullscreenenter"",""0"",""1412""
","
","450.3000000715256","","","","","","","","49","0,0,0","6","blank","239","null","0.8311107614641676","0.17268662491998238","0.19803701408118532","0","","","","","","","","",""
"","html-keyboard-response","38","209194","0.0-28.0-1.0","""event"",""trial"",""time""
""fullscreenenter"",""0"",""1412""
","
","
","""event"",""trial"",""time""
""fullscreenenter"",""0"",""1412""
","
","null","<p></p>","null","","","","","","","","","","","","","","","","","","","","","","","",""
"","do_trial","39","212406","0.0-29.0-0.0","""event"",""trial"",""time""
""fullscreenenter"",""0"",""1412""
","
","
","""event"",""trial"",""time""
""fullscreenenter"",""0"",""1412""
","
","636.9000000953674","","","","","","","","49","1,0,0","6","blank","240","null","0.8072112982928963","0.17979126366896278","0.053321429619132846","1","","","","","","","","",""
"","html-keyboard-response","40","213412","0.0-29.0-1.0","""event"",""trial"",""time""
""fullscreenenter"",""0"",""1412""
","
","
","""event"",""trial"",""time""
""fullscreenenter"",""0"",""1412""
","
","null","<p></p>","null","","","","","","","","","","","","","","","","","","","","","","","",""
"","do_recog","41","219431","0.0-30.0-0.0","""event"",""trial"",""time""
""fullscreenenter"",""0"",""1412""
","
","
","""event"",""trial"",""time""
""fullscreenenter"",""0"",""1412""
","
","null","","","","","","","","null","","","","241","probe-58","","","","","1","[object Object]","197","4","0","","","",""
"","html-keyboard-response","42","220444","0.0-30.0-1.0","""event"",""trial"",""time""
""fullscreenenter"",""0"",""1412""
","
","
","""event"",""trial"",""time""
""fullscreenenter"",""0"",""1412""
","
","null","<p></p>","null","","","","","","","","","","","","","","","","","","","","","","","",""
"","do_trial","43","223673","0.0-31.0-0.0","""event"",""trial"",""time""
""fullscreenenter"",""0"",""1412""
","
","
","""event"",""trial"",""time""
""fullscreenenter"",""0"",""1412""
","
","668.8999999761581","","","","","","","","49","1,1,0","6","blank","242","null","0.7875496066479832","0.18945422304831347","0.11599648695101497","1","","","","","","","","",""
"","html-keyboard-response","44","224682","0.0-31.0-1.0","""event"",""trial"",""time""
""fullscreenenter"",""0"",""1412""
","
","
","""event"",""trial"",""time""
""fullscreenenter"",""0"",""1412""
","
","null","<p></p>","null","","","","","","","","","","","","","","","","","","","","","","","",""
"","do_recog","45","230705","0.0-32.0-0.0","""event"",""trial"",""time""
""fullscreenenter"",""0"",""1412""
","
","
","""event"",""trial"",""time""
""fullscreenenter"",""0"",""1412""
","
","null","","","","","","","","null","","","","243","probe-47","","","","","1","[object Object]","33","0","0","","","",""
"","html-keyboard-response","46","231718","0.0-32.0-1.0","""event"",""trial"",""time""
""fullscreenenter"",""0"",""1412""
","
","
","""event"",""trial"",""time""
""fullscreenenter"",""0"",""1412""
","
","null","<p></p>","null","","","","","","","","","","","","","","","","","","","","","","","",""
"","do_trial","47","234937","0.0-33.0-0.0","""event"",""trial"",""time""
""fullscreenenter"",""0"",""1412""
","
","
","""event"",""trial"",""time""
""fullscreenenter"",""0"",""1412""
","
","643.4000000953674","","","","","","","","49","1,1,0","6","blank","244","null","0.5873354037428984","0.322746050200866","0.0615708453186602","1","","","","","","","","",""
"","html-keyboard-response","48","235948","0.0-33.0-1.0","""event"",""trial"",""time""
""fullscreenenter"",""0"",""1412""
","
","
","""event"",""trial"",""time""
""fullscreenenter"",""0"",""1412""
","
","null","<p></p>","null","","","","","","","","","","","","","","","","","","","","","","","",""
"","do_recog","49","241977","0.0-34.0-0.0","""event"",""trial"",""time""
""fullscreenenter"",""0"",""1412""
","
","
","""event"",""trial"",""time""
""fullscreenenter"",""0"",""1412""
","
","null","","","","","","","","null","","","","245","probe-236","","","","","0","[object Object]","null","null","0","","","",""
"","html-keyboard-response","50","242981","0.0-34.0-1.0","""event"",""trial"",""time""
""fullscreenenter"",""0"",""1412""
","
","
","""event"",""trial"",""time""
""fullscreenenter"",""0"",""1412""
","
","null","<p></p>","null","","","","","","","","","","","","","","","","","","","","","","","",""
"","do_trial","51","246382","0.0-35.0-0.0","""event"",""trial"",""time""
""fullscreenenter"",""0"",""1412""
","
","
","""event"",""trial"",""time""
""fullscreenenter"",""0"",""1412""
","
","817.7999999523163","","","","","","","","49","0,0,0","6","blank","246","null","0.5110414594276318","0.45795286071968555","0.11066894358647256","0","","","","","","","","",""
"","html-keyboard-response","52","247395","0.0-35.0-1.0","""event"",""trial"",""time""
""fullscreenenter"",""0"",""1412""
","
","
","""event"",""trial"",""time""
""fullscreenenter"",""0"",""1412""
","
","null","<p></p>","null","","","","","","","","","","","","","","","","","","","","","","","",""
"","do_trial","53","250964","0.0-36.0-0.0","""event"",""trial"",""time""
""fullscreenenter"",""0"",""1412""
","
","
","""event"",""trial"",""time""
""fullscreenenter"",""0"",""1412""
","
","988.6000000238419","","","","","","","","49","0,0,0","6","blank","247","null","0.4996684376968863","0.511618939683668","0.05617129341055438","0","","","","","","","","",""
"","html-keyboard-response","54","251978","0.0-36.0-1.0","""event"",""trial"",""time""
""fullscreenenter"",""0"",""1412""
","
","
","""event"",""trial"",""time""
""fullscreenenter"",""0"",""1412""
","
","null","<p></p>","null","","","","","","","","","","","","","","","","","","","","","","","",""
"","do_trial","55","255107","0.0-37.0-0.0","""event"",""trial"",""time""
""fullscreenenter"",""0"",""1412""
","
","
","""event"",""trial"",""time""
""fullscreenenter"",""0"",""1412""
","
","572","","","","","","","","49","0,1,0","6","blank","248","null","0.35411386880642143","0.5550907802372259","0.07659237945739009","0","","","","","","","","",""
"","html-keyboard-response","56","256114","0.0-37.0-1.0","""event"",""trial"",""time""
""fullscreenenter"",""0"",""1412""
","
","
","""event"",""trial"",""time""
""fullscreenenter"",""0"",""1412""
","
","null","<p></p>","null","","","","","","","","","","","","","","","","","","","","","","","",""
"","do_trial","57","259132","0.0-38.0-0.0","""event"",""trial"",""time""
""fullscreenenter"",""0"",""1412""
","
","
","""event"",""trial"",""time""
""fullscreenenter"",""0"",""1412""
","
","443","","","","","","","","49","0,1,0","6","blank","249","null","0.23484652163122047","0.618499341237202","0.09579275445128954","0","","","","","","","","",""
"","html-keyboard-response","58","260144","0.0-38.0-1.0","""event"",""trial"",""time""
""fullscreenenter"",""0"",""1412""
","
","
","""event"",""trial"",""time""
""fullscreenenter"",""0"",""1412""
","
","null","<p></p>","null","","","","","","","","","","","","","","","","","","","","","","","",""
"","do_trial","59","263452","0.0-39.0-0.0","""event"",""trial"",""time""
""fullscreenenter"",""0"",""1412""
","
","
","""event"",""trial"",""time""
""fullscreenenter"",""0"",""1412""
","
","726.7000000476837","","","","","","","","50","0,1,1","6","blank","250","null","0.10148388049377825","0.5529431847457728","0.06819814777012652","1","","","","","","","","",""
"","html-keyboard-response","60","264461","0.0-39.0-1.0","""event"",""trial"",""time""
""fullscreenenter"",""0"",""1412""
","
","
","""event"",""trial"",""time""
""fullscreenenter"",""0"",""1412""
","
","null","<p></p>","null","","","","","","","","","","","","","","","","","","","","","","","",""
"","do_recog","61","270494","0.0-40.0-0.0","""event"",""trial"",""time""
""fullscreenenter"",""0"",""1412""
","
","
","""event"",""trial"",""time""
""fullscreenenter"",""0"",""1412""
","
","null","","","","","","","","null","","","","251","probe-212","","","","","1","[object Object]","32","0","0","","","",""
"","html-keyboard-response","62","271511","0.0-40.0-1.0","""event"",""trial"",""time""
""fullscreenenter"",""0"",""1412""
","
","
","""event"",""trial"",""time""
""fullscreenenter"",""0"",""1412""
","
","null","<p></p>","null","","","","","","","","","","","","","","","","","","","","","","","",""
"","do_trial","63","274823","0.0-41.0-0.0","""event"",""trial"",""time""
""fullscreenenter"",""0"",""1412""
","
","
","""event"",""trial"",""time""
""fullscreenenter"",""0"",""1412""
","
","734.1000000238419","","","","","","","","49","0,1,1","6","blank","252","null","0.24470470995007965","0.7257838553429766","0.14747529380996802","0","","","","","","","","",""
"","html-keyboard-response","64","275825","0.0-41.0-1.0","""event"",""trial"",""time""
""fullscreenenter"",""0"",""1412""
","
","
","""event"",""trial"",""time""
""fullscreenenter"",""0"",""1412""
","
","null","<p></p>","null","","","","","","","","","","","","","","","","","","","","","","","",""
"","do_trial","65","278945","0.0-42.0-0.0","""event"",""trial"",""time""
""fullscreenenter"",""0"",""1412""
","
","
","""event"",""trial"",""time""
""fullscreenenter"",""0"",""1412""
","
","562.8000000715256","","","","","","","","49","1,1,0","6","blank","253","null","0.3562516332664096","0.6893231504256058","0.2045361178302983","1","","","","","","","","",""
"","html-keyboard-response","66","279961","0.0-42.0-1.0","""event"",""trial"",""time""
""fullscreenenter"",""0"",""1412""
","
","
","""event"",""trial"",""time""
""fullscreenenter"",""0"",""1412""
","
","null","<p></p>","null","","","","","","","","","","","","","","","","","","","","","","","",""
"","do_trial","67","283077","0.0-43.0-0.0","""event"",""trial"",""time""
""fullscreenenter"",""0"",""1412""
","
","
","""event"",""trial"",""time""
""fullscreenenter"",""0"",""1412""
","
","547.5","","","","","","","","49","1,1,1","6","blank","254","null","0.4087797712672903","0.7509219772951116","0.1676090813980025","1","","","","","","","","",""
"","html-keyboard-response","68","284094","0.0-43.0-1.0","""event"",""trial"",""time""
""fullscreenenter"",""0"",""1412""
","
","
","""event"",""trial"",""time""
""fullscreenenter"",""0"",""1412""
","
","null","<p></p>","null","","","","","","","","","","","","","","","","","","","","","","","",""
"","do_trial","69","287536","0.0-44.0-0.0","""event"",""trial"",""time""
""fullscreenenter"",""0"",""1412""
","
","
","""event"",""trial"",""time""
""fullscreenenter"",""0"",""1412""
","
","859.4000000953674","","","","","","","","49","0,0,0","6","blank","255","null","0.26597457824438386","0.7274744678307823","0.06676329017279531","0","","","","","","","","",""
"","html-keyboard-response","70","288545","0.0-44.0-1.0","""event"",""trial"",""time""
""fullscreenenter"",""0"",""1412""
","
","
","""event"",""trial"",""time""
""fullscreenenter"",""0"",""1412""
","
","null","<p></p>","null","","","","","","","","","","","","","","","","","","","","","","","",""
"","do_trial","71","292446","0.0-45.0-0.0","""event"",""trial"",""time""
""fullscreenenter"",""0"",""1412""
","
","
","""event"",""trial"",""time""
""fullscreenenter"",""0"",""1412""
","
","1343.0999999046326","","","","","","","","49","0,0,0","6","blank","256","null","0.27877032653166306","0.7654196006566689","0.10988658239127905","0","","","","","","","","",""
"","html-keyboard-response","72","293461","0.0-45.0-1.0","""event"",""trial"",""time""
""fullscreenenter"",""0"",""1412""
","
","
","""event"",""trial"",""time""
""fullscreenenter"",""0"",""1412""
","
","null","<p></p>","null","","","","","","","","","","","","","","","","","","","","","","","",""
"","do_trial","73","296724","0.0-46.0-0.0","""event"",""trial"",""time""
""fullscreenenter"",""0"",""1412""
","
","
","""event"",""trial"",""time""
""fullscreenenter"",""0"",""1412""
","
","682.8999999761581","","","","","","","","50","0,0,0","6","blank","257","null","0.315142086871245","0.7534306814170869","0.08928091513419396","0","","","","","","","","",""
"","html-keyboard-response","74","297731","0.0-46.0-1.0","""event"",""trial"",""time""
""fullscreenenter"",""0"",""1412""
","
","
","""event"",""trial"",""time""
""fullscreenenter"",""0"",""1412""
","
","null","<p></p>","null","","","","","","","","","","","","","","","","","","","","","","","",""
"","do_recog","75","303755","0.0-47.0-0.0","""event"",""trial"",""time""
""fullscreenenter"",""0"",""1412""
","
","
","""event"",""trial"",""time""
""fullscreenenter"",""0"",""1412""
","
","null","","","","","","","","null","","","","258","probe-139","","","","","1","[object Object]","36","0","0","","","",""
"","html-keyboard-response","76","304763","0.0-47.0-1.0","""event"",""trial"",""time""
""fullscreenenter"",""0"",""1412""
","
","
","""event"",""trial"",""time""
""fullscreenenter"",""0"",""1412""
","
","null","<p></p>","null","","","","","","","","","","","","","","","","","","","","","","","",""
"","do_trial","77","308521","0.0-48.0-0.0","""event"",""trial"",""time""
""fullscreenenter"",""0"",""1412""
","
","
","""event"",""trial"",""time""
""fullscreenenter"",""0"",""1412""
","
","1195","","","","","","","","50","0,1,0","6","blank","259","null","0.24772166225700062","0.7747329475425965","0.1304535033065741","1","","","","","","","","",""
"","html-keyboard-response","78","309537","0.0-48.0-1.0","""event"",""trial"",""time""
""fullscreenenter"",""0"",""1412""
","
","
","""event"",""trial"",""time""
""fullscreenenter"",""0"",""1412""
","
","null","<p></p>","null","","","","","","","","","","","","","","","","","","","","","","","",""
"","do_recog","79","312803","0.0-49.0-0.0","""event"",""trial"",""time""
""fullscreenenter"",""0"",""1412""
","
","
","""event"",""trial"",""time""
""fullscreenenter"",""0"",""1412""
","
","1742.8000000715256","","","","","","","","54","","","","260","probe-30","","","","","1","[object Object]","31","0","1","","","",""
"","html-keyboard-response","80","313810","0.0-49.0-1.0","""event"",""trial"",""time""
""fullscreenenter"",""0"",""1412""
","
","
","""event"",""trial"",""time""
""fullscreenenter"",""0"",""1412""
","
","null","<p></p>","null","","","","","","","","","","","","","","","","","","","","","","","",""
"","do_trial","81","317078","0.0-50.0-0.0","""event"",""trial"",""time""
""fullscreenenter"",""0"",""1412""
","
","
","""event"",""trial"",""time""
""fullscreenenter"",""0"",""1412""
","
","678.1000000238419","","","","","","","","50","0,0,0","6","blank","261","null","0.2966593235422387","0.6713066435219416","0.1585954681451512","0","","","","","","","","",""
"","html-keyboard-response","82","318087","0.0-50.0-1.0","""event"",""trial"",""time""
""fullscreenenter"",""0"",""1412""
","
","
","""event"",""trial"",""time""
""fullscreenenter"",""0"",""1412""
","
","null","<p></p>","null","","","","","","","","","","","","","","","","","","","","","","","",""
"","do_trial","83","321179","0.0-51.0-0.0","""event"",""trial"",""time""
""fullscreenenter"",""0"",""1412""
","
","
","""event"",""trial"",""time""
""fullscreenenter"",""0"",""1412""
","
","530.1000000238419","","","","","","","","50","1,1,1","6","blank","262","null","0.22483100742184295","0.6990363581865358","0.07868450719142382","1","","","","","","","","",""
"","html-keyboard-response","84","322195","0.0-51.0-1.0","""event"",""trial"",""time""
""fullscreenenter"",""0"",""1412""
","
","
","""event"",""trial"",""time""
""fullscreenenter"",""0"",""1412""
","
","null","<p></p>","null","","","","","","","","","","","","","","","","","","","","","","","",""
"","do_trial","85","325496","0.0-52.0-0.0","""event"",""trial"",""time""
""fullscreenenter"",""0"",""1412""
","
","
","""event"",""trial"",""time""
""fullscreenenter"",""0"",""1412""
","
","738","","","","","","","","50","0,1,0","6","blank","263","null","0.2602489794637251","0.6313949778396278","0.19390619179560886","1","","","","","","","","",""
"","html-keyboard-response","86","326509","0.0-52.0-1.0","""event"",""trial"",""time""
""fullscreenenter"",""0"",""1412""
","
","
","""event"",""trial"",""time""
""fullscreenenter"",""0"",""1412""
","
","null","<p></p>","null","","","","","","","","","","","","","","","","","","","","","","","",""
"","do_trial","87","329603","0.0-53.0-0.0","""event"",""trial"",""time""
""fullscreenenter"",""0"",""1412""
","
","
","""event"",""trial"",""time""
""fullscreenenter"",""0"",""1412""
","
","522.7000000476837","","","","","","","","50","0,0,0","6","blank","264","null","0.2490489581486898","0.5274441135327884","0.23262593764079711","0","","","","","","","","",""
"","html-keyboard-response","88","330612","0.0-53.0-1.0","""event"",""trial"",""time""
""fullscreenenter"",""0"",""1412""
","
","
","""event"",""trial"",""time""
""fullscreenenter"",""0"",""1412""
","
","null","<p></p>","null","","","","","","","","","","","","","","","","","","","","","","","",""
"","do_trial","89","335119","0.0-54.0-0.0","""event"",""trial"",""time""
""fullscreenenter"",""0"",""1412""
","
","
","""event"",""trial"",""time""
""fullscreenenter"",""0"",""1412""
","
","1919.7000000476837","","","","","","","","50","1,1,0","6","blank","265","null","0.35145771388980335","0.5898081031064615","0.20582229744482392","1","","","","","","","","",""
"","html-keyboard-response","90","336125","0.0-54.0-1.0","""event"",""trial"",""time""
""fullscreenenter"",""0"",""1412""
","
","
","""event"",""trial"",""time""
""fullscreenenter"",""0"",""1412""
","
","null","<p></p>","null","","","","","","","","","","","","","","","","","","","","","","","",""
"","do_trial","91","340196","0.0-55.0-0.0","""event"",""trial"",""time""
""fullscreenenter"",""0"",""1412""
","
","
","""event"",""trial"",""time""
""fullscreenenter"",""0"",""1412""
","
","1500.5","","","","","","","","50","1,0,0","6","blank","266","null","0.3932081408523302","0.5715074132402005","0.2630617277380176","0","","","","","","","","",""
"","html-keyboard-response","92","341198","0.0-55.0-1.0","""event"",""trial"",""time""
""fullscreenenter"",""0"",""1412""
","
","
","""event"",""trial"",""time""
""fullscreenenter"",""0"",""1412""
","
","null","<p></p>","null","","","","","","","","","","","","","","","","","","","","","","","",""
"","do_trial","93","344329","0.0-56.0-0.0","""event"",""trial"",""time""
""fullscreenenter"",""0"",""1412""
","
","
","""event"",""trial"",""time""
""fullscreenenter"",""0"",""1412""
","
","559.3000000715256","","","","","","","","51","1,1,0","6","blank","267","null","0.5326629570686653","0.7027547533800533","0.16442901435125476","0","","","","","","","","",""
"","html-keyboard-response","94","345345","0.0-56.0-1.0","""event"",""trial"",""time""
""fullscreenenter"",""0"",""1412""
","
","
","""event"",""trial"",""time""
""fullscreenenter"",""0"",""1412""
","
","null","<p></p>","null","","","","","","","","","","","","","","","","","","","","","","","",""
"","do_recog","95","349033","0.0-57.0-0.0","""event"",""trial"",""time""
""fullscreenenter"",""0"",""1412""
","
","
","""event"",""trial"",""time""
""fullscreenenter"",""0"",""1412""
","
","2169.4000000953674","","","","","","","","55","","","","268","probe-171","","","","","1","[object Object]","77","1","0","","","",""
"","html-keyboard-response","96","350044","0.0-57.0-1.0","""event"",""trial"",""time""
""fullscreenenter"",""0"",""1412""
","
","
","""event"",""trial"",""time""
""fullscreenenter"",""0"",""1412""
","
","null","<p></p>","null","","","","","","","","","","","","","","","","","","","","","","","",""
"","break","97","470050","0.0-58.0-0.0","""event"",""trial"",""time""
""fullscreenenter"",""0"",""1412""
","
","
","""event"",""trial"",""time""
""fullscreenenter"",""0"",""1412""
","
","null","<div class='center'><p>Time to take a quick break! You have 2 minutes to rest, but you can move on sooner if you'd like.</p><p> Press the <b>space bar</b> to continue.</p></div>","null","","","","","","","","","","","","","","","","","","","","","","","",""
"","do_trial","98","476123","0.0-58.0-1.0","""event"",""trial"",""time""
""fullscreenenter"",""0"",""1412""
","
","
","""event"",""trial"",""time""
""fullscreenenter"",""0"",""1412""
","
","null","","","","","","","","null","0,1,1","6","blank","269","null","0.5148480833198672","0.5516233533923249","0.12715521848631992","","","","","","","","","",""
"","html-keyboard-response","99","477144","0.0-58.0-2.0","""event"",""trial"",""time""
""fullscreenenter"",""0"",""1412""
","
","
","""event"",""trial"",""time""
""fullscreenenter"",""0"",""1412""
","
","null","<p></p>","null","","","","","","","","","","","","","","","","","","","","","","","",""
"","do_trial","100","480985","0.0-59.0-0.0","""event"",""trial"",""time""
""fullscreenenter"",""0"",""1412""
","
","
","""event"",""trial"",""time""
""fullscreenenter"",""0"",""1412""
","
","1287.6999999284744","","","","","","","","50","0,1,0","6","blank","270","null","0.3708044755959948","0.5452028011439594","0.2298514836144026","1","","","","","","","","",""
"","html-keyboard-response","101","481997","0.0-59.0-1.0","""event"",""trial"",""time""
""fullscreenenter"",""0"",""1412""
","
","
","""event"",""trial"",""time""
""fullscreenenter"",""0"",""1412""
","
","null","<p></p>","null","","","","","","","","","","","","","","","","","","","","","","","",""
"","do_trial","102","485878","0.0-60.0-0.0","""event"",""trial"",""time""
""fullscreenenter"",""0"",""1412""
","
","
","""event"",""trial"",""time""
""fullscreenenter"",""0"",""1412""
","
","1313.6999999284744","","","","","","","","50","0,1,0","6","blank","271","null","0.3421724926011604","0.6368492863558154","0.22338021749287024","1","","","","","","","","",""
"","html-keyboard-response","103","486892","0.0-60.0-1.0","""event"",""trial"",""time""
""fullscreenenter"",""0"",""1412""
","
","
","""event"",""trial"",""time""
""fullscreenenter"",""0"",""1412""
","
","null","<p></p>","null","","","","","","","","","","","","","","","","","","","","","","","",""
"","do_trial","104","490632","0.0-61.0-0.0","""event"",""trial"",""time""
""fullscreenenter"",""0"",""1412""
","
","
","""event"",""trial"",""time""
""fullscreenenter"",""0"",""1412""
","
","1145.3999999761581","","","","","","","","50","0,0,1","6","blank","272","null","0.3366843647110027","0.5711566357555252","0.09362190718333781","0","","","","","","","","",""
"","html-keyboard-response","105","491634","0.0-61.0-1.0","""event"",""trial"",""time""
""fullscreenenter"",""0"",""1412""
","
","
","""event"",""trial"",""time""
""fullscreenenter"",""0"",""1412""
","
","null","<p></p>","null","","","","","","","","","","","","","","","","","","","","","","","",""
"","do_trial","106","495464","0.0-62.0-0.0","""event"",""trial"",""time""
""fullscreenenter"",""0"",""1412""
","
","
","""event"",""trial"",""time""
""fullscreenenter"",""0"",""1412""
","
","1258.8999999761581","","","","","","","","51","1,0,0","6","blank","273","null","0.29194837652863515","0.6081491398405919","0.07028016665650476","0","","","","","","","","",""
"","html-keyboard-response","107","496478","0.0-62.0-1.0","""event"",""trial"",""time""
""fullscreenenter"",""0"",""1412""
","
","
","""event"",""trial"",""time""
""fullscreenenter"",""0"",""1412""
","
","null","<p></p>","null","","","","","","","","","","","","","","","","","","","","","","","",""
"","do_recog","108","502505","0.0-63.0-0.0","""event"",""trial"",""time""
""fullscreenenter"",""0"",""1412""
","
","
","""event"",""trial"",""time""
""fullscreenenter"",""0"",""1412""
","
","null","","","","","","","","null","","","","274","probe-64","","","","","1","[object Object]","75","1","0","","","",""
"","html-keyboard-response","109","503512","0.0-63.0-1.0","""event"",""trial"",""time""
""fullscreenenter"",""0"",""1412""
","
","
","""event"",""trial"",""time""
""fullscreenenter"",""0"",""1412""
","
","null","<p></p>","null","","","","","","","","","","","","","","","","","","","","","","","",""
"","do_trial","110","507651","0.0-64.0-0.0","""event"",""trial"",""time""
""fullscreenenter"",""0"",""1412""
","
","
","""event"",""trial"",""time""
""fullscreenenter"",""0"",""1412""
","
","1553.3999999761581","","","","","","","","50","0,1,0","6","blank","275","null","0.2976187150871603","0.5782730817377265","0.13621522386380153","1","","","","","","","","",""
"","html-keyboard-response","111","508661","0.0-64.0-1.0","""event"",""trial"",""time""
""fullscreenenter"",""0"",""1412""
","
","
","""event"",""trial"",""time""
""fullscreenenter"",""0"",""1412""
","
","null","<p></p>","null","","","","","","","","","","","","","","","","","","","","","","","",""
"","do_trial","112","512297","0.0-65.0-0.0","""event"",""trial"",""time""
""fullscreenenter"",""0"",""1412""
","
","
","""event"",""trial"",""time""
""fullscreenenter"",""0"",""1412""
","
","1077.5999999046326","","","","","","","","50","0,0,0","6","blank","276","null","0.3083232312477895","0.6760711892070552","0.18430352942413555","0","","","","","","","","",""
"","html-keyboard-response","113","513313","0.0-65.0-1.0","""event"",""trial"",""time""
""fullscreenenter"",""0"",""1412""
","
","
","""event"",""trial"",""time""
""fullscreenenter"",""0"",""1412""
","
","null","<p></p>","null","","","","","","","","","","","","","","","","","","","","","","","",""
"","do_trial","114","516351","0.0-66.0-0.0","""event"",""trial"",""time""
""fullscreenenter"",""0"",""1412""
","
","
","""event"",""trial"",""time""
""fullscreenenter"",""0"",""1412""
","
","462.39999997615814","","","","","","","","50","1,1,0","6","blank","277","null","0.2731651758114473","0.6798227918088261","0.15863020312354806","1","","","","","","","","",""
"","html-keyboard-response","115","517361","0.0-66.0-1.0","""event"",""trial"",""time""
""fullscreenenter"",""0"",""1412""
","
","
","""event"",""trial"",""time""
""fullscreenenter"",""0"",""1412""
","
","null","<p></p>","null","","","","","","","","","","","","","","","","","","","","","","","",""
"","do_trial","116","520513","0.0-67.0-0.0","""event"",""trial"",""time""
""fullscreenenter"",""0"",""1412""
","
","
","""event"",""trial"",""time""
""fullscreenenter"",""0"",""1412""
","
","591.2000000476837","","","","","","","","50","0,0,0","6","blank","278","null","0.32955954420034284","0.6521024599942917","0.0946074895083361","0","","","","","","","","",""
"","html-keyboard-response","117","521516","0.0-67.0-1.0","""event"",""trial"",""time""
""fullscreenenter"",""0"",""1412""
","
","
","""event"",""trial"",""time""
""fullscreenenter"",""0"",""1412""
","
","null","<p></p>","null","","","","","","","","","","","","","","","","","","","","","","","",""
"","do_trial","118","524780","0.0-68.0-0.0","""event"",""trial"",""time""
""fullscreenenter"",""0"",""1412""
","
","
","""event"",""trial"",""time""
""fullscreenenter"",""0"",""1412""
","
","693.8999999761581","","","","","","","","50","1,0,0","6","blank","279","null","0.5059033685670714","0.5850586732537776","0.17638127094467293","0","","","","","","","","",""
"","html-keyboard-response","119","525794","0.0-68.0-1.0","""event"",""trial"",""time""
""fullscreenenter"",""0"",""1412""
","
","
","""event"",""trial"",""time""
""fullscreenenter"",""0"",""1412""
","
","null","<p></p>","null","","","","","","","","","","","","","","","","","","","","","","","",""
"","do_recog","120","529946","0.0-69.0-0.0","""event"",""trial"",""time""
""fullscreenenter"",""0"",""1412""
","
","
","""event"",""trial"",""time""
""fullscreenenter"",""0"",""1412""
","
","2637.600000023842","","","","","","","","56","","","","280","probe-123","","","","","1","[object Object]","78","1","0","","","",""
"","html-keyboard-response","121","530954","0.0-69.0-1.0","""event"",""trial"",""time""
""fullscreenenter"",""0"",""1412""
","
","
","""event"",""trial"",""time""
""fullscreenenter"",""0"",""1412""
","
","null","<p></p>","null","","","","","","","","","","","","","","","","","","","","","","","",""
"","do_trial","122","535527","0.0-70.0-0.0","""event"",""trial"",""time""
""fullscreenenter"",""0"",""1412""
","
","
","""event"",""trial"",""time""
""fullscreenenter"",""0"",""1412""
","
","1993.3999999761581","","","","","","","","50","0,0,0","6","blank","281","null","0.4662064754294615","0.6156430806055899","0.1764600194097917","0","","","","","","","","",""
"","html-keyboard-response","123","536544","0.0-70.0-1.0","""event"",""trial"",""time""
""fullscreenenter"",""0"",""1412""
","
","
","""event"",""trial"",""time""
""fullscreenenter"",""0"",""1412""
","
","null","<p></p>","null","","","","","","","","","","","","","","","","","","","","","","","",""
"","do_trial","124","539684","0.0-71.0-0.0","""event"",""trial"",""time""
""fullscreenenter"",""0"",""1412""
","
","
","""event"",""trial"",""time""
""fullscreenenter"",""0"",""1412""
","
","576.9000000953674","","","","","","","","50","0,1,0","6","blank","282","null","0.37244823237277175","0.5408829605536287","0.09434533651487982","1","","","","","","","","",""
"","html-keyboard-response","125","540695","0.0-71.0-1.0","""event"",""trial"",""time""
""fullscreenenter"",""0"",""1412""
","
","
","""event"",""trial"",""time""
""fullscreenenter"",""0"",""1412""
","
","null","<p></p>","null","","","","","","","","","","","","","","","","","","","","","","","",""
"","do_trial","126","543781","0.0-72.0-0.0","""event"",""trial"",""time""
""fullscreenenter"",""0"",""1412""
","
","
","""event"",""trial"",""time""
""fullscreenenter"",""0"",""1412""
","
","520.3999999761581","","","","","","","","50","0,1,0","6","blank","283","null","0.38266344581891604","0.5686005880140771","0.0915130343838673","1","","","","","","","","",""
"","html-keyboard-response","127","544795","0.0-72.0-1.0","""event"",""trial"",""time""
""fullscreenenter"",""0"",""1412""
","
","
","""event"",""trial"",""time""
""fullscreenenter"",""0"",""1412""
","
","null","<p></p>","null","","","","","","","","","","","","","","","","","","","","","","","",""
"","do_recog","128","548984","0.0-73.0-0.0","""event"",""trial"",""time""
""fullscreenenter"",""0"",""1412""
","
","
","""event"",""trial"",""time""
""fullscreenenter"",""0"",""1412""
","
","2668.5999999046326","","","","","","","","56","","","","284","probe-255","","","","","0","[object Object]","null","null","1","","","",""
"","html-keyboard-response","129","549995","0.0-73.0-1.0","""event"",""trial"",""time""
""fullscreenenter"",""0"",""1412""
","
","
","""event"",""trial"",""time""
""fullscreenenter"",""0"",""1412""
","
","null","<p></p>","null","","","","","","","","","","","","","","","","","","","","","","","",""
"","do_trial","130","554201","0.0-74.0-0.0","""event"",""trial"",""time""
""fullscreenenter"",""0"",""1412""
","
","
","""event"",""trial"",""time""
""fullscreenenter"",""0"",""1412""
","
","1632.3000000715256","","","","","","","","50","1,1,0","6","blank","285","null","0.3422400335691056","0.6771735734632801","0.15393882544115667","1","","","","","","","","",""
"","html-keyboard-response","131","555211","0.0-74.0-1.0","""event"",""trial"",""time""
""fullscreenenter"",""0"",""1412""
","
","
","""event"",""trial"",""time""
""fullscreenenter"",""0"",""1412""
","
","null","<p></p>","null","","","","","","","","","","","","","","","","","","","","","","","",""
"","do_trial","132","558238","0.0-75.0-0.0","""event"",""trial"",""time""
""fullscreenenter"",""0"",""1412""
","
","
","""event"",""trial"",""time""
""fullscreenenter"",""0"",""1412""
","
","457.09999990463257","","","","","","","","50","0,1,0","6","blank","286","null","0.2806527032981316","0.6011125044057336","0.22883362770427362","1","","","","","","","","",""
"","html-keyboard-response","133","559246","0.0-75.0-1.0","""event"",""trial"",""time""
""fullscreenenter"",""0"",""1412""
","
","
","""event"",""trial"",""time""
""fullscreenenter"",""0"",""1412""
","
","null","<p></p>","null","","","","","","","","","","","","","","","","","","","","","","","",""
"","do_recog","134","563334","0.0-76.0-0.0","""event"",""trial"",""time""
""fullscreenenter"",""0"",""1412""
","
","
","""event"",""trial"",""time""
""fullscreenenter"",""0"",""1412""
","
","2563.9000000953674","","","","","","","","55","","","","287","probe-234","","","","","0","[object Object]","null","null","1","","","",""
"","html-keyboard-response","135","564345","0.0-76.0-1.0","""event"",""trial"",""time""
""fullscreenenter"",""0"",""1412""
","
","
","""event"",""trial"",""time""
""fullscreenenter"",""0"",""1412""
","
","null","<p></p>","null","","","","","","","","","","","","","","","","","","","","","","","",""
"","do_trial","136","568152","0.0-77.0-0.0","""event"",""trial"",""time""
""fullscreenenter"",""0"",""1412""
","
","
","""event"",""trial"",""time""
""fullscreenenter"",""0"",""1412""
","
","1235.8999999761581","","","","","","","","50","0,0,0","6","blank","288","null","0.3065990492394474","0.5594109028108608","0.1131654774692566","0","","","","","","","","",""
"","html-keyboard-response","137","569166","0.0-77.0-1.0","""event"",""trial"",""time""
""fullscreenenter"",""0"",""1412""
","
","
","""event"",""trial"",""time""
""fullscreenenter"",""0"",""1412""
","
","null","<p></p>","null","","","","","","","","","","","","","","","","","","","","","","","",""
"","do_recog","138","573486","0.0-78.0-0.0","""event"",""trial"",""time""
""fullscreenenter"",""0"",""1412""
","
","
","""event"",""trial"",""time""
""fullscreenenter"",""0"",""1412""
","
","2795.9000000953674","","","","","","","","53","","","","289","probe-206","","","","","1","[object Object]","199","4","1","","","",""
"","html-keyboard-response","139","574510","0.0-78.0-1.0","""event"",""trial"",""time""
""fullscreenenter"",""0"",""1412""
","
","
","""event"",""trial"",""time""
""fullscreenenter"",""0"",""1412""
","
","null","<p></p>","null","","","","","","","","","","","","","","","","","","","","","","","",""
"","do_trial","140","578202","0.0-79.0-0.0","""event"",""trial"",""time""
""fullscreenenter"",""0"",""1412""
","
","
","""event"",""trial"",""time""
""fullscreenenter"",""0"",""1412""
","
","1125.7999999523163","","","","","","","","50","0,1,1","6","blank","290","null","0.1866411171177373","0.6016038912235805","0.1514041741956251","1","","","","","","","","",""
"","html-keyboard-response","141","579212","0.0-79.0-1.0","""event"",""trial"",""time""
""fullscreenenter"",""0"",""1412""
","
","
","""event"",""trial"",""time""
""fullscreenenter"",""0"",""1412""
","
","null","<p></p>","null","","","","","","","","","","","","","","","","","","","","","","","",""
"","do_trial","142","582433","0.0-80.0-0.0","""event"",""trial"",""time""
""fullscreenenter"",""0"",""1412""
","
","
","""event"",""trial"",""time""
""fullscreenenter"",""0"",""1412""
","
","660.1000000238419","","","","","","","","50","1,1,0","6","blank","291","null","0.27278102131694953","0.7176073172359183","0.06661205399081466","1","","","","","","","","",""
"","html-keyboard-response","143","583444","0.0-80.0-1.0","""event"",""trial"",""time""
""fullscreenenter"",""0"",""1412""
","
","
","""event"",""trial"",""time""
""fullscreenenter"",""0"",""1412""
","
","null","<p></p>","null","","","","","","","","","","","","","","","","","","","","","","","",""
"","do_trial","144","586569","0.0-81.0-0.0","""event"",""trial"",""time""
""fullscreenenter"",""0"",""1412""
","
","
","""event"",""trial"",""time""
""fullscreenenter"",""0"",""1412""
","
","551.1000000238419","","","","","","","","50","0,0,0","6","blank","292","null","0.3349170971727234","0.6904219094491236","0.09687035470917094","0","","","","","","","","",""
"","html-keyboard-response","145","587577","0.0-81.0-1.0","""event"",""trial"",""time""
""fullscreenenter"",""0"",""1412""
","
","
","""event"",""trial"",""time""
""fullscreenenter"",""0"",""1412""
","
","null","<p></p>","null","","","","","","","","","","","","","","","","","","","","","","","",""
"","do_trial","146","590679","0.0-82.0-0.0","""event"",""trial"",""time""
""fullscreenenter"",""0"",""1412""
","
","
","""event"",""trial"",""time""
""fullscreenenter"",""0"",""1412""
","
","530.5","","","","","","","","49","0,1,0","6","blank","293","null","0.21956720905585225","0.7452072320937575","0.13362765905090923","0","","","","","","","","",""
"","html-keyboard-response","147","591692","0.0-82.0-1.0","""event"",""trial"",""time""
""fullscreenenter"",""0"",""1412""
","
","
","""event"",""trial"",""time""
""fullscreenenter"",""0"",""1412""
","
","null","<p></p>","null","","","","","","","","","","","","","","","","","","","","","","","",""
"","do_recog","148","595752","0.0-83.0-0.0","""event"",""trial"",""time""
""fullscreenenter"",""0"",""1412""
","
","
","""event"",""trial"",""time""
""fullscreenenter"",""0"",""1412""
","
","2542.100000023842","","","","","","","","53","","","","294","probe-36","","","","","1","[object Object]","34","0","1","","","",""
"","html-keyboard-response","149","596768","0.0-83.0-1.0","""event"",""trial"",""time""
""fullscreenenter"",""0"",""1412""
","
","
","""event"",""trial"",""time""
""fullscreenenter"",""0"",""1412""
","
","null","<p></p>","null","","","","","","","","","","","","","","","","","","","","","","","",""
"","do_trial","150","600699","0.0-84.0-0.0","""event"",""trial"",""time""
""fullscreenenter"",""0"",""1412""
","
","
","""event"",""trial"",""time""
""fullscreenenter"",""0"",""1412""
","
","1351.9000000953674","","","","","","","","50","1,1,0","6","blank","295","null","0.45113571214685777","0.4140940423553321","0.19627880341724488","1","","","","","","","","",""
"","html-keyboard-response","151","601712","0.0-84.0-1.0","""event"",""trial"",""time""
""fullscreenenter"",""0"",""1412""
","
","
","""event"",""trial"",""time""
""fullscreenenter"",""0"",""1412""
","
","null","<p></p>","null","","","","","","","","","","","","","","","","","","","","","","","",""
"","do_trial","152","605180","0.0-85.0-0.0","""event"",""trial"",""time""
""fullscreenenter"",""0"",""1412""
","
","
","""event"",""trial"",""time""
""fullscreenenter"",""0"",""1412""
","
","903.1000000238419","","","","","","","","50","1,1,1","6","blank","296","null","0.6372264746829935","0.33525523621783365","0.17601851648007005","1","","","","","","","","",""
"","html-keyboard-response","153","606195","0.0-85.0-1.0","""event"",""trial"",""time""
""fullscreenenter"",""0"",""1412""
","
","
","""event"",""trial"",""time""
""fullscreenenter"",""0"",""1412""
","
","null","<p></p>","null","","","","","","","","","","","","","","","","","","","","","","","",""
"","do_trial","154","609962","0.0-86.0-0.0","""event"",""trial"",""time""
""fullscreenenter"",""0"",""1412""
","
","
","""event"",""trial"",""time""
""fullscreenenter"",""0"",""1412""
","
","1187.5","","","","","","","","50","1,1,0","6","blank","297","null","0.5984550839722137","0.3004314693526707","0.08201339007812329","1","","","","","","","","",""
"","html-keyboard-response","155","610977","0.0-86.0-1.0","""event"",""trial"",""time""
""fullscreenenter"",""0"",""1412""
","
","
","""event"",""trial"",""time""
""fullscreenenter"",""0"",""1412""
","
","null","<p></p>","null","","","","","","","","","","","","","","","","","","","","","","","",""
"","do_trial","156","614984","0.0-87.0-0.0","""event"",""trial"",""time""
""fullscreenenter"",""0"",""1412""
","
","
","""event"",""trial"",""time""
""fullscreenenter"",""0"",""1412""
","
","1433.5","","","","","","","","50","1,0,0","6","blank","298","null","0.46272616029868124","0.18643981903355353","0.10246604094621678","0","","","","","","","","",""
"","html-keyboard-response","157","616001","0.0-87.0-1.0","""event"",""trial"",""time""
""fullscreenenter"",""0"",""1412""
","
","
","""event"",""trial"",""time""
""fullscreenenter"",""0"",""1412""
","
","null","<p></p>","null","","","","","","","","","","","","","","","","","","","","","","","",""
"","do_trial","158","619595","0.0-88.0-0.0","""event"",""trial"",""time""
""fullscreenenter"",""0"",""1412""
","
","
","""event"",""trial"",""time""
""fullscreenenter"",""0"",""1412""
","
","1026.5999999046326","","","","","","","","49","0,0,0","6","blank","299","null","0.3491274563283164","0.1768921126437204","0.17411237583191266","0","","","","","","","","",""
"","html-keyboard-response","159","620607","0.0-88.0-1.0","""event"",""trial"",""time""
""fullscreenenter"",""0"",""1412""
","
","
","""event"",""trial"",""time""
""fullscreenenter"",""0"",""1412""
","
","null","<p></p>","null","","","","","","","","","","","","","","","","","","","","","","","",""
"","do_recog","160","624783","0.0-89.0-0.0","""event"",""trial"",""time""
""fullscreenenter"",""0"",""1412""
","
","
","""event"",""trial"",""time""
""fullscreenenter"",""0"",""1412""
","
","2651.399999976158","","","","","","","","56","","","","300","probe-246","","","","","0","[object Object]","null","null","1","","","",""
"","html-keyboard-response","161","625795","0.0-89.0-1.0","""event"",""trial"",""time""
""fullscreenenter"",""0"",""1412""
","
","
","""event"",""trial"",""time""
""fullscreenenter"",""0"",""1412""
","
","null","<p></p>","null","","","","","","","","","","","","","","","","","","","","","","","",""
"","do_trial","162","629561","0.0-90.0-0.0","""event"",""trial"",""time""
""fullscreenenter"",""0"",""1412""
","
","
","""event"",""trial"",""time""
""fullscreenenter"",""0"",""1412""
","
","1190.2999999523163","","","","","","","","50","1,0,0","6","blank","301","null","0.45571851706148475","0.3488662133096693","0.1366618897139589","0","","","","","","","","",""
"","html-keyboard-response","163","630563","0.0-90.0-1.0","""event"",""trial"",""time""
""fullscreenenter"",""0"",""1412""
","
","
","""event"",""trial"",""time""
""fullscreenenter"",""0"",""1412""
","
","null","<p></p>","null","","","","","","","","","","","","","","","","","","","","","","","",""
"","do_trial","164","633714","0.0-91.0-0.0","""event"",""trial"",""time""
""fullscreenenter"",""0"",""1412""
","
","
","""event"",""trial"",""time""
""fullscreenenter"",""0"",""1412""
","
","581","","","","","","","","50","0,0,0","6","blank","302","null","0.5360695281326294","0.3417418594726575","0.17943250144075287","0","","","","","","","","",""
"","html-keyboard-response","165","634728","0.0-91.0-1.0","""event"",""trial"",""time""
""fullscreenenter"",""0"",""1412""
","
","
","""event"",""trial"",""time""
""fullscreenenter"",""0"",""1412""
","
","null","<p></p>","null","","","","","","","","","","","","","","","","","","","","","","","",""
"","do_trial","166","638285","0.0-92.0-0.0","""event"",""trial"",""time""
""fullscreenenter"",""0"",""1412""
","
","
","""event"",""trial"",""time""
""fullscreenenter"",""0"",""1412""
","
","976.4000000953674","","","","","","","","50","0,1,0","6","blank","303","null","0.7009787661644644","0.3428275412592137","0.21233098381941468","1","","","","","","","","",""
"","html-keyboard-response","167","639293","0.0-92.0-1.0","""event"",""trial"",""time""
""fullscreenenter"",""0"",""1412""
","
","
","""event"",""trial"",""time""
""fullscreenenter"",""0"",""1412""
","
","null","<p></p>","null","","","","","","","","","","","","","","","","","","","","","","","",""
"","do_recog","168","643268","0.0-93.0-0.0","""event"",""trial"",""time""
""fullscreenenter"",""0"",""1412""
","
","
","""event"",""trial"",""time""
""fullscreenenter"",""0"",""1412""
","
","2458.5","","","","","","","","56","","","","304","probe-209","","","","","1","[object Object]","39","0","0","","","",""
"","html-keyboard-response","169","644277","0.0-93.0-1.0","""event"",""trial"",""time""
""fullscreenenter"",""0"",""1412""
","
","
","""event"",""trial"",""time""
""fullscreenenter"",""0"",""1412""
","
","null","<p></p>","null","","","","","","","","","","","","","","","","","","","","","","","",""
"","do_trial","170","648114","0.0-94.0-0.0","""event"",""trial"",""time""
""fullscreenenter"",""0"",""1412""
","
","
","""event"",""trial"",""time""
""fullscreenenter"",""0"",""1412""
","
","1261.8000000715256","","","","","","","","50","1,0,1","6","blank","305","null","0.7584590033382285","0.34028988477739786","0.27886951007251987","0","","","","","","","","",""
"","html-keyboard-response","171","649128","0.0-94.0-1.0","""event"",""trial"",""time""
""fullscreenenter"",""0"",""1412""
","
","
","""event"",""trial"",""time""
""fullscreenenter"",""0"",""1412""
","
","null","<p></p>","null","","","","","","","","","","","","","","","","","","","","","","","",""
"","do_trial","172","652299","0.0-95.0-0.0","""event"",""trial"",""time""
""fullscreenenter"",""0"",""1412""
","
","
","""event"",""trial"",""time""
""fullscreenenter"",""0"",""1412""
","
","600","","","","","","","","50","1,0,0","6","blank","306","null","0.8178211387204758","0.3864948577844802","0.22598612544354663","0","","","","","","","","",""
"","html-keyboard-response","173","653311","0.0-95.0-1.0","""event"",""trial"",""time""
""fullscreenenter"",""0"",""1412""
","
","
","""event"",""trial"",""time""
""fullscreenenter"",""0"",""1412""
","
","null","<p></p>","null","","","","","","","","","","","","","","","","","","","","","","","",""
"","do_trial","174","657044","0.0-96.0-0.0","""event"",""trial"",""time""
""fullscreenenter"",""0"",""1412""
","
","
","""event"",""trial"",""time""
""fullscreenenter"",""0"",""1412""
","
","1155.3999999761581","","","","","","","","50","0,0,0","6","blank","307","null","0.748075140980454","0.4947493212401463","0.08032483254236265","0","","","","","","","","",""
"","html-keyboard-response","175","658055","0.0-96.0-1.0","""event"",""trial"",""time""
""fullscreenenter"",""0"",""1412""
","
","
","""event"",""trial"",""time""
""fullscreenenter"",""0"",""1412""
","
","null","<p></p>","null","","","","","","","","","","","","","","","","","","","","","","","",""
"","do_recog","176","662139","0.0-97.0-0.0","""event"",""trial"",""time""
""fullscreenenter"",""0"",""1412""
","
","
","""event"",""trial"",""time""
""fullscreenenter"",""0"",""1412""
","
","2562.5999999046326","","","","","","","","56","","","","308","probe-92","","","","","1","[object Object]","112","2","0","","","",""
"","html-keyboard-response","177","663153","0.0-97.0-1.0","""event"",""trial"",""time""
""fullscreenenter"",""0"",""1412""
","
","
","""event"",""trial"",""time""
""fullscreenenter"",""0"",""1412""
","
","null","<p></p>","null","","","","","","","","","","","","","","","","","","","","","","","",""
"","break","178","687188","0.0-98.0-0.0","""event"",""trial"",""time""
""fullscreenenter"",""0"",""1412""
","
","
","""event"",""trial"",""time""
""fullscreenenter"",""0"",""1412""
","
","24033.199999928474","<div class='center'><p>Time to take a quick break! You have 2 minutes to rest, but you can move on sooner if you'd like.</p><p> Press the <b>space bar</b> to continue.</p></div>","32","","","","","","","","","","","","","","","","","","","","","","","",""
"","do_trial","179","690979","0.0-98.0-1.0","""event"",""trial"",""time""
""fullscreenenter"",""0"",""1412""
","
","
","""event"",""trial"",""time""
""fullscreenenter"",""0"",""1412""
","
","1212","","","","","","","","50","0,0,0","6","blank","309","null","0.7002559591076556","0.45496266295860294","0.17441539555027516","0","","","","","","","","",""
"","html-keyboard-response","180","691995","0.0-98.0-2.0","""event"",""trial"",""time""
""fullscreenenter"",""0"",""1412""
","
","
","""event"",""trial"",""time""
""fullscreenenter"",""0"",""1412""
","
","null","<p></p>","null","","","","","","","","","","","","","","","","","","","","","","","",""
"","do_trial","181","695733","0.0-99.0-0.0","""event"",""trial"",""time""
""fullscreenenter"",""0"",""1412""
","
","
","""event"",""trial"",""time""
""fullscreenenter"",""0"",""1412""
","
","1169.3000000715256","","","","","","","","50","1,1,0","6","blank","310","null","0.5798292801053151","0.41844138678769865","0.10695965909251826","1","","","","","","","","",""
"","html-keyboard-response","182","696745","0.0-99.0-1.0","""event"",""trial"",""time""
""fullscreenenter"",""0"",""1412""
","
","
","""event"",""trial"",""time""
""fullscreenenter"",""0"",""1412""
","
","null","<p></p>","null","","","","","","","","","","","","","","","","","","","","","","","",""
"","do_trial","183","699779","0.0-100.0-0.0","""event"",""trial"",""time""
""fullscreenenter"",""0"",""1412""
","
","
","""event"",""trial"",""time""
""fullscreenenter"",""0"",""1412""
","
","477.2000000476837","","","","","","","","50","0,1,0","6","blank","311","null","0.5123461942607893","0.49322352830277755","0.20071693281444866","1","","","","","","","","",""
"","html-keyboard-response","184","700796","0.0-100.0-1.0","""event"",""trial"",""time""
""fullscreenenter"",""0"",""1412""
","
","
","""event"",""trial"",""time""
""fullscreenenter"",""0"",""1412""
","
","null","<p></p>","null","","","","","","","","","","","","","","","","","","","","","","","",""
"","do_trial","185","703852","0.0-101.0-0.0","""event"",""trial"",""time""
""fullscreenenter"",""0"",""1412""
","
","
","""event"",""trial"",""time""
""fullscreenenter"",""0"",""1412""
","
","480","","","","","","","","50","0,0,0","6","blank","312","null","0.5325914997666261","0.4252633771261347","0.26732299564149237","0","","","","","","","","",""
"","html-keyboard-response","186","704861","0.0-101.0-1.0","""event"",""trial"",""time""
""fullscreenenter"",""0"",""1412""
","
","
","""event"",""trial"",""time""
""fullscreenenter"",""0"",""1412""
","
","null","<p></p>","null","","","","","","","","","","","","","","","","","","","","","","","",""
"","do_trial","187","707930","0.0-102.0-0.0","""event"",""trial"",""time""
""fullscreenenter"",""0"",""1412""
","
","
","""event"",""trial"",""time""
""fullscreenenter"",""0"",""1412""
","
","493.2000000476837","","","","","","","","50","1,0,1","6","blank","313","null","0.44817164631428286","0.2862551012301291","0.33259347451488747","0","","","","","","","","",""
"","html-keyboard-response","188","708946","0.0-102.0-1.0","""event"",""trial"",""time""
""fullscreenenter"",""0"",""1412""
","
","
","""event"",""trial"",""time""
""fullscreenenter"",""0"",""1412""
","
","null","<p></p>","null","","","","","","","","","","","","","","","","","","","","","","","",""
"","do_recog","189","712880","0.0-103.0-0.0","""event"",""trial"",""time""
""fullscreenenter"",""0"",""1412""
","
","
","""event"",""trial"",""time""
""fullscreenenter"",""0"",""1412""
","
","2416.0999999046326","","","","","","","","56","","","","314","probe-56","","","","","1","[object Object]","196","4","0","","","",""
"","html-keyboard-response","190","713895","0.0-103.0-1.0","""event"",""trial"",""time""
""fullscreenenter"",""0"",""1412""
","
","
","""event"",""trial"",""time""
""fullscreenenter"",""0"",""1412""
","
","null","<p></p>","null","","","","","","","","","","","","","","","","","","","","","","","",""
"","do_trial","191","717411","0.0-104.0-0.0","""event"",""trial"",""time""
""fullscreenenter"",""0"",""1412""
","
","
","""event"",""trial"",""time""
""fullscreenenter"",""0"",""1412""
","
","949.5","","","","","","","","50","1,0,0","6","blank","315","null","0.5757011399393573","0.2023814787508292","0.3417928156982664","0","","","","","","","","",""
"","html-keyboard-response","192","718414","0.0-104.0-1.0","""event"",""trial"",""time""
""fullscreenenter"",""0"",""1412""
","
","
","""event"",""trial"",""time""
""fullscreenenter"",""0"",""1412""
","
","null","<p></p>","null","","","","","","","","","","","","","","","","","","","","","","","",""
"","do_trial","193","722336","0.0-105.0-0.0","""event"",""trial"",""time""
""fullscreenenter"",""0"",""1412""
","
","
","""event"",""trial"",""time""
""fullscreenenter"",""0"",""1412""
","
","1344","","","","","","","","50","1,0,0","6","blank","316","null","0.7449169865717624","0.36337194191129263","0.2944016770509596","0","","","","","","","","",""
"","html-keyboard-response","194","723346","0.0-105.0-1.0","""event"",""trial"",""time""
""fullscreenenter"",""0"",""1412""
","
","
","""event"",""trial"",""time""
""fullscreenenter"",""0"",""1412""
","
","null","<p></p>","null","","","","","","","","","","","","","","","","","","","","","","","",""
"","do_trial","195","726429","0.0-106.0-0.0","""event"",""trial"",""time""
""fullscreenenter"",""0"",""1412""
","
","
","""event"",""trial"",""time""
""fullscreenenter"",""0"",""1412""
","
","506.89999997615814","","","","","","","","50","1,0,0","6","blank","317","null","0.6568348619460943","0.19230107848264688","0.12987411064828983","0","","","","","","","","",""
"","html-keyboard-response","196","727445","0.0-106.0-1.0","""event"",""trial"",""time""
""fullscreenenter"",""0"",""1412""
","
","
","""event"",""trial"",""time""
""fullscreenenter"",""0"",""1412""
","
","null","<p></p>","null","","","","","","","","","","","","","","","","","","","","","","","",""
"","do_trial","197","730507","0.0-107.0-0.0","""event"",""trial"",""time""
""fullscreenenter"",""0"",""1412""
","
","
","""event"",""trial"",""time""
""fullscreenenter"",""0"",""1412""
","
","481.7000000476837","","","","","","","","50","1,0,0","6","blank","318","null","0.489037917608314","0.3392791691683013","0.21998921074249056","0","","","","","","","","",""
"","html-keyboard-response","198","731523","0.0-107.0-1.0","""event"",""trial"",""time""
""fullscreenenter"",""0"",""1412""
","
","
","""event"",""trial"",""time""
""fullscreenenter"",""0"",""1412""
","
","null","<p></p>","null","","","","","","","","","","","","","","","","","","","","","","","",""
"","do_recog","199","735818","0.0-108.0-0.0","""event"",""trial"",""time""
""fullscreenenter"",""0"",""1412""
","
","
","""event"",""trial"",""time""
""fullscreenenter"",""0"",""1412""
","
","2771.899999976158","","","","","","","","54","","","","319","probe-66","","","","","1","[object Object]","72","1","1","","","",""
"","html-keyboard-response","200","736830","0.0-108.0-1.0","""event"",""trial"",""time""
""fullscreenenter"",""0"",""1412""
","
","
","""event"",""trial"",""time""
""fullscreenenter"",""0"",""1412""
","
","null","<p></p>","null","","","","","","","","","","","","","","","","","","","","","","","",""
"","do_trial","201","740661","0.0-109.0-0.0","""event"",""trial"",""time""
""fullscreenenter"",""0"",""1412""
","
","
","""event"",""trial"",""time""
""fullscreenenter"",""0"",""1412""
","
","1244.7000000476837","","","","","","","","49","0,0,1","6","blank","320","null","0.5620551556828479","0.4233455014956887","0.27061535082584653","0","","","","","","","","",""
"","html-keyboard-response","202","741673","0.0-109.0-1.0","""event"",""trial"",""time""
""fullscreenenter"",""0"",""1412""
","
","
","""event"",""trial"",""time""
""fullscreenenter"",""0"",""1412""
","
","null","<p></p>","null","","","","","","","","","","","","","","","","","","","","","","","",""
"","do_recog","203","745829","0.0-110.0-0.0","""event"",""trial"",""time""
""fullscreenenter"",""0"",""1412""
","
","
","""event"",""trial"",""time""
""fullscreenenter"",""0"",""1412""
","
","2640.7000000476837","","","","","","","","53","","","","321","probe-150","","","","","1","[object Object]","35","0","1","","","",""
"","html-keyboard-response","204","746838","0.0-110.0-1.0","""event"",""trial"",""time""
""fullscreenenter"",""0"",""1412""
","
","
","""event"",""trial"",""time""
""fullscreenenter"",""0"",""1412""
","
","null","<p></p>","null","","","","","","","","","","","","","","","","","","","","","","","",""
"","do_trial","205","750685","0.0-111.0-0.0","""event"",""trial"",""time""
""fullscreenenter"",""0"",""1412""
","
","
","""event"",""trial"",""time""
""fullscreenenter"",""0"",""1412""
","
","1269.8999999761581","","","","","","","","49","1,0,1","6","blank","322","null","0.6259824662325683","0.36920955210219786","0.1966732096061449","1","","","","","","","","",""
"","html-keyboard-response","206","751694","0.0-111.0-1.0","""event"",""trial"",""time""
""fullscreenenter"",""0"",""1412""
","
","
","""event"",""trial"",""time""
""fullscreenenter"",""0"",""1412""
","
","null","<p></p>","null","","","","","","","","","","","","","","","","","","","","","","","",""
"","do_trial","207","755530","0.0-112.0-0.0","""event"",""trial"",""time""
""fullscreenenter"",""0"",""1412""
","
","
","""event"",""trial"",""time""
""fullscreenenter"",""0"",""1412""
","
","1250.7000000476837","","","","","","","","49","1,0,0","6","blank","323","null","0.6310163531662675","0.4102808056055032","0.1648899621902544","1","","","","","","","","",""
"","html-keyboard-response","208","756554","0.0-112.0-1.0","""event"",""trial"",""time""
""fullscreenenter"",""0"",""1412""
","
","
","""event"",""trial"",""time""
""fullscreenenter"",""0"",""1412""
","
","null","<p></p>","null","","","","","","","","","","","","","","","","","","","","","","","",""
"","do_trial","209","759629","0.0-113.0-0.0","""event"",""trial"",""time""
""fullscreenenter"",""0"",""1412""
","
","
","""event"",""trial"",""time""
""fullscreenenter"",""0"",""1412""
","
","509.7000000476837","","","","","","","","49","1,0,0","6","blank","324","null","0.5986408859117285","0.24888446717394175","0.11359171700988001","1","","","","","","","","",""
"","html-keyboard-response","210","760645","0.0-113.0-1.0","""event"",""trial"",""time""
""fullscreenenter"",""0"",""1412""
","
","
","""event"",""trial"",""time""
""fullscreenenter"",""0"",""1412""
","
","null","<p></p>","null","","","","","","","","","","","","","","","","","","","","","","","",""
"","do_trial","211","763707","0.0-114.0-0.0","""event"",""trial"",""time""
""fullscreenenter"",""0"",""1412""
","
","
","""event"",""trial"",""time""
""fullscreenenter"",""0"",""1412""
","
","488.5","","","","","","","","49","1,0,0","6","blank","325","null","0.5782910855553965","0.2661539011006954","0.0799930644555839","1","","","","","","","","",""
"","html-keyboard-response","212","764713","0.0-114.0-1.0","""event"",""trial"",""time""
""fullscreenenter"",""0"",""1412""
","
","
","""event"",""trial"",""time""
""fullscreenenter"",""0"",""1412""
","
","null","<p></p>","null","","","","","","","","","","","","","","","","","","","","","","","",""
"","do_recog","213","768802","0.0-115.0-0.0","""event"",""trial"",""time""
""fullscreenenter"",""0"",""1412""
","
","
","""event"",""trial"",""time""
""fullscreenenter"",""0"",""1412""
","
","2567.5","","","","","","","","56","","","","326","probe-208","","","","","1","[object Object]","191","4","0","","","",""
"","html-keyboard-response","214","769810","0.0-115.0-1.0","""event"",""trial"",""time""
""fullscreenenter"",""0"",""1412""
","
","
","""event"",""trial"",""time""
""fullscreenenter"",""0"",""1412""
","
","null","<p></p>","null","","","","","","","","","","","","","","","","","","","","","","","",""
"","do_trial","215","774179","0.0-116.0-0.0","""event"",""trial"",""time""
""fullscreenenter"",""0"",""1412""
","
","
","""event"",""trial"",""time""
""fullscreenenter"",""0"",""1412""
","
","1788.6000000238419","","","","","","","","50","0,0,0","6","blank","327","null","0.5191970673569336","0.32733892454092656","0.12859098811418976","0","","","","","","","","",""
"","html-keyboard-response","216","775195","0.0-116.0-1.0","""event"",""trial"",""time""
""fullscreenenter"",""0"",""1412""
","
","
","""event"",""trial"",""time""
""fullscreenenter"",""0"",""1412""
","
","null","<p></p>","null","","","","","","","","","","","","","","","","","","","","","","","",""
"","do_trial","217","778297","0.0-117.0-0.0","""event"",""trial"",""time""
""fullscreenenter"",""0"",""1412""
","
","
","""event"",""trial"",""time""
""fullscreenenter"",""0"",""1412""
","
","538.2999999523163","","","","","","","","50","1,0,0","6","blank","328","null","0.6751223430321386","0.34005026562387225","0.13606714459391675","0","","","","","","","","",""
"","html-keyboard-response","218","779299","0.0-117.0-1.0","""event"",""trial"",""time""
""fullscreenenter"",""0"",""1412""
","
","
","""event"",""trial"",""time""
""fullscreenenter"",""0"",""1412""
","
","null","<p></p>","null","","","","","","","","","","","","","","","","","","","","","","","",""
"","do_recog","219","783195","0.0-118.0-0.0","""event"",""trial"",""time""
""fullscreenenter"",""0"",""1412""
","
","
","""event"",""trial"",""time""
""fullscreenenter"",""0"",""1412""
","
","2375.399999976158","","","","","","","","56","","","","329","probe-170","","","","","1","[object Object]","113","2","0","","","",""
"","html-keyboard-response","220","784197","0.0-118.0-1.0","""event"",""trial"",""time""
""fullscreenenter"",""0"",""1412""
","
","
","""event"",""trial"",""time""
""fullscreenenter"",""0"",""1412""
","
","null","<p></p>","null","","","","","","","","","","","","","","","","","","","","","","","",""
"","do_trial","221","787878","0.0-119.0-0.0","""event"",""trial"",""time""
""fullscreenenter"",""0"",""1412""
","
","
","""event"",""trial"",""time""
""fullscreenenter"",""0"",""1412""
","
","1112.2000000476837","","","","","","","","50","1,0,0","6","blank","330","null","0.5358712958067399","0.4112641244646336","0.11005819606006843","0","","","","","","","","",""
"","html-keyboard-response","222","788880","0.0-119.0-1.0","""event"",""trial"",""time""
""fullscreenenter"",""0"",""1412""
","
","
","""event"",""trial"",""time""
""fullscreenenter"",""0"",""1412""
","
","null","<p></p>","null","","","","","","","","","","","","","","","","","","","","","","","",""
"","do_trial","223","792013","0.0-120.0-0.0","""event"",""trial"",""time""
""fullscreenenter"",""0"",""1412""
","
","
","""event"",""trial"",""time""
""fullscreenenter"",""0"",""1412""
","
","555.8000000715256","","","","","","","","50","1,0,0","6","blank","331","null","0.5463079154854161","0.4003215395531791","0.08023259236422327","0","","","","","","","","",""
"","html-keyboard-response","224","793027","0.0-120.0-1.0","""event"",""trial"",""time""
""fullscreenenter"",""0"",""1412""
","
","
","""event"",""trial"",""time""
""fullscreenenter"",""0"",""1412""
","
","null","<p></p>","null","","","","","","","","","","","","","","","","","","","","","","","",""
"","do_trial","225","796201","0.0-121.0-0.0","""event"",""trial"",""time""
""fullscreenenter"",""0"",""1412""
","
","
","""event"",""trial"",""time""
""fullscreenenter"",""0"",""1412""
","
","598.3999999761581","","","","","","","","50","0,1,0","6","blank","332","null","0.454642182323751","0.263840139777228","0.14369576750506752","1","","","","","","","","",""
"","html-keyboard-response","226","797210","0.0-121.0-1.0","""event"",""trial"",""time""
""fullscreenenter"",""0"",""1412""
","
","
","""event"",""trial"",""time""
""fullscreenenter"",""0"",""1412""
","
","null","<p></p>","null","","","","","","","","","","","","","","","","","","","","","","","",""
"","do_trial","227","800313","0.0-122.0-0.0","""event"",""trial"",""time""
""fullscreenenter"",""0"",""1412""
","
","
","""event"",""trial"",""time""
""fullscreenenter"",""0"",""1412""
","
","523","","","","","","","","50","0,1,0","6","blank","333","null","0.3485441353288691","0.28916330824198505","0.12004668760748255","1","","","","","","","","",""
"","html-keyboard-response","228","801329","0.0-122.0-1.0","""event"",""trial"",""time""
""fullscreenenter"",""0"",""1412""
","
","
","""event"",""trial"",""time""
""fullscreenenter"",""0"",""1412""
","
","null","<p></p>","null","","","","","","","","","","","","","","","","","","","","","","","",""
"","do_trial","229","804969","0.0-123.0-0.0","""event"",""trial"",""time""
""fullscreenenter"",""0"",""1412""
","
","
","""event"",""trial"",""time""
""fullscreenenter"",""0"",""1412""
","
","1072.1000000238419","","","","","","","","50","0,0,0","6","blank","334","null","0.49889630703450766","0.336178812130318","0.07672016308550625","0","","","","","","","","",""
"","html-keyboard-response","230","805978","0.0-123.0-1.0","""event"",""trial"",""time""
""fullscreenenter"",""0"",""1412""
","
","
","""event"",""trial"",""time""
""fullscreenenter"",""0"",""1412""
","
","null","<p></p>","null","","","","","","","","","","","","","","","","","","","","","","","",""
"","do_trial","231","809110","0.0-124.0-0.0","""event"",""trial"",""time""
""fullscreenenter"",""0"",""1412""
","
","
","""event"",""trial"",""time""
""fullscreenenter"",""0"",""1412""
","
","554.8999999761581","","","","","","","","50","0,0,0","6","blank","335","null","0.5781540478434931","0.23171310346112386","0.1660108625763152","0","","","","","","","","",""
"","html-keyboard-response","232","810127","0.0-124.0-1.0","""event"",""trial"",""time""
""fullscreenenter"",""0"",""1412""
","
","
","""event"",""trial"",""time""
""fullscreenenter"",""0"",""1412""
","
","null","<p></p>","null","","","","","","","","","","","","","","","","","","","","","","","",""
"","do_trial","233","813280","0.0-125.0-0.0","""event"",""trial"",""time""
""fullscreenenter"",""0"",""1412""
","
","
","""event"",""trial"",""time""
""fullscreenenter"",""0"",""1412""
","
","584.5","","","","","","","","50","1,0,0","6","blank","336","null","0.5948437130954646","0.11139550971610655","0.2381594358989112","0","","","","","","","","",""
"","html-keyboard-response","234","814295","0.0-125.0-1.0","""event"",""trial"",""time""
""fullscreenenter"",""0"",""1412""
","
","
","""event"",""trial"",""time""
""fullscreenenter"",""0"",""1412""
","
","null","<p></p>","null","","","","","","","","","","","","","","","","","","","","","","","",""
"","do_recog","235","820332","0.0-126.0-0.0","""event"",""trial"",""time""
""fullscreenenter"",""0"",""1412""
","
","
","""event"",""trial"",""time""
""fullscreenenter"",""0"",""1412""
","
","null","","","","","","","","null","","","","337","probe-160","","","","","1","[object Object]","192","4","0","","","",""
"","html-keyboard-response","236","821346","0.0-126.0-1.0","""event"",""trial"",""time""
""fullscreenenter"",""0"",""1412""
","
","
","""event"",""trial"",""time""
""fullscreenenter"",""0"",""1412""
","
","null","<p></p>","null","","","","","","","","","","","","","","","","","","","","","","","",""
"","do_trial","237","825086","0.0-127.0-0.0","""event"",""trial"",""time""
""fullscreenenter"",""0"",""1412""
","
","
","""event"",""trial"",""time""
""fullscreenenter"",""0"",""1412""
","
","1182.2000000476837","","","","","","","","50","1,0,0","6","blank","338","null","0.632124321943362","0.07878864133667918","0.2779478570303271","0","","","","","","","","",""
"","html-keyboard-response","238","826097","0.0-127.0-1.0","""event"",""trial"",""time""
""fullscreenenter"",""0"",""1412""
","
","
","""event"",""trial"",""time""
""fullscreenenter"",""0"",""1412""
","
","null","<p></p>","null","","","","","","","","","","","","","","","","","","","","","","","",""
"","do_trial","239","830131","0.0-128.0-0.0","""event"",""trial"",""time""
""fullscreenenter"",""0"",""1412""
","
","
","""event"",""trial"",""time""
""fullscreenenter"",""0"",""1412""
","
","1482.8999999761581","","","","","","","","50","1,0,0","6","blank","339","null","0.6742269778098483","0.14577033108111023","0.20001879217372126","0","","","","","","","","",""
"","html-keyboard-response","240","831146","0.0-128.0-1.0","""event"",""trial"",""time""
""fullscreenenter"",""0"",""1412""
","
","
","""event"",""trial"",""time""
""fullscreenenter"",""0"",""1412""
","
","null","<p></p>","null","","","","","","","","","","","","","","","","","","","","","","","",""
"","do_recog","241","835301","0.0-129.0-0.0","""event"",""trial"",""time""
""fullscreenenter"",""0"",""1412""
","
","
","""event"",""trial"",""time""
""fullscreenenter"",""0"",""1412""
","
","2637.600000023842","","","","","","","","53","","","","340","probe-78","","","","","1","[object Object]","194","4","1","","","",""
"","html-keyboard-response","242","836312","0.0-129.0-1.0","""event"",""trial"",""time""
""fullscreenenter"",""0"",""1412""
","
","
","""event"",""trial"",""time""
""fullscreenenter"",""0"",""1412""
","
","null","<p></p>","null","","","","","","","","","","","","","","","","","","","","","","","",""
"","do_trial","243","840896","0.0-130.0-0.0","""event"",""trial"",""time""
""fullscreenenter"",""0"",""1412""
","
","
","""event"",""trial"",""time""
""fullscreenenter"",""0"",""1412""
","
","2021.9000000953674","","","","","","","","50","0,0,1","6","blank","341","null","0.6678461835159089","0.21088962118025223","0.1686915661178527","0","","","","","","","","",""
"","html-keyboard-response","244","841898","0.0-130.0-1.0","""event"",""trial"",""time""
""fullscreenenter"",""0"",""1412""
","
","
","""event"",""trial"",""time""
""fullscreenenter"",""0"",""1412""
","
","null","<p></p>","null","","","","","","","","","","","","","","","","","","","","","","","",""
"","do_trial","245","847967","0.0-131.0-0.0","""event"",""trial"",""time""
""fullscreenenter"",""0"",""1412""
","
","
","""event"",""trial"",""time""
""fullscreenenter"",""0"",""1412""
","
","null","","","","","","","","null","0,0,0","6","blank","342","null","0.6830871897981013","0.3283440330311866","0.25069718162035287","","","","","","","","","",""
"","html-keyboard-response","246","848978","0.0-131.0-1.0","""event"",""trial"",""time""
""fullscreenenter"",""0"",""1412""
","
","
","""event"",""trial"",""time""
""fullscreenenter"",""0"",""1412""
","
","null","<p></p>","null","","","","","","","","","","","","","","","","","","","","","","","",""
"","do_trial","247","852388","0.0-132.0-0.0","""event"",""trial"",""time""
""fullscreenenter"",""0"",""1412""
","
","
","""event"",""trial"",""time""
""fullscreenenter"",""0"",""1412""
","
","835.8999999761581","","","","","","","","50","1,1,0","6","blank","343","null","0.6473894677419219","0.4962357907030217","0.30847521829371816","1","","","","","","","","",""
"","html-keyboard-response","248","853394","0.0-132.0-1.0","""event"",""trial"",""time""
""fullscreenenter"",""0"",""1412""
","
","
","""event"",""trial"",""time""
""fullscreenenter"",""0"",""1412""
","
","null","<p></p>","null","","","","","","","","","","","","","","","","","","","","","","","",""
"","do_trial","249","857381","0.0-133.0-0.0","""event"",""trial"",""time""
""fullscreenenter"",""0"",""1412""
","
","
","""event"",""trial"",""time""
""fullscreenenter"",""0"",""1412""
","
","1433","","","","","","","","50","1,1,0","6","blank","344","null","0.5090307830407259","0.4981818567400522","0.21029642424735634","1","","","","","","","","",""
"","html-keyboard-response","250","858396","0.0-133.0-1.0","""event"",""trial"",""time""
""fullscreenenter"",""0"",""1412""
","
","
","""event"",""trial"",""time""
""fullscreenenter"",""0"",""1412""
","
","null","<p></p>","null","","","","","","","","","","","","","","","","","","","","","","","",""
"","do_trial","251","862261","0.0-134.0-0.0","""event"",""trial"",""time""
""fullscreenenter"",""0"",""1412""
","
","
","""event"",""trial"",""time""
""fullscreenenter"",""0"",""1412""
","
","1289.4000000953674","","","","","","","","50","1,1,0","6","blank","345","null","0.4965606577551383","0.5774889240964944","0.1738249272128908","1","","","","","","","","",""
"","html-keyboard-response","252","863263","0.0-134.0-1.0","""event"",""trial"",""time""
""fullscreenenter"",""0"",""1412""
","
","
","""event"",""trial"",""time""
""fullscreenenter"",""0"",""1412""
","
","null","<p></p>","null","","","","","","","","","","","","","","","","","","","","","","","",""
"","do_trial","253","866328","0.0-135.0-0.0","""event"",""trial"",""time""
""fullscreenenter"",""0"",""1412""
","
","
","""event"",""trial"",""time""
""fullscreenenter"",""0"",""1412""
","
","492.3000000715256","","","","","","","","50","1,1,1","6","blank","346","null","0.37892262248365777","0.595901326243248","0.17126711011551124","1","","","","","","","","",""
"","html-keyboard-response","254","867346","0.0-135.0-1.0","""event"",""trial"",""time""
""fullscreenenter"",""0"",""1412""
","
","
","""event"",""trial"",""time""
""fullscreenenter"",""0"",""1412""
","
","null","<p></p>","null","","","","","","","","","","","","","","","","","","","","","","","",""
"","do_trial","255","870517","0.0-136.0-0.0","""event"",""trial"",""time""
""fullscreenenter"",""0"",""1412""
","
","
","""event"",""trial"",""time""
""fullscreenenter"",""0"",""1412""
","
","605.3000000715256","","","","","","","","50","1,0,0","6","blank","347","null","0.41482386686494166","0.5473676429257965","0.19810835205187083","0","","","","","","","","",""
"","html-keyboard-response","256","871528","0.0-136.0-1.0","""event"",""trial"",""time""
""fullscreenenter"",""0"",""1412""
","
","
","""event"",""trial"",""time""
""fullscreenenter"",""0"",""1412""
","
","null","<p></p>","null","","","","","","","","","","","","","","","","","","","","","","","",""
"","do_recog","257","877560","0.0-137.0-0.0","""event"",""trial"",""time""
""fullscreenenter"",""0"",""1412""
","
","
","""event"",""trial"",""time""
""fullscreenenter"",""0"",""1412""
","
","null","","","","","","","","null","","","","348","probe-96","","","","","1","[object Object]","117","2","0","","","",""
"","html-keyboard-response","258","878563","0.0-137.0-1.0","""event"",""trial"",""time""
""fullscreenenter"",""0"",""1412""
","
","
","""event"",""trial"",""time""
""fullscreenenter"",""0"",""1412""
","
","null","<p></p>","null","","","","","","","","","","","","","","","","","","","","","","","",""
"","break","259","918027","0.0-138.0-0.0","""event"",""trial"",""time""
""fullscreenenter"",""0"",""1412""
","
","
","""event"",""trial"",""time""
""fullscreenenter"",""0"",""1412""
","
","39462","<div class='center'><p>Time to take a quick break! You have 2 minutes to rest, but you can move on sooner if you'd like.</p><p> Press the <b>space bar</b> to continue.</p></div>","32","","","","","","","","","","","","","","","","","","","","","","","",""
"","do_trial","260","921885","0.0-138.0-1.0","""event"",""trial"",""time""
""fullscreenenter"",""0"",""1412""
","
","
","""event"",""trial"",""time""
""fullscreenenter"",""0"",""1412""
","
","1280.3000000715256","","","","","","","","50","1,1,1","6","blank","349","null","0.41567032167755086","0.40267747998499753","0.25066509787845914","1","","","","","","","","",""
"","html-keyboard-response","261","922895","0.0-138.0-2.0","""event"",""trial"",""time""
""fullscreenenter"",""0"",""1412""
","
","
","""event"",""trial"",""time""
""fullscreenenter"",""0"",""1412""
","
","null","<p></p>","null","","","","","","","","","","","","","","","","","","","","","","","",""
"","do_trial","262","926384","0.0-139.0-0.0","""event"",""trial"",""time""
""fullscreenenter"",""0"",""1412""
","
","
","""event"",""trial"",""time""
""fullscreenenter"",""0"",""1412""
","
","922.3999999761581","","","","","","","","50","0,0,0","6","blank","350","null","0.287596735428224","0.5494413636102291","0.1426891516095028","0","","","","","","","","",""
"","html-keyboard-response","263","927388","0.0-139.0-1.0","""event"",""trial"",""time""
""fullscreenenter"",""0"",""1412""
","
","
","""event"",""trial"",""time""
""fullscreenenter"",""0"",""1412""
","
","null","<p></p>","null","","","","","","","","","","","","","","","","","","","","","","","",""
"","do_trial","264","930979","0.0-140.0-0.0","""event"",""trial"",""time""
""fullscreenenter"",""0"",""1412""
","
","
","""event"",""trial"",""time""
""fullscreenenter"",""0"",""1412""
","
","1034.8000000715256","","","","","","","","50","1,0,0","6","blank","351","null","0.3619820428302235","0.5087353754416115","0.20973940851284936","0","","","","","","","","",""
"","html-keyboard-response","265","931989","0.0-140.0-1.0","""event"",""trial"",""time""
""fullscreenenter"",""0"",""1412""
","
","
","""event"",""trial"",""time""
""fullscreenenter"",""0"",""1412""
","
","null","<p></p>","null","","","","","","","","","","","","","","","","","","","","","","","",""
"","do_trial","266","936201","0.0-141.0-0.0","""event"",""trial"",""time""
""fullscreenenter"",""0"",""1412""
","
","
","""event"",""trial"",""time""
""fullscreenenter"",""0"",""1412""
","
","1648.6000000238419","","","","","","","","50","0,1,0","6","blank","352","null","0.2481056619152438","0.5348339589208756","0.08470316421038165","1","","","","","","","","",""
"","html-keyboard-response","267","937203","0.0-141.0-1.0","""event"",""trial"",""time""
""fullscreenenter"",""0"",""1412""
","
","
","""event"",""trial"",""time""
""fullscreenenter"",""0"",""1412""
","
","null","<p></p>","null","","","","","","","","","","","","","","","","","","","","","","","",""
"","do_recog","268","941598","0.0-142.0-0.0","""event"",""trial"",""time""
""fullscreenenter"",""0"",""1412""
","
","
","""event"",""trial"",""time""
""fullscreenenter"",""0"",""1412""
","
","2878.6999999284744","","","","","","","","56","","","","353","probe-90","","","","","1","[object Object]","116","2","0","","","",""
"","html-keyboard-response","269","942610","0.0-142.0-1.0","""event"",""trial"",""time""
""fullscreenenter"",""0"",""1412""
","
","
","""event"",""trial"",""time""
""fullscreenenter"",""0"",""1412""
","
","null","<p></p>","null","","","","","","","","","","","","","","","","","","","","","","","",""
"","do_trial","270","947778","0.0-143.0-0.0","""event"",""trial"",""time""
""fullscreenenter"",""0"",""1412""
","
","
","""event"",""trial"",""time""
""fullscreenenter"",""0"",""1412""
","
","2589","","","","","","","","50","1,1,0","6","blank","354","null","0.2891033142188576","0.5738528255204285","0.08771015430080416","1","","","","","","","","",""
"","html-keyboard-response","271","948796","0.0-143.0-1.0","""event"",""trial"",""time""
""fullscreenenter"",""0"",""1412""
","
","
","""event"",""trial"",""time""
""fullscreenenter"",""0"",""1412""
","
","null","<p></p>","null","","","","","","","","","","","","","","","","","","","","","","","",""
"","do_recog","272","954823","0.0-144.0-0.0","""event"",""trial"",""time""
""fullscreenenter"",""0"",""1412""
","
","
","""event"",""trial"",""time""
""fullscreenenter"",""0"",""1412""
","
","null","","","","","","","","null","","","","355","probe-250","","","","","0","[object Object]","null","null","0","","","",""
"","html-keyboard-response","273","955837","0.0-144.0-1.0","""event"",""trial"",""time""
""fullscreenenter"",""0"",""1412""
","
","
","""event"",""trial"",""time""
""fullscreenenter"",""0"",""1412""
","
","null","<p></p>","null","","","","","","","","","","","","","","","","","","","","","","","",""
"","do_trial","274","960628","0.0-145.0-0.0","""event"",""trial"",""time""
""fullscreenenter"",""0"",""1412""
","
","
","""event"",""trial"",""time""
""fullscreenenter"",""0"",""1412""
","
","2209.7999999523163","","","","","","","","50","1,1,1","6","blank","356","null","0.23163029622244735","0.5732396863935585","0.10678376446635778","1","","","","","","","","",""
"","html-keyboard-response","275","961630","0.0-145.0-1.0","""event"",""trial"",""time""
""fullscreenenter"",""0"",""1412""
","
","
","""event"",""trial"",""time""
""fullscreenenter"",""0"",""1412""
","
","null","<p></p>","null","","","","","","","","","","","","","","","","","","","","","","","",""
"","do_trial","276","964744","0.0-146.0-0.0","""event"",""trial"",""time""
""fullscreenenter"",""0"",""1412""
","
","
","""event"",""trial"",""time""
""fullscreenenter"",""0"",""1412""
","
","545.3000000715256","","","","","","","","50","0,1,0","6","blank","357","null","0.22134156744889968","0.6188647253460594","0.18090565124480992","1","","","","","","","","",""
"","html-keyboard-response","277","965747","0.0-146.0-1.0","""event"",""trial"",""time""
""fullscreenenter"",""0"",""1412""
","
","
","""event"",""trial"",""time""
