"success","trial_type","trial_index","time_elapsed","internal_node_id","interactions","blur_events","focus_events","fullscreenenter_events","fullscreenexit_events","rt","stimulus","key_press","subject_id","participant_id","age","gender","prompt","response","choice_outcomes","context_n","context_img_id","trial_n","probe_img_id","pR_red","pR_white","pR_black","outcome","is_valid","image_to_show","probed_trial","probed_context","correct","probe","probed_trial_n","probed_context_n","context_im"
"true","fullscreen","0","10146","0.0-0.0","""event"",""trial"",""time""
""fullscreenenter"",""0"",""9150""
","
","
","""event"",""trial"",""time""
""fullscreenenter"",""0"",""9150""
","
","","","","","","","","","","","","","","","","","","","","","","","","","","",""
"","pavlovia","1","10153","0.0-1.0","""event"",""trial"",""time""
""fullscreenenter"",""0"",""9150""
","
","
","""event"",""trial"",""time""
""fullscreenenter"",""0"",""9150""
","
","","","","","","","","","","","","","","","","","","","","","","","","","","",""
"","welc_back","2","19971","0.0-2.0","""event"",""trial"",""time""
""fullscreenenter"",""0"",""9150""
","
","
","""event"",""trial"",""time""
""fullscreenenter"",""0"",""9150""
","
","null","run_exp/static/audio/clip_29_welcome_back.m4a","null","1474","1624","21","Male","<div class='center'><p>Welcome to day 2!</p><p> Yesterday, you were the head captain of a pirate ship. You asked your fellow pirates to rob other ships of their gold across six different islands.</p></div>","","","","","","","","","","","","","","","","","","",""
"","html-keyboard-response","3","22250","0.0-3.0","""event"",""trial"",""time""
""fullscreenenter"",""0"",""9150""
","
","
","""event"",""trial"",""time""
""fullscreenenter"",""0"",""9150""
","
","2274.5","<div class='center'><p>Welcome to day 2!</p><p> Yesterday, you were the head captain of a pirate ship. You asked your fellow pirates to rob other ships of their gold across six different islands.</p><p><b>[Press the space bar to continue]</b></p></div>","32","","","","","","","","","","","","","","","","","","","","","","","",""
"","day_1_summary_goal","4","39469","0.0-4.0","""event"",""trial"",""time""
""fullscreenenter"",""0"",""9150""
","
","
","""event"",""trial"",""time""
""fullscreenenter"",""0"",""9150""
","
","null","run_exp/static/audio/clip_30_goal_of_game.m4a","null","","","","","<div class='center'><p>Today, like yesterday, you get to pick which pirate you want to rob the next ship.</p><p>If the pirate is successful in robbing a ship, you get gold coins that look like this: </p><p><img src='run_exp/static/images/tutorial/reward.png' height='150'></p><p> If they were not successful in robbing the ship, then you will get no gold coins and you'll see a big red x like this: </p><p><img src='run_exp/static/images/tutorial/reward_no.png' height='150'></p></div>","","","","","","","","","","","","","","","","","","",""
"","html-keyboard-response","5","39808","0.0-5.0","""event"",""trial"",""time""
""fullscreenenter"",""0"",""9150""
","
","
","""event"",""trial"",""time""
""fullscreenenter"",""0"",""9150""
","
","332.7999999523163","<div class='center'><p>Today, like yesterday, you get to pick which pirate you want to rob the next ship.</p><p>If the pirate is successful in robbing a ship, you get gold coins that look like this: </p><p><img src='run_exp/static/images/tutorial/reward.png' height='150'></p><p> If they were not successful in robbing the ship, then you will get no gold coins and you'll see a big red x like this: </p><p><img src='run_exp/static/images/tutorial/reward_no.png' height='150'></p><p><b>[Press the space bar to continue]</b></p></div>","32","","","","","","","","","","","","","","","","","","","","","","","",""
"","day_1_summary_pick","6","54509","0.0-6.0","""event"",""trial"",""time""
""fullscreenenter"",""0"",""9150""
","
","
","""event"",""trial"",""time""
""fullscreenenter"",""0"",""9150""
","
","null","run_exp/static/audio/clip_31_how_to_pick_a_pirate.m4a","null","","","","","<div class='center'><p>Also, just like yesterday, you will use the 1,2,3 keys on your keyboard to pick a pirate. Press '1' to choose red beard, '2' to choose white beard, and '3' to choose black beard . You only have 3 seconds to pick a pirate, so please make a choice quickly!</p></div>","","","","","","","","","","","","","","","","","","",""
"","html-keyboard-response","7","54582","0.0-7.0","""event"",""trial"",""time""
""fullscreenenter"",""0"",""9150""
","
","
","""event"",""trial"",""time""
""fullscreenenter"",""0"",""9150""
","
","70.80000001192093","<div class='center'><p>Also, just like yesterday, you will use the 1,2,3 keys on your keyboard to pick a pirate. Press '1' to choose red beard, '2' to choose white beard, and '3' to choose black beard . You only have 3 seconds to pick a pirate, so please make a choice quickly!</p><p><b>[Press the space bar to continue]</b></p></div>","32","","","","","","","","","","","","","","","","","","","","","","","",""
"","test_phase_begin","8","84969","0.0-8.0","""event"",""trial"",""time""
""fullscreenenter"",""0"",""9150""
","
","
","""event"",""trial"",""time""
""fullscreenenter"",""0"",""9150""
","
","null","run_exp/static/audio/clip_32_final_place.m4a","null","","","","","<div class='center'><p>You’ve arrived at the final island of your journey! Unfortunately, it’s very foggy out, so you won’t be able to see it in the distance like the other islands you've visited.</p><p>You’ll still be deciding which pirate you want to rob a ship like before. However, because of the fog, you also won’t be able to see the ship.</p><p>This means you do not have to remember the ships you rob on this island.</p><p>Unlike yesterday, you won't be visiting multiple islands today. You will stay on this island for the entire game. This game will last ~30 minutes.</p></div>","","","","","","","","","","","","","","","","","","",""
"","html-keyboard-response","9","85337","0.0-9.0","""event"",""trial"",""time""
""fullscreenenter"",""0"",""9150""
""blur"",""10"",""86139""
","""event"",""trial"",""time""
""blur"",""10"",""86139""
","
","""event"",""trial"",""time""
""fullscreenenter"",""0"",""9150""
","
","365.10000002384186","<div class='center'><p>You’ve arrived at the final island of your journey! Unfortunately, it’s very foggy out, so you won’t be able to see it in the distance like the other islands you've visited.</p><p>You’ll still be deciding which pirate you want to rob a ship like before. However, because of the fog, you also won’t be able to see the ship.</p><p>This means you do not have to remember the ships you rob on this island.</p><p>Unlike yesterday, you won't be visiting multiple islands today. You will stay on this island for the entire game. This game will last ~30 minutes.</p><p><b>[Press the space bar to continue]</b></p></div>","32","","","","","","","","","","","","","","","","","","","","","","","",""
"","explain_probe_1","10","93049","0.0-10.0","""event"",""trial"",""time""
""fullscreenenter"",""0"",""9150""
""blur"",""10"",""86139""
""focus"",""11"",""94123""
""blur"",""11"",""95106""
""focus"",""11"",""114286""
","""event"",""trial"",""time""
""blur"",""10"",""86139""
""blur"",""11"",""95106""
","""event"",""trial"",""time""
""focus"",""11"",""94123""
""focus"",""11"",""114286""
","""event"",""trial"",""time""
""fullscreenenter"",""0"",""9150""
","
","null","run_exp/static/audio/clip_33_recognition_1.m4a","null","","","","","<div class='center'><p> Sometimes you’ll be shown a ship, and you will be asked if you saw this ship on a past island.</p><p> Here is an example of what you will see.</p><p><img src='run_exp/static/images/tutorial/example_recog_trial.png' height='500'></p></div>","","","","","","","","","","","","","","","","","","",""
"","html-keyboard-response","11","119339","0.0-11.0","""event"",""trial"",""time""
""fullscreenenter"",""0"",""9150""
""blur"",""10"",""86139""
""focus"",""11"",""94123""
""blur"",""11"",""95106""
""focus"",""11"",""114286""
","""event"",""trial"",""time""
""blur"",""10"",""86139""
""blur"",""11"",""95106""
","""event"",""trial"",""time""
""focus"",""11"",""94123""
""focus"",""11"",""114286""
","""event"",""trial"",""time""
""fullscreenenter"",""0"",""9150""
","
","26287.30000001192","<div class='center'><p> Sometimes you’ll be shown a ship, and you will be asked if you saw this ship on a past island.</p><p> Here is an example of what you will see.</p><p><img src='run_exp/static/images/tutorial/example_recog_trial.png' height='500'></p><p><b>[Press the space bar to continue]</b></p></div>","32","","","","","","","","","","","","","","","","","","","","","","","",""
"","explain_probe_2","12","141090","0.0-12.0","""event"",""trial"",""time""
""fullscreenenter"",""0"",""9150""
""blur"",""10"",""86139""
""focus"",""11"",""94123""
""blur"",""11"",""95106""
""focus"",""11"",""114286""
","""event"",""trial"",""time""
""blur"",""10"",""86139""
""blur"",""11"",""95106""
","""event"",""trial"",""time""
""focus"",""11"",""94123""
""focus"",""11"",""114286""
","""event"",""trial"",""time""
""fullscreenenter"",""0"",""9150""
","
","null","run_exp/static/audio/clip_34_recognition_2.m4a","null","","","","","<div class='center'><p> You will press the 5, 6, 7, 8 keys on your keyboard to respond.</p><p>If you are sure you saw the ship, press <b>5</b> on your keyboard.</p><p> If you think you saw it before but aren't sure, then press <b>6</b>.</p><p> If you think you have <b>not</b> seen it before but aren't sure, then press <b>7</b>.</p><p> If you are sure you did <b>not</b> see the ship before, then press <b>8</b>.</p><p><img src='run_exp/static/images/tutorial/example_recog_trial.png' height='500'></p></div>","","","","","","","","","","","","","","","","","","",""
"","html-keyboard-response","13","145422","0.0-13.0","""event"",""trial"",""time""
""fullscreenenter"",""0"",""9150""
""blur"",""10"",""86139""
""focus"",""11"",""94123""
""blur"",""11"",""95106""
""focus"",""11"",""114286""
","""event"",""trial"",""time""
""blur"",""10"",""86139""
""blur"",""11"",""95106""
","""event"",""trial"",""time""
""focus"",""11"",""94123""
""focus"",""11"",""114286""
","""event"",""trial"",""time""
""fullscreenenter"",""0"",""9150""
","
","4333","<div class='center'><p> You will press the 5, 6, 7, 8 keys on your keyboard to respond.</p><p>If you are sure you saw the ship, press <b>5</b> on your keyboard.</p><p> If you think you saw it before but aren't sure, then press <b>6</b>.</p><p> If you think you have <b>not</b> seen it before but aren't sure, then press <b>7</b>.</p><p> If you are sure you did <b>not</b> see the ship before, then press <b>8</b>.</p><p><img src='run_exp/static/images/tutorial/example_recog_trial.png' height='500'></p><p><b>[Press the space bar to continue]</b></p></div>","32","","","","","","","","","","","","","","","","","","","","","","","",""
"","explain_outcome","14","162646","0.0-14.0","""event"",""trial"",""time""
""fullscreenenter"",""0"",""9150""
""blur"",""10"",""86139""
""focus"",""11"",""94123""
""blur"",""11"",""95106""
""focus"",""11"",""114286""
","""event"",""trial"",""time""
""blur"",""10"",""86139""
""blur"",""11"",""95106""
","""event"",""trial"",""time""
""focus"",""11"",""94123""
""focus"",""11"",""114286""
","""event"",""trial"",""time""
""fullscreenenter"",""0"",""9150""
","
","null","run_exp/static/audio/clip_35_recognition_3.m4a","null","","","","","<div class='center'><p> If you remember correctly, then you’ll get a gold coin like this: </p><p><img src='run_exp/static/images/tutorial/reward_small.png' height='200'></p><p>If you do not remember correctly, then you'll see a red x like this: </p><p><img src='run_exp/static/images/tutorial/reward_no.png' height='200'></p><p>Importantly, when you are shown a ship, take the time to remind yourself which island you saw it on. This will help you in the next part of the study.</p></div>","","","","","","","","","","","","","","","","","","",""
"","html-keyboard-response","15","163781","0.0-15.0","""event"",""trial"",""time""
""fullscreenenter"",""0"",""9150""
""blur"",""10"",""86139""
""focus"",""11"",""94123""
""blur"",""11"",""95106""
""focus"",""11"",""114286""
","""event"",""trial"",""time""
""blur"",""10"",""86139""
""blur"",""11"",""95106""
","""event"",""trial"",""time""
""focus"",""11"",""94123""
""focus"",""11"",""114286""
","""event"",""trial"",""time""
""fullscreenenter"",""0"",""9150""
","
","1130.7000000476837","<div class='center'><p> If you remember correctly, then you’ll get a gold coin like this: </p><p><img src='run_exp/static/images/tutorial/reward_small.png' height='200'></p><p>If you do not remember correctly, then you'll see a red x like this: </p><p><img src='run_exp/static/images/tutorial/reward_no.png' height='200'></p><p>Importantly, when you are shown a ship, take the time to remind yourself which island you saw it on. This will help you in the next part of the study.</p><p><b>[Press the space bar to continue]</b></p></div>","32","","","","","","","","","","","","","","","","","","","","","","","",""
"","begin_test_phase","16","179626","0.0-16.0","""event"",""trial"",""time""
""fullscreenenter"",""0"",""9150""
""blur"",""10"",""86139""
""focus"",""11"",""94123""
""blur"",""11"",""95106""
""focus"",""11"",""114286""
","""event"",""trial"",""time""
""blur"",""10"",""86139""
""blur"",""11"",""95106""
","""event"",""trial"",""time""
""focus"",""11"",""94123""
""focus"",""11"",""114286""
","""event"",""trial"",""time""
""fullscreenenter"",""0"",""9150""
","
","null","run_exp/static/audio/clip_36_begin_final.m4a","null","","","","","<div class='center'><p>Let's go over the important points again. Your job is to: </p><p>1. Pick the pirate who is best at robbing ships and will bring you back gold coins. </p><p>2. Correctly remember whether or not you saw a ship before. If you did see the ship before, remind yourself on which island you saw it. </p></div>","","","","","","","","","","","","","","","","","","",""
"","html-keyboard-response","17","180721","0.0-17.0","""event"",""trial"",""time""
""fullscreenenter"",""0"",""9150""
""blur"",""10"",""86139""
""focus"",""11"",""94123""
""blur"",""11"",""95106""
""focus"",""11"",""114286""
","""event"",""trial"",""time""
""blur"",""10"",""86139""
""blur"",""11"",""95106""
","""event"",""trial"",""time""
""focus"",""11"",""94123""
""focus"",""11"",""114286""
","""event"",""trial"",""time""
""fullscreenenter"",""0"",""9150""
","
","1030.7000000476837","<div class='center'><p>Let's go over the important points again. Your job is to: </p><p>1. Pick the pirate who is best at robbing ships and will bring you back gold coins. </p><p>2. Correctly remember whether or not you saw a ship before. If you did see the ship before, remind yourself on which island you saw it. </p><p><b>[Press the space bar to continue]</b></p></div>","32","","","","","","","","","","","","","","","","","","","","","","","",""
"","do_welcome","18","184756","0.0-18.0","""event"",""trial"",""time""
""fullscreenenter"",""0"",""9150""
""blur"",""10"",""86139""
""focus"",""11"",""94123""
""blur"",""11"",""95106""
""focus"",""11"",""114286""
","""event"",""trial"",""time""
""blur"",""10"",""86139""
""blur"",""11"",""95106""
","""event"",""trial"",""time""
""focus"",""11"",""94123""
""focus"",""11"",""114286""
","""event"",""trial"",""time""
""fullscreenenter"",""0"",""9150""
","
","null","","","","","","","","null","","","","","","","","","","","","","","","","","",""
"","do_trial","19","188830","0.0-19.0-0.0","""event"",""trial"",""time""
""fullscreenenter"",""0"",""9150""
""blur"",""10"",""86139""
""focus"",""11"",""94123""
""blur"",""11"",""95106""
""focus"",""11"",""114286""
","""event"",""trial"",""time""
""blur"",""10"",""86139""
""blur"",""11"",""95106""
","""event"",""trial"",""time""
""focus"",""11"",""94123""
""focus"",""11"",""114286""
","""event"",""trial"",""time""
""fullscreenenter"",""0"",""9150""
","
","1494.699999988079","","","","","","","","49","0,1,0","6","blank","230","null","0.27969590493008556","0.5474330544429554","0.20091863610522467","0","","","","","","","","",""
"","html-keyboard-response","20","189839","0.0-19.0-1.0","""event"",""trial"",""time""
""fullscreenenter"",""0"",""9150""
""blur"",""10"",""86139""
""focus"",""11"",""94123""
""blur"",""11"",""95106""
""focus"",""11"",""114286""
","""event"",""trial"",""time""
""blur"",""10"",""86139""
""blur"",""11"",""95106""
","""event"",""trial"",""time""
""focus"",""11"",""94123""
""focus"",""11"",""114286""
","""event"",""trial"",""time""
""fullscreenenter"",""0"",""9150""
","
","null","<p></p>","null","","","","","","","","","","","","","","","","","","","","","","","",""
"","do_trial","21","193448","0.0-20.0-0.0","""event"",""trial"",""time""
""fullscreenenter"",""0"",""9150""
""blur"",""10"",""86139""
""focus"",""11"",""94123""
""blur"",""11"",""95106""
""focus"",""11"",""114286""
","""event"",""trial"",""time""
""blur"",""10"",""86139""
""blur"",""11"",""95106""
","""event"",""trial"",""time""
""focus"",""11"",""94123""
""focus"",""11"",""114286""
","""event"",""trial"",""time""
""fullscreenenter"",""0"",""9150""
","
","1015.5","","","","","","","","50","0,0,1","6","blank","231","null","0.2317397921729711","0.5432956104046098","0.38617070215517146","0","","","","","","","","",""
"","html-keyboard-response","22","194458","0.0-20.0-1.0","""event"",""trial"",""time""
""fullscreenenter"",""0"",""9150""
""blur"",""10"",""86139""
""focus"",""11"",""94123""
""blur"",""11"",""95106""
""focus"",""11"",""114286""
","""event"",""trial"",""time""
""blur"",""10"",""86139""
""blur"",""11"",""95106""
","""event"",""trial"",""time""
""focus"",""11"",""94123""
""focus"",""11"",""114286""
","""event"",""trial"",""time""
""fullscreenenter"",""0"",""9150""
","
","null","<p></p>","null","","","","","","","","","","","","","","","","","","","","","","","",""
"","do_trial","23","197382","0.0-21.0-0.0","""event"",""trial"",""time""
""fullscreenenter"",""0"",""9150""
""blur"",""10"",""86139""
""focus"",""11"",""94123""
""blur"",""11"",""95106""
""focus"",""11"",""114286""
","""event"",""trial"",""time""
""blur"",""10"",""86139""
""blur"",""11"",""95106""
","""event"",""trial"",""time""
""focus"",""11"",""94123""
""focus"",""11"",""114286""
","""event"",""trial"",""time""
""fullscreenenter"",""0"",""9150""
","
","359.19999998807907","","","","","","","","51","0,0,0","6","blank","232","null","0.2007542255305549","0.5794941974716766","0.37802252431356914","0","","","","","","","","",""
"","html-keyboard-response","24","198394","0.0-21.0-1.0","""event"",""trial"",""time""
""fullscreenenter"",""0"",""9150""
""blur"",""10"",""86139""
""focus"",""11"",""94123""
""blur"",""11"",""95106""
""focus"",""11"",""114286""
","""event"",""trial"",""time""
""blur"",""10"",""86139""
""blur"",""11"",""95106""
","""event"",""trial"",""time""
""focus"",""11"",""94123""
""focus"",""11"",""114286""
","""event"",""trial"",""time""
""fullscreenenter"",""0"",""9150""
","
","null","<p></p>","null","","","","","","","","","","","","","","","","","","","","","","","",""
"","do_trial","25","201304","0.0-22.0-0.0","""event"",""trial"",""time""
""fullscreenenter"",""0"",""9150""
""blur"",""10"",""86139""
""focus"",""11"",""94123""
""blur"",""11"",""95106""
""focus"",""11"",""114286""
","""event"",""trial"",""time""
""blur"",""10"",""86139""
""blur"",""11"",""95106""
","""event"",""trial"",""time""
""focus"",""11"",""94123""
""focus"",""11"",""114286""
","""event"",""trial"",""time""
""fullscreenenter"",""0"",""9150""
","
","342.89999997615814","","","","","","","","49","1,0,0","6","blank","233","null","0.3060873913811746","0.5319614658336966","0.2532848707329669","1","","","","","","","","",""
"","html-keyboard-response","26","202319","0.0-22.0-1.0","""event"",""trial"",""time""
""fullscreenenter"",""0"",""9150""
""blur"",""10"",""86139""
""focus"",""11"",""94123""
""blur"",""11"",""95106""
""focus"",""11"",""114286""
","""event"",""trial"",""time""
""blur"",""10"",""86139""
""blur"",""11"",""95106""
","""event"",""trial"",""time""
""focus"",""11"",""94123""
""focus"",""11"",""114286""
","""event"",""trial"",""time""
""fullscreenenter"",""0"",""9150""
","
","null","<p></p>","null","","","","","","","","","","","","","","","","","","","","","","","",""
"","do_trial","27","205336","0.0-23.0-0.0","""event"",""trial"",""time""
""fullscreenenter"",""0"",""9150""
""blur"",""10"",""86139""
""focus"",""11"",""94123""
""blur"",""11"",""95106""
""focus"",""11"",""114286""
","""event"",""trial"",""time""
""blur"",""10"",""86139""
""blur"",""11"",""95106""
","""event"",""trial"",""time""
""focus"",""11"",""94123""
""focus"",""11"",""114286""
","""event"",""trial"",""time""
""fullscreenenter"",""0"",""9150""
","
","418.9000000357628","","","","","","","","49","0,0,0","6","blank","234","null","0.23592121610648145","0.5120296178454035","0.18056600357428224","0","","","","","","","","",""
"","html-keyboard-response","28","206349","0.0-23.0-1.0","""event"",""trial"",""time""
""fullscreenenter"",""0"",""9150""
""blur"",""10"",""86139""
""focus"",""11"",""94123""
""blur"",""11"",""95106""
""focus"",""11"",""114286""
","""event"",""trial"",""time""
""blur"",""10"",""86139""
""blur"",""11"",""95106""
","""event"",""trial"",""time""
""focus"",""11"",""94123""
""focus"",""11"",""114286""
","""event"",""trial"",""time""
""fullscreenenter"",""0"",""9150""
","
","null","<p></p>","null","","","","","","","","","","","","","","","","","","","","","","","",""
"","do_trial","29","208962","0.0-24.0-0.0","""event"",""trial"",""time""
""fullscreenenter"",""0"",""9150""
""blur"",""10"",""86139""
""focus"",""11"",""94123""
""blur"",""11"",""95106""
""focus"",""11"",""114286""
","""event"",""trial"",""time""
""blur"",""10"",""86139""
""blur"",""11"",""95106""
","""event"",""trial"",""time""
""focus"",""11"",""94123""
""focus"",""11"",""114286""
","""event"",""trial"",""time""
""fullscreenenter"",""0"",""9150""
","
","22","","","","","","","","49","0,0,0","6","blank","235","null","0.1288436167016124","0.5759312642713742","0.20287014144656726","0","","","","","","","","",""
"","html-keyboard-response","30","209974","0.0-24.0-1.0","""event"",""trial"",""time""
""fullscreenenter"",""0"",""9150""
""blur"",""10"",""86139""
""focus"",""11"",""94123""
""blur"",""11"",""95106""
""focus"",""11"",""114286""
","""event"",""trial"",""time""
""blur"",""10"",""86139""
""blur"",""11"",""95106""
","""event"",""trial"",""time""
""focus"",""11"",""94123""
""focus"",""11"",""114286""
","""event"",""trial"",""time""
""fullscreenenter"",""0"",""9150""
","
","null","<p></p>","null","","","","","","","","","","","","","","","","","","","","","","","",""
"","do_trial","31","212593","0.0-25.0-0.0","""event"",""trial"",""time""
""fullscreenenter"",""0"",""9150""
""blur"",""10"",""86139""
""focus"",""11"",""94123""
""blur"",""11"",""95106""
""focus"",""11"",""114286""
","""event"",""trial"",""time""
""blur"",""10"",""86139""
""blur"",""11"",""95106""
","""event"",""trial"",""time""
""focus"",""11"",""94123""
""focus"",""11"",""114286""
","""event"",""trial"",""time""
""fullscreenenter"",""0"",""9150""
","
","48.799999952316284","","","","","","","","49","1,1,1","6","blank","236","null","0.1826747570297833","0.5277494618078956","0.1659960340882637","1","","","","","","","","",""
"","html-keyboard-response","32","213603","0.0-25.0-1.0","""event"",""trial"",""time""
""fullscreenenter"",""0"",""9150""
""blur"",""10"",""86139""
""focus"",""11"",""94123""
""blur"",""11"",""95106""
""focus"",""11"",""114286""
","""event"",""trial"",""time""
""blur"",""10"",""86139""
""blur"",""11"",""95106""
","""event"",""trial"",""time""
""focus"",""11"",""94123""
""focus"",""11"",""114286""
","""event"",""trial"",""time""
""fullscreenenter"",""0"",""9150""
","
","null","<p></p>","null","","","","","","","","","","","","","","","","","","","","","","","",""
"","do_trial","33","216296","0.0-26.0-0.0","""event"",""trial"",""time""
""fullscreenenter"",""0"",""9150""
""blur"",""10"",""86139""
""focus"",""11"",""94123""
""blur"",""11"",""95106""
""focus"",""11"",""114286""
","""event"",""trial"",""time""
""blur"",""10"",""86139""
""blur"",""11"",""95106""
","""event"",""trial"",""time""
""focus"",""11"",""94123""
""focus"",""11"",""114286""
","""event"",""trial"",""time""
""fullscreenenter"",""0"",""9150""
","
","136.9000000357628","","","","","","","","49","1,1,0","6","blank","237","null","0.3196150052926965","0.6868003269027","0.2827676231131992","1","","","","","","","","",""
"","html-keyboard-response","34","217302","0.0-26.0-1.0","""event"",""trial"",""time""
""fullscreenenter"",""0"",""9150""
""blur"",""10"",""86139""
""focus"",""11"",""94123""
""blur"",""11"",""95106""
""focus"",""11"",""114286""
","""event"",""trial"",""time""
""blur"",""10"",""86139""
""blur"",""11"",""95106""
","""event"",""trial"",""time""
""focus"",""11"",""94123""
""focus"",""11"",""114286""
","""event"",""trial"",""time""
""fullscreenenter"",""0"",""9150""
","
","null","<p></p>","null","","","","","","","","","","","","","","","","","","","","","","","",""
"","do_trial","35","219882","0.0-27.0-0.0","""event"",""trial"",""time""
""fullscreenenter"",""0"",""9150""
""blur"",""10"",""86139""
""focus"",""11"",""94123""
""blur"",""11"",""95106""
""focus"",""11"",""114286""
","""event"",""trial"",""time""
""blur"",""10"",""86139""
""blur"",""11"",""95106""
","""event"",""trial"",""time""
""focus"",""11"",""94123""
""focus"",""11"",""114286""
","""event"",""trial"",""time""
""fullscreenenter"",""0"",""9150""
","
","0.10000002384185791","","","","","","","","49","0,1,1","6","blank","238","null","0.2419152647099984","0.6268613985146362","0.3142392802517658","0","","","","","","","","",""
"","html-keyboard-response","36","220900","0.0-27.0-1.0","""event"",""trial"",""time""
""fullscreenenter"",""0"",""9150""
""blur"",""10"",""86139""
""focus"",""11"",""94123""
""blur"",""11"",""95106""
""focus"",""11"",""114286""
","""event"",""trial"",""time""
""blur"",""10"",""86139""
""blur"",""11"",""95106""
","""event"",""trial"",""time""
""focus"",""11"",""94123""
""focus"",""11"",""114286""
","""event"",""trial"",""time""
""fullscreenenter"",""0"",""9150""
","
","null","<p></p>","null","","","","","","","","","","","","","","","","","","","","","","","",""
"","do_trial","37","223549","0.0-28.0-0.0","""event"",""trial"",""time""
""fullscreenenter"",""0"",""9150""
""blur"",""10"",""86139""
""focus"",""11"",""94123""
""blur"",""11"",""95106""
""focus"",""11"",""114286""
","""event"",""trial"",""time""
""blur"",""10"",""86139""
""blur"",""11"",""95106""
","""event"",""trial"",""time""
""focus"",""11"",""94123""
""focus"",""11"",""114286""
","""event"",""trial"",""time""
""fullscreenenter"",""0"",""9150""
","
","56.299999952316284","","","","","","","","49","0,1,1","6","blank","239","null","0.2397087898113979","0.6549627459012562","0.276637633856207","0","","","","","","","","",""
"","html-keyboard-response","38","224561","0.0-28.0-1.0","""event"",""trial"",""time""
""fullscreenenter"",""0"",""9150""
""blur"",""10"",""86139""
""focus"",""11"",""94123""
""blur"",""11"",""95106""
""focus"",""11"",""114286""
","""event"",""trial"",""time""
""blur"",""10"",""86139""
""blur"",""11"",""95106""
","""event"",""trial"",""time""
""focus"",""11"",""94123""
""focus"",""11"",""114286""
","""event"",""trial"",""time""
""fullscreenenter"",""0"",""9150""
","
","null","<p></p>","null","","","","","","","","","","","","","","","","","","","","","","","",""
"","do_trial","39","227217","0.0-29.0-0.0","""event"",""trial"",""time""
""fullscreenenter"",""0"",""9150""
""blur"",""10"",""86139""
""focus"",""11"",""94123""
""blur"",""11"",""95106""
""focus"",""11"",""114286""
","""event"",""trial"",""time""
""blur"",""10"",""86139""
""blur"",""11"",""95106""
","""event"",""trial"",""time""
""focus"",""11"",""94123""
""focus"",""11"",""114286""
","""event"",""trial"",""time""
""fullscreenenter"",""0"",""9150""
","
","75.5","","","","","","","","49","0,1,0","6","blank","240","null","0.12368840548636689","0.4635261539154","0.4073510688230483","0","","","","","","","","",""
"","html-keyboard-response","40","228226","0.0-29.0-1.0","""event"",""trial"",""time""
""fullscreenenter"",""0"",""9150""
""blur"",""10"",""86139""
""focus"",""11"",""94123""
""blur"",""11"",""95106""
""focus"",""11"",""114286""
","""event"",""trial"",""time""
""blur"",""10"",""86139""
""blur"",""11"",""95106""
","""event"",""trial"",""time""
""focus"",""11"",""94123""
""focus"",""11"",""114286""
","""event"",""trial"",""time""
""fullscreenenter"",""0"",""9150""
","
","null","<p></p>","null","","","","","","","","","","","","","","","","","","","","","","","",""
"","do_trial","41","230850","0.0-30.0-0.0","""event"",""trial"",""time""
""fullscreenenter"",""0"",""9150""
""blur"",""10"",""86139""
""focus"",""11"",""94123""
""blur"",""11"",""95106""
""focus"",""11"",""114286""
","""event"",""trial"",""time""
""blur"",""10"",""86139""
""blur"",""11"",""95106""
","""event"",""trial"",""time""
""focus"",""11"",""94123""
""focus"",""11"",""114286""
","""event"",""trial"",""time""
""fullscreenenter"",""0"",""9150""
","
","83.69999998807907","","","","","","","","49","0,1,0","6","blank","241","null","0.15225940084478815","0.4663383478085797","0.41847391812929213","0","","","","","","","","",""
"","html-keyboard-response","42","231869","0.0-30.0-1.0","""event"",""trial"",""time""
""fullscreenenter"",""0"",""9150""
""blur"",""10"",""86139""
""focus"",""11"",""94123""
""blur"",""11"",""95106""
""focus"",""11"",""114286""
","""event"",""trial"",""time""
""blur"",""10"",""86139""
""blur"",""11"",""95106""
","""event"",""trial"",""time""
""focus"",""11"",""94123""
""focus"",""11"",""114286""
","""event"",""trial"",""time""
""fullscreenenter"",""0"",""9150""
","
","null","<p></p>","null","","","","","","","","","","","","","","","","","","","","","","","",""
"","do_trial","43","234487","0.0-31.0-0.0","""event"",""trial"",""time""
""fullscreenenter"",""0"",""9150""
""blur"",""10"",""86139""
""focus"",""11"",""94123""
""blur"",""11"",""95106""
""focus"",""11"",""114286""
","""event"",""trial"",""time""
""blur"",""10"",""86139""
""blur"",""11"",""95106""
","""event"",""trial"",""time""
""focus"",""11"",""94123""
""focus"",""11"",""114286""
","""event"",""trial"",""time""
""fullscreenenter"",""0"",""9150""
","
","39.700000047683716","","","","","","","","49","0,0,1","6","blank","242","null","0.13757945770010144","0.42171180773178046","0.44862524283710165","0","","","","","","","","",""
"","html-keyboard-response","44","235491","0.0-31.0-1.0","""event"",""trial"",""time""
""fullscreenenter"",""0"",""9150""
""blur"",""10"",""86139""
""focus"",""11"",""94123""
""blur"",""11"",""95106""
""focus"",""11"",""114286""
","""event"",""trial"",""time""
""blur"",""10"",""86139""
""blur"",""11"",""95106""
","""event"",""trial"",""time""
""focus"",""11"",""94123""
""focus"",""11"",""114286""
","""event"",""trial"",""time""
""fullscreenenter"",""0"",""9150""
","
","null","<p></p>","null","","","","","","","","","","","","","","","","","","","","","","","",""
"","do_trial","45","238476","0.0-32.0-0.0","""event"",""trial"",""time""
""fullscreenenter"",""0"",""9150""
""blur"",""10"",""86139""
""focus"",""11"",""94123""
""blur"",""11"",""95106""
""focus"",""11"",""114286""
","""event"",""trial"",""time""
""blur"",""10"",""86139""
""blur"",""11"",""95106""
","""event"",""trial"",""time""
""focus"",""11"",""94123""
""focus"",""11"",""114286""
","""event"",""trial"",""time""
""fullscreenenter"",""0"",""9150""
","
","410.2000000476837","","","","","","","","49","0,1,0","6","blank","243","null","0.2856578906099196","0.46975632694234765","0.5183519865734553","0","","","","","","","","",""
"","html-keyboard-response","46","239493","0.0-32.0-1.0","""event"",""trial"",""time""
""fullscreenenter"",""0"",""9150""
""blur"",""10"",""86139""
""focus"",""11"",""94123""
""blur"",""11"",""95106""
""focus"",""11"",""114286""
","""event"",""trial"",""time""
""blur"",""10"",""86139""
""blur"",""11"",""95106""
","""event"",""trial"",""time""
""focus"",""11"",""94123""
""focus"",""11"",""114286""
","""event"",""trial"",""time""
""fullscreenenter"",""0"",""9150""
","
","null","<p></p>","null","","","","","","","","","","","","","","","","","","","","","","","",""
"","do_recog","47","245531","0.0-33.0-0.0","""event"",""trial"",""time""
""fullscreenenter"",""0"",""9150""
""blur"",""10"",""86139""
""focus"",""11"",""94123""
""blur"",""11"",""95106""
""focus"",""11"",""114286""
","""event"",""trial"",""time""
""blur"",""10"",""86139""
""blur"",""11"",""95106""
","""event"",""trial"",""time""
""focus"",""11"",""94123""
""focus"",""11"",""114286""
","""event"",""trial"",""time""
""fullscreenenter"",""0"",""9150""
","
","null","","","","","","","","null","","","","244","probe-221","","","","","1","[object Object]","153","3","0","","","",""
"","html-keyboard-response","48","246543","0.0-33.0-1.0","""event"",""trial"",""time""
""fullscreenenter"",""0"",""9150""
""blur"",""10"",""86139""
""focus"",""11"",""94123""
""blur"",""11"",""95106""
""focus"",""11"",""114286""
","""event"",""trial"",""time""
""blur"",""10"",""86139""
""blur"",""11"",""95106""
","""event"",""trial"",""time""
""focus"",""11"",""94123""
""focus"",""11"",""114286""
","""event"",""trial"",""time""
""fullscreenenter"",""0"",""9150""
","
","null","<p></p>","null","","","","","","","","","","","","","","","","","","","","","","","",""
"","do_trial","49","249599","0.0-34.0-0.0","""event"",""trial"",""time""
""fullscreenenter"",""0"",""9150""
""blur"",""10"",""86139""
""focus"",""11"",""94123""
""blur"",""11"",""95106""
""focus"",""11"",""114286""
","""event"",""trial"",""time""
""blur"",""10"",""86139""
""blur"",""11"",""95106""
","""event"",""trial"",""time""
""focus"",""11"",""94123""
""focus"",""11"",""114286""
","""event"",""trial"",""time""
""fullscreenenter"",""0"",""9150""
","
","470","","","","","","","","49","0,0,0","6","blank","245","null","0.14434589707478893","0.4377303953441575","0.5505373103905453","0","","","","","","","","",""
"","html-keyboard-response","50","250610","0.0-34.0-1.0","""event"",""trial"",""time""
""fullscreenenter"",""0"",""9150""
""blur"",""10"",""86139""
""focus"",""11"",""94123""
""blur"",""11"",""95106""
""focus"",""11"",""114286""
","""event"",""trial"",""time""
""blur"",""10"",""86139""
""blur"",""11"",""95106""
","""event"",""trial"",""time""
""focus"",""11"",""94123""
""focus"",""11"",""114286""
","""event"",""trial"",""time""
""fullscreenenter"",""0"",""9150""
","
","null","<p></p>","null","","","","","","","","","","","","","","","","","","","","","","","",""
"","do_recog","51","254891","0.0-35.0-0.0","""event"",""trial"",""time""
""fullscreenenter"",""0"",""9150""
""blur"",""10"",""86139""
""focus"",""11"",""94123""
""blur"",""11"",""95106""
""focus"",""11"",""114286""
","""event"",""trial"",""time""
""blur"",""10"",""86139""
""blur"",""11"",""95106""
","""event"",""trial"",""time""
""focus"",""11"",""94123""
""focus"",""11"",""114286""
","""event"",""trial"",""time""
""fullscreenenter"",""0"",""9150""
","
","2767.899999976158","","","","","","","","56","","","","246","probe-106","","","","","1","[object Object]","38","0","0","","","",""
"","html-keyboard-response","52","255904","0.0-35.0-1.0","""event"",""trial"",""time""
""fullscreenenter"",""0"",""9150""
""blur"",""10"",""86139""
""focus"",""11"",""94123""
""blur"",""11"",""95106""
""focus"",""11"",""114286""
","""event"",""trial"",""time""
""blur"",""10"",""86139""
""blur"",""11"",""95106""
","""event"",""trial"",""time""
""focus"",""11"",""94123""
""focus"",""11"",""114286""
","""event"",""trial"",""time""
""fullscreenenter"",""0"",""9150""
","
","null","<p></p>","null","","","","","","","","","","","","","","","","","","","","","","","",""
"","do_trial","53","259298","0.0-36.0-0.0","""event"",""trial"",""time""
""fullscreenenter"",""0"",""9150""
""blur"",""10"",""86139""
""focus"",""11"",""94123""
""blur"",""11"",""95106""
""focus"",""11"",""114286""
","""event"",""trial"",""time""
""blur"",""10"",""86139""
""blur"",""11"",""95106""
","""event"",""trial"",""time""
""focus"",""11"",""94123""
""focus"",""11"",""114286""
","""event"",""trial"",""time""
""fullscreenenter"",""0"",""9150""
","
","774.6999999880791","","","","","","","","49","0,1,1","6","blank","247","null","0.2053404076873984","0.46704774630666307","0.545324532313495","0","","","","","","","","",""
"","html-keyboard-response","54","260310","0.0-36.0-1.0","""event"",""trial"",""time""
""fullscreenenter"",""0"",""9150""
""blur"",""10"",""86139""
""focus"",""11"",""94123""
""blur"",""11"",""95106""
""focus"",""11"",""114286""
","""event"",""trial"",""time""
""blur"",""10"",""86139""
""blur"",""11"",""95106""
","""event"",""trial"",""time""
""focus"",""11"",""94123""
""focus"",""11"",""114286""
","""event"",""trial"",""time""
""fullscreenenter"",""0"",""9150""
","
","null","<p></p>","null","","","","","","","","","","","","","","","","","","","","","","","",""
"","do_trial","55","263050","0.0-37.0-0.0","""event"",""trial"",""time""
""fullscreenenter"",""0"",""9150""
""blur"",""10"",""86139""
""focus"",""11"",""94123""
""blur"",""11"",""95106""
""focus"",""11"",""114286""
","""event"",""trial"",""time""
""blur"",""10"",""86139""
""blur"",""11"",""95106""
","""event"",""trial"",""time""
""focus"",""11"",""94123""
""focus"",""11"",""114286""
","""event"",""trial"",""time""
""fullscreenenter"",""0"",""9150""
","
","151.9000000357628","","","","","","","","50","0,0,1","6","blank","248","null","0.1669033845966332","0.2378434800711689","0.47057999293937186","0","","","","","","","","",""
"","html-keyboard-response","56","264052","0.0-37.0-1.0","""event"",""trial"",""time""
""fullscreenenter"",""0"",""9150""
""blur"",""10"",""86139""
""focus"",""11"",""94123""
""blur"",""11"",""95106""
""focus"",""11"",""114286""
","""event"",""trial"",""time""
""blur"",""10"",""86139""
""blur"",""11"",""95106""
","""event"",""trial"",""time""
""focus"",""11"",""94123""
""focus"",""11"",""114286""
","""event"",""trial"",""time""
""fullscreenenter"",""0"",""9150""
","
","null","<p></p>","null","","","","","","","","","","","","","","","","","","","","","","","",""
"","do_recog","57","268195","0.0-38.0-0.0","""event"",""trial"",""time""
""fullscreenenter"",""0"",""9150""
""blur"",""10"",""86139""
""focus"",""11"",""94123""
""blur"",""11"",""95106""
""focus"",""11"",""114286""
","""event"",""trial"",""time""
""blur"",""10"",""86139""
""blur"",""11"",""95106""
","""event"",""trial"",""time""
""focus"",""11"",""94123""
""focus"",""11"",""114286""
","""event"",""trial"",""time""
""fullscreenenter"",""0"",""9150""
","
","2622.5","","","","","","","","53","","","","249","probe-246","","","","","0","[object Object]","null","null","0","","","",""
"","html-keyboard-response","58","269208","0.0-38.0-1.0","""event"",""trial"",""time""
""fullscreenenter"",""0"",""9150""
""blur"",""10"",""86139""
""focus"",""11"",""94123""
""blur"",""11"",""95106""
""focus"",""11"",""114286""
","""event"",""trial"",""time""
""blur"",""10"",""86139""
""blur"",""11"",""95106""
","""event"",""trial"",""time""
""focus"",""11"",""94123""
""focus"",""11"",""114286""
","""event"",""trial"",""time""
""fullscreenenter"",""0"",""9150""
","
","null","<p></p>","null","","","","","","","","","","","","","","","","","","","","","","","",""
"","do_trial","59","272270","0.0-39.0-0.0","""event"",""trial"",""time""
""fullscreenenter"",""0"",""9150""
""blur"",""10"",""86139""
""focus"",""11"",""94123""
""blur"",""11"",""95106""
""focus"",""11"",""114286""
","""event"",""trial"",""time""
""blur"",""10"",""86139""
""blur"",""11"",""95106""
","""event"",""trial"",""time""
""focus"",""11"",""94123""
""focus"",""11"",""114286""
","""event"",""trial"",""time""
""fullscreenenter"",""0"",""9150""
","
","488.80000001192093","","","","","","","","49","1,0,1","6","blank","250","null","0.09544151823507589","0.252615222958131","0.532288620931086","1","","","","","","","","",""
"","html-keyboard-response","60","273277","0.0-39.0-1.0","""event"",""trial"",""time""
""fullscreenenter"",""0"",""9150""
""blur"",""10"",""86139""
""focus"",""11"",""94123""
""blur"",""11"",""95106""
""focus"",""11"",""114286""
","""event"",""trial"",""time""
""blur"",""10"",""86139""
""blur"",""11"",""95106""
","""event"",""trial"",""time""
""focus"",""11"",""94123""
""focus"",""11"",""114286""
","""event"",""trial"",""time""
""fullscreenenter"",""0"",""9150""
","
","null","<p></p>","null","","","","","","","","","","","","","","","","","","","","","","","",""
"","do_trial","61","276183","0.0-40.0-0.0","""event"",""trial"",""time""
""fullscreenenter"",""0"",""9150""
""blur"",""10"",""86139""
""focus"",""11"",""94123""
""blur"",""11"",""95106""
""focus"",""11"",""114286""
","""event"",""trial"",""time""
""blur"",""10"",""86139""
""blur"",""11"",""95106""
","""event"",""trial"",""time""
""focus"",""11"",""94123""
""focus"",""11"",""114286""
","""event"",""trial"",""time""
""fullscreenenter"",""0"",""9150""
","
","337.5","","","","","","","","51","0,1,0","6","blank","251","null","0.09533570084081315","0.35825242130390017","0.5830153500606188","0","","","","","","","","",""
"","html-keyboard-response","62","277193","0.0-40.0-1.0","""event"",""trial"",""time""
""fullscreenenter"",""0"",""9150""
""blur"",""10"",""86139""
""focus"",""11"",""94123""
""blur"",""11"",""95106""
""focus"",""11"",""114286""
","""event"",""trial"",""time""
""blur"",""10"",""86139""
""blur"",""11"",""95106""
","""event"",""trial"",""time""
""focus"",""11"",""94123""
""focus"",""11"",""114286""
","""event"",""trial"",""time""
""fullscreenenter"",""0"",""9150""
","
","null","<p></p>","null","","","","","","","","","","","","","","","","","","","","","","","",""
"","do_trial","63","279834","0.0-41.0-0.0","""event"",""trial"",""time""
""fullscreenenter"",""0"",""9150""
""blur"",""10"",""86139""
""focus"",""11"",""94123""
""blur"",""11"",""95106""
""focus"",""11"",""114286""
","""event"",""trial"",""time""
""blur"",""10"",""86139""
""blur"",""11"",""95106""
","""event"",""trial"",""time""
""focus"",""11"",""94123""
""focus"",""11"",""114286""
","""event"",""trial"",""time""
""fullscreenenter"",""0"",""9150""
","
","72.5","","","","","","","","49","0,1,0","6","blank","252","null","0.10260386090079308","0.5796678310744073","0.6252938005425469","0","","","","","","","","",""
"","html-keyboard-response","64","280848","0.0-41.0-1.0","""event"",""trial"",""time""
""fullscreenenter"",""0"",""9150""
""blur"",""10"",""86139""
""focus"",""11"",""94123""
""blur"",""11"",""95106""
""focus"",""11"",""114286""
","""event"",""trial"",""time""
""blur"",""10"",""86139""
""blur"",""11"",""95106""
","""event"",""trial"",""time""
""focus"",""11"",""94123""
""focus"",""11"",""114286""
","""event"",""trial"",""time""
""fullscreenenter"",""0"",""9150""
","
","null","<p></p>","null","","","","","","","","","","","","","","","","","","","","","","","",""
"","do_trial","65","283407","0.0-42.0-0.0","""event"",""trial"",""time""
""fullscreenenter"",""0"",""9150""
""blur"",""10"",""86139""
""focus"",""11"",""94123""
""blur"",""11"",""95106""
""focus"",""11"",""114286""
","""event"",""trial"",""time""
""blur"",""10"",""86139""
""blur"",""11"",""95106""
","""event"",""trial"",""time""
""focus"",""11"",""94123""
""focus"",""11"",""114286""
","""event"",""trial"",""time""
""fullscreenenter"",""0"",""9150""
","
","0.09999996423721313","","","","","","","","50","0,1,1","6","blank","253","null","0.05709376969965917","0.4611062134066015","0.6732897533991142","1","","","","","","","","",""
"","html-keyboard-response","66","284409","0.0-42.0-1.0","""event"",""trial"",""time""
""fullscreenenter"",""0"",""9150""
""blur"",""10"",""86139""
""focus"",""11"",""94123""
""blur"",""11"",""95106""
""focus"",""11"",""114286""
","""event"",""trial"",""time""
""blur"",""10"",""86139""
""blur"",""11"",""95106""
","""event"",""trial"",""time""
""focus"",""11"",""94123""
""focus"",""11"",""114286""
","""event"",""trial"",""time""
""fullscreenenter"",""0"",""9150""
","
","null","<p></p>","null","","","","","","","","","","","","","","","","","","","","","","","",""
"","do_trial","67","287233","0.0-43.0-0.0","""event"",""trial"",""time""
""fullscreenenter"",""0"",""9150""
""blur"",""10"",""86139""
""focus"",""11"",""94123""
""blur"",""11"",""95106""
""focus"",""11"",""114286""
","""event"",""trial"",""time""
""blur"",""10"",""86139""
""blur"",""11"",""95106""
","""event"",""trial"",""time""
""focus"",""11"",""94123""
""focus"",""11"",""114286""
","""event"",""trial"",""time""
""fullscreenenter"",""0"",""9150""
","
","253.20000004768372","","","","","","","","50","0,0,0","6","blank","254","null","0.11747343183612122","0.32752368734645154","0.6773067433567498","0","","","","","","","","",""
"","html-keyboard-response","68","288244","0.0-43.0-1.0","""event"",""trial"",""time""
""fullscreenenter"",""0"",""9150""
""blur"",""10"",""86139""
""focus"",""11"",""94123""
""blur"",""11"",""95106""
""focus"",""11"",""114286""
","""event"",""trial"",""time""
""blur"",""10"",""86139""
""blur"",""11"",""95106""
","""event"",""trial"",""time""
""focus"",""11"",""94123""
""focus"",""11"",""114286""
","""event"",""trial"",""time""
""fullscreenenter"",""0"",""9150""
","
","null","<p></p>","null","","","","","","","","","","","","","","","","","","","","","","","",""
"","do_recog","69","292769","0.0-44.0-0.0","""event"",""trial"",""time""
""fullscreenenter"",""0"",""9150""
""blur"",""10"",""86139""
""focus"",""11"",""94123""
""blur"",""11"",""95106""
""focus"",""11"",""114286""
","""event"",""trial"",""time""
""blur"",""10"",""86139""
""blur"",""11"",""95106""
","""event"",""trial"",""time""
""focus"",""11"",""94123""
""focus"",""11"",""114286""
","""event"",""trial"",""time""
""fullscreenenter"",""0"",""9150""
","
","2998.300000011921","","","","","","","","56","","","","255","probe-239","","","","","0","[object Object]","null","null","1","","","",""
"","html-keyboard-response","70","293773","0.0-44.0-1.0","""event"",""trial"",""time""
""fullscreenenter"",""0"",""9150""
""blur"",""10"",""86139""
""focus"",""11"",""94123""
""blur"",""11"",""95106""
""focus"",""11"",""114286""
","""event"",""trial"",""time""
""blur"",""10"",""86139""
""blur"",""11"",""95106""
","""event"",""trial"",""time""
""focus"",""11"",""94123""
""focus"",""11"",""114286""
","""event"",""trial"",""time""
""fullscreenenter"",""0"",""9150""
","
","null","<p></p>","null","","","","","","","","","","","","","","","","","","","","","","","",""
"","do_trial","71","297098","0.0-45.0-0.0","""event"",""trial"",""time""
""fullscreenenter"",""0"",""9150""
""blur"",""10"",""86139""
""focus"",""11"",""94123""
""blur"",""11"",""95106""
""focus"",""11"",""114286""
","""event"",""trial"",""time""
""blur"",""10"",""86139""
""blur"",""11"",""95106""
","""event"",""trial"",""time""
""focus"",""11"",""94123""
""focus"",""11"",""114286""
","""event"",""trial"",""time""
""fullscreenenter"",""0"",""9150""
","
","753.3000000119209","","","","","","","","49","0,1,1","6","blank","256","null","0.167412382142331","0.33736269801929764","0.7228362807549901","0","","","","","","","","",""
"","html-keyboard-response","72","298110","0.0-45.0-1.0","""event"",""trial"",""time""
""fullscreenenter"",""0"",""9150""
""blur"",""10"",""86139""
""focus"",""11"",""94123""
""blur"",""11"",""95106""
""focus"",""11"",""114286""
","""event"",""trial"",""time""
""blur"",""10"",""86139""
""blur"",""11"",""95106""
","""event"",""trial"",""time""
""focus"",""11"",""94123""
""focus"",""11"",""114286""
","""event"",""trial"",""time""
""fullscreenenter"",""0"",""9150""
","
","null","<p></p>","null","","","","","","","","","","","","","","","","","","","","","","","",""
"","do_trial","73","301431","0.0-46.0-0.0","""event"",""trial"",""time""
""fullscreenenter"",""0"",""9150""
""blur"",""10"",""86139""
""focus"",""11"",""94123""
""blur"",""11"",""95106""
""focus"",""11"",""114286""
","""event"",""trial"",""time""
""blur"",""10"",""86139""
""blur"",""11"",""95106""
","""event"",""trial"",""time""
""focus"",""11"",""94123""
""focus"",""11"",""114286""
","""event"",""trial"",""time""
""fullscreenenter"",""0"",""9150""
","
","714.1999999880791","","","","","","","","51","0,0,1","6","blank","257","null","0.16072547905373988","0.2565508150632077","0.6730423901766065","1","","","","","","","","",""
"","html-keyboard-response","74","302438","0.0-46.0-1.0","""event"",""trial"",""time""
""fullscreenenter"",""0"",""9150""
""blur"",""10"",""86139""
""focus"",""11"",""94123""
""blur"",""11"",""95106""
""focus"",""11"",""114286""
","""event"",""trial"",""time""
""blur"",""10"",""86139""
""blur"",""11"",""95106""
","""event"",""trial"",""time""
""focus"",""11"",""94123""
""focus"",""11"",""114286""
","""event"",""trial"",""time""
""fullscreenenter"",""0"",""9150""
","
","null","<p></p>","null","","","","","","","","","","","","","","","","","","","","","","","",""
"","do_trial","75","305383","0.0-47.0-0.0","""event"",""trial"",""time""
""fullscreenenter"",""0"",""9150""
""blur"",""10"",""86139""
""focus"",""11"",""94123""
""blur"",""11"",""95106""
""focus"",""11"",""114286""
","""event"",""trial"",""time""
""blur"",""10"",""86139""
""blur"",""11"",""95106""
","""event"",""trial"",""time""
""focus"",""11"",""94123""
""focus"",""11"",""114286""
","""event"",""trial"",""time""
""fullscreenenter"",""0"",""9150""
","
","362.10000002384186","","","","","","","","51","0,1,1","6","blank","258","null","0.12667871777505535","0.3932493596394343","0.638560948390597","1","","","","","","","","",""
"","html-keyboard-response","76","306394","0.0-47.0-1.0","""event"",""trial"",""time""
""fullscreenenter"",""0"",""9150""
""blur"",""10"",""86139""
""focus"",""11"",""94123""
""blur"",""11"",""95106""
""focus"",""11"",""114286""
","""event"",""trial"",""time""
""blur"",""10"",""86139""
""blur"",""11"",""95106""
","""event"",""trial"",""time""
""focus"",""11"",""94123""
""focus"",""11"",""114286""
","""event"",""trial"",""time""
""fullscreenenter"",""0"",""9150""
","
","null","<p></p>","null","","","","","","","","","","","","","","","","","","","","","","","",""
"","do_recog","77","309692","0.0-48.0-0.0","""event"",""trial"",""time""
""fullscreenenter"",""0"",""9150""
""blur"",""10"",""86139""
""focus"",""11"",""94123""
""blur"",""11"",""95106""
""focus"",""11"",""114286""
","""event"",""trial"",""time""
""blur"",""10"",""86139""
""blur"",""11"",""95106""
","""event"",""trial"",""time""
""focus"",""11"",""94123""
""focus"",""11"",""114286""
","""event"",""trial"",""time""
""fullscreenenter"",""0"",""9150""
","
","1785","","","","","","","","53","","","","259","probe-40","","","","","1","[object Object]","194","4","1","","","",""
"","html-keyboard-response","78","310700","0.0-48.0-1.0","""event"",""trial"",""time""
""fullscreenenter"",""0"",""9150""
""blur"",""10"",""86139""
""focus"",""11"",""94123""
""blur"",""11"",""95106""
""focus"",""11"",""114286""
","""event"",""trial"",""time""
""blur"",""10"",""86139""
""blur"",""11"",""95106""
","""event"",""trial"",""time""
""focus"",""11"",""94123""
""focus"",""11"",""114286""
","""event"",""trial"",""time""
""fullscreenenter"",""0"",""9150""
","
","null","<p></p>","null","","","","","","","","","","","","","","","","","","","","","","","",""
"","do_trial","79","313420","0.0-49.0-0.0","""event"",""trial"",""time""
""fullscreenenter"",""0"",""9150""
""blur"",""10"",""86139""
""focus"",""11"",""94123""
""blur"",""11"",""95106""
""focus"",""11"",""114286""
","""event"",""trial"",""time""
""blur"",""10"",""86139""
""blur"",""11"",""95106""
","""event"",""trial"",""time""
""focus"",""11"",""94123""
""focus"",""11"",""114286""
","""event"",""trial"",""time""
""fullscreenenter"",""0"",""9150""
","
","149.80000001192093","","","","","","","","49","0,0,1","6","blank","260","null","0.08433931114669481","0.35343685226772276","0.5103829984842486","0","","","","","","","","",""
"","html-keyboard-response","80","314424","0.0-49.0-1.0","""event"",""trial"",""time""
""fullscreenenter"",""0"",""9150""
""blur"",""10"",""86139""
""focus"",""11"",""94123""
""blur"",""11"",""95106""
""focus"",""11"",""114286""
","""event"",""trial"",""time""
""blur"",""10"",""86139""
""blur"",""11"",""95106""
","""event"",""trial"",""time""
""focus"",""11"",""94123""
""focus"",""11"",""114286""
","""event"",""trial"",""time""
""fullscreenenter"",""0"",""9150""
","
","null","<p></p>","null","","","","","","","","","","","","","","","","","","","","","","","",""
"","do_trial","81","317396","0.0-50.0-0.0","""event"",""trial"",""time""
""fullscreenenter"",""0"",""9150""
""blur"",""10"",""86139""
""focus"",""11"",""94123""
""blur"",""11"",""95106""
""focus"",""11"",""114286""
","""event"",""trial"",""time""
""blur"",""10"",""86139""
""blur"",""11"",""95106""
","""event"",""trial"",""time""
""focus"",""11"",""94123""
""focus"",""11"",""114286""
","""event"",""trial"",""time""
""fullscreenenter"",""0"",""9150""
","
","412.19999998807907","","","","","","","","51","1,0,1","6","blank","261","null","0.11859516850797802","0.2875214845458745","0.3660052444429009","1","","","","","","","","",""
"","html-keyboard-response","82","318411","0.0-50.0-1.0","""event"",""trial"",""time""
""fullscreenenter"",""0"",""9150""
""blur"",""10"",""86139""
""focus"",""11"",""94123""
""blur"",""11"",""95106""
""focus"",""11"",""114286""
","""event"",""trial"",""time""
""blur"",""10"",""86139""
""blur"",""11"",""95106""
","""event"",""trial"",""time""
""focus"",""11"",""94123""
""focus"",""11"",""114286""
","""event"",""trial"",""time""
""fullscreenenter"",""0"",""9150""
","
","null","<p></p>","null","","","","","","","","","","","","","","","","","","","","","","","",""
"","do_trial","83","321084","0.0-51.0-0.0","""event"",""trial"",""time""
""fullscreenenter"",""0"",""9150""
""blur"",""10"",""86139""
""focus"",""11"",""94123""
""blur"",""11"",""95106""
""focus"",""11"",""114286""
","""event"",""trial"",""time""
""blur"",""10"",""86139""
""blur"",""11"",""95106""
","""event"",""trial"",""time""
""focus"",""11"",""94123""
""focus"",""11"",""114286""
","""event"",""trial"",""time""
""fullscreenenter"",""0"",""9150""
","
","114.69999998807907","","","","","","","","51","0,0,0","6","blank","262","null","0.05985155984258463","0.17267662791340846","0.403509653413239","0","","","","","","","","",""
"","html-keyboard-response","84","322095","0.0-51.0-1.0","""event"",""trial"",""time""
""fullscreenenter"",""0"",""9150""
""blur"",""10"",""86139""
""focus"",""11"",""94123""
""blur"",""11"",""95106""
""focus"",""11"",""114286""
","""event"",""trial"",""time""
""blur"",""10"",""86139""
""blur"",""11"",""95106""
","""event"",""trial"",""time""
""focus"",""11"",""94123""
""focus"",""11"",""114286""
","""event"",""trial"",""time""
""fullscreenenter"",""0"",""9150""
","
","null","<p></p>","null","","","","","","","","","","","","","","","","","","","","","","","",""
"","do_trial","85","324829","0.0-52.0-0.0","""event"",""trial"",""time""
""fullscreenenter"",""0"",""9150""
""blur"",""10"",""86139""
""focus"",""11"",""94123""
""blur"",""11"",""95106""
""focus"",""11"",""114286""
","""event"",""trial"",""time""
""blur"",""10"",""86139""
""blur"",""11"",""95106""
","""event"",""trial"",""time""
""focus"",""11"",""94123""
""focus"",""11"",""114286""
","""event"",""trial"",""time""
""fullscreenenter"",""0"",""9150""
","
","164.69999998807907","","","","","","","","50","0,0,0","6","blank","263","null","0.1104555402192017","0.16938582680820932","0.3293344761512191","0","","","","","","","","",""
"","html-keyboard-response","86","325841","0.0-52.0-1.0","""event"",""trial"",""time""
""fullscreenenter"",""0"",""9150""
""blur"",""10"",""86139""
""focus"",""11"",""94123""
""blur"",""11"",""95106""
""focus"",""11"",""114286""
","""event"",""trial"",""time""
""blur"",""10"",""86139""
""blur"",""11"",""95106""
","""event"",""trial"",""time""
""focus"",""11"",""94123""
""focus"",""11"",""114286""
","""event"",""trial"",""time""
""fullscreenenter"",""0"",""9150""
","
","null","<p></p>","null","","","","","","","","","","","","","","","","","","","","","","","",""
"","do_trial","87","328499","0.0-53.0-0.0","""event"",""trial"",""time""
""fullscreenenter"",""0"",""9150""
""blur"",""10"",""86139""
""focus"",""11"",""94123""
""blur"",""11"",""95106""
""focus"",""11"",""114286""
","""event"",""trial"",""time""
""blur"",""10"",""86139""
""blur"",""11"",""95106""
","""event"",""trial"",""time""
""focus"",""11"",""94123""
""focus"",""11"",""114286""
","""event"",""trial"",""time""
""fullscreenenter"",""0"",""9150""
","
","49.59999996423721","","","","","","","","50","0,0,0","6","blank","264","null","0.306731317530058","0.22922182773624772","0.4576474444661638","0","","","","","","","","",""
"","html-keyboard-response","88","329513","0.0-53.0-1.0","""event"",""trial"",""time""
""fullscreenenter"",""0"",""9150""
""blur"",""10"",""86139""
""focus"",""11"",""94123""
""blur"",""11"",""95106""
""focus"",""11"",""114286""
","""event"",""trial"",""time""
""blur"",""10"",""86139""
""blur"",""11"",""95106""
","""event"",""trial"",""time""
""focus"",""11"",""94123""
""focus"",""11"",""114286""
","""event"",""trial"",""time""
""fullscreenenter"",""0"",""9150""
","
","null","<p></p>","null","","","","","","","","","","","","","","","","","","","","","","","",""
"","do_trial","89","332067","0.0-54.0-0.0","""event"",""trial"",""time""
""fullscreenenter"",""0"",""9150""
""blur"",""10"",""86139""
""focus"",""11"",""94123""
""blur"",""11"",""95106""
""focus"",""11"",""114286""
","""event"",""trial"",""time""
""blur"",""10"",""86139""
""blur"",""11"",""95106""
","""event"",""trial"",""time""
""focus"",""11"",""94123""
""focus"",""11"",""114286""
","""event"",""trial"",""time""
""fullscreenenter"",""0"",""9150""
","
","0.19999998807907104","","","","","","","","51","0,0,0","6","blank","265","null","0.33115569089374247","0.2848748555107148","0.6255379286593776","0","","","","","","","","",""
"","html-keyboard-response","90","333076","0.0-54.0-1.0","""event"",""trial"",""time""
""fullscreenenter"",""0"",""9150""
""blur"",""10"",""86139""
""focus"",""11"",""94123""
""blur"",""11"",""95106""
""focus"",""11"",""114286""
","""event"",""trial"",""time""
""blur"",""10"",""86139""
""blur"",""11"",""95106""
","""event"",""trial"",""time""
""focus"",""11"",""94123""
""focus"",""11"",""114286""
","""event"",""trial"",""time""
""fullscreenenter"",""0"",""9150""
","
","null","<p></p>","null","","","","","","","","","","","","","","","","","","","","","","","",""
"","do_recog","91","336404","0.0-55.0-0.0","""event"",""trial"",""time""
""fullscreenenter"",""0"",""9150""
""blur"",""10"",""86139""
""focus"",""11"",""94123""
""blur"",""11"",""95106""
""focus"",""11"",""114286""
","""event"",""trial"",""time""
""blur"",""10"",""86139""
""blur"",""11"",""95106""
","""event"",""trial"",""time""
""focus"",""11"",""94123""
""focus"",""11"",""114286""
","""event"",""trial"",""time""
""fullscreenenter"",""0"",""9150""
","
","1800.699999988079","","","","","","","","53","","","","266","probe-196","","","","","1","[object Object]","34","0","1","","","",""
"","html-keyboard-response","92","337408","0.0-55.0-1.0","""event"",""trial"",""time""
""fullscreenenter"",""0"",""9150""
""blur"",""10"",""86139""
""focus"",""11"",""94123""
""blur"",""11"",""95106""
""focus"",""11"",""114286""
","""event"",""trial"",""time""
""blur"",""10"",""86139""
""blur"",""11"",""95106""
","""event"",""trial"",""time""
""focus"",""11"",""94123""
""focus"",""11"",""114286""
","""event"",""trial"",""time""
""fullscreenenter"",""0"",""9150""
","
","null","<p></p>","null","","","","","","","","","","","","","","","","","","","","","","","",""
"","do_trial","93","340306","0.0-56.0-0.0","""event"",""trial"",""time""
""fullscreenenter"",""0"",""9150""
""blur"",""10"",""86139""
""focus"",""11"",""94123""
""blur"",""11"",""95106""
""focus"",""11"",""114286""
","""event"",""trial"",""time""
""blur"",""10"",""86139""
""blur"",""11"",""95106""
","""event"",""trial"",""time""
""focus"",""11"",""94123""
""focus"",""11"",""114286""
","""event"",""trial"",""time""
""fullscreenenter"",""0"",""9150""
","
","304.5999999642372","","","","","","","","49","0,0,1","6","blank","267","null","0.3252621612699362","0.39387294045255716","0.6951996953192494","0","","","","","","","","",""
"","html-keyboard-response","94","341311","0.0-56.0-1.0","""event"",""trial"",""time""
""fullscreenenter"",""0"",""9150""
""blur"",""10"",""86139""
""focus"",""11"",""94123""
""blur"",""11"",""95106""
""focus"",""11"",""114286""
","""event"",""trial"",""time""
""blur"",""10"",""86139""
""blur"",""11"",""95106""
","""event"",""trial"",""time""
""focus"",""11"",""94123""
""focus"",""11"",""114286""
","""event"",""trial"",""time""
""fullscreenenter"",""0"",""9150""
","
","null","<p></p>","null","","","","","","","","","","","","","","","","","","","","","","","",""
"","do_recog","95","344968","0.0-57.0-0.0","""event"",""trial"",""time""
""fullscreenenter"",""0"",""9150""
""blur"",""10"",""86139""
""focus"",""11"",""94123""
""blur"",""11"",""95106""
""focus"",""11"",""114286""
","""event"",""trial"",""time""
""blur"",""10"",""86139""
""blur"",""11"",""95106""
","""event"",""trial"",""time""
""focus"",""11"",""94123""
""focus"",""11"",""114286""
","""event"",""trial"",""time""
""fullscreenenter"",""0"",""9150""
","
","2141.7000000476837","","","","","","","","53","","","","268","probe-159","","","","","1","[object Object]","116","2","1","","","",""
"","html-keyboard-response","96","345981","0.0-57.0-1.0","""event"",""trial"",""time""
""fullscreenenter"",""0"",""9150""
""blur"",""10"",""86139""
""focus"",""11"",""94123""
""blur"",""11"",""95106""
""focus"",""11"",""114286""
","""event"",""trial"",""time""
""blur"",""10"",""86139""
""blur"",""11"",""95106""
","""event"",""trial"",""time""
""focus"",""11"",""94123""
""focus"",""11"",""114286""
","""event"",""trial"",""time""
""fullscreenenter"",""0"",""9150""
","
","null","<p></p>","null","","","","","","","","","","","","","","","","","","","","","","","",""
"","break","97","346770","0.0-58.0-0.0","""event"",""trial"",""time""
""fullscreenenter"",""0"",""9150""
""blur"",""10"",""86139""
""focus"",""11"",""94123""
""blur"",""11"",""95106""
""focus"",""11"",""114286""
","""event"",""trial"",""time""
""blur"",""10"",""86139""
""blur"",""11"",""95106""
","""event"",""trial"",""time""
""focus"",""11"",""94123""
""focus"",""11"",""114286""
","""event"",""trial"",""time""
""fullscreenenter"",""0"",""9150""
","
","786.1000000238419","<div class='center'><p>Time to take a quick break! You have 2 minutes to rest, but you can move on sooner if you'd like.</p><p> Press the <b>space bar</b> to continue.</p></div>","32","","","","","","","","","","","","","","","","","","","","","","","",""
"","do_trial","98","350014","0.0-58.0-1.0","""event"",""trial"",""time""
""fullscreenenter"",""0"",""9150""
""blur"",""10"",""86139""
""focus"",""11"",""94123""
""blur"",""11"",""95106""
""focus"",""11"",""114286""
","""event"",""trial"",""time""
""blur"",""10"",""86139""
""blur"",""11"",""95106""
","""event"",""trial"",""time""
""focus"",""11"",""94123""
""focus"",""11"",""114286""
","""event"",""trial"",""time""
""fullscreenenter"",""0"",""9150""
","
","665.6999999880791","","","","","","","","51","0,1,1","6","blank","269","null","0.08701557583960279","0.41381856195599626","0.7568755432882677","1","","","","","","","","",""
"","html-keyboard-response","99","351028","0.0-58.0-2.0","""event"",""trial"",""time""
""fullscreenenter"",""0"",""9150""
""blur"",""10"",""86139""
""focus"",""11"",""94123""
""blur"",""11"",""95106""
""focus"",""11"",""114286""
","""event"",""trial"",""time""
""blur"",""10"",""86139""
""blur"",""11"",""95106""
","""event"",""trial"",""time""
""focus"",""11"",""94123""
""focus"",""11"",""114286""
","""event"",""trial"",""time""
""fullscreenenter"",""0"",""9150""
","
","null","<p></p>","null","","","","","","","","","","","","","","","","","","","","","","","",""
"","do_recog","100","355071","0.0-59.0-0.0","""event"",""trial"",""time""
""fullscreenenter"",""0"",""9150""
""blur"",""10"",""86139""
""focus"",""11"",""94123""
""blur"",""11"",""95106""
""focus"",""11"",""114286""
","""event"",""trial"",""time""
""blur"",""10"",""86139""
""blur"",""11"",""95106""
","""event"",""trial"",""time""
""focus"",""11"",""94123""
""focus"",""11"",""114286""
","""event"",""trial"",""time""
""fullscreenenter"",""0"",""9150""
","
","2518.400000035763","","","","","","","","56","","","","270","probe-133","","","","","1","[object Object]","30","0","0","","","",""
"","html-keyboard-response","101","356081","0.0-59.0-1.0","""event"",""trial"",""time""
""fullscreenenter"",""0"",""9150""
""blur"",""10"",""86139""
""focus"",""11"",""94123""
""blur"",""11"",""95106""
""focus"",""11"",""114286""
","""event"",""trial"",""time""
""blur"",""10"",""86139""
""blur"",""11"",""95106""
","""event"",""trial"",""time""
""focus"",""11"",""94123""
""focus"",""11"",""114286""
","""event"",""trial"",""time""
""fullscreenenter"",""0"",""9150""
","
","null","<p></p>","null","","","","","","","","","","","","","","","","","","","","","","","",""
"","do_trial","102","358858","0.0-60.0-0.0","""event"",""trial"",""time""
""fullscreenenter"",""0"",""9150""
""blur"",""10"",""86139""
""focus"",""11"",""94123""
""blur"",""11"",""95106""
""focus"",""11"",""114286""
","""event"",""trial"",""time""
""blur"",""10"",""86139""
""blur"",""11"",""95106""
","""event"",""trial"",""time""
""focus"",""11"",""94123""
""focus"",""11"",""114286""
","""event"",""trial"",""time""
""fullscreenenter"",""0"",""9150""
","
","207.80000001192093","","","","","","","","51","0,1,1","6","blank","271","null","0.07782269456879695","0.4534416219730193","0.6435972467320655","1","","","","","","","","",""
"","html-keyboard-response","103","359875","0.0-60.0-1.0","""event"",""trial"",""time""
""fullscreenenter"",""0"",""9150""
""blur"",""10"",""86139""
""focus"",""11"",""94123""
""blur"",""11"",""95106""
""focus"",""11"",""114286""
","""event"",""trial"",""time""
""blur"",""10"",""86139""
""blur"",""11"",""95106""
","""event"",""trial"",""time""
""focus"",""11"",""94123""
""focus"",""11"",""114286""
","""event"",""trial"",""time""
""fullscreenenter"",""0"",""9150""
","
","null","<p></p>","null","","","","","","","","","","","","","","","","","","","","","","","",""
"","do_trial","104","362454","0.0-61.0-0.0","""event"",""trial"",""time""
""fullscreenenter"",""0"",""9150""
""blur"",""10"",""86139""
""focus"",""11"",""94123""
""blur"",""11"",""95106""
""focus"",""11"",""114286""
","""event"",""trial"",""time""
""blur"",""10"",""86139""
""blur"",""11"",""95106""
","""event"",""trial"",""time""
""focus"",""11"",""94123""
""focus"",""11"",""114286""
","""event"",""trial"",""time""
""fullscreenenter"",""0"",""9150""
","
","0.09999996423721313","","","","","","","","51","0,1,0","6","blank","272","null","0.1746484140426924","0.5210708586490166","0.44771643543415096","0","","","","","","","","",""
"","html-keyboard-response","105","363461","0.0-61.0-1.0","""event"",""trial"",""time""
""fullscreenenter"",""0"",""9150""
""blur"",""10"",""86139""
""focus"",""11"",""94123""
""blur"",""11"",""95106""
""focus"",""11"",""114286""
","""event"",""trial"",""time""
""blur"",""10"",""86139""
""blur"",""11"",""95106""
","""event"",""trial"",""time""
""focus"",""11"",""94123""
""focus"",""11"",""114286""
","""event"",""trial"",""time""
""fullscreenenter"",""0"",""9150""
","
","null","<p></p>","null","","","","","","","","","","","","","","","","","","","","","","","",""
"","do_trial","106","366243","0.0-62.0-0.0","""event"",""trial"",""time""
""fullscreenenter"",""0"",""9150""
""blur"",""10"",""86139""
""focus"",""11"",""94123""
""blur"",""11"",""95106""
""focus"",""11"",""114286""
","""event"",""trial"",""time""
""blur"",""10"",""86139""
""blur"",""11"",""95106""
","""event"",""trial"",""time""
""focus"",""11"",""94123""
""focus"",""11"",""114286""
","""event"",""trial"",""time""
""fullscreenenter"",""0"",""9150""
","
","206.39999997615814","","","","","","","","49","0,0,0","6","blank","273","null","0.17775652111942897","0.4803537115124509","0.5024781949055651","0","","","","","","","","",""
"","html-keyboard-response","107","367254","0.0-62.0-1.0","""event"",""trial"",""time""
""fullscreenenter"",""0"",""9150""
""blur"",""10"",""86139""
""focus"",""11"",""94123""
""blur"",""11"",""95106""
""focus"",""11"",""114286""
","""event"",""trial"",""time""
""blur"",""10"",""86139""
""blur"",""11"",""95106""
","""event"",""trial"",""time""
""focus"",""11"",""94123""
""focus"",""11"",""114286""
","""event"",""trial"",""time""
""fullscreenenter"",""0"",""9150""
","
","null","<p></p>","null","","","","","","","","","","","","","","","","","","","","","","","",""
"","do_recog","108","370549","0.0-63.0-0.0","""event"",""trial"",""time""
""fullscreenenter"",""0"",""9150""
""blur"",""10"",""86139""
""focus"",""11"",""94123""
""blur"",""11"",""95106""
""focus"",""11"",""114286""
","""event"",""trial"",""time""
""blur"",""10"",""86139""
""blur"",""11"",""95106""
","""event"",""trial"",""time""
""focus"",""11"",""94123""
""focus"",""11"",""114286""
","""event"",""trial"",""time""
""fullscreenenter"",""0"",""9150""
","
","1768.699999988079","","","","","","","","53","","","","274","probe-217","","","","","1","[object Object]","113","2","1","","","",""
"","html-keyboard-response","109","371564","0.0-63.0-1.0","""event"",""trial"",""time""
""fullscreenenter"",""0"",""9150""
""blur"",""10"",""86139""
""focus"",""11"",""94123""
""blur"",""11"",""95106""
""focus"",""11"",""114286""
","""event"",""trial"",""time""
""blur"",""10"",""86139""
""blur"",""11"",""95106""
","""event"",""trial"",""time""
""focus"",""11"",""94123""
""focus"",""11"",""114286""
","""event"",""trial"",""time""
""fullscreenenter"",""0"",""9150""
","
","null","<p></p>","null","","","","","","","","","","","","","","","","","","","","","","","",""
"","do_trial","110","374284","0.0-64.0-0.0","""event"",""trial"",""time""
""fullscreenenter"",""0"",""9150""
""blur"",""10"",""86139""
""focus"",""11"",""94123""
""blur"",""11"",""95106""
""focus"",""11"",""114286""
","""event"",""trial"",""time""
""blur"",""10"",""86139""
""blur"",""11"",""95106""
","""event"",""trial"",""time""
""focus"",""11"",""94123""
""focus"",""11"",""114286""
","""event"",""trial"",""time""
""fullscreenenter"",""0"",""9150""
","
","152.9000000357628","","","","","","","","51","0,0,1","6","blank","275","null","0.05877241460865532","0.38644877420569657","0.5312156668667906","1","","","","","","","","",""
"","html-keyboard-response","111","375293","0.0-64.0-1.0","""event"",""trial"",""time""
""fullscreenenter"",""0"",""9150""
""blur"",""10"",""86139""
""focus"",""11"",""94123""
""blur"",""11"",""95106""
""focus"",""11"",""114286""
","""event"",""trial"",""time""
""blur"",""10"",""86139""
""blur"",""11"",""95106""
","""event"",""trial"",""time""
""focus"",""11"",""94123""
""focus"",""11"",""114286""
","""event"",""trial"",""time""
""fullscreenenter"",""0"",""9150""
","
","null","<p></p>","null","","","","","","","","","","","","","","","","","","","","","","","",""
"","do_trial","112","377900","0.0-65.0-0.0","""event"",""trial"",""time""
""fullscreenenter"",""0"",""9150""
""blur"",""10"",""86139""
""focus"",""11"",""94123""
""blur"",""11"",""95106""
""focus"",""11"",""114286""
","""event"",""trial"",""time""
""blur"",""10"",""86139""
""blur"",""11"",""95106""
","""event"",""trial"",""time""
""focus"",""11"",""94123""
""focus"",""11"",""114286""
","""event"",""trial"",""time""
""fullscreenenter"",""0"",""9150""
","
","44.799999952316284","","","","","","","","51","0,1,0","6","blank","276","null","0.2380704561728434","0.3727828633341803","0.5250906252811796","0","","","","","","","","",""
"","html-keyboard-response","113","378907","0.0-65.0-1.0","""event"",""trial"",""time""
""fullscreenenter"",""0"",""9150""
""blur"",""10"",""86139""
""focus"",""11"",""94123""
""blur"",""11"",""95106""
""focus"",""11"",""114286""
","""event"",""trial"",""time""
""blur"",""10"",""86139""
""blur"",""11"",""95106""
","""event"",""trial"",""time""
""focus"",""11"",""94123""
""focus"",""11"",""114286""
","""event"",""trial"",""time""
""fullscreenenter"",""0"",""9150""
","
","null","<p></p>","null","","","","","","","","","","","","","","","","","","","","","","","",""
"","do_trial","114","381486","0.0-66.0-0.0","""event"",""trial"",""time""
""fullscreenenter"",""0"",""9150""
""blur"",""10"",""86139""
""focus"",""11"",""94123""
""blur"",""11"",""95106""
""focus"",""11"",""114286""
","""event"",""trial"",""time""
""blur"",""10"",""86139""
""blur"",""11"",""95106""
","""event"",""trial"",""time""
""focus"",""11"",""94123""
""focus"",""11"",""114286""
","""event"",""trial"",""time""
""fullscreenenter"",""0"",""9150""
","
","0.10000002384185791","","","","","","","","51","0,0,1","6","blank","277","null","0.198570273644656","0.4738237980445743","0.6339918276354658","1","","","","","","","","",""
"","html-keyboard-response","115","382492","0.0-66.0-1.0","""event"",""trial"",""time""
""fullscreenenter"",""0"",""9150""
""blur"",""10"",""86139""
""focus"",""11"",""94123""
""blur"",""11"",""95106""
""focus"",""11"",""114286""
","""event"",""trial"",""time""
""blur"",""10"",""86139""
""blur"",""11"",""95106""
","""event"",""trial"",""time""
""focus"",""11"",""94123""
""focus"",""11"",""114286""
","""event"",""trial"",""time""
""fullscreenenter"",""0"",""9150""
","
","null","<p></p>","null","","","","","","","","","","","","","","","","","","","","","","","",""
"","do_trial","116","385103","0.0-67.0-0.0","""event"",""trial"",""time""
""fullscreenenter"",""0"",""9150""
""blur"",""10"",""86139""
""focus"",""11"",""94123""
""blur"",""11"",""95106""
""focus"",""11"",""114286""
","""event"",""trial"",""time""
""blur"",""10"",""86139""
""blur"",""11"",""95106""
","""event"",""trial"",""time""
""focus"",""11"",""94123""
""focus"",""11"",""114286""
","""event"",""trial"",""time""
""fullscreenenter"",""0"",""9150""
","
","54.59999996423721","","","","","","","","51","0,1,0","6","blank","278","null","0.13086543008003207","0.5163843401199121","0.7109238743158797","0","","","","","","","","",""
"","html-keyboard-response","117","386115","0.0-67.0-1.0","""event"",""trial"",""time""
""fullscreenenter"",""0"",""9150""
""blur"",""10"",""86139""
""focus"",""11"",""94123""
""blur"",""11"",""95106""
""focus"",""11"",""114286""
","""event"",""trial"",""time""
""blur"",""10"",""86139""
""blur"",""11"",""95106""
","""event"",""trial"",""time""
""focus"",""11"",""94123""
""focus"",""11"",""114286""
","""event"",""trial"",""time""
""fullscreenenter"",""0"",""9150""
","
","null","<p></p>","null","","","","","","","","","","","","","","","","","","","","","","","",""
"","do_recog","118","389471","0.0-68.0-0.0","""event"",""trial"",""time""
""fullscreenenter"",""0"",""9150""
""blur"",""10"",""86139""
""focus"",""11"",""94123""
""blur"",""11"",""95106""
""focus"",""11"",""114286""
","""event"",""trial"",""time""
""blur"",""10"",""86139""
""blur"",""11"",""95106""
","""event"",""trial"",""time""
""focus"",""11"",""94123""
""focus"",""11"",""114286""
","""event"",""trial"",""time""
""fullscreenenter"",""0"",""9150""
","
","1840.6000000238419","","","","","","","","54","","","","279","probe-247","","","","","0","[object Object]","null","null","0","","","",""
"","html-keyboard-response","119","390477","0.0-68.0-1.0","""event"",""trial"",""time""
""fullscreenenter"",""0"",""9150""
""blur"",""10"",""86139""
""focus"",""11"",""94123""
""blur"",""11"",""95106""
""focus"",""11"",""114286""
","""event"",""trial"",""time""
""blur"",""10"",""86139""
""blur"",""11"",""95106""
","""event"",""trial"",""time""
""focus"",""11"",""94123""
""focus"",""11"",""114286""
","""event"",""trial"",""time""
""fullscreenenter"",""0"",""9150""
","
","null","<p></p>","null","","","","","","","","","","","","","","","","","","","","","","","",""
"","do_trial","120","393065","0.0-69.0-0.0","""event"",""trial"",""time""
""fullscreenenter"",""0"",""9150""
""blur"",""10"",""86139""
""focus"",""11"",""94123""
""blur"",""11"",""95106""
""focus"",""11"",""114286""
","""event"",""trial"",""time""
""blur"",""10"",""86139""
""blur"",""11"",""95106""
","""event"",""trial"",""time""
""focus"",""11"",""94123""
""focus"",""11"",""114286""
","""event"",""trial"",""time""
""fullscreenenter"",""0"",""9150""
","
","0.19999998807907104","","","","","","","","49","0,0,1","6","blank","280","null","0.14076569078965895","0.2896566431745333","0.7845989885407779","0","","","","","","","","",""
"","html-keyboard-response","121","394077","0.0-69.0-1.0","""event"",""trial"",""time""
""fullscreenenter"",""0"",""9150""
""blur"",""10"",""86139""
""focus"",""11"",""94123""
""blur"",""11"",""95106""
""focus"",""11"",""114286""
","""event"",""trial"",""time""
""blur"",""10"",""86139""
""blur"",""11"",""95106""
","""event"",""trial"",""time""
""focus"",""11"",""94123""
""focus"",""11"",""114286""
","""event"",""trial"",""time""
""fullscreenenter"",""0"",""9150""
","
","null","<p></p>","null","","","","","","","","","","","","","","","","","","","","","","","",""
"","do_recog","122","397414","0.0-70.0-0.0","""event"",""trial"",""time""
""fullscreenenter"",""0"",""9150""
""blur"",""10"",""86139""
""focus"",""11"",""94123""
""blur"",""11"",""95106""
""focus"",""11"",""114286""
","""event"",""trial"",""time""
""blur"",""10"",""86139""
""blur"",""11"",""95106""
","""event"",""trial"",""time""
""focus"",""11"",""94123""
""focus"",""11"",""114286""
","""event"",""trial"",""time""
""fullscreenenter"",""0"",""9150""
","
","1819","","","","","","","","53","","","","281","probe-18","","","","","1","[object Object]","199","4","1","","","",""
"","html-keyboard-response","123","398426","0.0-70.0-1.0","""event"",""trial"",""time""
""fullscreenenter"",""0"",""9150""
""blur"",""10"",""86139""
""focus"",""11"",""94123""
""blur"",""11"",""95106""
""focus"",""11"",""114286""
","""event"",""trial"",""time""
""blur"",""10"",""86139""
""blur"",""11"",""95106""
","""event"",""trial"",""time""
""focus"",""11"",""94123""
""focus"",""11"",""114286""
","""event"",""trial"",""time""
""fullscreenenter"",""0"",""9150""
","
","null","<p></p>","null","","","","","","","","","","","","","","","","","","","","","","","",""
"","do_trial","124","400996","0.0-71.0-0.0","""event"",""trial"",""time""
""fullscreenenter"",""0"",""9150""
""blur"",""10"",""86139""
""focus"",""11"",""94123""
""blur"",""11"",""95106""
""focus"",""11"",""114286""
","""event"",""trial"",""time""
""blur"",""10"",""86139""
""blur"",""11"",""95106""
","""event"",""trial"",""time""
""focus"",""11"",""94123""
""focus"",""11"",""114286""
","""event"",""trial"",""time""
""fullscreenenter"",""0"",""9150""
","
","0","","","","","","","","51","0,0,1","6","blank","282","null","0.12029840249039668","0.19411539875024544","0.6719523585668503","1","","","","","","","","",""
"","html-keyboard-response","125","402011","0.0-71.0-1.0","""event"",""trial"",""time""
""fullscreenenter"",""0"",""9150""
""blur"",""10"",""86139""
""focus"",""11"",""94123""
""blur"",""11"",""95106""
""focus"",""11"",""114286""
","""event"",""trial"",""time""
""blur"",""10"",""86139""
""blur"",""11"",""95106""
","""event"",""trial"",""time""
""focus"",""11"",""94123""
""focus"",""11"",""114286""
","""event"",""trial"",""time""
""fullscreenenter"",""0"",""9150""
","
","null","<p></p>","null","","","","","","","","","","","","","","","","","","","","","","","",""
"","do_trial","126","404632","0.0-72.0-0.0","""event"",""trial"",""time""
""fullscreenenter"",""0"",""9150""
""blur"",""10"",""86139""
""focus"",""11"",""94123""
""blur"",""11"",""95106""
""focus"",""11"",""114286""
","""event"",""trial"",""time""
""blur"",""10"",""86139""
""blur"",""11"",""95106""
","""event"",""trial"",""time""
""focus"",""11"",""94123""
""focus"",""11"",""114286""
","""event"",""trial"",""time""
""fullscreenenter"",""0"",""9150""
","
","42.80000001192093","","","","","","","","51","0,1,1","6","blank","283","null","0.1177517573789936","0.19455792621063236","0.6378933564184945","1","","","","","","","","",""
"","html-keyboard-response","127","405643","0.0-72.0-1.0","""event"",""trial"",""time""
""fullscreenenter"",""0"",""9150""
""blur"",""10"",""86139""
""focus"",""11"",""94123""
""blur"",""11"",""95106""
""focus"",""11"",""114286""
","""event"",""trial"",""time""
""blur"",""10"",""86139""
""blur"",""11"",""95106""
","""event"",""trial"",""time""
""focus"",""11"",""94123""
""focus"",""11"",""114286""
","""event"",""trial"",""time""
""fullscreenenter"",""0"",""9150""
","
","null","<p></p>","null","","","","","","","","","","","","","","","","","","","","","","","",""
"","do_trial","128","408232","0.0-73.0-0.0","""event"",""trial"",""time""
""fullscreenenter"",""0"",""9150""
""blur"",""10"",""86139""
""focus"",""11"",""94123""
""blur"",""11"",""95106""
""focus"",""11"",""114286""
","""event"",""trial"",""time""
""blur"",""10"",""86139""
""blur"",""11"",""95106""
","""event"",""trial"",""time""
""focus"",""11"",""94123""
""focus"",""11"",""114286""
","""event"",""trial"",""time""
""fullscreenenter"",""0"",""9150""
","
","7.699999988079071","","","","","","","","51","0,1,1","6","blank","284","null","0.09963690064959507","0.2355937119740001","0.6814101870934635","1","","","","","","","","",""
"","html-keyboard-response","129","409244","0.0-73.0-1.0","""event"",""trial"",""time""
""fullscreenenter"",""0"",""9150""
""blur"",""10"",""86139""
""focus"",""11"",""94123""
""blur"",""11"",""95106""
""focus"",""11"",""114286""
","""event"",""trial"",""time""
""blur"",""10"",""86139""
""blur"",""11"",""95106""
","""event"",""trial"",""time""
""focus"",""11"",""94123""
""focus"",""11"",""114286""
","""event"",""trial"",""time""
""fullscreenenter"",""0"",""9150""
","
","null","<p></p>","null","","","","","","","","","","","","","","","","","","","","","","","",""
"","do_trial","130","411866","0.0-74.0-0.0","""event"",""trial"",""time""
""fullscreenenter"",""0"",""9150""
""blur"",""10"",""86139""
""focus"",""11"",""94123""
""blur"",""11"",""95106""
""focus"",""11"",""114286""
","""event"",""trial"",""time""
""blur"",""10"",""86139""
""blur"",""11"",""95106""
","""event"",""trial"",""time""
""focus"",""11"",""94123""
""focus"",""11"",""114286""
","""event"",""trial"",""time""
""fullscreenenter"",""0"",""9150""
","
","30","","","","","","","","51","1,1,0","6","blank","285","null","0.05758105319531474","0.25634832150389786","0.7282979906711","0","","","","","","","","",""
"","html-keyboard-response","131","412884","0.0-74.0-1.0","""event"",""trial"",""time""
""fullscreenenter"",""0"",""9150""
""blur"",""10"",""86139""
""focus"",""11"",""94123""
""blur"",""11"",""95106""
""focus"",""11"",""114286""
","""event"",""trial"",""time""
""blur"",""10"",""86139""
""blur"",""11"",""95106""
","""event"",""trial"",""time""
""focus"",""11"",""94123""
""focus"",""11"",""114286""
","""event"",""trial"",""time""
""fullscreenenter"",""0"",""9150""
","
","null","<p></p>","null","","","","","","","","","","","","","","","","","","","","","","","",""
"","do_recog","132","415940","0.0-75.0-0.0","""event"",""trial"",""time""
""fullscreenenter"",""0"",""9150""
""blur"",""10"",""86139""
""focus"",""11"",""94123""
""blur"",""11"",""95106""
""focus"",""11"",""114286""
","""event"",""trial"",""time""
""blur"",""10"",""86139""
""blur"",""11"",""95106""
","""event"",""trial"",""time""
""focus"",""11"",""94123""
""focus"",""11"",""114286""
","""event"",""trial"",""time""
""fullscreenenter"",""0"",""9150""
","
","1535.3999999761581","","","","","","","","53","","","","286","probe-172","","","","","1","[object Object]","79","1","1","","","",""
"","html-keyboard-response","133","416949","0.0-75.0-1.0","""event"",""trial"",""time""
""fullscreenenter"",""0"",""9150""
""blur"",""10"",""86139""
""focus"",""11"",""94123""
""blur"",""11"",""95106""
""focus"",""11"",""114286""
","""event"",""trial"",""time""
""blur"",""10"",""86139""
""blur"",""11"",""95106""
","""event"",""trial"",""time""
""focus"",""11"",""94123""
""focus"",""11"",""114286""
","""event"",""trial"",""time""
""fullscreenenter"",""0"",""9150""
","
","null","<p></p>","null","","","","","","","","","","","","","","","","","","","","","","","",""
"","do_trial","134","419898","0.0-76.0-0.0","""event"",""trial"",""time""
""fullscreenenter"",""0"",""9150""
""blur"",""10"",""86139""
""focus"",""11"",""94123""
""blur"",""11"",""95106""
""focus"",""11"",""114286""
","""event"",""trial"",""time""
""blur"",""10"",""86139""
""blur"",""11"",""95106""
","""event"",""trial"",""time""
""focus"",""11"",""94123""
""focus"",""11"",""114286""
","""event"",""trial"",""time""
""fullscreenenter"",""0"",""9150""
","
","369.60000002384186","","","","","","","","51","0,1,1","6","blank","287","null","0.07427235452358398","0.4009699635229164","0.719975389817343","1","","","","","","","","",""
"","html-keyboard-response","135","420901","0.0-76.0-1.0","""event"",""trial"",""time""
""fullscreenenter"",""0"",""9150""
""blur"",""10"",""86139""
""focus"",""11"",""94123""
""blur"",""11"",""95106""
""focus"",""11"",""114286""
","""event"",""trial"",""time""
""blur"",""10"",""86139""
""blur"",""11"",""95106""
","""event"",""trial"",""time""
""focus"",""11"",""94123""
""focus"",""11"",""114286""
","""event"",""trial"",""time""
""fullscreenenter"",""0"",""9150""
","
","null","<p></p>","null","","","","","","","","","","","","","","","","","","","","","","","",""
"","do_trial","136","423888","0.0-77.0-0.0","""event"",""trial"",""time""
""fullscreenenter"",""0"",""9150""
""blur"",""10"",""86139""
""focus"",""11"",""94123""
""blur"",""11"",""95106""
""focus"",""11"",""114286""
","""event"",""trial"",""time""
""blur"",""10"",""86139""
""blur"",""11"",""95106""
","""event"",""trial"",""time""
""focus"",""11"",""94123""
""focus"",""11"",""114286""
","""event"",""trial"",""time""
""fullscreenenter"",""0"",""9150""
","
","423.5999999642372","","","","","","","","51","0,1,0","6","blank","288","null","0.07477256122746476","0.35167252706845176","0.7121385893413944","0","","","","","","","","",""
"","html-keyboard-response","137","424905","0.0-77.0-1.0","""event"",""trial"",""time""
""fullscreenenter"",""0"",""9150""
""blur"",""10"",""86139""
""focus"",""11"",""94123""
""blur"",""11"",""95106""
""focus"",""11"",""114286""
","""event"",""trial"",""time""
""blur"",""10"",""86139""
""blur"",""11"",""95106""
","""event"",""trial"",""time""
""focus"",""11"",""94123""
""focus"",""11"",""114286""
","""event"",""trial"",""time""
""fullscreenenter"",""0"",""9150""
","
","null","<p></p>","null","","","","","","","","","","","","","","","","","","","","","","","",""
"","do_trial","138","427717","0.0-78.0-0.0","""event"",""trial"",""time""
""fullscreenenter"",""0"",""9150""
""blur"",""10"",""86139""
""focus"",""11"",""94123""
""blur"",""11"",""95106""
""focus"",""11"",""114286""
","""event"",""trial"",""time""
""blur"",""10"",""86139""
""blur"",""11"",""95106""
","""event"",""trial"",""time""
""focus"",""11"",""94123""
""focus"",""11"",""114286""
","""event"",""trial"",""time""
""fullscreenenter"",""0"",""9150""
","
","215.69999998807907","","","","","","","","51","1,0,1","6","blank","289","null","0.16501616680633763","0.3435320568551047","0.6307131232832138","1","","","","","","","","",""
"","html-keyboard-response","139","428726","0.0-78.0-1.0","""event"",""trial"",""time""
""fullscreenenter"",""0"",""9150""
""blur"",""10"",""86139""
""focus"",""11"",""94123""
""blur"",""11"",""95106""
""focus"",""11"",""114286""
","""event"",""trial"",""time""
""blur"",""10"",""86139""
""blur"",""11"",""95106""
","""event"",""trial"",""time""
""focus"",""11"",""94123""
""focus"",""11"",""114286""
","""event"",""trial"",""time""
""fullscreenenter"",""0"",""9150""
","
","null","<p></p>","null","","","","","","","","","","","","","","","","","","","","","","","",""
"","do_trial","140","431341","0.0-79.0-0.0","""event"",""trial"",""time""
""fullscreenenter"",""0"",""9150""
""blur"",""10"",""86139""
""focus"",""11"",""94123""
""blur"",""11"",""95106""
""focus"",""11"",""114286""
","""event"",""trial"",""time""
""blur"",""10"",""86139""
""blur"",""11"",""95106""
","""event"",""trial"",""time""
""focus"",""11"",""94123""
""focus"",""11"",""114286""
","""event"",""trial"",""time""
""fullscreenenter"",""0"",""9150""
","
","37.10000002384186","","","","","","","","51","0,1,1","6","blank","290","null","0.2616963918955328","0.2672826420037778","0.5403402523973211","1","","","","","","","","",""
"","html-keyboard-response","141","432344","0.0-79.0-1.0","""event"",""trial"",""time""
""fullscreenenter"",""0"",""9150""
""blur"",""10"",""86139""
""focus"",""11"",""94123""
""blur"",""11"",""95106""
""focus"",""11"",""114286""
","""event"",""trial"",""time""
""blur"",""10"",""86139""
""blur"",""11"",""95106""
","""event"",""trial"",""time""
""focus"",""11"",""94123""
""focus"",""11"",""114286""
","""event"",""trial"",""time""
""fullscreenenter"",""0"",""9150""
","
","null","<p></p>","null","","","","","","","","","","","","","","","","","","","","","","","",""
"","do_trial","142","434927","0.0-80.0-0.0","""event"",""trial"",""time""
""fullscreenenter"",""0"",""9150""
""blur"",""10"",""86139""
""focus"",""11"",""94123""
""blur"",""11"",""95106""
""focus"",""11"",""114286""
","""event"",""trial"",""time""
""blur"",""10"",""86139""
""blur"",""11"",""95106""
","""event"",""trial"",""time""
""focus"",""11"",""94123""
""focus"",""11"",""114286""
","""event"",""trial"",""time""
""fullscreenenter"",""0"",""9150""
","
","0","","","","","","","","51","0,1,0","6","blank","291","null","0.05359329126579187","0.2198870621089699","0.4433691744422436","0","","","","","","","","",""
"","html-keyboard-response","143","435936","0.0-80.0-1.0","""event"",""trial"",""time""
""fullscreenenter"",""0"",""9150""
""blur"",""10"",""86139""
""focus"",""11"",""94123""
""blur"",""11"",""95106""
""focus"",""11"",""114286""
","""event"",""trial"",""time""
""blur"",""10"",""86139""
""blur"",""11"",""95106""
","""event"",""trial"",""time""
""focus"",""11"",""94123""
""focus"",""11"",""114286""
","""event"",""trial"",""time""
""fullscreenenter"",""0"",""9150""
","
","null","<p></p>","null","","","","","","","","","","","","","","","","","","","","","","","",""
"","do_trial","144","438551","0.0-81.0-0.0","""event"",""trial"",""time""
""fullscreenenter"",""0"",""9150""
""blur"",""10"",""86139""
""focus"",""11"",""94123""
""blur"",""11"",""95106""
""focus"",""11"",""114286""
","""event"",""trial"",""time""
""blur"",""10"",""86139""
""blur"",""11"",""95106""
","""event"",""trial"",""time""
""focus"",""11"",""94123""
""focus"",""11"",""114286""
","""event"",""trial"",""time""
""fullscreenenter"",""0"",""9150""
","
","35.69999998807907","","","","","","","","51","0,0,1","6","blank","292","null","0.06745222887562705","0.37552947603646614","0.3785296232826104","1","","","","","","","","",""
"","html-keyboard-response","145","439559","0.0-81.0-1.0","""event"",""trial"",""time""
""fullscreenenter"",""0"",""9150""
""blur"",""10"",""86139""
""focus"",""11"",""94123""
""blur"",""11"",""95106""
""focus"",""11"",""114286""
","""event"",""trial"",""time""
""blur"",""10"",""86139""
""blur"",""11"",""95106""
","""event"",""trial"",""time""
""focus"",""11"",""94123""
""focus"",""11"",""114286""
","""event"",""trial"",""time""
""fullscreenenter"",""0"",""9150""
","
","null","<p></p>","null","","","","","","","","","","","","","","","","","","","","","","","",""
"","do_trial","146","443532","0.0-82.0-0.0","""event"",""trial"",""time""
""fullscreenenter"",""0"",""9150""
""blur"",""10"",""86139""
""focus"",""11"",""94123""
""blur"",""11"",""95106""
""focus"",""11"",""114286""
","""event"",""trial"",""time""
""blur"",""10"",""86139""
""blur"",""11"",""95106""
","""event"",""trial"",""time""
""focus"",""11"",""94123""
""focus"",""11"",""114286""
","""event"",""trial"",""time""
""fullscreenenter"",""0"",""9150""
","
","1400.800000011921","","","","","","","","51","0,0,0","6","blank","293","null","0.05932421333065917","0.35571690232553127","0.26106003087710183","0","","","","","","","","",""
"","html-keyboard-response","147","444542","0.0-82.0-1.0","""event"",""trial"",""time""
""fullscreenenter"",""0"",""9150""
""blur"",""10"",""86139""
""focus"",""11"",""94123""
""blur"",""11"",""95106""
""focus"",""11"",""114286""
","""event"",""trial"",""time""
""blur"",""10"",""86139""
""blur"",""11"",""95106""
","""event"",""trial"",""time""
""focus"",""11"",""94123""
""focus"",""11"",""114286""
","""event"",""trial"",""time""
""fullscreenenter"",""0"",""9150""
","
","null","<p></p>","null","","","","","","","","","","","","","","","","","","","","","","","",""
"","do_recog","148","448000","0.0-83.0-0.0","""event"",""trial"",""time""
""fullscreenenter"",""0"",""9150""
""blur"",""10"",""86139""
""focus"",""11"",""94123""
""blur"",""11"",""95106""
""focus"",""11"",""114286""
","""event"",""trial"",""time""
""blur"",""10"",""86139""
""blur"",""11"",""95106""
","""event"",""trial"",""time""
""focus"",""11"",""94123""
""focus"",""11"",""114286""
","""event"",""trial"",""time""
""fullscreenenter"",""0"",""9150""
","
","1942.5","","","","","","","","53","","","","294","probe-141","","","","","1","[object Object]","115","2","1","","","",""
"","html-keyboard-response","149","449010","0.0-83.0-1.0","""event"",""trial"",""time""
""fullscreenenter"",""0"",""9150""
""blur"",""10"",""86139""
""focus"",""11"",""94123""
""blur"",""11"",""95106""
""focus"",""11"",""114286""
","""event"",""trial"",""time""
""blur"",""10"",""86139""
""blur"",""11"",""95106""
","""event"",""trial"",""time""
""focus"",""11"",""94123""
""focus"",""11"",""114286""
","""event"",""trial"",""time""
""fullscreenenter"",""0"",""9150""
","
","null","<p></p>","null","","","","","","","","","","","","","","","","","","","","","","","",""
"","do_trial","150","452511","0.0-84.0-0.0","""event"",""trial"",""time""
""fullscreenenter"",""0"",""9150""
""blur"",""10"",""86139""
""focus"",""11"",""94123""
""blur"",""11"",""95106""
""focus"",""11"",""114286""
","""event"",""trial"",""time""
""blur"",""10"",""86139""
""blur"",""11"",""95106""
","""event"",""trial"",""time""
""focus"",""11"",""94123""
""focus"",""11"",""114286""
","""event"",""trial"",""time""
""fullscreenenter"",""0"",""9150""
","
","921.1000000238419","","","","","","","","51","0,1,0","6","blank","295","null","0.17916955163129444","0.5701893149887941","0.31381388366474294","0","","","","","","","","",""
"","html-keyboard-response","151","453522","0.0-84.0-1.0","""event"",""trial"",""time""
""fullscreenenter"",""0"",""9150""
""blur"",""10"",""86139""
""focus"",""11"",""94123""
""blur"",""11"",""95106""
""focus"",""11"",""114286""
","""event"",""trial"",""time""
""blur"",""10"",""86139""
""blur"",""11"",""95106""
","""event"",""trial"",""time""
""focus"",""11"",""94123""
""focus"",""11"",""114286""
","""event"",""trial"",""time""
""fullscreenenter"",""0"",""9150""
","
","null","<p></p>","null","","","","","","","","","","","","","","","","","","","","","","","",""
"","do_recog","152","457198","0.0-85.0-0.0","""event"",""trial"",""time""
""fullscreenenter"",""0"",""9150""
""blur"",""10"",""86139""
""focus"",""11"",""94123""
""blur"",""11"",""95106""
""focus"",""11"",""114286""
","""event"",""trial"",""time""
""blur"",""10"",""86139""
""blur"",""11"",""95106""
","""event"",""trial"",""time""
""focus"",""11"",""94123""
""focus"",""11"",""114286""
","""event"",""trial"",""time""
""fullscreenenter"",""0"",""9150""
","
","2156.899999976158","","","","","","","","56","","","","296","probe-231","","","","","0","[object Object]","null","null","1","","","",""
"","html-keyboard-response","153","458211","0.0-85.0-1.0","""event"",""trial"",""time""
""fullscreenenter"",""0"",""9150""
""blur"",""10"",""86139""
""focus"",""11"",""94123""
""blur"",""11"",""95106""
""focus"",""11"",""114286""
","""event"",""trial"",""time""
""blur"",""10"",""86139""
""blur"",""11"",""95106""
","""event"",""trial"",""time""
""focus"",""11"",""94123""
""focus"",""11"",""114286""
","""event"",""trial"",""time""
""fullscreenenter"",""0"",""9150""
","
","null","<p></p>","null","","","","","","","","","","","","","","","","","","","","","","","",""
"","do_trial","154","461352","0.0-86.0-0.0","""event"",""trial"",""time""
""fullscreenenter"",""0"",""9150""
""blur"",""10"",""86139""
""focus"",""11"",""94123""
""blur"",""11"",""95106""
""focus"",""11"",""114286""
","""event"",""trial"",""time""
""blur"",""10"",""86139""
""blur"",""11"",""95106""
","""event"",""trial"",""time""
""focus"",""11"",""94123""
""focus"",""11"",""114286""
","""event"",""trial"",""time""
""fullscreenenter"",""0"",""9150""
","
","569.5","","","","","","","","51","0,0,0","6","blank","297","null","0.1365888080003364","0.5220895883562986","0.22854816383453574","0","","","","","","","","",""
"","html-keyboard-response","155","462360","0.0-86.0-1.0","""event"",""trial"",""time""
""fullscreenenter"",""0"",""9150""
""blur"",""10"",""86139""
""focus"",""11"",""94123""
""blur"",""11"",""95106""
""focus"",""11"",""114286""
","""event"",""trial"",""time""
""blur"",""10"",""86139""
""blur"",""11"",""95106""
","""event"",""trial"",""time""
""focus"",""11"",""94123""
""focus"",""11"",""114286""
","""event"",""trial"",""time""
""fullscreenenter"",""0"",""9150""
","
","null","<p></p>","null","","","","","","","","","","","","","","","","","","","","","","","",""
"","do_trial","156","465277","0.0-87.0-0.0","""event"",""trial"",""time""
""fullscreenenter"",""0"",""9150""
""blur"",""10"",""86139""
""focus"",""11"",""94123""
""blur"",""11"",""95106""
""focus"",""11"",""114286""
","""event"",""trial"",""time""
""blur"",""10"",""86139""
""blur"",""11"",""95106""
