"success","trial_type","trial_index","time_elapsed","internal_node_id","interactions","blur_events","focus_events","fullscreenenter_events","fullscreenexit_events","rt","stimulus","key_press","subject_id","participant_id","age","gender","prompt","response","choice_outcomes","context_n","context_img_id","trial_n","probe_img_id","pR_red","pR_white","pR_black","outcome","is_valid","image_to_show","probed_trial","probed_context","correct","probe","probed_trial_n","probed_context_n","context_im"
"true","fullscreen","0","5520","0.0-0.0","""event"",""trial"",""time""
""focus"",""0"",""2299""
""fullscreenenter"",""0"",""4672""
","
","""event"",""trial"",""time""
""focus"",""0"",""2299""
","""event"",""trial"",""time""
""fullscreenenter"",""0"",""4672""
","
","","","","","","","","","","","","","","","","","","","","","","","","","","",""
"","pavlovia","1","5528","0.0-1.0","""event"",""trial"",""time""
""focus"",""0"",""2299""
""fullscreenenter"",""0"",""4672""
""blur"",""2"",""13310""
","""event"",""trial"",""time""
""blur"",""2"",""13310""
","""event"",""trial"",""time""
""focus"",""0"",""2299""
","""event"",""trial"",""time""
""fullscreenenter"",""0"",""4672""
","
","","","","","","","","","","","","","","","","","","","","","","","","","","",""
"","welc_back","2","16005","0.0-2.0","""event"",""trial"",""time""
""focus"",""0"",""2299""
""fullscreenenter"",""0"",""4672""
""blur"",""2"",""13310""
""focus"",""3"",""18892""
","""event"",""trial"",""time""
""blur"",""2"",""13310""
","""event"",""trial"",""time""
""focus"",""0"",""2299""
""focus"",""3"",""18892""
","""event"",""trial"",""time""
""fullscreenenter"",""0"",""4672""
","
","null","run_exp/static/audio/clip_29_welcome_back.m4a","null","426","423","20","Female","<div class='center'><p>Welcome to day 2!</p><p> Yesterday, you were the head captain of a pirate ship. You asked your fellow pirates to rob other ships of their gold across six different islands.</p></div>","","","","","","","","","","","","","","","","","","",""
"","html-keyboard-response","3","19357","0.0-3.0","""event"",""trial"",""time""
""focus"",""0"",""2299""
""fullscreenenter"",""0"",""4672""
""blur"",""2"",""13310""
""focus"",""3"",""18892""
""blur"",""4"",""27548""
","""event"",""trial"",""time""
""blur"",""2"",""13310""
""blur"",""4"",""27548""
","""event"",""trial"",""time""
""focus"",""0"",""2299""
""focus"",""3"",""18892""
","""event"",""trial"",""time""
""fullscreenenter"",""0"",""4672""
","
","3327.2999999523163","<div class='center'><p>Welcome to day 2!</p><p> Yesterday, you were the head captain of a pirate ship. You asked your fellow pirates to rob other ships of their gold across six different islands.</p><p><b>[Press the space bar to continue]</b></p></div>","32","","","","","","","","","","","","","","","","","","","","","","","",""
"","day_1_summary_goal","4","36761","0.0-4.0","""event"",""trial"",""time""
""focus"",""0"",""2299""
""fullscreenenter"",""0"",""4672""
""blur"",""2"",""13310""
""focus"",""3"",""18892""
""blur"",""4"",""27548""
""focus"",""5"",""45811""
","""event"",""trial"",""time""
""blur"",""2"",""13310""
""blur"",""4"",""27548""
","""event"",""trial"",""time""
""focus"",""0"",""2299""
""focus"",""3"",""18892""
""focus"",""5"",""45811""
","""event"",""trial"",""time""
""fullscreenenter"",""0"",""4672""
","
","null","run_exp/static/audio/clip_30_goal_of_game.m4a","null","","","","","<div class='center'><p>Today, like yesterday, you get to pick which pirate you want to rob the next ship.</p><p>If the pirate is successful in robbing a ship, you get gold coins that look like this: </p><p><img src='run_exp/static/images/tutorial/reward.png' height='150'></p><p> If they were not successful in robbing the ship, then you will get no gold coins and you'll see a big red x like this: </p><p><img src='run_exp/static/images/tutorial/reward_no.png' height='150'></p></div>","","","","","","","","","","","","","","","","","","",""
"","html-keyboard-response","5","46496","0.0-5.0","""event"",""trial"",""time""
""focus"",""0"",""2299""
""fullscreenenter"",""0"",""4672""
""blur"",""2"",""13310""
""focus"",""3"",""18892""
""blur"",""4"",""27548""
""focus"",""5"",""45811""
""blur"",""6"",""52854""
","""event"",""trial"",""time""
""blur"",""2"",""13310""
""blur"",""4"",""27548""
""blur"",""6"",""52854""
","""event"",""trial"",""time""
""focus"",""0"",""2299""
""focus"",""3"",""18892""
""focus"",""5"",""45811""
","""event"",""trial"",""time""
""fullscreenenter"",""0"",""4672""
","
","9734","<div class='center'><p>Today, like yesterday, you get to pick which pirate you want to rob the next ship.</p><p>If the pirate is successful in robbing a ship, you get gold coins that look like this: </p><p><img src='run_exp/static/images/tutorial/reward.png' height='150'></p><p> If they were not successful in robbing the ship, then you will get no gold coins and you'll see a big red x like this: </p><p><img src='run_exp/static/images/tutorial/reward_no.png' height='150'></p><p><b>[Press the space bar to continue]</b></p></div>","32","","","","","","","","","","","","","","","","","","","","","","","",""
"","day_1_summary_pick","6","61379","0.0-6.0","""event"",""trial"",""time""
""focus"",""0"",""2299""
""fullscreenenter"",""0"",""4672""
""blur"",""2"",""13310""
""focus"",""3"",""18892""
""blur"",""4"",""27548""
""focus"",""5"",""45811""
""blur"",""6"",""52854""
""focus"",""7"",""67540""
","""event"",""trial"",""time""
""blur"",""2"",""13310""
""blur"",""4"",""27548""
""blur"",""6"",""52854""
","""event"",""trial"",""time""
""focus"",""0"",""2299""
""focus"",""3"",""18892""
""focus"",""5"",""45811""
""focus"",""7"",""67540""
","""event"",""trial"",""time""
""fullscreenenter"",""0"",""4672""
","
","null","run_exp/static/audio/clip_31_how_to_pick_a_pirate.m4a","null","","","","","<div class='center'><p>Also, just like yesterday, you will use the 1,2,3 keys on your keyboard to pick a pirate. Press '1' to choose red beard, '2' to choose white beard, and '3' to choose black beard . You only have 3 seconds to pick a pirate, so please make a choice quickly!</p></div>","","","","","","","","","","","","","","","","","","",""
"","html-keyboard-response","7","68341","0.0-7.0","""event"",""trial"",""time""
""focus"",""0"",""2299""
""fullscreenenter"",""0"",""4672""
""blur"",""2"",""13310""
""focus"",""3"",""18892""
""blur"",""4"",""27548""
""focus"",""5"",""45811""
""blur"",""6"",""52854""
""focus"",""7"",""67540""
","""event"",""trial"",""time""
""blur"",""2"",""13310""
""blur"",""4"",""27548""
""blur"",""6"",""52854""
","""event"",""trial"",""time""
""focus"",""0"",""2299""
""focus"",""3"",""18892""
""focus"",""5"",""45811""
""focus"",""7"",""67540""
","""event"",""trial"",""time""
""fullscreenenter"",""0"",""4672""
","
","6961","<div class='center'><p>Also, just like yesterday, you will use the 1,2,3 keys on your keyboard to pick a pirate. Press '1' to choose red beard, '2' to choose white beard, and '3' to choose black beard . You only have 3 seconds to pick a pirate, so please make a choice quickly!</p><p><b>[Press the space bar to continue]</b></p></div>","32","","","","","","","","","","","","","","","","","","","","","","","",""
"","test_phase_begin","8","98946","0.0-8.0","""event"",""trial"",""time""
""focus"",""0"",""2299""
""fullscreenenter"",""0"",""4672""
""blur"",""2"",""13310""
""focus"",""3"",""18892""
""blur"",""4"",""27548""
""focus"",""5"",""45811""
""blur"",""6"",""52854""
""focus"",""7"",""67540""
","""event"",""trial"",""time""
""blur"",""2"",""13310""
""blur"",""4"",""27548""
""blur"",""6"",""52854""
","""event"",""trial"",""time""
""focus"",""0"",""2299""
""focus"",""3"",""18892""
""focus"",""5"",""45811""
""focus"",""7"",""67540""
","""event"",""trial"",""time""
""fullscreenenter"",""0"",""4672""
","
","null","run_exp/static/audio/clip_32_final_place.m4a","null","","","","","<div class='center'><p>You’ve arrived at the final island of your journey! Unfortunately, it’s very foggy out, so you won’t be able to see it in the distance like the other islands you've visited.</p><p>You’ll still be deciding which pirate you want to rob a ship like before. However, because of the fog, you also won’t be able to see the ship.</p><p>This means you do not have to remember the ships you rob on this island.</p><p>Unlike yesterday, you won't be visiting multiple islands today. You will stay on this island for the entire game. This game will last ~30 minutes.</p></div>","","","","","","","","","","","","","","","","","","",""
"","html-keyboard-response","9","99766","0.0-9.0","""event"",""trial"",""time""
""focus"",""0"",""2299""
""fullscreenenter"",""0"",""4672""
""blur"",""2"",""13310""
""focus"",""3"",""18892""
""blur"",""4"",""27548""
""focus"",""5"",""45811""
""blur"",""6"",""52854""
""focus"",""7"",""67540""
","""event"",""trial"",""time""
""blur"",""2"",""13310""
""blur"",""4"",""27548""
""blur"",""6"",""52854""
","""event"",""trial"",""time""
""focus"",""0"",""2299""
""focus"",""3"",""18892""
""focus"",""5"",""45811""
""focus"",""7"",""67540""
","""event"",""trial"",""time""
""fullscreenenter"",""0"",""4672""
","
","817.2000000476837","<div class='center'><p>You’ve arrived at the final island of your journey! Unfortunately, it’s very foggy out, so you won’t be able to see it in the distance like the other islands you've visited.</p><p>You’ll still be deciding which pirate you want to rob a ship like before. However, because of the fog, you also won’t be able to see the ship.</p><p>This means you do not have to remember the ships you rob on this island.</p><p>Unlike yesterday, you won't be visiting multiple islands today. You will stay on this island for the entire game. This game will last ~30 minutes.</p><p><b>[Press the space bar to continue]</b></p></div>","32","","","","","","","","","","","","","","","","","","","","","","","",""
"","explain_probe_1","10","107693","0.0-10.0","""event"",""trial"",""time""
""focus"",""0"",""2299""
""fullscreenenter"",""0"",""4672""
""blur"",""2"",""13310""
""focus"",""3"",""18892""
""blur"",""4"",""27548""
""focus"",""5"",""45811""
""blur"",""6"",""52854""
""focus"",""7"",""67540""
","""event"",""trial"",""time""
""blur"",""2"",""13310""
""blur"",""4"",""27548""
""blur"",""6"",""52854""
","""event"",""trial"",""time""
""focus"",""0"",""2299""
""focus"",""3"",""18892""
""focus"",""5"",""45811""
""focus"",""7"",""67540""
","""event"",""trial"",""time""
""fullscreenenter"",""0"",""4672""
","
","null","run_exp/static/audio/clip_33_recognition_1.m4a","null","","","","","<div class='center'><p> Sometimes you’ll be shown a ship, and you will be asked if you saw this ship on a past island.</p><p> Here is an example of what you will see.</p><p><img src='run_exp/static/images/tutorial/example_recog_trial.png' height='500'></p></div>","","","","","","","","","","","","","","","","","","",""
"","html-keyboard-response","11","109416","0.0-11.0","""event"",""trial"",""time""
""focus"",""0"",""2299""
""fullscreenenter"",""0"",""4672""
""blur"",""2"",""13310""
""focus"",""3"",""18892""
""blur"",""4"",""27548""
""focus"",""5"",""45811""
""blur"",""6"",""52854""
""focus"",""7"",""67540""
""blur"",""12"",""112264""
","""event"",""trial"",""time""
""blur"",""2"",""13310""
""blur"",""4"",""27548""
""blur"",""6"",""52854""
""blur"",""12"",""112264""
","""event"",""trial"",""time""
""focus"",""0"",""2299""
""focus"",""3"",""18892""
""focus"",""5"",""45811""
""focus"",""7"",""67540""
","""event"",""trial"",""time""
""fullscreenenter"",""0"",""4672""
","
","1719.9000000953674","<div class='center'><p> Sometimes you’ll be shown a ship, and you will be asked if you saw this ship on a past island.</p><p> Here is an example of what you will see.</p><p><img src='run_exp/static/images/tutorial/example_recog_trial.png' height='500'></p><p><b>[Press the space bar to continue]</b></p></div>","32","","","","","","","","","","","","","","","","","","","","","","","",""
"","explain_probe_2","12","131308","0.0-12.0","""event"",""trial"",""time""
""focus"",""0"",""2299""
""fullscreenenter"",""0"",""4672""
""blur"",""2"",""13310""
""focus"",""3"",""18892""
""blur"",""4"",""27548""
""focus"",""5"",""45811""
""blur"",""6"",""52854""
""focus"",""7"",""67540""
""blur"",""12"",""112264""
""focus"",""13"",""134788""
","""event"",""trial"",""time""
""blur"",""2"",""13310""
""blur"",""4"",""27548""
""blur"",""6"",""52854""
""blur"",""12"",""112264""
","""event"",""trial"",""time""
""focus"",""0"",""2299""
""focus"",""3"",""18892""
""focus"",""5"",""45811""
""focus"",""7"",""67540""
""focus"",""13"",""134788""
","""event"",""trial"",""time""
""fullscreenenter"",""0"",""4672""
","
","null","run_exp/static/audio/clip_34_recognition_2.m4a","null","","","","","<div class='center'><p> You will press the 5, 6, 7, 8 keys on your keyboard to respond.</p><p>If you are sure you saw the ship, press <b>5</b> on your keyboard.</p><p> If you think you saw it before but aren't sure, then press <b>6</b>.</p><p> If you think you have <b>not</b> seen it before but aren't sure, then press <b>7</b>.</p><p> If you are sure you did <b>not</b> see the ship before, then press <b>8</b>.</p><p><img src='run_exp/static/images/tutorial/example_recog_trial.png' height='500'></p></div>","","","","","","","","","","","","","","","","","","",""
"","html-keyboard-response","13","135537","0.0-13.0","""event"",""trial"",""time""
""focus"",""0"",""2299""
""fullscreenenter"",""0"",""4672""
""blur"",""2"",""13310""
""focus"",""3"",""18892""
""blur"",""4"",""27548""
""focus"",""5"",""45811""
""blur"",""6"",""52854""
""focus"",""7"",""67540""
""blur"",""12"",""112264""
""focus"",""13"",""134788""
","""event"",""trial"",""time""
""blur"",""2"",""13310""
""blur"",""4"",""27548""
""blur"",""6"",""52854""
""blur"",""12"",""112264""
","""event"",""trial"",""time""
""focus"",""0"",""2299""
""focus"",""3"",""18892""
""focus"",""5"",""45811""
""focus"",""7"",""67540""
""focus"",""13"",""134788""
","""event"",""trial"",""time""
""fullscreenenter"",""0"",""4672""
","
","4225.800000071526","<div class='center'><p> You will press the 5, 6, 7, 8 keys on your keyboard to respond.</p><p>If you are sure you saw the ship, press <b>5</b> on your keyboard.</p><p> If you think you saw it before but aren't sure, then press <b>6</b>.</p><p> If you think you have <b>not</b> seen it before but aren't sure, then press <b>7</b>.</p><p> If you are sure you did <b>not</b> see the ship before, then press <b>8</b>.</p><p><img src='run_exp/static/images/tutorial/example_recog_trial.png' height='500'></p><p><b>[Press the space bar to continue]</b></p></div>","32","","","","","","","","","","","","","","","","","","","","","","","",""
"","explain_outcome","14","152961","0.0-14.0","""event"",""trial"",""time""
""focus"",""0"",""2299""
""fullscreenenter"",""0"",""4672""
""blur"",""2"",""13310""
""focus"",""3"",""18892""
""blur"",""4"",""27548""
""focus"",""5"",""45811""
""blur"",""6"",""52854""
""focus"",""7"",""67540""
""blur"",""12"",""112264""
""focus"",""13"",""134788""
","""event"",""trial"",""time""
""blur"",""2"",""13310""
""blur"",""4"",""27548""
""blur"",""6"",""52854""
""blur"",""12"",""112264""
","""event"",""trial"",""time""
""focus"",""0"",""2299""
""focus"",""3"",""18892""
""focus"",""5"",""45811""
""focus"",""7"",""67540""
""focus"",""13"",""134788""
","""event"",""trial"",""time""
""fullscreenenter"",""0"",""4672""
","
","null","run_exp/static/audio/clip_35_recognition_3.m4a","null","","","","","<div class='center'><p> If you remember correctly, then you’ll get a gold coin like this: </p><p><img src='run_exp/static/images/tutorial/reward_small.png' height='200'></p><p>If you do not remember correctly, then you'll see a red x like this: </p><p><img src='run_exp/static/images/tutorial/reward_no.png' height='200'></p><p>Importantly, when you are shown a ship, take the time to remind yourself which island you saw it on. This will help you in the next part of the study.</p></div>","","","","","","","","","","","","","","","","","","",""
"","html-keyboard-response","15","154451","0.0-15.0","""event"",""trial"",""time""
""focus"",""0"",""2299""
""fullscreenenter"",""0"",""4672""
""blur"",""2"",""13310""
""focus"",""3"",""18892""
""blur"",""4"",""27548""
""focus"",""5"",""45811""
""blur"",""6"",""52854""
""focus"",""7"",""67540""
""blur"",""12"",""112264""
""focus"",""13"",""134788""
""blur"",""16"",""170203""
","""event"",""trial"",""time""
""blur"",""2"",""13310""
""blur"",""4"",""27548""
""blur"",""6"",""52854""
""blur"",""12"",""112264""
""blur"",""16"",""170203""
","""event"",""trial"",""time""
""focus"",""0"",""2299""
""focus"",""3"",""18892""
""focus"",""5"",""45811""
""focus"",""7"",""67540""
""focus"",""13"",""134788""
","""event"",""trial"",""time""
""fullscreenenter"",""0"",""4672""
","
","1486.7000000476837","<div class='center'><p> If you remember correctly, then you’ll get a gold coin like this: </p><p><img src='run_exp/static/images/tutorial/reward_small.png' height='200'></p><p>If you do not remember correctly, then you'll see a red x like this: </p><p><img src='run_exp/static/images/tutorial/reward_no.png' height='200'></p><p>Importantly, when you are shown a ship, take the time to remind yourself which island you saw it on. This will help you in the next part of the study.</p><p><b>[Press the space bar to continue]</b></p></div>","32","","","","","","","","","","","","","","","","","","","","","","","",""
"","begin_test_phase","16","170475","0.0-16.0","""event"",""trial"",""time""
""focus"",""0"",""2299""
""fullscreenenter"",""0"",""4672""
""blur"",""2"",""13310""
""focus"",""3"",""18892""
""blur"",""4"",""27548""
""focus"",""5"",""45811""
""blur"",""6"",""52854""
""focus"",""7"",""67540""
""blur"",""12"",""112264""
""focus"",""13"",""134788""
""blur"",""16"",""170203""
""focus"",""17"",""172083""
","""event"",""trial"",""time""
""blur"",""2"",""13310""
""blur"",""4"",""27548""
""blur"",""6"",""52854""
""blur"",""12"",""112264""
""blur"",""16"",""170203""
","""event"",""trial"",""time""
""focus"",""0"",""2299""
""focus"",""3"",""18892""
""focus"",""5"",""45811""
""focus"",""7"",""67540""
""focus"",""13"",""134788""
""focus"",""17"",""172083""
","""event"",""trial"",""time""
""fullscreenenter"",""0"",""4672""
","
","null","run_exp/static/audio/clip_36_begin_final.m4a","null","","","","","<div class='center'><p>Let's go over the important points again. Your job is to: </p><p>1. Pick the pirate who is best at robbing ships and will bring you back gold coins. </p><p>2. Correctly remember whether or not you saw a ship before. If you did see the ship before, remind yourself on which island you saw it. </p></div>","","","","","","","","","","","","","","","","","","",""
"","html-keyboard-response","17","172534","0.0-17.0","""event"",""trial"",""time""
""focus"",""0"",""2299""
""fullscreenenter"",""0"",""4672""
""blur"",""2"",""13310""
""focus"",""3"",""18892""
""blur"",""4"",""27548""
""focus"",""5"",""45811""
""blur"",""6"",""52854""
""focus"",""7"",""67540""
""blur"",""12"",""112264""
""focus"",""13"",""134788""
""blur"",""16"",""170203""
""focus"",""17"",""172083""
","""event"",""trial"",""time""
""blur"",""2"",""13310""
""blur"",""4"",""27548""
""blur"",""6"",""52854""
""blur"",""12"",""112264""
""blur"",""16"",""170203""
","""event"",""trial"",""time""
""focus"",""0"",""2299""
""focus"",""3"",""18892""
""focus"",""5"",""45811""
""focus"",""7"",""67540""
""focus"",""13"",""134788""
""focus"",""17"",""172083""
","""event"",""trial"",""time""
""fullscreenenter"",""0"",""4672""
","
","1900.1000000238419","<div class='center'><p>Let's go over the important points again. Your job is to: </p><p>1. Pick the pirate who is best at robbing ships and will bring you back gold coins. </p><p>2. Correctly remember whether or not you saw a ship before. If you did see the ship before, remind yourself on which island you saw it. </p><p><b>[Press the space bar to continue]</b></p></div>","32","","","","","","","","","","","","","","","","","","","","","","","",""
"","do_welcome","18","176800","0.0-18.0","""event"",""trial"",""time""
""focus"",""0"",""2299""
""fullscreenenter"",""0"",""4672""
""blur"",""2"",""13310""
""focus"",""3"",""18892""
""blur"",""4"",""27548""
""focus"",""5"",""45811""
""blur"",""6"",""52854""
""focus"",""7"",""67540""
""blur"",""12"",""112264""
""focus"",""13"",""134788""
""blur"",""16"",""170203""
""focus"",""17"",""172083""
","""event"",""trial"",""time""
""blur"",""2"",""13310""
""blur"",""4"",""27548""
""blur"",""6"",""52854""
""blur"",""12"",""112264""
""blur"",""16"",""170203""
","""event"",""trial"",""time""
""focus"",""0"",""2299""
""focus"",""3"",""18892""
""focus"",""5"",""45811""
""focus"",""7"",""67540""
""focus"",""13"",""134788""
""focus"",""17"",""172083""
","""event"",""trial"",""time""
""fullscreenenter"",""0"",""4672""
","
","null","","","","","","","","null","","","","","","","","","","","","","","","","","",""
"","do_trial","19","180598","0.0-19.0-0.0","""event"",""trial"",""time""
""focus"",""0"",""2299""
""fullscreenenter"",""0"",""4672""
""blur"",""2"",""13310""
""focus"",""3"",""18892""
""blur"",""4"",""27548""
""focus"",""5"",""45811""
""blur"",""6"",""52854""
""focus"",""7"",""67540""
""blur"",""12"",""112264""
""focus"",""13"",""134788""
""blur"",""16"",""170203""
""focus"",""17"",""172083""
","""event"",""trial"",""time""
""blur"",""2"",""13310""
""blur"",""4"",""27548""
""blur"",""6"",""52854""
""blur"",""12"",""112264""
""blur"",""16"",""170203""
","""event"",""trial"",""time""
""focus"",""0"",""2299""
""focus"",""3"",""18892""
""focus"",""5"",""45811""
""focus"",""7"",""67540""
""focus"",""13"",""134788""
""focus"",""17"",""172083""
","""event"",""trial"",""time""
""fullscreenenter"",""0"",""4672""
","
","1219.3999999761581","","","","","","","","49","0,0,0","6","blank","230","null","0.23515989219593547","0.09172981651867321","0.5453370041614587","0","","","","","","","","",""
"","html-keyboard-response","20","181605","0.0-19.0-1.0","""event"",""trial"",""time""
""focus"",""0"",""2299""
""fullscreenenter"",""0"",""4672""
""blur"",""2"",""13310""
""focus"",""3"",""18892""
""blur"",""4"",""27548""
""focus"",""5"",""45811""
""blur"",""6"",""52854""
""focus"",""7"",""67540""
""blur"",""12"",""112264""
""focus"",""13"",""134788""
""blur"",""16"",""170203""
""focus"",""17"",""172083""
""fullscreenexit"",""21"",""186403""
","""event"",""trial"",""time""
""blur"",""2"",""13310""
""blur"",""4"",""27548""
""blur"",""6"",""52854""
""blur"",""12"",""112264""
""blur"",""16"",""170203""
","""event"",""trial"",""time""
""focus"",""0"",""2299""
""focus"",""3"",""18892""
""focus"",""5"",""45811""
""focus"",""7"",""67540""
""focus"",""13"",""134788""
""focus"",""17"",""172083""
","""event"",""trial"",""time""
""fullscreenenter"",""0"",""4672""
","""event"",""trial"",""time""
""fullscreenexit"",""21"",""186403""
","null","<p></p>","null","","","","","","","","","","","","","","","","","","","","","","","",""
"","do_trial","21","187699","0.0-20.0-0.0","""event"",""trial"",""time""
""focus"",""0"",""2299""
""fullscreenenter"",""0"",""4672""
""blur"",""2"",""13310""
""focus"",""3"",""18892""
""blur"",""4"",""27548""
""focus"",""5"",""45811""
""blur"",""6"",""52854""
""focus"",""7"",""67540""
""blur"",""12"",""112264""
""focus"",""13"",""134788""
""blur"",""16"",""170203""
""focus"",""17"",""172083""
""fullscreenexit"",""21"",""186403""
","""event"",""trial"",""time""
""blur"",""2"",""13310""
""blur"",""4"",""27548""
""blur"",""6"",""52854""
""blur"",""12"",""112264""
""blur"",""16"",""170203""
","""event"",""trial"",""time""
""focus"",""0"",""2299""
""focus"",""3"",""18892""
""focus"",""5"",""45811""
""focus"",""7"",""67540""
""focus"",""13"",""134788""
""focus"",""17"",""172083""
","""event"",""trial"",""time""
""fullscreenenter"",""0"",""4672""
","""event"",""trial"",""time""
""fullscreenexit"",""21"",""186403""
","null","","","","","","","","null","0,0,0","6","blank","231","null","0.21724495452059933","0.21935836821941898","0.6426558448934988","","","","","","","","","",""
"","html-keyboard-response","22","188706","0.0-20.0-1.0","""event"",""trial"",""time""
""focus"",""0"",""2299""
""fullscreenenter"",""0"",""4672""
""blur"",""2"",""13310""
""focus"",""3"",""18892""
""blur"",""4"",""27548""
""focus"",""5"",""45811""
""blur"",""6"",""52854""
""focus"",""7"",""67540""
""blur"",""12"",""112264""
""focus"",""13"",""134788""
""blur"",""16"",""170203""
""focus"",""17"",""172083""
""fullscreenexit"",""21"",""186403""
","""event"",""trial"",""time""
""blur"",""2"",""13310""
""blur"",""4"",""27548""
""blur"",""6"",""52854""
""blur"",""12"",""112264""
""blur"",""16"",""170203""
","""event"",""trial"",""time""
""focus"",""0"",""2299""
""focus"",""3"",""18892""
""focus"",""5"",""45811""
""focus"",""7"",""67540""
""focus"",""13"",""134788""
""focus"",""17"",""172083""
","""event"",""trial"",""time""
""fullscreenenter"",""0"",""4672""
","""event"",""trial"",""time""
""fullscreenexit"",""21"",""186403""
","null","<p></p>","null","","","","","","","","","","","","","","","","","","","","","","","",""
"","do_trial","23","192423","0.0-21.0-0.0","""event"",""trial"",""time""
""focus"",""0"",""2299""
""fullscreenenter"",""0"",""4672""
""blur"",""2"",""13310""
""focus"",""3"",""18892""
""blur"",""4"",""27548""
""focus"",""5"",""45811""
""blur"",""6"",""52854""
""focus"",""7"",""67540""
""blur"",""12"",""112264""
""focus"",""13"",""134788""
""blur"",""16"",""170203""
""focus"",""17"",""172083""
""fullscreenexit"",""21"",""186403""
","""event"",""trial"",""time""
""blur"",""2"",""13310""
""blur"",""4"",""27548""
""blur"",""6"",""52854""
""blur"",""12"",""112264""
""blur"",""16"",""170203""
","""event"",""trial"",""time""
""focus"",""0"",""2299""
""focus"",""3"",""18892""
""focus"",""5"",""45811""
""focus"",""7"",""67540""
""focus"",""13"",""134788""
""focus"",""17"",""172083""
","""event"",""trial"",""time""
""fullscreenenter"",""0"",""4672""
","""event"",""trial"",""time""
""fullscreenexit"",""21"",""186403""
","1143.2000000476837","","","","","","","","49","0,0,0","6","blank","232","null","0.24426497781061815","0.23887867904669588","0.716453963105834","0","","","","","","","","",""
"","html-keyboard-response","24","193430","0.0-21.0-1.0","""event"",""trial"",""time""
""focus"",""0"",""2299""
""fullscreenenter"",""0"",""4672""
""blur"",""2"",""13310""
""focus"",""3"",""18892""
""blur"",""4"",""27548""
""focus"",""5"",""45811""
""blur"",""6"",""52854""
""focus"",""7"",""67540""
""blur"",""12"",""112264""
""focus"",""13"",""134788""
""blur"",""16"",""170203""
""focus"",""17"",""172083""
""fullscreenexit"",""21"",""186403""
","""event"",""trial"",""time""
""blur"",""2"",""13310""
""blur"",""4"",""27548""
""blur"",""6"",""52854""
""blur"",""12"",""112264""
""blur"",""16"",""170203""
","""event"",""trial"",""time""
""focus"",""0"",""2299""
""focus"",""3"",""18892""
""focus"",""5"",""45811""
""focus"",""7"",""67540""
""focus"",""13"",""134788""
""focus"",""17"",""172083""
","""event"",""trial"",""time""
""fullscreenenter"",""0"",""4672""
","""event"",""trial"",""time""
""fullscreenexit"",""21"",""186403""
","null","<p></p>","null","","","","","","","","","","","","","","","","","","","","","","","",""
"","do_trial","25","196376","0.0-22.0-0.0","""event"",""trial"",""time""
""focus"",""0"",""2299""
""fullscreenenter"",""0"",""4672""
""blur"",""2"",""13310""
""focus"",""3"",""18892""
""blur"",""4"",""27548""
""focus"",""5"",""45811""
""blur"",""6"",""52854""
""focus"",""7"",""67540""
""blur"",""12"",""112264""
""focus"",""13"",""134788""
""blur"",""16"",""170203""
""focus"",""17"",""172083""
""fullscreenexit"",""21"",""186403""
","""event"",""trial"",""time""
""blur"",""2"",""13310""
""blur"",""4"",""27548""
""blur"",""6"",""52854""
""blur"",""12"",""112264""
""blur"",""16"",""170203""
","""event"",""trial"",""time""
""focus"",""0"",""2299""
""focus"",""3"",""18892""
""focus"",""5"",""45811""
""focus"",""7"",""67540""
""focus"",""13"",""134788""
""focus"",""17"",""172083""
","""event"",""trial"",""time""
""fullscreenenter"",""0"",""4672""
","""event"",""trial"",""time""
""fullscreenexit"",""21"",""186403""
","375.2999999523163","","","","","","","","50","1,0,0","6","blank","233","null","0.3998988396253212","0.0841448414776511","0.48406719831966927","0","","","","","","","","",""
"","html-keyboard-response","26","197382","0.0-22.0-1.0","""event"",""trial"",""time""
""focus"",""0"",""2299""
""fullscreenenter"",""0"",""4672""
""blur"",""2"",""13310""
""focus"",""3"",""18892""
""blur"",""4"",""27548""
""focus"",""5"",""45811""
""blur"",""6"",""52854""
""focus"",""7"",""67540""
""blur"",""12"",""112264""
""focus"",""13"",""134788""
""blur"",""16"",""170203""
""focus"",""17"",""172083""
""fullscreenexit"",""21"",""186403""
","""event"",""trial"",""time""
""blur"",""2"",""13310""
""blur"",""4"",""27548""
""blur"",""6"",""52854""
""blur"",""12"",""112264""
""blur"",""16"",""170203""
","""event"",""trial"",""time""
""focus"",""0"",""2299""
""focus"",""3"",""18892""
""focus"",""5"",""45811""
""focus"",""7"",""67540""
""focus"",""13"",""134788""
""focus"",""17"",""172083""
","""event"",""trial"",""time""
""fullscreenenter"",""0"",""4672""
","""event"",""trial"",""time""
""fullscreenexit"",""21"",""186403""
","null","<p></p>","null","","","","","","","","","","","","","","","","","","","","","","","",""
"","do_trial","27","200283","0.0-23.0-0.0","""event"",""trial"",""time""
""focus"",""0"",""2299""
""fullscreenenter"",""0"",""4672""
""blur"",""2"",""13310""
""focus"",""3"",""18892""
""blur"",""4"",""27548""
""focus"",""5"",""45811""
""blur"",""6"",""52854""
""focus"",""7"",""67540""
""blur"",""12"",""112264""
""focus"",""13"",""134788""
""blur"",""16"",""170203""
""focus"",""17"",""172083""
""fullscreenexit"",""21"",""186403""
","""event"",""trial"",""time""
""blur"",""2"",""13310""
""blur"",""4"",""27548""
""blur"",""6"",""52854""
""blur"",""12"",""112264""
""blur"",""16"",""170203""
","""event"",""trial"",""time""
""focus"",""0"",""2299""
""focus"",""3"",""18892""
""focus"",""5"",""45811""
""focus"",""7"",""67540""
""focus"",""13"",""134788""
""focus"",""17"",""172083""
","""event"",""trial"",""time""
""fullscreenenter"",""0"",""4672""
","""event"",""trial"",""time""
""fullscreenexit"",""21"",""186403""
","338.39999997615814","","","","","","","","51","0,0,0","6","blank","234","null","0.4226572977167222","0.053997650188132615","0.45579594203961216","0","","","","","","","","",""
"","html-keyboard-response","28","201292","0.0-23.0-1.0","""event"",""trial"",""time""
""focus"",""0"",""2299""
""fullscreenenter"",""0"",""4672""
""blur"",""2"",""13310""
""focus"",""3"",""18892""
""blur"",""4"",""27548""
""focus"",""5"",""45811""
""blur"",""6"",""52854""
""focus"",""7"",""67540""
""blur"",""12"",""112264""
""focus"",""13"",""134788""
""blur"",""16"",""170203""
""focus"",""17"",""172083""
""fullscreenexit"",""21"",""186403""
","""event"",""trial"",""time""
""blur"",""2"",""13310""
""blur"",""4"",""27548""
""blur"",""6"",""52854""
""blur"",""12"",""112264""
""blur"",""16"",""170203""
","""event"",""trial"",""time""
""focus"",""0"",""2299""
""focus"",""3"",""18892""
""focus"",""5"",""45811""
""focus"",""7"",""67540""
""focus"",""13"",""134788""
""focus"",""17"",""172083""
","""event"",""trial"",""time""
""fullscreenenter"",""0"",""4672""
","""event"",""trial"",""time""
""fullscreenexit"",""21"",""186403""
","null","<p></p>","null","","","","","","","","","","","","","","","","","","","","","","","",""
"","do_trial","29","204437","0.0-24.0-0.0","""event"",""trial"",""time""
""focus"",""0"",""2299""
""fullscreenenter"",""0"",""4672""
""blur"",""2"",""13310""
""focus"",""3"",""18892""
""blur"",""4"",""27548""
""focus"",""5"",""45811""
""blur"",""6"",""52854""
""focus"",""7"",""67540""
""blur"",""12"",""112264""
""focus"",""13"",""134788""
""blur"",""16"",""170203""
""focus"",""17"",""172083""
""fullscreenexit"",""21"",""186403""
","""event"",""trial"",""time""
""blur"",""2"",""13310""
""blur"",""4"",""27548""
""blur"",""6"",""52854""
""blur"",""12"",""112264""
""blur"",""16"",""170203""
","""event"",""trial"",""time""
""focus"",""0"",""2299""
""focus"",""3"",""18892""
""focus"",""5"",""45811""
""focus"",""7"",""67540""
""focus"",""13"",""134788""
""focus"",""17"",""172083""
","""event"",""trial"",""time""
""fullscreenenter"",""0"",""4672""
","""event"",""trial"",""time""
""fullscreenexit"",""21"",""186403""
","585.1000000238419","","","","","","","","50","0,0,0","6","blank","235","null","0.28439518524691815","0.11052056431361994","0.5207268378571522","0","","","","","","","","",""
"","html-keyboard-response","30","205444","0.0-24.0-1.0","""event"",""trial"",""time""
""focus"",""0"",""2299""
""fullscreenenter"",""0"",""4672""
""blur"",""2"",""13310""
""focus"",""3"",""18892""
""blur"",""4"",""27548""
""focus"",""5"",""45811""
""blur"",""6"",""52854""
""focus"",""7"",""67540""
""blur"",""12"",""112264""
""focus"",""13"",""134788""
""blur"",""16"",""170203""
""focus"",""17"",""172083""
""fullscreenexit"",""21"",""186403""
","""event"",""trial"",""time""
""blur"",""2"",""13310""
""blur"",""4"",""27548""
""blur"",""6"",""52854""
""blur"",""12"",""112264""
""blur"",""16"",""170203""
","""event"",""trial"",""time""
""focus"",""0"",""2299""
""focus"",""3"",""18892""
""focus"",""5"",""45811""
""focus"",""7"",""67540""
""focus"",""13"",""134788""
""focus"",""17"",""172083""
","""event"",""trial"",""time""
""fullscreenenter"",""0"",""4672""
","""event"",""trial"",""time""
""fullscreenexit"",""21"",""186403""
","null","<p></p>","null","","","","","","","","","","","","","","","","","","","","","","","",""
"","do_trial","31","208476","0.0-25.0-0.0","""event"",""trial"",""time""
""focus"",""0"",""2299""
""fullscreenenter"",""0"",""4672""
""blur"",""2"",""13310""
""focus"",""3"",""18892""
""blur"",""4"",""27548""
""focus"",""5"",""45811""
""blur"",""6"",""52854""
""focus"",""7"",""67540""
""blur"",""12"",""112264""
""focus"",""13"",""134788""
""blur"",""16"",""170203""
""focus"",""17"",""172083""
""fullscreenexit"",""21"",""186403""
","""event"",""trial"",""time""
""blur"",""2"",""13310""
""blur"",""4"",""27548""
""blur"",""6"",""52854""
""blur"",""12"",""112264""
""blur"",""16"",""170203""
","""event"",""trial"",""time""
""focus"",""0"",""2299""
""focus"",""3"",""18892""
""focus"",""5"",""45811""
""focus"",""7"",""67540""
""focus"",""13"",""134788""
""focus"",""17"",""172083""
","""event"",""trial"",""time""
""fullscreenenter"",""0"",""4672""
","""event"",""trial"",""time""
""fullscreenexit"",""21"",""186403""
","467.39999997615814","","","","","","","","49","1,0,1","6","blank","236","null","0.18133556399171924","0.06628096582704028","0.6873855484194911","1","","","","","","","","",""
"","html-keyboard-response","32","209483","0.0-25.0-1.0","""event"",""trial"",""time""
""focus"",""0"",""2299""
""fullscreenenter"",""0"",""4672""
""blur"",""2"",""13310""
""focus"",""3"",""18892""
""blur"",""4"",""27548""
""focus"",""5"",""45811""
""blur"",""6"",""52854""
""focus"",""7"",""67540""
""blur"",""12"",""112264""
""focus"",""13"",""134788""
""blur"",""16"",""170203""
""focus"",""17"",""172083""
""fullscreenexit"",""21"",""186403""
","""event"",""trial"",""time""
""blur"",""2"",""13310""
""blur"",""4"",""27548""
""blur"",""6"",""52854""
""blur"",""12"",""112264""
""blur"",""16"",""170203""
","""event"",""trial"",""time""
""focus"",""0"",""2299""
""focus"",""3"",""18892""
""focus"",""5"",""45811""
""focus"",""7"",""67540""
""focus"",""13"",""134788""
""focus"",""17"",""172083""
","""event"",""trial"",""time""
""fullscreenenter"",""0"",""4672""
","""event"",""trial"",""time""
""fullscreenexit"",""21"",""186403""
","null","<p></p>","null","","","","","","","","","","","","","","","","","","","","","","","",""
"","do_trial","33","213066","0.0-26.0-0.0","""event"",""trial"",""time""
""focus"",""0"",""2299""
""fullscreenenter"",""0"",""4672""
""blur"",""2"",""13310""
""focus"",""3"",""18892""
""blur"",""4"",""27548""
""focus"",""5"",""45811""
""blur"",""6"",""52854""
""focus"",""7"",""67540""
""blur"",""12"",""112264""
""focus"",""13"",""134788""
""blur"",""16"",""170203""
""focus"",""17"",""172083""
""fullscreenexit"",""21"",""186403""
","""event"",""trial"",""time""
""blur"",""2"",""13310""
""blur"",""4"",""27548""
""blur"",""6"",""52854""
""blur"",""12"",""112264""
""blur"",""16"",""170203""
","""event"",""trial"",""time""
""focus"",""0"",""2299""
""focus"",""3"",""18892""
""focus"",""5"",""45811""
""focus"",""7"",""67540""
""focus"",""13"",""134788""
""focus"",""17"",""172083""
","""event"",""trial"",""time""
""fullscreenenter"",""0"",""4672""
","""event"",""trial"",""time""
""fullscreenexit"",""21"",""186403""
","1021.1000000238419","","","","","","","","49","0,0,1","6","blank","237","null","0.3495187548928175","0.1358134008722026","0.5791120065727531","0","","","","","","","","",""
"","html-keyboard-response","34","214070","0.0-26.0-1.0","""event"",""trial"",""time""
""focus"",""0"",""2299""
""fullscreenenter"",""0"",""4672""
""blur"",""2"",""13310""
""focus"",""3"",""18892""
""blur"",""4"",""27548""
""focus"",""5"",""45811""
""blur"",""6"",""52854""
""focus"",""7"",""67540""
""blur"",""12"",""112264""
""focus"",""13"",""134788""
""blur"",""16"",""170203""
""focus"",""17"",""172083""
""fullscreenexit"",""21"",""186403""
","""event"",""trial"",""time""
""blur"",""2"",""13310""
""blur"",""4"",""27548""
""blur"",""6"",""52854""
""blur"",""12"",""112264""
""blur"",""16"",""170203""
","""event"",""trial"",""time""
""focus"",""0"",""2299""
""focus"",""3"",""18892""
""focus"",""5"",""45811""
""focus"",""7"",""67540""
""focus"",""13"",""134788""
""focus"",""17"",""172083""
","""event"",""trial"",""time""
""fullscreenenter"",""0"",""4672""
","""event"",""trial"",""time""
""fullscreenexit"",""21"",""186403""
","null","<p></p>","null","","","","","","","","","","","","","","","","","","","","","","","",""
"","do_trial","35","216988","0.0-27.0-0.0","""event"",""trial"",""time""
""focus"",""0"",""2299""
""fullscreenenter"",""0"",""4672""
""blur"",""2"",""13310""
""focus"",""3"",""18892""
""blur"",""4"",""27548""
""focus"",""5"",""45811""
""blur"",""6"",""52854""
""focus"",""7"",""67540""
""blur"",""12"",""112264""
""focus"",""13"",""134788""
""blur"",""16"",""170203""
""focus"",""17"",""172083""
""fullscreenexit"",""21"",""186403""
","""event"",""trial"",""time""
""blur"",""2"",""13310""
""blur"",""4"",""27548""
""blur"",""6"",""52854""
""blur"",""12"",""112264""
""blur"",""16"",""170203""
","""event"",""trial"",""time""
""focus"",""0"",""2299""
""focus"",""3"",""18892""
""focus"",""5"",""45811""
""focus"",""7"",""67540""
""focus"",""13"",""134788""
""focus"",""17"",""172083""
","""event"",""trial"",""time""
""fullscreenenter"",""0"",""4672""
","""event"",""trial"",""time""
""fullscreenexit"",""21"",""186403""
","353.2000000476837","","","","","","","","50","0,1,0","6","blank","238","null","0.43773828335927156","0.28010163796933035","0.5383006575972121","1","","","","","","","","",""
"","html-keyboard-response","36","217994","0.0-27.0-1.0","""event"",""trial"",""time""
""focus"",""0"",""2299""
""fullscreenenter"",""0"",""4672""
""blur"",""2"",""13310""
""focus"",""3"",""18892""
""blur"",""4"",""27548""
""focus"",""5"",""45811""
""blur"",""6"",""52854""
""focus"",""7"",""67540""
""blur"",""12"",""112264""
""focus"",""13"",""134788""
""blur"",""16"",""170203""
""focus"",""17"",""172083""
""fullscreenexit"",""21"",""186403""
","""event"",""trial"",""time""
""blur"",""2"",""13310""
""blur"",""4"",""27548""
""blur"",""6"",""52854""
""blur"",""12"",""112264""
""blur"",""16"",""170203""
","""event"",""trial"",""time""
""focus"",""0"",""2299""
""focus"",""3"",""18892""
""focus"",""5"",""45811""
""focus"",""7"",""67540""
""focus"",""13"",""134788""
""focus"",""17"",""172083""
","""event"",""trial"",""time""
""fullscreenenter"",""0"",""4672""
","""event"",""trial"",""time""
""fullscreenexit"",""21"",""186403""
","null","<p></p>","null","","","","","","","","","","","","","","","","","","","","","","","",""
"","do_trial","37","220922","0.0-28.0-0.0","""event"",""trial"",""time""
""focus"",""0"",""2299""
""fullscreenenter"",""0"",""4672""
""blur"",""2"",""13310""
""focus"",""3"",""18892""
""blur"",""4"",""27548""
""focus"",""5"",""45811""
""blur"",""6"",""52854""
""focus"",""7"",""67540""
""blur"",""12"",""112264""
""focus"",""13"",""134788""
""blur"",""16"",""170203""
""focus"",""17"",""172083""
""fullscreenexit"",""21"",""186403""
","""event"",""trial"",""time""
""blur"",""2"",""13310""
""blur"",""4"",""27548""
""blur"",""6"",""52854""
""blur"",""12"",""112264""
""blur"",""16"",""170203""
","""event"",""trial"",""time""
""focus"",""0"",""2299""
""focus"",""3"",""18892""
""focus"",""5"",""45811""
""focus"",""7"",""67540""
""focus"",""13"",""134788""
""focus"",""17"",""172083""
","""event"",""trial"",""time""
""fullscreenenter"",""0"",""4672""
","""event"",""trial"",""time""
""fullscreenexit"",""21"",""186403""
","360.2999999523163","","","","","","","","51","1,0,1","6","blank","239","null","0.46548727116865524","0.15381102166997415","0.4471482830173751","1","","","","","","","","",""
"","html-keyboard-response","38","221928","0.0-28.0-1.0","""event"",""trial"",""time""
""focus"",""0"",""2299""
""fullscreenenter"",""0"",""4672""
""blur"",""2"",""13310""
""focus"",""3"",""18892""
""blur"",""4"",""27548""
""focus"",""5"",""45811""
""blur"",""6"",""52854""
""focus"",""7"",""67540""
""blur"",""12"",""112264""
""focus"",""13"",""134788""
""blur"",""16"",""170203""
""focus"",""17"",""172083""
""fullscreenexit"",""21"",""186403""
","""event"",""trial"",""time""
""blur"",""2"",""13310""
""blur"",""4"",""27548""
""blur"",""6"",""52854""
""blur"",""12"",""112264""
""blur"",""16"",""170203""
","""event"",""trial"",""time""
""focus"",""0"",""2299""
""focus"",""3"",""18892""
""focus"",""5"",""45811""
""focus"",""7"",""67540""
""focus"",""13"",""134788""
""focus"",""17"",""172083""
","""event"",""trial"",""time""
""fullscreenenter"",""0"",""4672""
","""event"",""trial"",""time""
""fullscreenexit"",""21"",""186403""
","null","<p></p>","null","","","","","","","","","","","","","","","","","","","","","","","",""
"","do_trial","39","224968","0.0-29.0-0.0","""event"",""trial"",""time""
""focus"",""0"",""2299""
""fullscreenenter"",""0"",""4672""
""blur"",""2"",""13310""
""focus"",""3"",""18892""
""blur"",""4"",""27548""
""focus"",""5"",""45811""
""blur"",""6"",""52854""
""focus"",""7"",""67540""
""blur"",""12"",""112264""
""focus"",""13"",""134788""
""blur"",""16"",""170203""
""focus"",""17"",""172083""
""fullscreenexit"",""21"",""186403""
","""event"",""trial"",""time""
""blur"",""2"",""13310""
""blur"",""4"",""27548""
""blur"",""6"",""52854""
""blur"",""12"",""112264""
""blur"",""16"",""170203""
","""event"",""trial"",""time""
""focus"",""0"",""2299""
""focus"",""3"",""18892""
""focus"",""5"",""45811""
""focus"",""7"",""67540""
""focus"",""13"",""134788""
""focus"",""17"",""172083""
","""event"",""trial"",""time""
""fullscreenenter"",""0"",""4672""
","""event"",""trial"",""time""
""fullscreenexit"",""21"",""186403""
","472.7999999523163","","","","","","","","49","0,1,1","6","blank","240","null","0.5272548988328237","0.24415954197021358","0.3108645190837289","0","","","","","","","","",""
"","html-keyboard-response","40","225974","0.0-29.0-1.0","""event"",""trial"",""time""
""focus"",""0"",""2299""
""fullscreenenter"",""0"",""4672""
""blur"",""2"",""13310""
""focus"",""3"",""18892""
""blur"",""4"",""27548""
""focus"",""5"",""45811""
""blur"",""6"",""52854""
""focus"",""7"",""67540""
""blur"",""12"",""112264""
""focus"",""13"",""134788""
""blur"",""16"",""170203""
""focus"",""17"",""172083""
""fullscreenexit"",""21"",""186403""
","""event"",""trial"",""time""
""blur"",""2"",""13310""
""blur"",""4"",""27548""
""blur"",""6"",""52854""
""blur"",""12"",""112264""
""blur"",""16"",""170203""
","""event"",""trial"",""time""
""focus"",""0"",""2299""
""focus"",""3"",""18892""
""focus"",""5"",""45811""
""focus"",""7"",""67540""
""focus"",""13"",""134788""
""focus"",""17"",""172083""
","""event"",""trial"",""time""
""fullscreenenter"",""0"",""4672""
","""event"",""trial"",""time""
""fullscreenexit"",""21"",""186403""
","null","<p></p>","null","","","","","","","","","","","","","","","","","","","","","","","",""
"","do_trial","41","228861","0.0-30.0-0.0","""event"",""trial"",""time""
""focus"",""0"",""2299""
""fullscreenenter"",""0"",""4672""
""blur"",""2"",""13310""
""focus"",""3"",""18892""
""blur"",""4"",""27548""
""focus"",""5"",""45811""
""blur"",""6"",""52854""
""focus"",""7"",""67540""
""blur"",""12"",""112264""
""focus"",""13"",""134788""
""blur"",""16"",""170203""
""focus"",""17"",""172083""
""fullscreenexit"",""21"",""186403""
","""event"",""trial"",""time""
""blur"",""2"",""13310""
""blur"",""4"",""27548""
""blur"",""6"",""52854""
""blur"",""12"",""112264""
""blur"",""16"",""170203""
","""event"",""trial"",""time""
""focus"",""0"",""2299""
""focus"",""3"",""18892""
""focus"",""5"",""45811""
""focus"",""7"",""67540""
""focus"",""13"",""134788""
""focus"",""17"",""172083""
","""event"",""trial"",""time""
""fullscreenenter"",""0"",""4672""
","""event"",""trial"",""time""
""fullscreenexit"",""21"",""186403""
","325.5","","","","","","","","50","0,0,0","6","blank","241","null","0.42319748518953915","0.2323452428693736","0.31803262381732333","0","","","","","","","","",""
"","html-keyboard-response","42","229867","0.0-30.0-1.0","""event"",""trial"",""time""
""focus"",""0"",""2299""
""fullscreenenter"",""0"",""4672""
""blur"",""2"",""13310""
""focus"",""3"",""18892""
""blur"",""4"",""27548""
""focus"",""5"",""45811""
""blur"",""6"",""52854""
""focus"",""7"",""67540""
""blur"",""12"",""112264""
""focus"",""13"",""134788""
""blur"",""16"",""170203""
""focus"",""17"",""172083""
""fullscreenexit"",""21"",""186403""
","""event"",""trial"",""time""
""blur"",""2"",""13310""
""blur"",""4"",""27548""
""blur"",""6"",""52854""
""blur"",""12"",""112264""
""blur"",""16"",""170203""
","""event"",""trial"",""time""
""focus"",""0"",""2299""
""focus"",""3"",""18892""
""focus"",""5"",""45811""
""focus"",""7"",""67540""
""focus"",""13"",""134788""
""focus"",""17"",""172083""
","""event"",""trial"",""time""
""fullscreenenter"",""0"",""4672""
","""event"",""trial"",""time""
""fullscreenexit"",""21"",""186403""
","null","<p></p>","null","","","","","","","","","","","","","","","","","","","","","","","",""
"","do_trial","43","232751","0.0-31.0-0.0","""event"",""trial"",""time""
""focus"",""0"",""2299""
""fullscreenenter"",""0"",""4672""
""blur"",""2"",""13310""
""focus"",""3"",""18892""
""blur"",""4"",""27548""
""focus"",""5"",""45811""
""blur"",""6"",""52854""
""focus"",""7"",""67540""
""blur"",""12"",""112264""
""focus"",""13"",""134788""
""blur"",""16"",""170203""
""focus"",""17"",""172083""
""fullscreenexit"",""21"",""186403""
","""event"",""trial"",""time""
""blur"",""2"",""13310""
""blur"",""4"",""27548""
""blur"",""6"",""52854""
""blur"",""12"",""112264""
""blur"",""16"",""170203""
","""event"",""trial"",""time""
""focus"",""0"",""2299""
""focus"",""3"",""18892""
""focus"",""5"",""45811""
""focus"",""7"",""67540""
""focus"",""13"",""134788""
""focus"",""17"",""172083""
","""event"",""trial"",""time""
""fullscreenenter"",""0"",""4672""
","""event"",""trial"",""time""
""fullscreenexit"",""21"",""186403""
","322.10000002384186","","","","","","","","51","0,1,0","6","blank","242","null","0.4463081238343937","0.3274206353837228","0.20448805164622783","0","","","","","","","","",""
"","html-keyboard-response","44","233755","0.0-31.0-1.0","""event"",""trial"",""time""
""focus"",""0"",""2299""
""fullscreenenter"",""0"",""4672""
""blur"",""2"",""13310""
""focus"",""3"",""18892""
""blur"",""4"",""27548""
""focus"",""5"",""45811""
""blur"",""6"",""52854""
""focus"",""7"",""67540""
""blur"",""12"",""112264""
""focus"",""13"",""134788""
""blur"",""16"",""170203""
""focus"",""17"",""172083""
""fullscreenexit"",""21"",""186403""
","""event"",""trial"",""time""
""blur"",""2"",""13310""
""blur"",""4"",""27548""
""blur"",""6"",""52854""
""blur"",""12"",""112264""
""blur"",""16"",""170203""
","""event"",""trial"",""time""
""focus"",""0"",""2299""
""focus"",""3"",""18892""
""focus"",""5"",""45811""
""focus"",""7"",""67540""
""focus"",""13"",""134788""
""focus"",""17"",""172083""
","""event"",""trial"",""time""
""fullscreenenter"",""0"",""4672""
","""event"",""trial"",""time""
""fullscreenexit"",""21"",""186403""
","null","<p></p>","null","","","","","","","","","","","","","","","","","","","","","","","",""
"","do_recog","45","239773","0.0-32.0-0.0","""event"",""trial"",""time""
""focus"",""0"",""2299""
""fullscreenenter"",""0"",""4672""
""blur"",""2"",""13310""
""focus"",""3"",""18892""
""blur"",""4"",""27548""
""focus"",""5"",""45811""
""blur"",""6"",""52854""
""focus"",""7"",""67540""
""blur"",""12"",""112264""
""focus"",""13"",""134788""
""blur"",""16"",""170203""
""focus"",""17"",""172083""
""fullscreenexit"",""21"",""186403""
","""event"",""trial"",""time""
""blur"",""2"",""13310""
""blur"",""4"",""27548""
""blur"",""6"",""52854""
""blur"",""12"",""112264""
""blur"",""16"",""170203""
","""event"",""trial"",""time""
""focus"",""0"",""2299""
""focus"",""3"",""18892""
""focus"",""5"",""45811""
""focus"",""7"",""67540""
""focus"",""13"",""134788""
""focus"",""17"",""172083""
","""event"",""trial"",""time""
""fullscreenenter"",""0"",""4672""
","""event"",""trial"",""time""
""fullscreenexit"",""21"",""186403""
","null","","","","","","","","null","","","","243","probe-161","","","","","1","[object Object]","114","2","0","","","",""
"","html-keyboard-response","46","240774","0.0-32.0-1.0","""event"",""trial"",""time""
""focus"",""0"",""2299""
""fullscreenenter"",""0"",""4672""
""blur"",""2"",""13310""
""focus"",""3"",""18892""
""blur"",""4"",""27548""
""focus"",""5"",""45811""
""blur"",""6"",""52854""
""focus"",""7"",""67540""
""blur"",""12"",""112264""
""focus"",""13"",""134788""
""blur"",""16"",""170203""
""focus"",""17"",""172083""
""fullscreenexit"",""21"",""186403""
","""event"",""trial"",""time""
""blur"",""2"",""13310""
""blur"",""4"",""27548""
""blur"",""6"",""52854""
""blur"",""12"",""112264""
""blur"",""16"",""170203""
","""event"",""trial"",""time""
""focus"",""0"",""2299""
""focus"",""3"",""18892""
""focus"",""5"",""45811""
""focus"",""7"",""67540""
""focus"",""13"",""134788""
""focus"",""17"",""172083""
","""event"",""trial"",""time""
""fullscreenenter"",""0"",""4672""
","""event"",""trial"",""time""
""fullscreenexit"",""21"",""186403""
","null","<p></p>","null","","","","","","","","","","","","","","","","","","","","","","","",""
"","do_trial","47","244266","0.0-33.0-0.0","""event"",""trial"",""time""
""focus"",""0"",""2299""
""fullscreenenter"",""0"",""4672""
""blur"",""2"",""13310""
""focus"",""3"",""18892""
""blur"",""4"",""27548""
""focus"",""5"",""45811""
""blur"",""6"",""52854""
""focus"",""7"",""67540""
""blur"",""12"",""112264""
""focus"",""13"",""134788""
""blur"",""16"",""170203""
""focus"",""17"",""172083""
""fullscreenexit"",""21"",""186403""
","""event"",""trial"",""time""
""blur"",""2"",""13310""
""blur"",""4"",""27548""
""blur"",""6"",""52854""
""blur"",""12"",""112264""
""blur"",""16"",""170203""
","""event"",""trial"",""time""
""focus"",""0"",""2299""
""focus"",""3"",""18892""
""focus"",""5"",""45811""
""focus"",""7"",""67540""
""focus"",""13"",""134788""
""focus"",""17"",""172083""
","""event"",""trial"",""time""
""fullscreenenter"",""0"",""4672""
","""event"",""trial"",""time""
""fullscreenexit"",""21"",""186403""
","926","","","","","","","","49","1,0,1","6","blank","244","null","0.4416166650111702","0.29989490061504603","0.2558105598929825","1","","","","","","","","",""
"","html-keyboard-response","48","245273","0.0-33.0-1.0","""event"",""trial"",""time""
""focus"",""0"",""2299""
""fullscreenenter"",""0"",""4672""
""blur"",""2"",""13310""
""focus"",""3"",""18892""
""blur"",""4"",""27548""
""focus"",""5"",""45811""
""blur"",""6"",""52854""
""focus"",""7"",""67540""
""blur"",""12"",""112264""
""focus"",""13"",""134788""
""blur"",""16"",""170203""
""focus"",""17"",""172083""
""fullscreenexit"",""21"",""186403""
","""event"",""trial"",""time""
""blur"",""2"",""13310""
""blur"",""4"",""27548""
""blur"",""6"",""52854""
""blur"",""12"",""112264""
""blur"",""16"",""170203""
","""event"",""trial"",""time""
""focus"",""0"",""2299""
""focus"",""3"",""18892""
""focus"",""5"",""45811""
""focus"",""7"",""67540""
""focus"",""13"",""134788""
""focus"",""17"",""172083""
","""event"",""trial"",""time""
""fullscreenenter"",""0"",""4672""
","""event"",""trial"",""time""
""fullscreenexit"",""21"",""186403""
","null","<p></p>","null","","","","","","","","","","","","","","","","","","","","","","","",""
"","do_recog","49","248562","0.0-34.0-0.0","""event"",""trial"",""time""
""focus"",""0"",""2299""
""fullscreenenter"",""0"",""4672""
""blur"",""2"",""13310""
""focus"",""3"",""18892""
""blur"",""4"",""27548""
""focus"",""5"",""45811""
""blur"",""6"",""52854""
""focus"",""7"",""67540""
""blur"",""12"",""112264""
""focus"",""13"",""134788""
""blur"",""16"",""170203""
""focus"",""17"",""172083""
""fullscreenexit"",""21"",""186403""
","""event"",""trial"",""time""
""blur"",""2"",""13310""
""blur"",""4"",""27548""
""blur"",""6"",""52854""
""blur"",""12"",""112264""
""blur"",""16"",""170203""
","""event"",""trial"",""time""
""focus"",""0"",""2299""
""focus"",""3"",""18892""
""focus"",""5"",""45811""
""focus"",""7"",""67540""
""focus"",""13"",""134788""
""focus"",""17"",""172083""
","""event"",""trial"",""time""
""fullscreenenter"",""0"",""4672""
","""event"",""trial"",""time""
""fullscreenexit"",""21"",""186403""
","1778.8999999761581","","","","","","","","56","","","","245","probe-194","","","","","1","[object Object]","76","1","0","","","",""
"","html-keyboard-response","50","249567","0.0-34.0-1.0","""event"",""trial"",""time""
""focus"",""0"",""2299""
""fullscreenenter"",""0"",""4672""
""blur"",""2"",""13310""
""focus"",""3"",""18892""
""blur"",""4"",""27548""
""focus"",""5"",""45811""
""blur"",""6"",""52854""
""focus"",""7"",""67540""
""blur"",""12"",""112264""
""focus"",""13"",""134788""
""blur"",""16"",""170203""
""focus"",""17"",""172083""
""fullscreenexit"",""21"",""186403""
","""event"",""trial"",""time""
""blur"",""2"",""13310""
""blur"",""4"",""27548""
""blur"",""6"",""52854""
""blur"",""12"",""112264""
""blur"",""16"",""170203""
","""event"",""trial"",""time""
""focus"",""0"",""2299""
""focus"",""3"",""18892""
""focus"",""5"",""45811""
""focus"",""7"",""67540""
""focus"",""13"",""134788""
""focus"",""17"",""172083""
","""event"",""trial"",""time""
""fullscreenenter"",""0"",""4672""
","""event"",""trial"",""time""
""fullscreenexit"",""21"",""186403""
","null","<p></p>","null","","","","","","","","","","","","","","","","","","","","","","","",""
"","do_trial","51","253575","0.0-35.0-0.0","""event"",""trial"",""time""
""focus"",""0"",""2299""
""fullscreenenter"",""0"",""4672""
""blur"",""2"",""13310""
""focus"",""3"",""18892""
""blur"",""4"",""27548""
""focus"",""5"",""45811""
""blur"",""6"",""52854""
""focus"",""7"",""67540""
""blur"",""12"",""112264""
""focus"",""13"",""134788""
""blur"",""16"",""170203""
""focus"",""17"",""172083""
""fullscreenexit"",""21"",""186403""
","""event"",""trial"",""time""
""blur"",""2"",""13310""
""blur"",""4"",""27548""
""blur"",""6"",""52854""
""blur"",""12"",""112264""
""blur"",""16"",""170203""
","""event"",""trial"",""time""
""focus"",""0"",""2299""
""focus"",""3"",""18892""
""focus"",""5"",""45811""
""focus"",""7"",""67540""
""focus"",""13"",""134788""
""focus"",""17"",""172083""
","""event"",""trial"",""time""
""fullscreenenter"",""0"",""4672""
","""event"",""trial"",""time""
""fullscreenexit"",""21"",""186403""
","1443.3000000715256","","","","","","","","49","1,0,0","6","blank","246","null","0.5758897070046378","0.17524130359329249","0.25818785000962835","1","","","","","","","","",""
"","html-keyboard-response","52","254581","0.0-35.0-1.0","""event"",""trial"",""time""
""focus"",""0"",""2299""
""fullscreenenter"",""0"",""4672""
""blur"",""2"",""13310""
""focus"",""3"",""18892""
""blur"",""4"",""27548""
""focus"",""5"",""45811""
""blur"",""6"",""52854""
""focus"",""7"",""67540""
""blur"",""12"",""112264""
""focus"",""13"",""134788""
""blur"",""16"",""170203""
""focus"",""17"",""172083""
""fullscreenexit"",""21"",""186403""
","""event"",""trial"",""time""
""blur"",""2"",""13310""
""blur"",""4"",""27548""
""blur"",""6"",""52854""
""blur"",""12"",""112264""
""blur"",""16"",""170203""
","""event"",""trial"",""time""
""focus"",""0"",""2299""
""focus"",""3"",""18892""
""focus"",""5"",""45811""
""focus"",""7"",""67540""
""focus"",""13"",""134788""
""focus"",""17"",""172083""
","""event"",""trial"",""time""
""fullscreenenter"",""0"",""4672""
","""event"",""trial"",""time""
""fullscreenexit"",""21"",""186403""
","null","<p></p>","null","","","","","","","","","","","","","","","","","","","","","","","",""
"","do_recog","53","257625","0.0-36.0-0.0","""event"",""trial"",""time""
""focus"",""0"",""2299""
""fullscreenenter"",""0"",""4672""
""blur"",""2"",""13310""
""focus"",""3"",""18892""
""blur"",""4"",""27548""
""focus"",""5"",""45811""
""blur"",""6"",""52854""
""focus"",""7"",""67540""
""blur"",""12"",""112264""
""focus"",""13"",""134788""
""blur"",""16"",""170203""
""focus"",""17"",""172083""
""fullscreenexit"",""21"",""186403""
","""event"",""trial"",""time""
""blur"",""2"",""13310""
""blur"",""4"",""27548""
""blur"",""6"",""52854""
""blur"",""12"",""112264""
""blur"",""16"",""170203""
","""event"",""trial"",""time""
""focus"",""0"",""2299""
""focus"",""3"",""18892""
""focus"",""5"",""45811""
""focus"",""7"",""67540""
""focus"",""13"",""134788""
""focus"",""17"",""172083""
","""event"",""trial"",""time""
""fullscreenenter"",""0"",""4672""
","""event"",""trial"",""time""
""fullscreenexit"",""21"",""186403""
","1534.5999999046326","","","","","","","","56","","","","247","probe-111","","","","","1","[object Object]","198","4","0","","","",""
"","html-keyboard-response","54","258628","0.0-36.0-1.0","""event"",""trial"",""time""
""focus"",""0"",""2299""
""fullscreenenter"",""0"",""4672""
""blur"",""2"",""13310""
""focus"",""3"",""18892""
""blur"",""4"",""27548""
""focus"",""5"",""45811""
""blur"",""6"",""52854""
""focus"",""7"",""67540""
""blur"",""12"",""112264""
""focus"",""13"",""134788""
""blur"",""16"",""170203""
""focus"",""17"",""172083""
""fullscreenexit"",""21"",""186403""
","""event"",""trial"",""time""
""blur"",""2"",""13310""
""blur"",""4"",""27548""
""blur"",""6"",""52854""
""blur"",""12"",""112264""
""blur"",""16"",""170203""
","""event"",""trial"",""time""
""focus"",""0"",""2299""
""focus"",""3"",""18892""
""focus"",""5"",""45811""
""focus"",""7"",""67540""
""focus"",""13"",""134788""
""focus"",""17"",""172083""
","""event"",""trial"",""time""
""fullscreenenter"",""0"",""4672""
","""event"",""trial"",""time""
""fullscreenexit"",""21"",""186403""
","null","<p></p>","null","","","","","","","","","","","","","","","","","","","","","","","",""
"","do_trial","55","261953","0.0-37.0-0.0","""event"",""trial"",""time""
""focus"",""0"",""2299""
""fullscreenenter"",""0"",""4672""
""blur"",""2"",""13310""
""focus"",""3"",""18892""
""blur"",""4"",""27548""
""focus"",""5"",""45811""
""blur"",""6"",""52854""
""focus"",""7"",""67540""
""blur"",""12"",""112264""
""focus"",""13"",""134788""
""blur"",""16"",""170203""
""focus"",""17"",""172083""
""fullscreenexit"",""21"",""186403""
","""event"",""trial"",""time""
""blur"",""2"",""13310""
""blur"",""4"",""27548""
""blur"",""6"",""52854""
""blur"",""12"",""112264""
""blur"",""16"",""170203""
","""event"",""trial"",""time""
""focus"",""0"",""2299""
""focus"",""3"",""18892""
""focus"",""5"",""45811""
""focus"",""7"",""67540""
""focus"",""13"",""134788""
""focus"",""17"",""172083""
","""event"",""trial"",""time""
""fullscreenenter"",""0"",""4672""
","""event"",""trial"",""time""
""fullscreenexit"",""21"",""186403""
","759.1999999284744","","","","","","","","49","1,0,0","6","blank","248","null","0.6020917662395886","0.19889087761344612","0.3368309113210472","1","","","","","","","","",""
"","html-keyboard-response","56","262962","0.0-37.0-1.0","""event"",""trial"",""time""
""focus"",""0"",""2299""
""fullscreenenter"",""0"",""4672""
""blur"",""2"",""13310""
""focus"",""3"",""18892""
""blur"",""4"",""27548""
""focus"",""5"",""45811""
""blur"",""6"",""52854""
""focus"",""7"",""67540""
""blur"",""12"",""112264""
""focus"",""13"",""134788""
""blur"",""16"",""170203""
""focus"",""17"",""172083""
""fullscreenexit"",""21"",""186403""
","""event"",""trial"",""time""
""blur"",""2"",""13310""
""blur"",""4"",""27548""
""blur"",""6"",""52854""
""blur"",""12"",""112264""
""blur"",""16"",""170203""
","""event"",""trial"",""time""
""focus"",""0"",""2299""
""focus"",""3"",""18892""
""focus"",""5"",""45811""
""focus"",""7"",""67540""
""focus"",""13"",""134788""
""focus"",""17"",""172083""
","""event"",""trial"",""time""
""fullscreenenter"",""0"",""4672""
","""event"",""trial"",""time""
""fullscreenexit"",""21"",""186403""
","null","<p></p>","null","","","","","","","","","","","","","","","","","","","","","","","",""
"","do_trial","57","266378","0.0-38.0-0.0","""event"",""trial"",""time""
""focus"",""0"",""2299""
""fullscreenenter"",""0"",""4672""
""blur"",""2"",""13310""
""focus"",""3"",""18892""
""blur"",""4"",""27548""
""focus"",""5"",""45811""
""blur"",""6"",""52854""
""focus"",""7"",""67540""
""blur"",""12"",""112264""
""focus"",""13"",""134788""
""blur"",""16"",""170203""
""focus"",""17"",""172083""
""fullscreenexit"",""21"",""186403""
","""event"",""trial"",""time""
""blur"",""2"",""13310""
""blur"",""4"",""27548""
""blur"",""6"",""52854""
""blur"",""12"",""112264""
""blur"",""16"",""170203""
","""event"",""trial"",""time""
""focus"",""0"",""2299""
""focus"",""3"",""18892""
""focus"",""5"",""45811""
""focus"",""7"",""67540""
""focus"",""13"",""134788""
""focus"",""17"",""172083""
","""event"",""trial"",""time""
""fullscreenenter"",""0"",""4672""
","""event"",""trial"",""time""
""fullscreenexit"",""21"",""186403""
","850.6999999284744","","","","","","","","50","1,0,1","6","blank","249","null","0.6211034382145435","0.05486569801255801","0.35860345489346146","0","","","","","","","","",""
"","html-keyboard-response","58","267383","0.0-38.0-1.0","""event"",""trial"",""time""
""focus"",""0"",""2299""
""fullscreenenter"",""0"",""4672""
""blur"",""2"",""13310""
""focus"",""3"",""18892""
""blur"",""4"",""27548""
""focus"",""5"",""45811""
""blur"",""6"",""52854""
""focus"",""7"",""67540""
""blur"",""12"",""112264""
""focus"",""13"",""134788""
""blur"",""16"",""170203""
""focus"",""17"",""172083""
""fullscreenexit"",""21"",""186403""
","""event"",""trial"",""time""
""blur"",""2"",""13310""
""blur"",""4"",""27548""
""blur"",""6"",""52854""
""blur"",""12"",""112264""
""blur"",""16"",""170203""
","""event"",""trial"",""time""
""focus"",""0"",""2299""
""focus"",""3"",""18892""
""focus"",""5"",""45811""
""focus"",""7"",""67540""
""focus"",""13"",""134788""
""focus"",""17"",""172083""
","""event"",""trial"",""time""
""fullscreenenter"",""0"",""4672""
","""event"",""trial"",""time""
""fullscreenexit"",""21"",""186403""
","null","<p></p>","null","","","","","","","","","","","","","","","","","","","","","","","",""
"","do_trial","59","270702","0.0-39.0-0.0","""event"",""trial"",""time""
""focus"",""0"",""2299""
""fullscreenenter"",""0"",""4672""
""blur"",""2"",""13310""
""focus"",""3"",""18892""
""blur"",""4"",""27548""
""focus"",""5"",""45811""
""blur"",""6"",""52854""
""focus"",""7"",""67540""
""blur"",""12"",""112264""
""focus"",""13"",""134788""
""blur"",""16"",""170203""
""focus"",""17"",""172083""
""fullscreenexit"",""21"",""186403""
","""event"",""trial"",""time""
""blur"",""2"",""13310""
""blur"",""4"",""27548""
""blur"",""6"",""52854""
""blur"",""12"",""112264""
""blur"",""16"",""170203""
","""event"",""trial"",""time""
""focus"",""0"",""2299""
""focus"",""3"",""18892""
""focus"",""5"",""45811""
""focus"",""7"",""67540""
""focus"",""13"",""134788""
""focus"",""17"",""172083""
","""event"",""trial"",""time""
""fullscreenenter"",""0"",""4672""
","""event"",""trial"",""time""
""fullscreenexit"",""21"",""186403""
","757","","","","","","","","49","1,0,1","6","blank","250","null","0.5880776616700785","0.0897582178533783","0.406409639823699","1","","","","","","","","",""
"","html-keyboard-response","60","271709","0.0-39.0-1.0","""event"",""trial"",""time""
""focus"",""0"",""2299""
""fullscreenenter"",""0"",""4672""
""blur"",""2"",""13310""
""focus"",""3"",""18892""
""blur"",""4"",""27548""
""focus"",""5"",""45811""
""blur"",""6"",""52854""
""focus"",""7"",""67540""
""blur"",""12"",""112264""
""focus"",""13"",""134788""
""blur"",""16"",""170203""
""focus"",""17"",""172083""
""fullscreenexit"",""21"",""186403""
","""event"",""trial"",""time""
""blur"",""2"",""13310""
""blur"",""4"",""27548""
""blur"",""6"",""52854""
""blur"",""12"",""112264""
""blur"",""16"",""170203""
","""event"",""trial"",""time""
""focus"",""0"",""2299""
""focus"",""3"",""18892""
""focus"",""5"",""45811""
""focus"",""7"",""67540""
""focus"",""13"",""134788""
""focus"",""17"",""172083""
","""event"",""trial"",""time""
""fullscreenenter"",""0"",""4672""
","""event"",""trial"",""time""
""fullscreenexit"",""21"",""186403""
","null","<p></p>","null","","","","","","","","","","","","","","","","","","","","","","","",""
"","do_trial","61","274588","0.0-40.0-0.0","""event"",""trial"",""time""
""focus"",""0"",""2299""
""fullscreenenter"",""0"",""4672""
""blur"",""2"",""13310""
""focus"",""3"",""18892""
""blur"",""4"",""27548""
""focus"",""5"",""45811""
""blur"",""6"",""52854""
""focus"",""7"",""67540""
""blur"",""12"",""112264""
""focus"",""13"",""134788""
""blur"",""16"",""170203""
""focus"",""17"",""172083""
""fullscreenexit"",""21"",""186403""
","""event"",""trial"",""time""
""blur"",""2"",""13310""
""blur"",""4"",""27548""
""blur"",""6"",""52854""
""blur"",""12"",""112264""
""blur"",""16"",""170203""
","""event"",""trial"",""time""
""focus"",""0"",""2299""
""focus"",""3"",""18892""
""focus"",""5"",""45811""
""focus"",""7"",""67540""
""focus"",""13"",""134788""
""focus"",""17"",""172083""
","""event"",""trial"",""time""
""fullscreenenter"",""0"",""4672""
","""event"",""trial"",""time""
""fullscreenexit"",""21"",""186403""
","318.8000000715256","","","","","","","","50","1,0,0","6","blank","251","null","0.656720332207706","0.08688324055057343","0.13982544893450846","0","","","","","","","","",""
"","html-keyboard-response","62","275594","0.0-40.0-1.0","""event"",""trial"",""time""
""focus"",""0"",""2299""
""fullscreenenter"",""0"",""4672""
""blur"",""2"",""13310""
""focus"",""3"",""18892""
""blur"",""4"",""27548""
""focus"",""5"",""45811""
""blur"",""6"",""52854""
""focus"",""7"",""67540""
""blur"",""12"",""112264""
""focus"",""13"",""134788""
""blur"",""16"",""170203""
""focus"",""17"",""172083""
""fullscreenexit"",""21"",""186403""
","""event"",""trial"",""time""
""blur"",""2"",""13310""
""blur"",""4"",""27548""
""blur"",""6"",""52854""
""blur"",""12"",""112264""
""blur"",""16"",""170203""
","""event"",""trial"",""time""
""focus"",""0"",""2299""
""focus"",""3"",""18892""
""focus"",""5"",""45811""
""focus"",""7"",""67540""
""focus"",""13"",""134788""
""focus"",""17"",""172083""
","""event"",""trial"",""time""
""fullscreenenter"",""0"",""4672""
","""event"",""trial"",""time""
""fullscreenexit"",""21"",""186403""
","null","<p></p>","null","","","","","","","","","","","","","","","","","","","","","","","",""
"","do_recog","63","278672","0.0-41.0-0.0","""event"",""trial"",""time""
""focus"",""0"",""2299""
""fullscreenenter"",""0"",""4672""
""blur"",""2"",""13310""
""focus"",""3"",""18892""
""blur"",""4"",""27548""
""focus"",""5"",""45811""
""blur"",""6"",""52854""
""focus"",""7"",""67540""
""blur"",""12"",""112264""
""focus"",""13"",""134788""
""blur"",""16"",""170203""
""focus"",""17"",""172083""
""fullscreenexit"",""21"",""186403""
","""event"",""trial"",""time""
""blur"",""2"",""13310""
""blur"",""4"",""27548""
""blur"",""6"",""52854""
""blur"",""12"",""112264""
""blur"",""16"",""170203""
","""event"",""trial"",""time""
""focus"",""0"",""2299""
""focus"",""3"",""18892""
""focus"",""5"",""45811""
""focus"",""7"",""67540""
""focus"",""13"",""134788""
""focus"",""17"",""172083""
","""event"",""trial"",""time""
""fullscreenenter"",""0"",""4672""
","""event"",""trial"",""time""
""fullscreenexit"",""21"",""186403""
","1564.8999999761581","","","","","","","","56","","","","252","probe-39","","","","","1","[object Object]","117","2","0","","","",""
"","html-keyboard-response","64","279679","0.0-41.0-1.0","""event"",""trial"",""time""
""focus"",""0"",""2299""
""fullscreenenter"",""0"",""4672""
""blur"",""2"",""13310""
""focus"",""3"",""18892""
""blur"",""4"",""27548""
""focus"",""5"",""45811""
""blur"",""6"",""52854""
""focus"",""7"",""67540""
""blur"",""12"",""112264""
""focus"",""13"",""134788""
""blur"",""16"",""170203""
""focus"",""17"",""172083""
""fullscreenexit"",""21"",""186403""
","""event"",""trial"",""time""
""blur"",""2"",""13310""
""blur"",""4"",""27548""
""blur"",""6"",""52854""
""blur"",""12"",""112264""
""blur"",""16"",""170203""
","""event"",""trial"",""time""
""focus"",""0"",""2299""
""focus"",""3"",""18892""
""focus"",""5"",""45811""
""focus"",""7"",""67540""
""focus"",""13"",""134788""
""focus"",""17"",""172083""
","""event"",""trial"",""time""
""fullscreenenter"",""0"",""4672""
","""event"",""trial"",""time""
""fullscreenexit"",""21"",""186403""
","null","<p></p>","null","","","","","","","","","","","","","","","","","","","","","","","",""
"","do_trial","65","282684","0.0-42.0-0.0","""event"",""trial"",""time""
""focus"",""0"",""2299""
""fullscreenenter"",""0"",""4672""
""blur"",""2"",""13310""
""focus"",""3"",""18892""
""blur"",""4"",""27548""
""focus"",""5"",""45811""
""blur"",""6"",""52854""
""focus"",""7"",""67540""
""blur"",""12"",""112264""
""focus"",""13"",""134788""
""blur"",""16"",""170203""
""focus"",""17"",""172083""
""fullscreenexit"",""21"",""186403""
","""event"",""trial"",""time""
""blur"",""2"",""13310""
""blur"",""4"",""27548""
""blur"",""6"",""52854""
""blur"",""12"",""112264""
""blur"",""16"",""170203""
","""event"",""trial"",""time""
""focus"",""0"",""2299""
""focus"",""3"",""18892""
""focus"",""5"",""45811""
""focus"",""7"",""67540""
""focus"",""13"",""134788""
""focus"",""17"",""172083""
","""event"",""trial"",""time""
""fullscreenenter"",""0"",""4672""
","""event"",""trial"",""time""
""fullscreenexit"",""21"",""186403""
","441.2999999523163","","","","","","","","49","1,0,1","6","blank","253","null","0.6405650319663115","0.11246989715429384","0.23916202030757838","1","","","","","","","","",""
"","html-keyboard-response","66","283690","0.0-42.0-1.0","""event"",""trial"",""time""
""focus"",""0"",""2299""
""fullscreenenter"",""0"",""4672""
""blur"",""2"",""13310""
""focus"",""3"",""18892""
""blur"",""4"",""27548""
""focus"",""5"",""45811""
""blur"",""6"",""52854""
""focus"",""7"",""67540""
""blur"",""12"",""112264""
""focus"",""13"",""134788""
""blur"",""16"",""170203""
""focus"",""17"",""172083""
""fullscreenexit"",""21"",""186403""
","""event"",""trial"",""time""
""blur"",""2"",""13310""
""blur"",""4"",""27548""
""blur"",""6"",""52854""
""blur"",""12"",""112264""
""blur"",""16"",""170203""
","""event"",""trial"",""time""
""focus"",""0"",""2299""
""focus"",""3"",""18892""
""focus"",""5"",""45811""
""focus"",""7"",""67540""
""focus"",""13"",""134788""
""focus"",""17"",""172083""
","""event"",""trial"",""time""
""fullscreenenter"",""0"",""4672""
","""event"",""trial"",""time""
""fullscreenexit"",""21"",""186403""
","null","<p></p>","null","","","","","","","","","","","","","","","","","","","","","","","",""
"","do_trial","67","286786","0.0-43.0-0.0","""event"",""trial"",""time""
""focus"",""0"",""2299""
""fullscreenenter"",""0"",""4672""
""blur"",""2"",""13310""
""focus"",""3"",""18892""
""blur"",""4"",""27548""
""focus"",""5"",""45811""
""blur"",""6"",""52854""
""focus"",""7"",""67540""
""blur"",""12"",""112264""
""focus"",""13"",""134788""
""blur"",""16"",""170203""
""focus"",""17"",""172083""
""fullscreenexit"",""21"",""186403""
","""event"",""trial"",""time""
""blur"",""2"",""13310""
""blur"",""4"",""27548""
""blur"",""6"",""52854""
""blur"",""12"",""112264""
""blur"",""16"",""170203""
","""event"",""trial"",""time""
""focus"",""0"",""2299""
""focus"",""3"",""18892""
""focus"",""5"",""45811""
""focus"",""7"",""67540""
""focus"",""13"",""134788""
""focus"",""17"",""172083""
","""event"",""trial"",""time""
""fullscreenenter"",""0"",""4672""
","""event"",""trial"",""time""
""fullscreenexit"",""21"",""186403""
","535.2999999523163","","","","","","","","49","1,1,0","6","blank","254","null","0.5706915273216171","0.05586655678031478","0.24254718307470288","1","","","","","","","","",""
"","html-keyboard-response","68","287793","0.0-43.0-1.0","""event"",""trial"",""time""
""focus"",""0"",""2299""
""fullscreenenter"",""0"",""4672""
""blur"",""2"",""13310""
""focus"",""3"",""18892""
""blur"",""4"",""27548""
""focus"",""5"",""45811""
""blur"",""6"",""52854""
""focus"",""7"",""67540""
""blur"",""12"",""112264""
""focus"",""13"",""134788""
""blur"",""16"",""170203""
""focus"",""17"",""172083""
""fullscreenexit"",""21"",""186403""
","""event"",""trial"",""time""
""blur"",""2"",""13310""
""blur"",""4"",""27548""
""blur"",""6"",""52854""
""blur"",""12"",""112264""
""blur"",""16"",""170203""
","""event"",""trial"",""time""
""focus"",""0"",""2299""
""focus"",""3"",""18892""
""focus"",""5"",""45811""
""focus"",""7"",""67540""
""focus"",""13"",""134788""
""focus"",""17"",""172083""
","""event"",""trial"",""time""
""fullscreenenter"",""0"",""4672""
","""event"",""trial"",""time""
""fullscreenexit"",""21"",""186403""
","null","<p></p>","null","","","","","","","","","","","","","","","","","","","","","","","",""
"","do_trial","69","291133","0.0-44.0-0.0","""event"",""trial"",""time""
""focus"",""0"",""2299""
""fullscreenenter"",""0"",""4672""
""blur"",""2"",""13310""
""focus"",""3"",""18892""
""blur"",""4"",""27548""
""focus"",""5"",""45811""
""blur"",""6"",""52854""
""focus"",""7"",""67540""
""blur"",""12"",""112264""
""focus"",""13"",""134788""
""blur"",""16"",""170203""
""focus"",""17"",""172083""
""fullscreenexit"",""21"",""186403""
","""event"",""trial"",""time""
""blur"",""2"",""13310""
""blur"",""4"",""27548""
""blur"",""6"",""52854""
""blur"",""12"",""112264""
""blur"",""16"",""170203""
","""event"",""trial"",""time""
""focus"",""0"",""2299""
""focus"",""3"",""18892""
""focus"",""5"",""45811""
""focus"",""7"",""67540""
""focus"",""13"",""134788""
""focus"",""17"",""172083""
","""event"",""trial"",""time""
""fullscreenenter"",""0"",""4672""
","""event"",""trial"",""time""
""fullscreenexit"",""21"",""186403""
","772.6000000238419","","","","","","","","50","0,0,0","6","blank","255","null","0.5687889275794821","0.1672923540685693","0.15804513136206674","0","","","","","","","","",""
"","html-keyboard-response","70","292137","0.0-44.0-1.0","""event"",""trial"",""time""
""focus"",""0"",""2299""
""fullscreenenter"",""0"",""4672""
""blur"",""2"",""13310""
""focus"",""3"",""18892""
""blur"",""4"",""27548""
""focus"",""5"",""45811""
""blur"",""6"",""52854""
""focus"",""7"",""67540""
""blur"",""12"",""112264""
""focus"",""13"",""134788""
""blur"",""16"",""170203""
""focus"",""17"",""172083""
""fullscreenexit"",""21"",""186403""
","""event"",""trial"",""time""
""blur"",""2"",""13310""
""blur"",""4"",""27548""
""blur"",""6"",""52854""
""blur"",""12"",""112264""
""blur"",""16"",""170203""
","""event"",""trial"",""time""
""focus"",""0"",""2299""
""focus"",""3"",""18892""
""focus"",""5"",""45811""
""focus"",""7"",""67540""
""focus"",""13"",""134788""
""focus"",""17"",""172083""
","""event"",""trial"",""time""
""fullscreenenter"",""0"",""4672""
","""event"",""trial"",""time""
""fullscreenexit"",""21"",""186403""
","null","<p></p>","null","","","","","","","","","","","","","","","","","","","","","","","",""
"","do_trial","71","295464","0.0-45.0-0.0","""event"",""trial"",""time""
""focus"",""0"",""2299""
""fullscreenenter"",""0"",""4672""
""blur"",""2"",""13310""
""focus"",""3"",""18892""
""blur"",""4"",""27548""
""focus"",""5"",""45811""
""blur"",""6"",""52854""
""focus"",""7"",""67540""
""blur"",""12"",""112264""
""focus"",""13"",""134788""
""blur"",""16"",""170203""
""focus"",""17"",""172083""
""fullscreenexit"",""21"",""186403""
","""event"",""trial"",""time""
""blur"",""2"",""13310""
""blur"",""4"",""27548""
""blur"",""6"",""52854""
""blur"",""12"",""112264""
""blur"",""16"",""170203""
","""event"",""trial"",""time""
""focus"",""0"",""2299""
""focus"",""3"",""18892""
""focus"",""5"",""45811""
""focus"",""7"",""67540""
""focus"",""13"",""134788""
""focus"",""17"",""172083""
","""event"",""trial"",""time""
""fullscreenenter"",""0"",""4672""
","""event"",""trial"",""time""
""fullscreenexit"",""21"",""186403""
","755.7999999523163","","","","","","","","49","1,0,0","6","blank","256","null","0.5882032406914199","0.12237375105644858","0.14167887652989997","1","","","","","","","","",""
"","html-keyboard-response","72","296471","0.0-45.0-1.0","""event"",""trial"",""time""
""focus"",""0"",""2299""
""fullscreenenter"",""0"",""4672""
""blur"",""2"",""13310""
""focus"",""3"",""18892""
""blur"",""4"",""27548""
""focus"",""5"",""45811""
""blur"",""6"",""52854""
""focus"",""7"",""67540""
""blur"",""12"",""112264""
""focus"",""13"",""134788""
""blur"",""16"",""170203""
""focus"",""17"",""172083""
""fullscreenexit"",""21"",""186403""
","""event"",""trial"",""time""
""blur"",""2"",""13310""
""blur"",""4"",""27548""
""blur"",""6"",""52854""
""blur"",""12"",""112264""
""blur"",""16"",""170203""
","""event"",""trial"",""time""
""focus"",""0"",""2299""
""focus"",""3"",""18892""
""focus"",""5"",""45811""
""focus"",""7"",""67540""
""focus"",""13"",""134788""
""focus"",""17"",""172083""
","""event"",""trial"",""time""
""fullscreenenter"",""0"",""4672""
","""event"",""trial"",""time""
""fullscreenexit"",""21"",""186403""
","null","<p></p>","null","","","","","","","","","","","","","","","","","","","","","","","",""
"","do_recog","73","299675","0.0-46.0-0.0","""event"",""trial"",""time""
""focus"",""0"",""2299""
""fullscreenenter"",""0"",""4672""
""blur"",""2"",""13310""
""focus"",""3"",""18892""
""blur"",""4"",""27548""
""focus"",""5"",""45811""
""blur"",""6"",""52854""
""focus"",""7"",""67540""
""blur"",""12"",""112264""
""focus"",""13"",""134788""
""blur"",""16"",""170203""
""focus"",""17"",""172083""
""fullscreenexit"",""21"",""186403""
","""event"",""trial"",""time""
""blur"",""2"",""13310""
""blur"",""4"",""27548""
""blur"",""6"",""52854""
""blur"",""12"",""112264""
""blur"",""16"",""170203""
","""event"",""trial"",""time""
""focus"",""0"",""2299""
""focus"",""3"",""18892""
""focus"",""5"",""45811""
""focus"",""7"",""67540""
""focus"",""13"",""134788""
""focus"",""17"",""172083""
","""event"",""trial"",""time""
""fullscreenenter"",""0"",""4672""
","""event"",""trial"",""time""
""fullscreenexit"",""21"",""186403""
","1692.6999999284744","","","","","","","","55","","","","257","probe-152","","","","","1","[object Object]","71","1","0","","","",""
"","html-keyboard-response","74","300683","0.0-46.0-1.0","""event"",""trial"",""time""
""focus"",""0"",""2299""
""fullscreenenter"",""0"",""4672""
""blur"",""2"",""13310""
""focus"",""3"",""18892""
""blur"",""4"",""27548""
""focus"",""5"",""45811""
""blur"",""6"",""52854""
""focus"",""7"",""67540""
""blur"",""12"",""112264""
""focus"",""13"",""134788""
""blur"",""16"",""170203""
""focus"",""17"",""172083""
""fullscreenexit"",""21"",""186403""
","""event"",""trial"",""time""
""blur"",""2"",""13310""
""blur"",""4"",""27548""
""blur"",""6"",""52854""
""blur"",""12"",""112264""
""blur"",""16"",""170203""
","""event"",""trial"",""time""
""focus"",""0"",""2299""
""focus"",""3"",""18892""
""focus"",""5"",""45811""
""focus"",""7"",""67540""
""focus"",""13"",""134788""
""focus"",""17"",""172083""
","""event"",""trial"",""time""
""fullscreenenter"",""0"",""4672""
","""event"",""trial"",""time""
""fullscreenexit"",""21"",""186403""
","null","<p></p>","null","","","","","","","","","","","","","","","","","","","","","","","",""
"","do_trial","75","304211","0.0-47.0-0.0","""event"",""trial"",""time""
""focus"",""0"",""2299""
""fullscreenenter"",""0"",""4672""
""blur"",""2"",""13310""
""focus"",""3"",""18892""
""blur"",""4"",""27548""
""focus"",""5"",""45811""
""blur"",""6"",""52854""
""focus"",""7"",""67540""
""blur"",""12"",""112264""
""focus"",""13"",""134788""
""blur"",""16"",""170203""
""focus"",""17"",""172083""
""fullscreenexit"",""21"",""186403""
","""event"",""trial"",""time""
""blur"",""2"",""13310""
""blur"",""4"",""27548""
""blur"",""6"",""52854""
""blur"",""12"",""112264""
""blur"",""16"",""170203""
","""event"",""trial"",""time""
""focus"",""0"",""2299""
""focus"",""3"",""18892""
""focus"",""5"",""45811""
""focus"",""7"",""67540""
""focus"",""13"",""134788""
""focus"",""17"",""172083""
","""event"",""trial"",""time""
""fullscreenenter"",""0"",""4672""
","""event"",""trial"",""time""
""fullscreenexit"",""21"",""186403""
","952.1000000238419","","","","","","","","51","0,1,0","6","blank","258","null","0.6328510517725614","0.12910138041643804","0.4241508959737228","0","","","","","","","","",""
"","html-keyboard-response","76","305214","0.0-47.0-1.0","""event"",""trial"",""time""
""focus"",""0"",""2299""
""fullscreenenter"",""0"",""4672""
""blur"",""2"",""13310""
""focus"",""3"",""18892""
""blur"",""4"",""27548""
""focus"",""5"",""45811""
""blur"",""6"",""52854""
""focus"",""7"",""67540""
""blur"",""12"",""112264""
""focus"",""13"",""134788""
""blur"",""16"",""170203""
""focus"",""17"",""172083""
""fullscreenexit"",""21"",""186403""
","""event"",""trial"",""time""
""blur"",""2"",""13310""
""blur"",""4"",""27548""
""blur"",""6"",""52854""
""blur"",""12"",""112264""
""blur"",""16"",""170203""
","""event"",""trial"",""time""
""focus"",""0"",""2299""
""focus"",""3"",""18892""
""focus"",""5"",""45811""
""focus"",""7"",""67540""
""focus"",""13"",""134788""
""focus"",""17"",""172083""
","""event"",""trial"",""time""
""fullscreenenter"",""0"",""4672""
","""event"",""trial"",""time""
""fullscreenexit"",""21"",""186403""
","null","<p></p>","null","","","","","","","","","","","","","","","","","","","","","","","",""
"","do_recog","77","308137","0.0-48.0-0.0","""event"",""trial"",""time""
""focus"",""0"",""2299""
""fullscreenenter"",""0"",""4672""
""blur"",""2"",""13310""
""focus"",""3"",""18892""
""blur"",""4"",""27548""
""focus"",""5"",""45811""
""blur"",""6"",""52854""
""focus"",""7"",""67540""
""blur"",""12"",""112264""
""focus"",""13"",""134788""
""blur"",""16"",""170203""
""focus"",""17"",""172083""
""fullscreenexit"",""21"",""186403""
","""event"",""trial"",""time""
""blur"",""2"",""13310""
""blur"",""4"",""27548""
""blur"",""6"",""52854""
""blur"",""12"",""112264""
""blur"",""16"",""170203""
","""event"",""trial"",""time""
""focus"",""0"",""2299""
""focus"",""3"",""18892""
""focus"",""5"",""45811""
""focus"",""7"",""67540""
""focus"",""13"",""134788""
""focus"",""17"",""172083""
","""event"",""trial"",""time""
""fullscreenenter"",""0"",""4672""
","""event"",""trial"",""time""
""fullscreenexit"",""21"",""186403""
","1412.6000000238419","","","","","","","","56","","","","259","probe-148","","","","","1","[object Object]","36","0","0","","","",""
"","html-keyboard-response","78","309144","0.0-48.0-1.0","""event"",""trial"",""time""
""focus"",""0"",""2299""
""fullscreenenter"",""0"",""4672""
""blur"",""2"",""13310""
""focus"",""3"",""18892""
""blur"",""4"",""27548""
""focus"",""5"",""45811""
""blur"",""6"",""52854""
""focus"",""7"",""67540""
""blur"",""12"",""112264""
""focus"",""13"",""134788""
""blur"",""16"",""170203""
""focus"",""17"",""172083""
""fullscreenexit"",""21"",""186403""
","""event"",""trial"",""time""
""blur"",""2"",""13310""
""blur"",""4"",""27548""
""blur"",""6"",""52854""
""blur"",""12"",""112264""
""blur"",""16"",""170203""
","""event"",""trial"",""time""
""focus"",""0"",""2299""
""focus"",""3"",""18892""
""focus"",""5"",""45811""
""focus"",""7"",""67540""
""focus"",""13"",""134788""
""focus"",""17"",""172083""
","""event"",""trial"",""time""
""fullscreenenter"",""0"",""4672""
","""event"",""trial"",""time""
""fullscreenexit"",""21"",""186403""
","null","<p></p>","null","","","","","","","","","","","","","","","","","","","","","","","",""
"","do_trial","79","312797","0.0-49.0-0.0","""event"",""trial"",""time""
""focus"",""0"",""2299""
""fullscreenenter"",""0"",""4672""
""blur"",""2"",""13310""
""focus"",""3"",""18892""
""blur"",""4"",""27548""
""focus"",""5"",""45811""
""blur"",""6"",""52854""
""focus"",""7"",""67540""
""blur"",""12"",""112264""
""focus"",""13"",""134788""
""blur"",""16"",""170203""
""focus"",""17"",""172083""
""fullscreenexit"",""21"",""186403""
","""event"",""trial"",""time""
""blur"",""2"",""13310""
""blur"",""4"",""27548""
""blur"",""6"",""52854""
""blur"",""12"",""112264""
""blur"",""16"",""170203""
","""event"",""trial"",""time""
""focus"",""0"",""2299""
""focus"",""3"",""18892""
""focus"",""5"",""45811""
""focus"",""7"",""67540""
""focus"",""13"",""134788""
""focus"",""17"",""172083""
","""event"",""trial"",""time""
""fullscreenenter"",""0"",""4672""
","""event"",""trial"",""time""
""fullscreenexit"",""21"",""186403""
","1091.5","","","","","","","","49","0,0,1","6","blank","260","null","0.6822582417650201","0.1010832132064883","0.2900482661388306","0","","","","","","","","",""
"","html-keyboard-response","80","313803","0.0-49.0-1.0","""event"",""trial"",""time""
""focus"",""0"",""2299""
""fullscreenenter"",""0"",""4672""
""blur"",""2"",""13310""
""focus"",""3"",""18892""
""blur"",""4"",""27548""
""focus"",""5"",""45811""
""blur"",""6"",""52854""
""focus"",""7"",""67540""
""blur"",""12"",""112264""
""focus"",""13"",""134788""
""blur"",""16"",""170203""
""focus"",""17"",""172083""
""fullscreenexit"",""21"",""186403""
","""event"",""trial"",""time""
""blur"",""2"",""13310""
""blur"",""4"",""27548""
""blur"",""6"",""52854""
""blur"",""12"",""112264""
""blur"",""16"",""170203""
","""event"",""trial"",""time""
""focus"",""0"",""2299""
""focus"",""3"",""18892""
""focus"",""5"",""45811""
""focus"",""7"",""67540""
""focus"",""13"",""134788""
""focus"",""17"",""172083""
","""event"",""trial"",""time""
""fullscreenenter"",""0"",""4672""
","""event"",""trial"",""time""
""fullscreenexit"",""21"",""186403""
","null","<p></p>","null","","","","","","","","","","","","","","","","","","","","","","","",""
"","do_recog","81","316742","0.0-50.0-0.0","""event"",""trial"",""time""
""focus"",""0"",""2299""
""fullscreenenter"",""0"",""4672""
""blur"",""2"",""13310""
""focus"",""3"",""18892""
""blur"",""4"",""27548""
""focus"",""5"",""45811""
""blur"",""6"",""52854""
""focus"",""7"",""67540""
""blur"",""12"",""112264""
""focus"",""13"",""134788""
""blur"",""16"",""170203""
""focus"",""17"",""172083""
""fullscreenexit"",""21"",""186403""
","""event"",""trial"",""time""
""blur"",""2"",""13310""
""blur"",""4"",""27548""
""blur"",""6"",""52854""
""blur"",""12"",""112264""
""blur"",""16"",""170203""
","""event"",""trial"",""time""
""focus"",""0"",""2299""
""focus"",""3"",""18892""
""focus"",""5"",""45811""
""focus"",""7"",""67540""
""focus"",""13"",""134788""
""focus"",""17"",""172083""
","""event"",""trial"",""time""
""fullscreenenter"",""0"",""4672""
","""event"",""trial"",""time""
""fullscreenexit"",""21"",""186403""
","1423.3000000715256","","","","","","","","55","","","","261","probe-251","","","","","0","[object Object]","null","null","1","","","",""
"","html-keyboard-response","82","317749","0.0-50.0-1.0","""event"",""trial"",""time""
""focus"",""0"",""2299""
""fullscreenenter"",""0"",""4672""
""blur"",""2"",""13310""
""focus"",""3"",""18892""
""blur"",""4"",""27548""
""focus"",""5"",""45811""
""blur"",""6"",""52854""
""focus"",""7"",""67540""
""blur"",""12"",""112264""
""focus"",""13"",""134788""
""blur"",""16"",""170203""
""focus"",""17"",""172083""
""fullscreenexit"",""21"",""186403""
","""event"",""trial"",""time""
""blur"",""2"",""13310""
""blur"",""4"",""27548""
""blur"",""6"",""52854""
""blur"",""12"",""112264""
""blur"",""16"",""170203""
","""event"",""trial"",""time""
""focus"",""0"",""2299""
""focus"",""3"",""18892""
""focus"",""5"",""45811""
""focus"",""7"",""67540""
""focus"",""13"",""134788""
""focus"",""17"",""172083""
","""event"",""trial"",""time""
""fullscreenenter"",""0"",""4672""
","""event"",""trial"",""time""
""fullscreenexit"",""21"",""186403""
","null","<p></p>","null","","","","","","","","","","","","","","","","","","","","","","","",""
"","do_trial","83","321082","0.0-51.0-0.0","""event"",""trial"",""time""
""focus"",""0"",""2299""
""fullscreenenter"",""0"",""4672""
""blur"",""2"",""13310""
""focus"",""3"",""18892""
""blur"",""4"",""27548""
""focus"",""5"",""45811""
""blur"",""6"",""52854""
""focus"",""7"",""67540""
""blur"",""12"",""112264""
""focus"",""13"",""134788""
""blur"",""16"",""170203""
""focus"",""17"",""172083""
""fullscreenexit"",""21"",""186403""
","""event"",""trial"",""time""
""blur"",""2"",""13310""
""blur"",""4"",""27548""
""blur"",""6"",""52854""
""blur"",""12"",""112264""
""blur"",""16"",""170203""
","""event"",""trial"",""time""
""focus"",""0"",""2299""
""focus"",""3"",""18892""
""focus"",""5"",""45811""
""focus"",""7"",""67540""
""focus"",""13"",""134788""
""focus"",""17"",""172083""
","""event"",""trial"",""time""
""fullscreenenter"",""0"",""4672""
","""event"",""trial"",""time""
""fullscreenexit"",""21"",""186403""
","767.8999999761581","","","","","","","","49","1,0,1","6","blank","262","null","0.7062909602130291","0.0708606285305489","0.4507643044796543","1","","","","","","","","",""
"","html-keyboard-response","84","322085","0.0-51.0-1.0","""event"",""trial"",""time""
""focus"",""0"",""2299""
""fullscreenenter"",""0"",""4672""
""blur"",""2"",""13310""
""focus"",""3"",""18892""
""blur"",""4"",""27548""
""focus"",""5"",""45811""
""blur"",""6"",""52854""
""focus"",""7"",""67540""
""blur"",""12"",""112264""
""focus"",""13"",""134788""
""blur"",""16"",""170203""
""focus"",""17"",""172083""
""fullscreenexit"",""21"",""186403""
","""event"",""trial"",""time""
""blur"",""2"",""13310""
""blur"",""4"",""27548""
""blur"",""6"",""52854""
""blur"",""12"",""112264""
""blur"",""16"",""170203""
","""event"",""trial"",""time""
""focus"",""0"",""2299""
""focus"",""3"",""18892""
""focus"",""5"",""45811""
""focus"",""7"",""67540""
""focus"",""13"",""134788""
""focus"",""17"",""172083""
","""event"",""trial"",""time""
""fullscreenenter"",""0"",""4672""
","""event"",""trial"",""time""
""fullscreenexit"",""21"",""186403""
","null","<p></p>","null","","","","","","","","","","","","","","","","","","","","","","","",""
"","do_recog","85","326464","0.0-52.0-0.0","""event"",""trial"",""time""
""focus"",""0"",""2299""
""fullscreenenter"",""0"",""4672""
""blur"",""2"",""13310""
""focus"",""3"",""18892""
""blur"",""4"",""27548""
""focus"",""5"",""45811""
""blur"",""6"",""52854""
""focus"",""7"",""67540""
""blur"",""12"",""112264""
""focus"",""13"",""134788""
""blur"",""16"",""170203""
""focus"",""17"",""172083""
""fullscreenexit"",""21"",""186403""
","""event"",""trial"",""time""
""blur"",""2"",""13310""
""blur"",""4"",""27548""
""blur"",""6"",""52854""
""blur"",""12"",""112264""
""blur"",""16"",""170203""
","""event"",""trial"",""time""
""focus"",""0"",""2299""
""focus"",""3"",""18892""
""focus"",""5"",""45811""
""focus"",""7"",""67540""
""focus"",""13"",""134788""
""focus"",""17"",""172083""
","""event"",""trial"",""time""
""fullscreenenter"",""0"",""4672""
","""event"",""trial"",""time""
""fullscreenexit"",""21"",""186403""
","2864.600000023842","","","","","","","","53","","","","263","probe-91","","","","","1","[object Object]","72","1","1","","","",""
"","html-keyboard-response","86","327473","0.0-52.0-1.0","""event"",""trial"",""time""
""focus"",""0"",""2299""
""fullscreenenter"",""0"",""4672""
""blur"",""2"",""13310""
""focus"",""3"",""18892""
""blur"",""4"",""27548""
""focus"",""5"",""45811""
""blur"",""6"",""52854""
""focus"",""7"",""67540""
""blur"",""12"",""112264""
""focus"",""13"",""134788""
""blur"",""16"",""170203""
""focus"",""17"",""172083""
""fullscreenexit"",""21"",""186403""
","""event"",""trial"",""time""
""blur"",""2"",""13310""
""blur"",""4"",""27548""
""blur"",""6"",""52854""
""blur"",""12"",""112264""
""blur"",""16"",""170203""
","""event"",""trial"",""time""
""focus"",""0"",""2299""
""focus"",""3"",""18892""
""focus"",""5"",""45811""
""focus"",""7"",""67540""
""focus"",""13"",""134788""
""focus"",""17"",""172083""
","""event"",""trial"",""time""
""fullscreenenter"",""0"",""4672""
","""event"",""trial"",""time""
""fullscreenexit"",""21"",""186403""
","null","<p></p>","null","","","","","","","","","","","","","","","","","","","","","","","",""
"","do_trial","87","330699","0.0-53.0-0.0","""event"",""trial"",""time""
""focus"",""0"",""2299""
""fullscreenenter"",""0"",""4672""
""blur"",""2"",""13310""
""focus"",""3"",""18892""
""blur"",""4"",""27548""
""focus"",""5"",""45811""
""blur"",""6"",""52854""
""focus"",""7"",""67540""
""blur"",""12"",""112264""
""focus"",""13"",""134788""
""blur"",""16"",""170203""
""focus"",""17"",""172083""
""fullscreenexit"",""21"",""186403""
","""event"",""trial"",""time""
""blur"",""2"",""13310""
""blur"",""4"",""27548""
""blur"",""6"",""52854""
""blur"",""12"",""112264""
""blur"",""16"",""170203""
","""event"",""trial"",""time""
""focus"",""0"",""2299""
""focus"",""3"",""18892""
""focus"",""5"",""45811""
""focus"",""7"",""67540""
""focus"",""13"",""134788""
""focus"",""17"",""172083""
","""event"",""trial"",""time""
""fullscreenenter"",""0"",""4672""
","""event"",""trial"",""time""
""fullscreenexit"",""21"",""186403""
","664.6000000238419","","","","","","","","49","0,0,0","6","blank","264","null","0.7207278083321179","0.09784328488504163","0.36146419315457406","0","","","","","","","","",""
"","html-keyboard-response","88","331705","0.0-53.0-1.0","""event"",""trial"",""time""
""focus"",""0"",""2299""
""fullscreenenter"",""0"",""4672""
""blur"",""2"",""13310""
""focus"",""3"",""18892""
""blur"",""4"",""27548""
""focus"",""5"",""45811""
""blur"",""6"",""52854""
""focus"",""7"",""67540""
""blur"",""12"",""112264""
""focus"",""13"",""134788""
""blur"",""16"",""170203""
""focus"",""17"",""172083""
""fullscreenexit"",""21"",""186403""
","""event"",""trial"",""time""
""blur"",""2"",""13310""
""blur"",""4"",""27548""
""blur"",""6"",""52854""
""blur"",""12"",""112264""
""blur"",""16"",""170203""
","""event"",""trial"",""time""
""focus"",""0"",""2299""
""focus"",""3"",""18892""
""focus"",""5"",""45811""
""focus"",""7"",""67540""
""focus"",""13"",""134788""
""focus"",""17"",""172083""
","""event"",""trial"",""time""
""fullscreenenter"",""0"",""4672""
","""event"",""trial"",""time""
""fullscreenexit"",""21"",""186403""
","null","<p></p>","null","","","","","","","","","","","","","","","","","","","","","","","",""
"","do_trial","89","335138","0.0-54.0-0.0","""event"",""trial"",""time""
""focus"",""0"",""2299""
""fullscreenenter"",""0"",""4672""
""blur"",""2"",""13310""
""focus"",""3"",""18892""
""blur"",""4"",""27548""
""focus"",""5"",""45811""
""blur"",""6"",""52854""
""focus"",""7"",""67540""
""blur"",""12"",""112264""
""focus"",""13"",""134788""
""blur"",""16"",""170203""
""focus"",""17"",""172083""
""fullscreenexit"",""21"",""186403""
","""event"",""trial"",""time""
""blur"",""2"",""13310""
""blur"",""4"",""27548""
""blur"",""6"",""52854""
""blur"",""12"",""112264""
""blur"",""16"",""170203""
","""event"",""trial"",""time""
""focus"",""0"",""2299""
""focus"",""3"",""18892""
""focus"",""5"",""45811""
""focus"",""7"",""67540""
""focus"",""13"",""134788""
""focus"",""17"",""172083""
","""event"",""trial"",""time""
""fullscreenenter"",""0"",""4672""
","""event"",""trial"",""time""
""fullscreenexit"",""21"",""186403""
","872","","","","","","","","49","0,0,1","6","blank","265","null","0.6917057034609052","0.08806134419823299","0.3356837775539664","0","","","","","","","","",""
"","html-keyboard-response","90","336145","0.0-54.0-1.0","""event"",""trial"",""time""
""focus"",""0"",""2299""
""fullscreenenter"",""0"",""4672""
""blur"",""2"",""13310""
""focus"",""3"",""18892""
""blur"",""4"",""27548""
""focus"",""5"",""45811""
""blur"",""6"",""52854""
""focus"",""7"",""67540""
""blur"",""12"",""112264""
""focus"",""13"",""134788""
""blur"",""16"",""170203""
""focus"",""17"",""172083""
""fullscreenexit"",""21"",""186403""
","""event"",""trial"",""time""
""blur"",""2"",""13310""
""blur"",""4"",""27548""
""blur"",""6"",""52854""
""blur"",""12"",""112264""
""blur"",""16"",""170203""
","""event"",""trial"",""time""
""focus"",""0"",""2299""
""focus"",""3"",""18892""
""focus"",""5"",""45811""
""focus"",""7"",""67540""
""focus"",""13"",""134788""
""focus"",""17"",""172083""
","""event"",""trial"",""time""
""fullscreenenter"",""0"",""4672""
","""event"",""trial"",""time""
""fullscreenexit"",""21"",""186403""
","null","<p></p>","null","","","","","","","","","","","","","","","","","","","","","","","",""
"","do_trial","91","339469","0.0-55.0-0.0","""event"",""trial"",""time""
""focus"",""0"",""2299""
""fullscreenenter"",""0"",""4672""
""blur"",""2"",""13310""
""focus"",""3"",""18892""
