"success","trial_type","trial_index","time_elapsed","internal_node_id","interactions","blur_events","focus_events","fullscreenenter_events","fullscreenexit_events","rt","stimulus","key_press","subject_id","participant_id","age","gender","prompt","response","choice_outcomes","context_n","context_img_id","trial_n","probe_img_id","pR_red","pR_white","pR_black","outcome","is_valid","image_to_show","probed_trial","probed_context","correct","probe","probed_trial_n","probed_context_n","context_im"
"true","fullscreen","0","3909","0.0-0.0","""event"",""trial"",""time""
""fullscreenenter"",""0"",""2964""
","
","
","""event"",""trial"",""time""
""fullscreenenter"",""0"",""2964""
","
","","","","","","","","","","","","","","","","","","","","","","","","","","",""
"","pavlovia","1","3913","0.0-1.0","""event"",""trial"",""time""
""fullscreenenter"",""0"",""2964""
","
","
","""event"",""trial"",""time""
""fullscreenenter"",""0"",""2964""
","
","","","","","","","","","","","","","","","","","","","","","","","","","","",""
"","welc_back","2","14259","0.0-2.0","""event"",""trial"",""time""
""fullscreenenter"",""0"",""2964""
","
","
","""event"",""trial"",""time""
""fullscreenenter"",""0"",""2964""
","
","null","run_exp/static/audio/clip_29_welcome_back.m4a","null","802","859","10","Female","<div class='center'><p>Welcome to day 2!</p><p> Yesterday, you were the head captain of a pirate ship. You asked your fellow pirates to rob other ships of their gold across six different islands.</p></div>","","","","","","","","","","","","","","","","","","",""
"","html-keyboard-response","3","28364","0.0-3.0","""event"",""trial"",""time""
""fullscreenenter"",""0"",""2964""
","
","
","""event"",""trial"",""time""
""fullscreenenter"",""0"",""2964""
","
","14099.799999952316","<div class='center'><p>Welcome to day 2!</p><p> Yesterday, you were the head captain of a pirate ship. You asked your fellow pirates to rob other ships of their gold across six different islands.</p><p><b>[Press the space bar to continue]</b></p></div>","32","","","","","","","","","","","","","","","","","","","","","","","",""
"","day_1_summary_goal","4","46132","0.0-4.0","""event"",""trial"",""time""
""fullscreenenter"",""0"",""2964""
","
","
","""event"",""trial"",""time""
""fullscreenenter"",""0"",""2964""
","
","null","run_exp/static/audio/clip_30_goal_of_game.m4a","null","","","","","<div class='center'><p>Today, like yesterday, you get to pick which pirate you want to rob the next ship.</p><p>If the pirate is successful in robbing a ship, you get gold coins that look like this: </p><p><img src='run_exp/static/images/tutorial/reward.png' height='150'></p><p> If they were not successful in robbing the ship, then you will get no gold coins and you'll see a big red x like this: </p><p><img src='run_exp/static/images/tutorial/reward_no.png' height='150'></p></div>","","","","","","","","","","","","","","","","","","",""
"","html-keyboard-response","5","51012","0.0-5.0","""event"",""trial"",""time""
""fullscreenenter"",""0"",""2964""
","
","
","""event"",""trial"",""time""
""fullscreenenter"",""0"",""2964""
","
","4878.5","<div class='center'><p>Today, like yesterday, you get to pick which pirate you want to rob the next ship.</p><p>If the pirate is successful in robbing a ship, you get gold coins that look like this: </p><p><img src='run_exp/static/images/tutorial/reward.png' height='150'></p><p> If they were not successful in robbing the ship, then you will get no gold coins and you'll see a big red x like this: </p><p><img src='run_exp/static/images/tutorial/reward_no.png' height='150'></p><p><b>[Press the space bar to continue]</b></p></div>","32","","","","","","","","","","","","","","","","","","","","","","","",""
"","day_1_summary_pick","6","65715","0.0-6.0","""event"",""trial"",""time""
""fullscreenenter"",""0"",""2964""
","
","
","""event"",""trial"",""time""
""fullscreenenter"",""0"",""2964""
","
","null","run_exp/static/audio/clip_31_how_to_pick_a_pirate.m4a","null","","","","","<div class='center'><p>Also, just like yesterday, you will use the 1,2,3 keys on your keyboard to pick a pirate. Press '1' to choose red beard, '2' to choose white beard, and '3' to choose black beard . You only have 3 seconds to pick a pirate, so please make a choice quickly!</p></div>","","","","","","","","","","","","","","","","","","",""
"","html-keyboard-response","7","67818","0.0-7.0","""event"",""trial"",""time""
""fullscreenenter"",""0"",""2964""
","
","
","""event"",""trial"",""time""
""fullscreenenter"",""0"",""2964""
","
","2100.399999856949","<div class='center'><p>Also, just like yesterday, you will use the 1,2,3 keys on your keyboard to pick a pirate. Press '1' to choose red beard, '2' to choose white beard, and '3' to choose black beard . You only have 3 seconds to pick a pirate, so please make a choice quickly!</p><p><b>[Press the space bar to continue]</b></p></div>","32","","","","","","","","","","","","","","","","","","","","","","","",""
"","test_phase_begin","8","98214","0.0-8.0","""event"",""trial"",""time""
""fullscreenenter"",""0"",""2964""
","
","
","""event"",""trial"",""time""
""fullscreenenter"",""0"",""2964""
","
","null","run_exp/static/audio/clip_32_final_place.m4a","null","","","","","<div class='center'><p>You’ve arrived at the final island of your journey! Unfortunately, it’s very foggy out, so you won’t be able to see it in the distance like the other islands you've visited.</p><p>You’ll still be deciding which pirate you want to rob a ship like before. However, because of the fog, you also won’t be able to see the ship.</p><p>This means you do not have to remember the ships you rob on this island.</p><p>Unlike yesterday, you won't be visiting multiple islands today. You will stay on this island for the entire game. This game will last ~30 minutes.</p></div>","","","","","","","","","","","","","","","","","","",""
"","html-keyboard-response","9","99629","0.0-9.0","""event"",""trial"",""time""
""fullscreenenter"",""0"",""2964""
","
","
","""event"",""trial"",""time""
""fullscreenenter"",""0"",""2964""
","
","1413.0999999046326","<div class='center'><p>You’ve arrived at the final island of your journey! Unfortunately, it’s very foggy out, so you won’t be able to see it in the distance like the other islands you've visited.</p><p>You’ll still be deciding which pirate you want to rob a ship like before. However, because of the fog, you also won’t be able to see the ship.</p><p>This means you do not have to remember the ships you rob on this island.</p><p>Unlike yesterday, you won't be visiting multiple islands today. You will stay on this island for the entire game. This game will last ~30 minutes.</p><p><b>[Press the space bar to continue]</b></p></div>","32","","","","","","","","","","","","","","","","","","","","","","","",""
"","explain_probe_1","10","107355","0.0-10.0","""event"",""trial"",""time""
""fullscreenenter"",""0"",""2964""
","
","
","""event"",""trial"",""time""
""fullscreenenter"",""0"",""2964""
","
","null","run_exp/static/audio/clip_33_recognition_1.m4a","null","","","","","<div class='center'><p> Sometimes you’ll be shown a ship, and you will be asked if you saw this ship on a past island.</p><p> Here is an example of what you will see.</p><p><img src='run_exp/static/images/tutorial/example_recog_trial.png' height='500'></p></div>","","","","","","","","","","","","","","","","","","",""
"","html-keyboard-response","11","109292","0.0-11.0","""event"",""trial"",""time""
""fullscreenenter"",""0"",""2964""
","
","
","""event"",""trial"",""time""
""fullscreenenter"",""0"",""2964""
","
","1933.6000001430511","<div class='center'><p> Sometimes you’ll be shown a ship, and you will be asked if you saw this ship on a past island.</p><p> Here is an example of what you will see.</p><p><img src='run_exp/static/images/tutorial/example_recog_trial.png' height='500'></p><p><b>[Press the space bar to continue]</b></p></div>","32","","","","","","","","","","","","","","","","","","","","","","","",""
"","explain_probe_2","12","131037","0.0-12.0","""event"",""trial"",""time""
""fullscreenenter"",""0"",""2964""
","
","
","""event"",""trial"",""time""
""fullscreenenter"",""0"",""2964""
","
","null","run_exp/static/audio/clip_34_recognition_2.m4a","null","","","","","<div class='center'><p> You will press the 5, 6, 7, 8 keys on your keyboard to respond.</p><p>If you are sure you saw the ship, press <b>5</b> on your keyboard.</p><p> If you think you saw it before but aren't sure, then press <b>6</b>.</p><p> If you think you have <b>not</b> seen it before but aren't sure, then press <b>7</b>.</p><p> If you are sure you did <b>not</b> see the ship before, then press <b>8</b>.</p><p><img src='run_exp/static/images/tutorial/example_recog_trial.png' height='500'></p></div>","","","","","","","","","","","","","","","","","","",""
"","html-keyboard-response","13","132499","0.0-13.0","""event"",""trial"",""time""
""fullscreenenter"",""0"",""2964""
","
","
","""event"",""trial"",""time""
""fullscreenenter"",""0"",""2964""
","
","1458.6000001430511","<div class='center'><p> You will press the 5, 6, 7, 8 keys on your keyboard to respond.</p><p>If you are sure you saw the ship, press <b>5</b> on your keyboard.</p><p> If you think you saw it before but aren't sure, then press <b>6</b>.</p><p> If you think you have <b>not</b> seen it before but aren't sure, then press <b>7</b>.</p><p> If you are sure you did <b>not</b> see the ship before, then press <b>8</b>.</p><p><img src='run_exp/static/images/tutorial/example_recog_trial.png' height='500'></p><p><b>[Press the space bar to continue]</b></p></div>","32","","","","","","","","","","","","","","","","","","","","","","","",""
"","explain_outcome","14","149695","0.0-14.0","""event"",""trial"",""time""
""fullscreenenter"",""0"",""2964""
","
","
","""event"",""trial"",""time""
""fullscreenenter"",""0"",""2964""
","
","null","run_exp/static/audio/clip_35_recognition_3.m4a","null","","","","","<div class='center'><p> If you remember correctly, then you’ll get a gold coin like this: </p><p><img src='run_exp/static/images/tutorial/reward_small.png' height='200'></p><p>If you do not remember correctly, then you'll see a red x like this: </p><p><img src='run_exp/static/images/tutorial/reward_no.png' height='200'></p><p>Importantly, when you are shown a ship, take the time to remind yourself which island you saw it on. This will help you in the next part of the study.</p></div>","","","","","","","","","","","","","","","","","","",""
"","html-keyboard-response","15","152883","0.0-15.0","""event"",""trial"",""time""
""fullscreenenter"",""0"",""2964""
","
","
","""event"",""trial"",""time""
""fullscreenenter"",""0"",""2964""
","
","3181.899999856949","<div class='center'><p> If you remember correctly, then you’ll get a gold coin like this: </p><p><img src='run_exp/static/images/tutorial/reward_small.png' height='200'></p><p>If you do not remember correctly, then you'll see a red x like this: </p><p><img src='run_exp/static/images/tutorial/reward_no.png' height='200'></p><p>Importantly, when you are shown a ship, take the time to remind yourself which island you saw it on. This will help you in the next part of the study.</p><p><b>[Press the space bar to continue]</b></p></div>","32","","","","","","","","","","","","","","","","","","","","","","","",""
"","begin_test_phase","16","168715","0.0-16.0","""event"",""trial"",""time""
""fullscreenenter"",""0"",""2964""
","
","
","""event"",""trial"",""time""
""fullscreenenter"",""0"",""2964""
","
","null","run_exp/static/audio/clip_36_begin_final.m4a","null","","","","","<div class='center'><p>Let's go over the important points again. Your job is to: </p><p>1. Pick the pirate who is best at robbing ships and will bring you back gold coins. </p><p>2. Correctly remember whether or not you saw a ship before. If you did see the ship before, remind yourself on which island you saw it. </p></div>","","","","","","","","","","","","","","","","","","",""
"","html-keyboard-response","17","173024","0.0-17.0","""event"",""trial"",""time""
""fullscreenenter"",""0"",""2964""
","
","
","""event"",""trial"",""time""
""fullscreenenter"",""0"",""2964""
","
","4243.400000095367","<div class='center'><p>Let's go over the important points again. Your job is to: </p><p>1. Pick the pirate who is best at robbing ships and will bring you back gold coins. </p><p>2. Correctly remember whether or not you saw a ship before. If you did see the ship before, remind yourself on which island you saw it. </p><p><b>[Press the space bar to continue]</b></p></div>","32","","","","","","","","","","","","","","","","","","","","","","","",""
"","do_welcome","18","177048","0.0-18.0","""event"",""trial"",""time""
""fullscreenenter"",""0"",""2964""
","
","
","""event"",""trial"",""time""
""fullscreenenter"",""0"",""2964""
","
","null","","","","","","","","null","","","","","","","","","","","","","","","","","",""
"","do_trial","19","183133","0.0-19.0-0.0","""event"",""trial"",""time""
""fullscreenenter"",""0"",""2964""
","
","
","""event"",""trial"",""time""
""fullscreenenter"",""0"",""2964""
","
","null","","","","","","","","null","0,0,0","6","blank","230","null","0.1843134800814434","0.16800174627836337","0.5073666576119823","","","","","","","","","",""
"","html-keyboard-response","20","184150","0.0-19.0-1.0","""event"",""trial"",""time""
""fullscreenenter"",""0"",""2964""
","
","
","""event"",""trial"",""time""
""fullscreenenter"",""0"",""2964""
","
","null","<p></p>","null","","","","","","","","","","","","","","","","","","","","","","","",""
"","do_trial","21","187382","0.0-20.0-0.0","""event"",""trial"",""time""
""fullscreenenter"",""0"",""2964""
","
","
","""event"",""trial"",""time""
""fullscreenenter"",""0"",""2964""
","
","583.1000001430511","","","","","","","","49","0,0,0","6","blank","231","null","0.15394317435769414","0.1378269795205312","0.5176603886273381","0","","","","","","","","",""
"","html-keyboard-response","22","188399","0.0-20.0-1.0","""event"",""trial"",""time""
""fullscreenenter"",""0"",""2964""
","
","
","""event"",""trial"",""time""
""fullscreenenter"",""0"",""2964""
","
","null","<p></p>","null","","","","","","","","","","","","","","","","","","","","","","","",""
"","do_trial","23","191344","0.0-21.0-0.0","""event"",""trial"",""time""
""fullscreenenter"",""0"",""2964""
","
","
","""event"",""trial"",""time""
""fullscreenenter"",""0"",""2964""
","
","332.40000009536743","","","","","","","","50","0,0,1","6","blank","232","null","0.09618014244019785","0.24754643429420534","0.5707228151916961","0","","","","","","","","",""
"","html-keyboard-response","24","192362","0.0-21.0-1.0","""event"",""trial"",""time""
""fullscreenenter"",""0"",""2964""
","
","
","""event"",""trial"",""time""
""fullscreenenter"",""0"",""2964""
","
","null","<p></p>","null","","","","","","","","","","","","","","","","","","","","","","","",""
"","do_trial","25","195259","0.0-22.0-0.0","""event"",""trial"",""time""
""fullscreenenter"",""0"",""2964""
","
","
","""event"",""trial"",""time""
""fullscreenenter"",""0"",""2964""
","
","299.5","","","","","","","","51","0,0,0","6","blank","233","null","0.11812481170932229","0.3262093365235837","0.7150302762168437","0","","","","","","","","",""
"","html-keyboard-response","26","196275","0.0-22.0-1.0","""event"",""trial"",""time""
""fullscreenenter"",""0"",""2964""
","
","
","""event"",""trial"",""time""
""fullscreenenter"",""0"",""2964""
","
","null","<p></p>","null","","","","","","","","","","","","","","","","","","","","","","","",""
"","do_trial","27","199286","0.0-23.0-0.0","""event"",""trial"",""time""
""fullscreenenter"",""0"",""2964""
","
","
","""event"",""trial"",""time""
""fullscreenenter"",""0"",""2964""
","
","407.09999990463257","","","","","","","","49","1,0,1","6","blank","234","null","0.1559355662043846","0.1610029307351967","0.6807743622029052","1","","","","","","","","",""
"","html-keyboard-response","28","200303","0.0-23.0-1.0","""event"",""trial"",""time""
""fullscreenenter"",""0"",""2964""
","
","
","""event"",""trial"",""time""
""fullscreenenter"",""0"",""2964""
","
","null","<p></p>","null","","","","","","","","","","","","","","","","","","","","","","","",""
"","do_trial","29","203202","0.0-24.0-0.0","""event"",""trial"",""time""
""fullscreenenter"",""0"",""2964""
","
","
","""event"",""trial"",""time""
""fullscreenenter"",""0"",""2964""
","
","312.40000009536743","","","","","","","","49","0,0,1","6","blank","235","null","0.16204098279258997","0.15503425246470406","0.676388562248116","0","","","","","","","","",""
"","html-keyboard-response","30","204207","0.0-24.0-1.0","""event"",""trial"",""time""
""fullscreenenter"",""0"",""2964""
","
","
","""event"",""trial"",""time""
""fullscreenenter"",""0"",""2964""
","
","null","<p></p>","null","","","","","","","","","","","","","","","","","","","","","","","",""
"","do_trial","31","207156","0.0-25.0-0.0","""event"",""trial"",""time""
""fullscreenenter"",""0"",""2964""
","
","
","""event"",""trial"",""time""
""fullscreenenter"",""0"",""2964""
","
","345.5","","","","","","","","50","0,0,0","6","blank","236","null","0.21534728497980601","0.12007418212649525","0.6256658179868559","0","","","","","","","","",""
"","html-keyboard-response","32","208174","0.0-25.0-1.0","""event"",""trial"",""time""
""fullscreenenter"",""0"",""2964""
","
","
","""event"",""trial"",""time""
""fullscreenenter"",""0"",""2964""
","
","null","<p></p>","null","","","","","","","","","","","","","","","","","","","","","","","",""
"","do_trial","33","210755","0.0-26.0-0.0","""event"",""trial"",""time""
""fullscreenenter"",""0"",""2964""
","
","
","""event"",""trial"",""time""
""fullscreenenter"",""0"",""2964""
","
","0.10000014305114746","","","","","","","","51","0,0,1","6","blank","237","null","0.288132375551659","0.18640048929919764","0.6293625595610647","1","","","","","","","","",""
"","html-keyboard-response","34","211765","0.0-26.0-1.0","""event"",""trial"",""time""
""fullscreenenter"",""0"",""2964""
","
","
","""event"",""trial"",""time""
""fullscreenenter"",""0"",""2964""
","
","null","<p></p>","null","","","","","","","","","","","","","","","","","","","","","","","",""
"","do_trial","35","214386","0.0-27.0-0.0","""event"",""trial"",""time""
""fullscreenenter"",""0"",""2964""
","
","
","""event"",""trial"",""time""
""fullscreenenter"",""0"",""2964""
","
","0.09999990463256836","","","","","","","","51","1,0,0","6","blank","238","null","0.2170127747632664","0.1577199344663219","0.6014901595327422","0","","","","","","","","",""
"","html-keyboard-response","36","215403","0.0-27.0-1.0","""event"",""trial"",""time""
""fullscreenenter"",""0"",""2964""
","
","
","""event"",""trial"",""time""
""fullscreenenter"",""0"",""2964""
","
","null","<p></p>","null","","","","","","","","","","","","","","","","","","","","","","","",""
"","do_trial","37","218035","0.0-28.0-0.0","""event"",""trial"",""time""
""fullscreenenter"",""0"",""2964""
","
","
","""event"",""trial"",""time""
""fullscreenenter"",""0"",""2964""
","
","24.799999952316284","","","","","","","","49","0,0,0","6","blank","239","null","0.3643314988584574","0.1591319073498892","0.5139969637199449","0","","","","","","","","",""
"","html-keyboard-response","38","219052","0.0-28.0-1.0","""event"",""trial"",""time""
""fullscreenenter"",""0"",""2964""
","
","
","""event"",""trial"",""time""
""fullscreenenter"",""0"",""2964""
","
","null","<p></p>","null","","","","","","","","","","","","","","","","","","","","","","","",""
"","do_trial","39","221655","0.0-29.0-0.0","""event"",""trial"",""time""
""fullscreenenter"",""0"",""2964""
","
","
","""event"",""trial"",""time""
""fullscreenenter"",""0"",""2964""
","
","0.20000004768371582","","","","","","","","50","1,0,1","6","blank","240","null","0.3559081116447521","0.14244718234946013","0.3826173850876059","0","","","","","","","","",""
"","html-keyboard-response","40","222671","0.0-29.0-1.0","""event"",""trial"",""time""
""fullscreenenter"",""0"",""2964""
","
","
","""event"",""trial"",""time""
""fullscreenenter"",""0"",""2964""
","
","null","<p></p>","null","","","","","","","","","","","","","","","","","","","","","","","",""
"","do_trial","41","225298","0.0-30.0-0.0","""event"",""trial"",""time""
""fullscreenenter"",""0"",""2964""
","
","
","""event"",""trial"",""time""
""fullscreenenter"",""0"",""2964""
","
","0.20000004768371582","","","","","","","","51","0,1,0","6","blank","241","null","0.51200472675265","0.06565598079391241","0.3828686546141769","0","","","","","","","","",""
"","html-keyboard-response","42","226300","0.0-30.0-1.0","""event"",""trial"",""time""
""fullscreenenter"",""0"",""2964""
","
","
","""event"",""trial"",""time""
""fullscreenenter"",""0"",""2964""
","
","null","<p></p>","null","","","","","","","","","","","","","","","","","","","","","","","",""
"","do_trial","43","229307","0.0-31.0-0.0","""event"",""trial"",""time""
""fullscreenenter"",""0"",""2964""
","
","
","""event"",""trial"",""time""
""fullscreenenter"",""0"",""2964""
","
","440","","","","","","","","49","1,0,0","6","blank","242","null","0.45857812420790217","0.16001925973082085","0.11384867283625055","1","","","","","","","","",""
"","html-keyboard-response","44","230325","0.0-31.0-1.0","""event"",""trial"",""time""
""fullscreenenter"",""0"",""2964""
","
","
","""event"",""trial"",""time""
""fullscreenenter"",""0"",""2964""
","
","null","<p></p>","null","","","","","","","","","","","","","","","","","","","","","","","",""
"","do_trial","45","232973","0.0-32.0-0.0","""event"",""trial"",""time""
""fullscreenenter"",""0"",""2964""
","
","
","""event"",""trial"",""time""
""fullscreenenter"",""0"",""2964""
","
","0.20000004768371582","","","","","","","","50","0,0,1","6","blank","243","null","0.4493071271655067","0.30279338999302624","0.14689566004839777","0","","","","","","","","",""
"","html-keyboard-response","46","233991","0.0-32.0-1.0","""event"",""trial"",""time""
""fullscreenenter"",""0"",""2964""
","
","
","""event"",""trial"",""time""
""fullscreenenter"",""0"",""2964""
","
","null","<p></p>","null","","","","","","","","","","","","","","","","","","","","","","","",""
"","do_recog","47","240024","0.0-33.0-0.0","""event"",""trial"",""time""
""fullscreenenter"",""0"",""2964""
","
","
","""event"",""trial"",""time""
""fullscreenenter"",""0"",""2964""
","
","null","","","","","","","","null","","","","244","probe-116","","","","","1","[object Object]","192","4","0","","","",""
"","html-keyboard-response","48","241028","0.0-33.0-1.0","""event"",""trial"",""time""
""fullscreenenter"",""0"",""2964""
","
","
","""event"",""trial"",""time""
""fullscreenenter"",""0"",""2964""
","
","null","<p></p>","null","","","","","","","","","","","","","","","","","","","","","","","",""
"","do_trial","49","245738","0.0-34.0-0.0","""event"",""trial"",""time""
""fullscreenenter"",""0"",""2964""
","
","
","""event"",""trial"",""time""
""fullscreenenter"",""0"",""2964""
","
","2135.4000000953674","","","","","","","","49","0,0,1","6","blank","245","null","0.31056962587491693","0.41006862228155855","0.16343544781992023","0","","","","","","","","",""
"","html-keyboard-response","50","246753","0.0-34.0-1.0","""event"",""trial"",""time""
""fullscreenenter"",""0"",""2964""
","
","
","""event"",""trial"",""time""
""fullscreenenter"",""0"",""2964""
","
","null","<p></p>","null","","","","","","","","","","","","","","","","","","","","","","","",""
"","do_trial","51","249809","0.0-35.0-0.0","""event"",""trial"",""time""
""fullscreenenter"",""0"",""2964""
","
","
","""event"",""trial"",""time""
""fullscreenenter"",""0"",""2964""
","
","447.09999990463257","","","","","","","","50","0,0,0","6","blank","246","null","0.40693379364704213","0.4769395237890344","0.06312483676633762","0","","","","","","","","",""
"","html-keyboard-response","52","250823","0.0-35.0-1.0","""event"",""trial"",""time""
""fullscreenenter"",""0"",""2964""
","
","
","""event"",""trial"",""time""
""fullscreenenter"",""0"",""2964""
","
","null","<p></p>","null","","","","","","","","","","","","","","","","","","","","","","","",""
"","do_trial","53","253704","0.0-36.0-0.0","""event"",""trial"",""time""
""fullscreenenter"",""0"",""2964""
","
","
","""event"",""trial"",""time""
""fullscreenenter"",""0"",""2964""
","
","276.2000000476837","","","","","","","","51","0,0,0","6","blank","247","null","0.3709236472376422","0.47995696632204243","0.05608156514870899","0","","","","","","","","",""
"","html-keyboard-response","54","254720","0.0-36.0-1.0","""event"",""trial"",""time""
""fullscreenenter"",""0"",""2964""
","
","
","""event"",""trial"",""time""
""fullscreenenter"",""0"",""2964""
","
","null","<p></p>","null","","","","","","","","","","","","","","","","","","","","","","","",""
"","do_trial","55","257783","0.0-37.0-0.0","""event"",""trial"",""time""
""fullscreenenter"",""0"",""2964""
","
","
","""event"",""trial"",""time""
""fullscreenenter"",""0"",""2964""
","
","472.40000009536743","","","","","","","","49","0,1,0","6","blank","248","null","0.3443566103794843","0.5529199236876999","0.06633195224148895","0","","","","","","","","",""
"","html-keyboard-response","56","258785","0.0-37.0-1.0","""event"",""trial"",""time""
""fullscreenenter"",""0"",""2964""
","
","
","""event"",""trial"",""time""
""fullscreenenter"",""0"",""2964""
","
","null","<p></p>","null","","","","","","","","","","","","","","","","","","","","","","","",""
"","do_recog","57","262956","0.0-38.0-0.0","""event"",""trial"",""time""
""fullscreenenter"",""0"",""2964""
","
","
","""event"",""trial"",""time""
""fullscreenenter"",""0"",""2964""
","
","2643.699999809265","","","","","","","","54","","","","249","probe-150","","","","","1","[object Object]","152","3","1","","","",""
"","html-keyboard-response","58","263974","0.0-38.0-1.0","""event"",""trial"",""time""
""fullscreenenter"",""0"",""2964""
","
","
","""event"",""trial"",""time""
""fullscreenenter"",""0"",""2964""
","
","null","<p></p>","null","","","","","","","","","","","","","","","","","","","","","","","",""
"","do_trial","59","267961","0.0-39.0-0.0","""event"",""trial"",""time""
""fullscreenenter"",""0"",""2964""
","
","
","""event"",""trial"",""time""
""fullscreenenter"",""0"",""2964""
","
","1387","","","","","","","","49","0,1,0","6","blank","250","null","0.3690653546165653","0.5251269858257402","0.10953151569645116","0","","","","","","","","",""
"","html-keyboard-response","60","268977","0.0-39.0-1.0","""event"",""trial"",""time""
""fullscreenenter"",""0"",""2964""
","
","
","""event"",""trial"",""time""
""fullscreenenter"",""0"",""2964""
","
","null","<p></p>","null","","","","","","","","","","","","","","","","","","","","","","","",""
"","do_trial","61","272066","0.0-40.0-0.0","""event"",""trial"",""time""
""fullscreenenter"",""0"",""2964""
","
","
","""event"",""trial"",""time""
""fullscreenenter"",""0"",""2964""
","
","481.10000014305115","","","","","","","","50","1,0,0","6","blank","251","null","0.31913539268898655","0.6018776888827572","0.14170071270267187","0","","","","","","","","",""
"","html-keyboard-response","62","273082","0.0-40.0-1.0","""event"",""trial"",""time""
""fullscreenenter"",""0"",""2964""
","
","
","""event"",""trial"",""time""
""fullscreenenter"",""0"",""2964""
","
","null","<p></p>","null","","","","","","","","","","","","","","","","","","","","","","","",""
"","do_recog","63","276738","0.0-41.0-0.0","""event"",""trial"",""time""
""fullscreenenter"",""0"",""2964""
","
","
","""event"",""trial"",""time""
""fullscreenenter"",""0"",""2964""
","
","2134","","","","","","","","54","","","","252","probe-164","","","","","1","[object Object]","38","0","1","","","",""
"","html-keyboard-response","64","277742","0.0-41.0-1.0","""event"",""trial"",""time""
""fullscreenenter"",""0"",""2964""
","
","
","""event"",""trial"",""time""
""fullscreenenter"",""0"",""2964""
","
","null","<p></p>","null","","","","","","","","","","","","","","","","","","","","","","","",""
"","do_trial","65","281802","0.0-42.0-0.0","""event"",""trial"",""time""
""fullscreenenter"",""0"",""2964""
","
","
","""event"",""trial"",""time""
""fullscreenenter"",""0"",""2964""
","
","1500.2999999523163","","","","","","","","49","0,0,0","6","blank","253","null","0.3040686137727411","0.6405344788089232","0.17637715515482744","0","","","","","","","","",""
"","html-keyboard-response","66","282817","0.0-42.0-1.0","""event"",""trial"",""time""
""fullscreenenter"",""0"",""2964""
","
","
","""event"",""trial"",""time""
""fullscreenenter"",""0"",""2964""
","
","null","<p></p>","null","","","","","","","","","","","","","","","","","","","","","","","",""
"","do_trial","67","285823","0.0-43.0-0.0","""event"",""trial"",""time""
""fullscreenenter"",""0"",""2964""
","
","
","""event"",""trial"",""time""
""fullscreenenter"",""0"",""2964""
","
","387.09999990463257","","","","","","","","50","0,0,0","6","blank","254","null","0.3136532916102335","0.6400561934604225","0.12527897556751996","0","","","","","","","","",""
"","html-keyboard-response","68","286839","0.0-43.0-1.0","""event"",""trial"",""time""
""fullscreenenter"",""0"",""2964""
","
","
","""event"",""trial"",""time""
""fullscreenenter"",""0"",""2964""
","
","null","<p></p>","null","","","","","","","","","","","","","","","","","","","","","","","",""
"","do_trial","69","289957","0.0-44.0-0.0","""event"",""trial"",""time""
""fullscreenenter"",""0"",""2964""
","
","
","""event"",""trial"",""time""
""fullscreenenter"",""0"",""2964""
","
","516.9000000953674","","","","","","","","51","0,0,0","6","blank","255","null","0.26710652086612935","0.5024061003720921","0.14293713514359097","0","","","","","","","","",""
"","html-keyboard-response","70","290960","0.0-44.0-1.0","""event"",""trial"",""time""
""fullscreenenter"",""0"",""2964""
","
","
","""event"",""trial"",""time""
""fullscreenenter"",""0"",""2964""
","
","null","<p></p>","null","","","","","","","","","","","","","","","","","","","","","","","",""
"","do_recog","71","294679","0.0-45.0-0.0","""event"",""trial"",""time""
""fullscreenenter"",""0"",""2964""
","
","
","""event"",""trial"",""time""
""fullscreenenter"",""0"",""2964""
","
","2205.199999809265","","","","","","","","55","","","","256","probe-34","","","","","1","[object Object]","153","3","0","","","",""
"","html-keyboard-response","72","295682","0.0-45.0-1.0","""event"",""trial"",""time""
""fullscreenenter"",""0"",""2964""
","
","
","""event"",""trial"",""time""
""fullscreenenter"",""0"",""2964""
","
","null","<p></p>","null","","","","","","","","","","","","","","","","","","","","","","","",""
"","do_trial","73","299132","0.0-46.0-0.0","""event"",""trial"",""time""
""fullscreenenter"",""0"",""2964""
","
","
","""event"",""trial"",""time""
""fullscreenenter"",""0"",""2964""
","
","864","","","","","","","","49","0,0,0","6","blank","257","null","0.318970147229675","0.5225160336582598","0.15659987334218403","0","","","","","","","","",""
"","html-keyboard-response","74","300136","0.0-46.0-1.0","""event"",""trial"",""time""
""fullscreenenter"",""0"",""2964""
","
","
","""event"",""trial"",""time""
""fullscreenenter"",""0"",""2964""
","
","null","<p></p>","null","","","","","","","","","","","","","","","","","","","","","","","",""
"","do_recog","75","303120","0.0-47.0-0.0","""event"",""trial"",""time""
""fullscreenenter"",""0"",""2964""
","
","
","""event"",""trial"",""time""
""fullscreenenter"",""0"",""2964""
","
","1466.5","","","","","","","","54","","","","258","probe-172","","","","","1","[object Object]","116","2","1","","","",""
"","html-keyboard-response","76","304125","0.0-47.0-1.0","""event"",""trial"",""time""
""fullscreenenter"",""0"",""2964""
","
","
","""event"",""trial"",""time""
""fullscreenenter"",""0"",""2964""
","
","null","<p></p>","null","","","","","","","","","","","","","","","","","","","","","","","",""
"","do_trial","77","307126","0.0-48.0-0.0","""event"",""trial"",""time""
""fullscreenenter"",""0"",""2964""
","
","
","""event"",""trial"",""time""
""fullscreenenter"",""0"",""2964""
","
","398","","","","","","","","50","0,0,0","6","blank","259","null","0.2578812194263508","0.5231846576170175","0.1108302824442611","0","","","","","","","","",""
"","html-keyboard-response","78","308129","0.0-48.0-1.0","""event"",""trial"",""time""
""fullscreenenter"",""0"",""2964""
","
","
","""event"",""trial"",""time""
""fullscreenenter"",""0"",""2964""
","
","null","<p></p>","null","","","","","","","","","","","","","","","","","","","","","","","",""
"","do_trial","79","311103","0.0-49.0-0.0","""event"",""trial"",""time""
""fullscreenenter"",""0"",""2964""
","
","
","""event"",""trial"",""time""
""fullscreenenter"",""0"",""2964""
","
","372.2000000476837","","","","","","","","51","1,1,1","6","blank","260","null","0.44790496814963093","0.7066068271997272","0.158520508767319","1","","","","","","","","",""
"","html-keyboard-response","80","312106","0.0-49.0-1.0","""event"",""trial"",""time""
""fullscreenenter"",""0"",""2964""
","
","
","""event"",""trial"",""time""
""fullscreenenter"",""0"",""2964""
","
","null","<p></p>","null","","","","","","","","","","","","","","","","","","","","","","","",""
"","do_trial","81","315626","0.0-50.0-0.0","""event"",""trial"",""time""
""fullscreenenter"",""0"",""2964""
","
","
","""event"",""trial"",""time""
""fullscreenenter"",""0"",""2964""
","
","933.5999999046326","","","","","","","","49","1,1,0","6","blank","261","null","0.37803933916292864","0.6910570983069222","0.08210082978010248","1","","","","","","","","",""
"","html-keyboard-response","82","316631","0.0-50.0-1.0","""event"",""trial"",""time""
""fullscreenenter"",""0"",""2964""
","
","
","""event"",""trial"",""time""
""fullscreenenter"",""0"",""2964""
","
","null","<p></p>","null","","","","","","","","","","","","","","","","","","","","","","","",""
"","do_trial","83","319886","0.0-51.0-0.0","""event"",""trial"",""time""
""fullscreenenter"",""0"",""2964""
","
","
","""event"",""trial"",""time""
""fullscreenenter"",""0"",""2964""
","
","646.1000001430511","","","","","","","","50","0,1,0","6","blank","262","null","0.44573939934486695","0.6652927252049731","0.16513086041114292","1","","","","","","","","",""
"","html-keyboard-response","84","320899","0.0-51.0-1.0","""event"",""trial"",""time""
""fullscreenenter"",""0"",""2964""
","
","
","""event"",""trial"",""time""
""fullscreenenter"",""0"",""2964""
","
","null","<p></p>","null","","","","","","","","","","","","","","","","","","","","","","","",""
"","do_recog","85","323664","0.0-52.0-0.0","""event"",""trial"",""time""
""fullscreenenter"",""0"",""2964""
","
","
","""event"",""trial"",""time""
""fullscreenenter"",""0"",""2964""
","
","1236.6000001430511","","","","","","","","54","","","","263","probe-54","","","","","1","[object Object]","71","1","1","","","",""
"","html-keyboard-response","86","324678","0.0-52.0-1.0","""event"",""trial"",""time""
""fullscreenenter"",""0"",""2964""
","
","
","""event"",""trial"",""time""
""fullscreenenter"",""0"",""2964""
","
","null","<p></p>","null","","","","","","","","","","","","","","","","","","","","","","","",""
"","do_trial","87","327655","0.0-53.0-0.0","""event"",""trial"",""time""
""fullscreenenter"",""0"",""2964""
","
","
","""event"",""trial"",""time""
""fullscreenenter"",""0"",""2964""
","
","367.09999990463257","","","","","","","","51","0,0,0","6","blank","264","null","0.37170283602189075","0.5811178376474776","0.2049798904223269","0","","","","","","","","",""
"","html-keyboard-response","88","328671","0.0-53.0-1.0","""event"",""trial"",""time""
""fullscreenenter"",""0"",""2964""
","
","
","""event"",""trial"",""time""
""fullscreenenter"",""0"",""2964""
","
","null","<p></p>","null","","","","","","","","","","","","","","","","","","","","","","","",""
"","do_trial","89","331704","0.0-54.0-0.0","""event"",""trial"",""time""
""fullscreenenter"",""0"",""2964""
","
","
","""event"",""trial"",""time""
""fullscreenenter"",""0"",""2964""
","
","457.90000009536743","","","","","","","","49","1,0,0","6","blank","265","null","0.43551651044230527","0.625926000637778","0.20192918871672796","1","","","","","","","","",""
"","html-keyboard-response","90","332724","0.0-54.0-1.0","""event"",""trial"",""time""
""fullscreenenter"",""0"",""2964""
","
","
","""event"",""trial"",""time""
""fullscreenenter"",""0"",""2964""
","
","null","<p></p>","null","","","","","","","","","","","","","","","","","","","","","","","",""
"","do_trial","91","336110","0.0-55.0-0.0","""event"",""trial"",""time""
""fullscreenenter"",""0"",""2964""
","
","
","""event"",""trial"",""time""
""fullscreenenter"",""0"",""2964""
","
","777","","","","","","","","50","1,1,0","6","blank","266","null","0.4516944276770068","0.5856449876740791","0.18421336520195739","1","","","","","","","","",""
"","html-keyboard-response","92","337125","0.0-55.0-1.0","""event"",""trial"",""time""
""fullscreenenter"",""0"",""2964""
","
","
","""event"",""trial"",""time""
""fullscreenenter"",""0"",""2964""
","
","null","<p></p>","null","","","","","","","","","","","","","","","","","","","","","","","",""
"","do_trial","93","340306","0.0-56.0-0.0","""event"",""trial"",""time""
""fullscreenenter"",""0"",""2964""
","
","
","""event"",""trial"",""time""
""fullscreenenter"",""0"",""2964""
","
","585.7000000476837","","","","","","","","51","1,0,0","6","blank","267","null","0.3577746807954643","0.4485395734668783","0.0597084212257594","0","","","","","","","","",""
"","html-keyboard-response","94","341309","0.0-56.0-1.0","""event"",""trial"",""time""
""fullscreenenter"",""0"",""2964""
","
","
","""event"",""trial"",""time""
""fullscreenenter"",""0"",""2964""
","
","null","<p></p>","null","","","","","","","","","","","","","","","","","","","","","","","",""
"","do_trial","95","344628","0.0-57.0-0.0","""event"",""trial"",""time""
""fullscreenenter"",""0"",""2964""
","
","
","""event"",""trial"",""time""
""fullscreenenter"",""0"",""2964""
","
","722.7000000476837","","","","","","","","49","0,1,0","6","blank","268","null","0.31308713166298263","0.46013135155865637","0.0874061649195963","0","","","","","","","","",""
"","html-keyboard-response","96","345645","0.0-57.0-1.0","""event"",""trial"",""time""
""fullscreenenter"",""0"",""2964""
","
","
","""event"",""trial"",""time""
""fullscreenenter"",""0"",""2964""
","
","null","<p></p>","null","","","","","","","","","","","","","","","","","","","","","","","",""
"","break","97","366674","0.0-58.0-0.0","""event"",""trial"",""time""
""fullscreenenter"",""0"",""2964""
","
","
","""event"",""trial"",""time""
""fullscreenenter"",""0"",""2964""
","
","21026.299999952316","<div class='center'><p>Time to take a quick break! You have 2 minutes to rest, but you can move on sooner if you'd like.</p><p> Press the <b>space bar</b> to continue.</p></div>","32","","","","","","","","","","","","","","","","","","","","","","","",""
"","do_recog","98","370490","0.0-58.0-1.0","""event"",""trial"",""time""
""fullscreenenter"",""0"",""2964""
","
","
","""event"",""trial"",""time""
""fullscreenenter"",""0"",""2964""
","
","2294.7000000476837","","","","","","","","54","","","","269","probe-209","","","","","1","[object Object]","74","1","1","","","",""
"","html-keyboard-response","99","371496","0.0-58.0-2.0","""event"",""trial"",""time""
""fullscreenenter"",""0"",""2964""
","
","
","""event"",""trial"",""time""
""fullscreenenter"",""0"",""2964""
","
","null","<p></p>","null","","","","","","","","","","","","","","","","","","","","","","","",""
"","do_trial","100","374775","0.0-59.0-0.0","""event"",""trial"",""time""
""fullscreenenter"",""0"",""2964""
","
","
","""event"",""trial"",""time""
""fullscreenenter"",""0"",""2964""
","
","641.0999999046326","","","","","","","","49","0,0,0","6","blank","270","null","0.3339316465404932","0.34893489145016576","0.08842152612292926","0","","","","","","","","",""
"","html-keyboard-response","101","375793","0.0-59.0-1.0","""event"",""trial"",""time""
""fullscreenenter"",""0"",""2964""
","
","
","""event"",""trial"",""time""
""fullscreenenter"",""0"",""2964""
","
","null","<p></p>","null","","","","","","","","","","","","","","","","","","","","","","","",""
"","do_trial","102","379129","0.0-60.0-0.0","""event"",""trial"",""time""
""fullscreenenter"",""0"",""2964""
","
","
","""event"",""trial"",""time""
""fullscreenenter"",""0"",""2964""
","
","726.3000001907349","","","","","","","","50","0,1,0","6","blank","271","null","0.3082264576415489","0.3875517255231439","0.06179303092840894","1","","","","","","","","",""
"","html-keyboard-response","103","380148","0.0-60.0-1.0","""event"",""trial"",""time""
""fullscreenenter"",""0"",""2964""
","
","
","""event"",""trial"",""time""
""fullscreenenter"",""0"",""2964""
","
","null","<p></p>","null","","","","","","","","","","","","","","","","","","","","","","","",""
"","do_trial","104","383482","0.0-61.0-0.0","""event"",""trial"",""time""
""fullscreenenter"",""0"",""2964""
","
","
","""event"",""trial"",""time""
""fullscreenenter"",""0"",""2964""
","
","732.2000000476837","","","","","","","","51","1,0,0","6","blank","272","null","0.3274283244253699","0.47969785240080015","0.1044153842854913","0","","","","","","","","",""
"","html-keyboard-response","105","384488","0.0-61.0-1.0","""event"",""trial"",""time""
""fullscreenenter"",""0"",""2964""
","
","
","""event"",""trial"",""time""
""fullscreenenter"",""0"",""2964""
","
","null","<p></p>","null","","","","","","","","","","","","","","","","","","","","","","","",""
"","do_recog","106","387731","0.0-62.0-0.0","""event"",""trial"",""time""
""fullscreenenter"",""0"",""2964""
","
","
","""event"",""trial"",""time""
""fullscreenenter"",""0"",""2964""
","
","1718.3000001907349","","","","","","","","53","","","","273","probe-100","","","","","1","[object Object]","155","3","1","","","",""
"","html-keyboard-response","107","388735","0.0-62.0-1.0","""event"",""trial"",""time""
""fullscreenenter"",""0"",""2964""
","
","
","""event"",""trial"",""time""
""fullscreenenter"",""0"",""2964""
","
","null","<p></p>","null","","","","","","","","","","","","","","","","","","","","","","","",""
"","do_trial","108","391731","0.0-63.0-0.0","""event"",""trial"",""time""
""fullscreenenter"",""0"",""2964""
","
","
","""event"",""trial"",""time""
""fullscreenenter"",""0"",""2964""
","
","414.30000019073486","","","","","","","","49","1,0,0","6","blank","274","null","0.375248196060611","0.48753559910766736","0.07861985163530691","1","","","","","","","","",""
"","html-keyboard-response","109","392735","0.0-63.0-1.0","""event"",""trial"",""time""
""fullscreenenter"",""0"",""2964""
","
","
","""event"",""trial"",""time""
""fullscreenenter"",""0"",""2964""
","
","null","<p></p>","null","","","","","","","","","","","","","","","","","","","","","","","",""
"","do_recog","110","396432","0.0-64.0-0.0","""event"",""trial"",""time""
""fullscreenenter"",""0"",""2964""
","
","
","""event"",""trial"",""time""
""fullscreenenter"",""0"",""2964""
","
","2169","","","","","","","","54","","","","275","probe-119","","","","","1","[object Object]","197","4","1","","","",""
"","html-keyboard-response","111","397436","0.0-64.0-1.0","""event"",""trial"",""time""
""fullscreenenter"",""0"",""2964""
","
","
","""event"",""trial"",""time""
""fullscreenenter"",""0"",""2964""
","
","null","<p></p>","null","","","","","","","","","","","","","","","","","","","","","","","",""
"","do_trial","112","400053","0.0-65.0-0.0","""event"",""trial"",""time""
""fullscreenenter"",""0"",""2964""
","
","
","""event"",""trial"",""time""
""fullscreenenter"",""0"",""2964""
","
","4.3999998569488525","","","","","","","","50","0,1,0","6","blank","276","null","0.402728327298591","0.5762610714902732","0.10972301792513448","1","","","","","","","","",""
"","html-keyboard-response","113","401067","0.0-65.0-1.0","""event"",""trial"",""time""
""fullscreenenter"",""0"",""2964""
","
","
","""event"",""trial"",""time""
""fullscreenenter"",""0"",""2964""
","
","null","<p></p>","null","","","","","","","","","","","","","","","","","","","","","","","",""
"","do_trial","114","404197","0.0-66.0-0.0","""event"",""trial"",""time""
""fullscreenenter"",""0"",""2964""
","
","
","""event"",""trial"",""time""
""fullscreenenter"",""0"",""2964""
","
","550.8999998569489","","","","","","","","51","1,0,0","6","blank","277","null","0.43742804798130225","0.6321949088033876","0.14271121572704","0","","","","","","","","",""
"","html-keyboard-response","115","405199","0.0-66.0-1.0","""event"",""trial"",""time""
""fullscreenenter"",""0"",""2964""
","
","
","""event"",""trial"",""time""
""fullscreenenter"",""0"",""2964""
","
","null","<p></p>","null","","","","","","","","","","","","","","","","","","","","","","","",""
"","do_trial","116","408319","0.0-67.0-0.0","""event"",""trial"",""time""
""fullscreenenter"",""0"",""2964""
","
","
","""event"",""trial"",""time""
""fullscreenenter"",""0"",""2964""
","
","506.40000009536743","","","","","","","","49","1,1,0","6","blank","278","null","0.35766647461466666","0.8129755482557366","0.08610602230305324","1","","","","","","","","",""
"","html-keyboard-response","117","409336","0.0-67.0-1.0","""event"",""trial"",""time""
""fullscreenenter"",""0"",""2964""
","
","
","""event"",""trial"",""time""
""fullscreenenter"",""0"",""2964""
","
","null","<p></p>","null","","","","","","","","","","","","","","","","","","","","","","","",""
"","do_trial","118","412402","0.0-68.0-0.0","""event"",""trial"",""time""
""fullscreenenter"",""0"",""2964""
","
","
","""event"",""trial"",""time""
""fullscreenenter"",""0"",""2964""
","
","450.5","","","","","","","","50","0,1,0","6","blank","279","null","0.3761095690736028","0.870429586438396","0.14393738048944063","1","","","","","","","","",""
"","html-keyboard-response","119","413417","0.0-68.0-1.0","""event"",""trial"",""time""
""fullscreenenter"",""0"",""2964""
","
","
","""event"",""trial"",""time""
""fullscreenenter"",""0"",""2964""
","
","null","<p></p>","null","","","","","","","","","","","","","","","","","","","","","","","",""
"","do_trial","120","416468","0.0-69.0-0.0","""event"",""trial"",""time""
""fullscreenenter"",""0"",""2964""
","
","
","""event"",""trial"",""time""
""fullscreenenter"",""0"",""2964""
","
","452.2000000476837","","","","","","","","51","0,0,0","6","blank","280","null","0.3911074996535077","0.8245511696167089","0.16859680766175195","0","","","","","","","","",""
"","html-keyboard-response","121","417486","0.0-69.0-1.0","""event"",""trial"",""time""
""fullscreenenter"",""0"",""2964""
","
","
","""event"",""trial"",""time""
""fullscreenenter"",""0"",""2964""
","
","null","<p></p>","null","","","","","","","","","","","","","","","","","","","","","","","",""
"","do_recog","122","420352","0.0-70.0-0.0","""event"",""trial"",""time""
""fullscreenenter"",""0"",""2964""
","
","
","""event"",""trial"",""time""
""fullscreenenter"",""0"",""2964""
","
","1339.4000000953674","","","","","","","","53","","","","281","probe-239","","","","","0","[object Object]","null","null","0","","","",""
"","html-keyboard-response","123","421370","0.0-70.0-1.0","""event"",""trial"",""time""
""fullscreenenter"",""0"",""2964""
","
","
","""event"",""trial"",""time""
""fullscreenenter"",""0"",""2964""
","
","null","<p></p>","null","","","","","","","","","","","","","","","","","","","","","","","",""
"","do_trial","124","424357","0.0-71.0-0.0","""event"",""trial"",""time""
""fullscreenenter"",""0"",""2964""
","
","
","""event"",""trial"",""time""
""fullscreenenter"",""0"",""2964""
","
","382.09999990463257","","","","","","","","49","1,1,0","6","blank","282","null","0.3661416375695635","0.6944267729482394","0.11739545298188038","1","","","","","","","","",""
"","html-keyboard-response","125","425371","0.0-71.0-1.0","""event"",""trial"",""time""
""fullscreenenter"",""0"",""2964""
","
","
","""event"",""trial"",""time""
""fullscreenenter"",""0"",""2964""
","
","null","<p></p>","null","","","","","","","","","","","","","","","","","","","","","","","",""
"","do_recog","126","428499","0.0-72.0-0.0","""event"",""trial"",""time""
""fullscreenenter"",""0"",""2964""
","
","
","""event"",""trial"",""time""
""fullscreenenter"",""0"",""2964""
","
","1604","","","","","","","","54","","","","283","probe-43","","","","","1","[object Object]","75","1","1","","","",""
"","html-keyboard-response","127","429517","0.0-72.0-1.0","""event"",""trial"",""time""
""fullscreenenter"",""0"",""2964""
","
","
","""event"",""trial"",""time""
""fullscreenenter"",""0"",""2964""
","
","null","<p></p>","null","","","","","","","","","","","","","","","","","","","","","","","",""
"","do_trial","128","432811","0.0-73.0-0.0","""event"",""trial"",""time""
""fullscreenenter"",""0"",""2964""
","
","
","""event"",""trial"",""time""
""fullscreenenter"",""0"",""2964""
","
","681.1999998092651","","","","","","","","50","0,1,0","6","blank","284","null","0.3436121104663431","0.6511609135741313","0.1570968800510634","1","","","","","","","","",""
"","html-keyboard-response","129","433830","0.0-73.0-1.0","""event"",""trial"",""time""
""fullscreenenter"",""0"",""2964""
","
","
","""event"",""trial"",""time""
""fullscreenenter"",""0"",""2964""
","
","null","<p></p>","null","","","","","","","","","","","","","","","","","","","","","","","",""
"","do_recog","130","437277","0.0-74.0-0.0","""event"",""trial"",""time""
""fullscreenenter"",""0"",""2964""
","
","
","""event"",""trial"",""time""
""fullscreenenter"",""0"",""2964""
","
","1931.6000001430511","","","","","","","","54","","","","285","probe-68","","","","","1","[object Object]","110","2","1","","","",""
"","html-keyboard-response","131","438293","0.0-74.0-1.0","""event"",""trial"",""time""
""fullscreenenter"",""0"",""2964""
","
","
","""event"",""trial"",""time""
""fullscreenenter"",""0"",""2964""
","
","null","<p></p>","null","","","","","","","","","","","","","","","","","","","","","","","",""
"","do_trial","132","441102","0.0-75.0-0.0","""event"",""trial"",""time""
""fullscreenenter"",""0"",""2964""
","
","
","""event"",""trial"",""time""
""fullscreenenter"",""0"",""2964""
","
","174.09999990463257","","","","","","","","51","0,0,0","6","blank","286","null","0.2254656008659051","0.7134864474000057","0.15906002273814512","0","","","","","","","","",""
"","html-keyboard-response","133","442119","0.0-75.0-1.0","""event"",""trial"",""time""
""fullscreenenter"",""0"",""2964""
","
","
","""event"",""trial"",""time""
""fullscreenenter"",""0"",""2964""
","
","null","<p></p>","null","","","","","","","","","","","","","","","","","","","","","","","",""
"","do_recog","134","445819","0.0-76.0-0.0","""event"",""trial"",""time""
""fullscreenenter"",""0"",""2964""
","
","
","""event"",""trial"",""time""
""fullscreenenter"",""0"",""2964""
","
","2183.5999999046326","","","","","","","","53","","","","287","probe-254","","","","","0","[object Object]","null","null","0","","","",""
"","html-keyboard-response","135","446821","0.0-76.0-1.0","""event"",""trial"",""time""
""fullscreenenter"",""0"",""2964""
","
","
","""event"",""trial"",""time""
""fullscreenenter"",""0"",""2964""
","
","null","<p></p>","null","","","","","","","","","","","","","","","","","","","","","","","",""
"","do_trial","136","449766","0.0-77.0-0.0","""event"",""trial"",""time""
""fullscreenenter"",""0"",""2964""
","
","
","""event"",""trial"",""time""
""fullscreenenter"",""0"",""2964""
","
","343.2000000476837","","","","","","","","49","0,1,0","6","blank","288","null","0.3312570686086928","0.8655727558577487","0.1638471531782113","0","","","","","","","","",""
"","html-keyboard-response","137","450785","0.0-77.0-1.0","""event"",""trial"",""time""
""fullscreenenter"",""0"",""2964""
","
","
","""event"",""trial"",""time""
""fullscreenenter"",""0"",""2964""
","
","null","<p></p>","null","","","","","","","","","","","","","","","","","","","","","","","",""
"","do_recog","138","453559","0.0-78.0-0.0","""event"",""trial"",""time""
""fullscreenenter"",""0"",""2964""
","
","
","""event"",""trial"",""time""
""fullscreenenter"",""0"",""2964""
","
","1253.9000000953674","","","","","","","","54","","","","289","probe-61","","","","","1","[object Object]","33","0","1","","","",""
"","html-keyboard-response","139","454577","0.0-78.0-1.0","""event"",""trial"",""time""
""fullscreenenter"",""0"",""2964""
","
","
","""event"",""trial"",""time""
""fullscreenenter"",""0"",""2964""
","
","null","<p></p>","null","","","","","","","","","","","","","","","","","","","","","","","",""
"","do_trial","140","457503","0.0-79.0-0.0","""event"",""trial"",""time""
""fullscreenenter"",""0"",""2964""
","
","
","""event"",""trial"",""time""
""fullscreenenter"",""0"",""2964""
","
","337","","","","","","","","50","0,1,0","6","blank","290","null","0.24994311927186905","0.7587922597001757","0.22788129320449863","1","","","","","","","","",""
"","html-keyboard-response","141","458520","0.0-79.0-1.0","""event"",""trial"",""time""
""fullscreenenter"",""0"",""2964""
","
","
","""event"",""trial"",""time""
""fullscreenenter"",""0"",""2964""
","
","null","<p></p>","null","","","","","","","","","","","","","","","","","","","","","","","",""
"","do_recog","142","461027","0.0-80.0-0.0","""event"",""trial"",""time""
""fullscreenenter"",""0"",""2964""
","
","
","""event"",""trial"",""time""
""fullscreenenter"",""0"",""2964""
","
","980.0999999046326","","","","","","","","54","","","","291","probe-156","","","","","1","[object Object]","194","4","1","","","",""
"","html-keyboard-response","143","462042","0.0-80.0-1.0","""event"",""trial"",""time""
""fullscreenenter"",""0"",""2964""
","
","
","""event"",""trial"",""time""
""fullscreenenter"",""0"",""2964""
","
","null","<p></p>","null","","","","","","","","","","","","","","","","","","","","","","","",""
"","do_trial","144","465366","0.0-81.0-0.0","""event"",""trial"",""time""
""fullscreenenter"",""0"",""2964""
","
","
","""event"",""trial"",""time""
""fullscreenenter"",""0"",""2964""
","
","735.1999998092651","","","","","","","","49","0,0,0","6","blank","292","null","0.19561890644904698","0.6432801224178328","0.12879643618614647","0","","","","","","","","",""
"","html-keyboard-response","145","466384","0.0-81.0-1.0","""event"",""trial"",""time""
""fullscreenenter"",""0"",""2964""
","
","
","""event"",""trial"",""time""
""fullscreenenter"",""0"",""2964""
","
","null","<p></p>","null","","","","","","","","","","","","","","","","","","","","","","","",""
"","do_recog","146","468913","0.0-82.0-0.0","""event"",""trial"",""time""
""fullscreenenter"",""0"",""2964""
","
","
","""event"",""trial"",""time""
""fullscreenenter"",""0"",""2964""
","
","1001.8999998569489","","","","","","","","54","","","","293","probe-196","","","","","1","[object Object]","115","2","1","","","",""
"","html-keyboard-response","147","469931","0.0-82.0-1.0","""event"",""trial"",""time""
""fullscreenenter"",""0"",""2964""
","
","
","""event"",""trial"",""time""
""fullscreenenter"",""0"",""2964""
","
","null","<p></p>","null","","","","","","","","","","","","","","","","","","","","","","","",""
"","do_trial","148","473184","0.0-83.0-0.0","""event"",""trial"",""time""
""fullscreenenter"",""0"",""2964""
","
","
","""event"",""trial"",""time""
""fullscreenenter"",""0"",""2964""
","
","659","","","","","","","","50","0,0,0","6","blank","294","null","0.1360050423768142","0.7278359095163571","0.17723296954923295","0","","","","","","","","",""
"","html-keyboard-response","149","474200","0.0-83.0-1.0","""event"",""trial"",""time""
""fullscreenenter"",""0"",""2964""
","
","
","""event"",""trial"",""time""
""fullscreenenter"",""0"",""2964""
","
","null","<p></p>","null","","","","","","","","","","","","","","","","","","","","","","","",""
"","do_trial","150","477798","0.0-84.0-0.0","""event"",""trial"",""time""
""fullscreenenter"",""0"",""2964""
","
","
","""event"",""trial"",""time""
""fullscreenenter"",""0"",""2964""
","
","999.5","","","","","","","","51","0,0,0","6","blank","295","null","0.1963351908154642","0.631765404197176","0.06261452662917874","0","","","","","","","","",""
"","html-keyboard-response","151","478816","0.0-84.0-1.0","""event"",""trial"",""time""
""fullscreenenter"",""0"",""2964""
","
","
","""event"",""trial"",""time""
""fullscreenenter"",""0"",""2964""
","
","null","<p></p>","null","","","","","","","","","","","","","","","","","","","","","","","",""
"","do_trial","152","481801","0.0-85.0-0.0","""event"",""trial"",""time""
""fullscreenenter"",""0"",""2964""
","
","
","""event"",""trial"",""time""
""fullscreenenter"",""0"",""2964""
","
","370.7000000476837","","","","","","","","49","0,0,0","6","blank","296","null","0.07353323314470099","0.6169315681827897","0.06171105498831429","0","","","","","","","","",""
"","html-keyboard-response","153","482817","0.0-85.0-1.0","""event"",""trial"",""time""
""fullscreenenter"",""0"",""2964""
","
","
","""event"",""trial"",""time""
""fullscreenenter"",""0"",""2964""
","
","null","<p></p>","null","","","","","","","","","","","","","","","","","","","","","","","",""
"","do_trial","154","485776","0.0-86.0-0.0","""event"",""trial"",""time""
""fullscreenenter"",""0"",""2964""
","
","
","""event"",""trial"",""time""
""fullscreenenter"",""0"",""2964""
","
","335.5","","","","","","","","50","1,1,0","6","blank","297","null","0.15323625116950995","0.48026354120090264","0.121417066482302","1","","","","","","","","",""
"","html-keyboard-response","155","486793","0.0-86.0-1.0","""event"",""trial"",""time""
""fullscreenenter"",""0"",""2964""
","
","
","""event"",""trial"",""time""
""fullscreenenter"",""0"",""2964""
","
","null","<p></p>","null","","","","","","","","","","","","","","","","","","","","","","","",""
"","do_trial","156","490004","0.0-87.0-0.0","""event"",""trial"",""time""
""fullscreenenter"",""0"",""2964""
","
","
","""event"",""trial"",""time""
""fullscreenenter"",""0"",""2964""
","
","608.4000000953674","","","","","","","","51","1,0,0","6","blank","298","null","0.12726031154400688","0.38392555388424565","0.3472834563976702","0","","","","","","","","",""
"","html-keyboard-response","157","491020","0.0-87.0-1.0","""event"",""trial"",""time""
""fullscreenenter"",""0"",""2964""
","
","
","""event"",""trial"",""time""
""fullscreenenter"",""0"",""2964""
","
","null","<p></p>","null","","","","","","","","","","","","","","","","","","","","","","","",""
"","do_trial","158","493969","0.0-88.0-0.0","""event"",""trial"",""time""
""fullscreenenter"",""0"",""2964""
","
","
","""event"",""trial"",""time""
""fullscreenenter"",""0"",""2964""
","
","362.2999999523163","","","","","","","","49","0,0,0","6","blank","299","null","0.303838273786102","0.3356535603323186","0.3256016126802985","0","","","","","","","","",""
"","html-keyboard-response","159","494976","0.0-88.0-1.0","""event"",""trial"",""time""
""fullscreenenter"",""0"",""2964""
","
","
","""event"",""trial"",""time""
""fullscreenenter"",""0"",""2964""
","
","null","<p></p>","null","","","","","","","","","","","","","","","","","","","","","","","",""
"","do_recog","160","497136","0.0-89.0-0.0","""event"",""trial"",""time""
""fullscreenenter"",""0"",""2964""
","
","
","""event"",""trial"",""time""
""fullscreenenter"",""0"",""2964""
","
","645.1000001430511","","","","","","","","54","","","","300","probe-200","","","","","1","[object Object]","77","1","1","","","",""
"","html-keyboard-response","161","498152","0.0-89.0-1.0","""event"",""trial"",""time""
""fullscreenenter"",""0"",""2964""
","
","
","""event"",""trial"",""time""
""fullscreenenter"",""0"",""2964""
","
","null","<p></p>","null","","","","","","","","","","","","","","","","","","","","","","","",""
"","do_trial","162","501338","0.0-90.0-0.0","""event"",""trial"",""time""
""fullscreenenter"",""0"",""2964""
","
","
","""event"",""trial"",""time""
""fullscreenenter"",""0"",""2964""
","
","587","","","","","","","","50","0,0,1","6","blank","301","null","0.2114105548232758","0.09749187784904408","0.4972383334168335","0","","","","","","","","",""
"","html-keyboard-response","163","502356","0.0-90.0-1.0","""event"",""trial"",""time""
""fullscreenenter"",""0"",""2964""
","
","
","""event"",""trial"",""time""
""fullscreenenter"",""0"",""2964""
","
","null","<p></p>","null","","","","","","","","","","","","","","","","","","","","","","","",""
"","do_trial","164","505302","0.0-91.0-0.0","""event"",""trial"",""time""
""fullscreenenter"",""0"",""2964""
","
","
","""event"",""trial"",""time""
""fullscreenenter"",""0"",""2964""
","
","343.5","","","","","","","","51","0,0,1","6","blank","302","null","0.2697489278661957","0.08015804541526798","0.6983424073676645","1","","","","","","","","",""
"","html-keyboard-response","165","506319","0.0-91.0-1.0","""event"",""trial"",""time""
""fullscreenenter"",""0"",""2964""
","
","
","""event"",""trial"",""time""
""fullscreenenter"",""0"",""2964""
","
","null","<p></p>","null","","","","","","","","","","","","","","","","","","","","","","","",""
"","do_trial","166","509329","0.0-92.0-0.0","""event"",""trial"",""time""
""fullscreenenter"",""0"",""2964""
","
","
","""event"",""trial"",""time""
""fullscreenenter"",""0"",""2964""
","
","399.59999990463257","","","","","","","","49","0,1,0","6","blank","303","null","0.11530679883956169","0.25678670775004697","0.5125072295023576","0","","","","","","","","",""
"","html-keyboard-response","167","510344","0.0-92.0-1.0","""event"",""trial"",""time""
""fullscreenenter"",""0"",""2964""
","
","
","""event"",""trial"",""time""
""fullscreenenter"",""0"",""2964""
","
","null","<p></p>","null","","","","","","","","","","","","","","","","","","","","","","","",""
"","do_trial","168","513383","0.0-93.0-0.0","""event"",""trial"",""time""
""fullscreenenter"",""0"",""2964""
","
","
","""event"",""trial"",""time""
""fullscreenenter"",""0"",""2964""
","
","439.60000014305115","","","","","","","","50","0,0,1","6","blank","304","null","0.0839936626354396","0.21780111862374424","0.611335881478997","0","","","","","","","","",""
"","html-keyboard-response","169","514387","0.0-93.0-1.0","""event"",""trial"",""time""
""fullscreenenter"",""0"",""2964""
","
","
","""event"",""trial"",""time""
""fullscreenenter"",""0"",""2964""
","
","null","<p></p>","null","","","","","","","","","","","","","","","","","","","","","","","",""
"","do_recog","170","516814","0.0-94.0-0.0","""event"",""trial"",""time""
""fullscreenenter"",""0"",""2964""
","
","
","""event"",""trial"",""time""
""fullscreenenter"",""0"",""2964""
","
","910.4000000953674","","","","","","","","54","","","","305","probe-70","","","","","1","[object Object]","157","3","1","","","",""
"","html-keyboard-response","171","517832","0.0-94.0-1.0","""event"",""trial"",""time""
""fullscreenenter"",""0"",""2964""
","
","
","""event"",""trial"",""time""
""fullscreenenter"",""0"",""2964""
","
","null","<p></p>","null","","","","","","","","","","","","","","","","","","","","","","","",""
"","do_trial","172","521038","0.0-95.0-0.0","""event"",""trial"",""time""
""fullscreenenter"",""0"",""2964""
","
","
","""event"",""trial"",""time""
""fullscreenenter"",""0"",""2964""
","
","592.1000001430511","","","","","","","","51","0,0,0","6","blank","306","null","0.050835435097554144","0.3164295322876543","0.6116413237328301","0","","","","","","","","",""
"","html-keyboard-response","173","522051","0.0-95.0-1.0","""event"",""trial"",""time""
""fullscreenenter"",""0"",""2964""
","
","
","""event"",""trial"",""time""
""fullscreenenter"",""0"",""2964""
","
","null","<p></p>","null","","","","","","","","","","","","","","","","","","","","","","","",""
"","do_recog","174","524578","0.0-96.0-0.0","""event"",""trial"",""time""
""fullscreenenter"",""0"",""2964""
","
","
","""event"",""trial"",""time""
""fullscreenenter"",""0"",""2964""
","
","1007.1999998092651","","","","","","","","54","","","","307","probe-76","","","","","1","[object Object]","112","2","1","","","",""
"","html-keyboard-response","175","525596","0.0-96.0-1.0","""event"",""trial"",""time""
""fullscreenenter"",""0"",""2964""
","
","
","""event"",""trial"",""time""
""fullscreenenter"",""0"",""2964""
","
","null","<p></p>","null","","","","","","","","","","","","","","","","","","","","","","","",""
"","do_trial","176","528724","0.0-97.0-0.0","""event"",""trial"",""time""
""fullscreenenter"",""0"",""2964""
","
","
","""event"",""trial"",""time""
""fullscreenenter"",""0"",""2964""
","
","520.5","","","","","","","","49","0,1,0","6","blank","308","null","0.05685113835497257","0.2999628937117965","0.5675553353256065","0","","","","","","","","",""
"","html-keyboard-response","177","529730","0.0-97.0-1.0","""event"",""trial"",""time""
""fullscreenenter"",""0"",""2964""
","
","
","""event"",""trial"",""time""
""fullscreenenter"",""0"",""2964""
","
","null","<p></p>","null","","","","","","","","","","","","","","","","","","","","","","","",""
"","break","178","539272","0.0-98.0-0.0","""event"",""trial"",""time""
""fullscreenenter"",""0"",""2964""
","
","
","""event"",""trial"",""time""
""fullscreenenter"",""0"",""2964""
","
","9540.700000047684","<div class='center'><p>Time to take a quick break! You have 2 minutes to rest, but you can move on sooner if you'd like.</p><p> Press the <b>space bar</b> to continue.</p></div>","32","","","","","","","","","","","","","","","","","","","","","","","",""
"","do_recog","179","542354","0.0-98.0-1.0","""event"",""trial"",""time""
""fullscreenenter"",""0"",""2964""
","
","
","""event"",""trial"",""time""
""fullscreenenter"",""0"",""2964""
","
","1561.3999998569489","","","","","","","","54","","","","309","probe-29","","","","","1","[object Object]","76","1","1","","","",""
"","html-keyboard-response","180","543357","0.0-98.0-2.0","""event"",""trial"",""time""
""fullscreenenter"",""0"",""2964""
","
","
","""event"",""trial"",""time""
""fullscreenenter"",""0"",""2964""
","
","null","<p></p>","null","","","","","","","","","","","","","","","","","","","","","","","",""
"","do_trial","181","546767","0.0-99.0-0.0","""event"",""trial"",""time""
""fullscreenenter"",""0"",""2964""
","
","
","""event"",""trial"",""time""
""fullscreenenter"",""0"",""2964""
","
","822.1000001430511","","","","","","","","50","0,0,0","6","blank","310","null","0.07723029844253407","0.29852529400133976","0.6411655591108617","0","","","","","","","","",""
"","html-keyboard-response","182","547783","0.0-99.0-1.0","""event"",""trial"",""time""
""fullscreenenter"",""0"",""2964""
","
","
","""event"",""trial"",""time""
""fullscreenenter"",""0"",""2964""
","
","null","<p></p>","null","","","","","","","","","","","","","","","","","","","","","","","",""
"","do_recog","183","550431","0.0-100.0-0.0","""event"",""trial"",""time""
""fullscreenenter"",""0"",""2964""
","
","
","""event"",""trial"",""time""
""fullscreenenter"",""0"",""2964""
","
","1127.1000001430511","","","","","","","","54","","","","311","probe-129","","","","","1","[object Object]","73","1","1","","","",""
"","html-keyboard-response","184","551436","0.0-100.0-1.0","""event"",""trial"",""time""
""fullscreenenter"",""0"",""2964""
","
","
","""event"",""trial"",""time""
""fullscreenenter"",""0"",""2964""
","
","null","<p></p>","null","","","","","","","","","","","","","","","","","","","","","","","",""
"","do_trial","185","554427","0.0-101.0-0.0","""event"",""trial"",""time""
""fullscreenenter"",""0"",""2964""
","
","
","""event"",""trial"",""time""
""fullscreenenter"",""0"",""2964""
","
","392.2999999523163","","","","","","","","51","0,0,1","6","blank","312","null","0.06781278180227705","0.3024558137299868","0.7024200374343357","1","","","","","","","","",""
"","html-keyboard-response","186","555432","0.0-101.0-1.0","""event"",""trial"",""time""
""fullscreenenter"",""0"",""2964""
","
","
","""event"",""trial"",""time""
""fullscreenenter"",""0"",""2964""
","
","null","<p></p>","null","","","","","","","","","","","","","","","","","","","","","","","",""
"","do_trial","187","558492","0.0-102.0-0.0","""event"",""trial"",""time""
""fullscreenenter"",""0"",""2964""
","
","
","""event"",""trial"",""time""
""fullscreenenter"",""0"",""2964""
","
","397","","","","","","","","49","0,0,1","6","blank","313","null","0.06269761346903316","0.3625450155784302","0.810874185598355","0","","","","","","","","",""
"","html-keyboard-response","188","559499","0.0-102.0-1.0","""event"",""trial"",""time""
""fullscreenenter"",""0"",""2964""
","
","
","""event"",""trial"",""time""
""fullscreenenter"",""0"",""2964""
","
","null","<p></p>","null","","","","","","","","","","","","","","","","","","","","","","","",""
"","do_trial","189","562585","0.0-103.0-0.0","""event"",""trial"",""time""
""fullscreenenter"",""0"",""2964""
","
","
","""event"",""trial"",""time""
""fullscreenenter"",""0"",""2964""
","
","476.39999985694885","","","","","","","","50","0,1,1","6","blank","314","null","0.12545503257540253","0.36166087163129057","0.6928146226355288","1","","","","","","","","",""
"","html-keyboard-response","190","563601","0.0-103.0-1.0","""event"",""trial"",""time""
""fullscreenenter"",""0"",""2964""
","
","
","""event"",""trial"",""time""
""fullscreenenter"",""0"",""2964""
","
","null","<p></p>","null","","","","","","","","","","","","","","","","","","","","","","","",""
"","do_recog","191","566011","0.0-104.0-0.0","""event"",""trial"",""time""
""fullscreenenter"",""0"",""2964""
","
","
","""event"",""trial"",""time""
""fullscreenenter"",""0"",""2964""
","
","889.9000000953674","","","","","","","","54","","","","315","probe-96","","","","","1","[object Object]","196","4","1","","","",""
"","html-keyboard-response","192","567027","0.0-104.0-1.0","""event"",""trial"",""time""
""fullscreenenter"",""0"",""2964""
","
","
","""event"",""trial"",""time""
""fullscreenenter"",""0"",""2964""
","
","null","<p></p>","null","","","","","","","","","","","","","","","","","","","","","","","",""
"","do_trial","193","569844","0.0-105.0-0.0","""event"",""trial"",""time""
""fullscreenenter"",""0"",""2964""
","
","
","""event"",""trial"",""time""
""fullscreenenter"",""0"",""2964""
","
","213.70000004768372","","","","","","","","51","0,0,1","6","blank","316","null","0.054274795959505545","0.36159997578334285","0.7310584448265555","1","","","","","","","","",""
"","html-keyboard-response","194","570859","0.0-105.0-1.0","""event"",""trial"",""time""
""fullscreenenter"",""0"",""2964""
","
","
","""event"",""trial"",""time""
""fullscreenenter"",""0"",""2964""
","
","null","<p></p>","null","","","","","","","","","","","","","","","","","","","","","","","",""
"","do_trial","195","574893","0.0-106.0-0.0","""event"",""trial"",""time""
""fullscreenenter"",""0"",""2964""
","
","
","""event"",""trial"",""time""
""fullscreenenter"",""0"",""2964""
","
","1424.7999999523163","","","","","","","","49","0,0,0","6","blank","317","null","0.14128822557007378","0.4278322165748707","0.63773641470054","0","","","","","","","","",""
"","html-keyboard-response","196","575911","0.0-106.0-1.0","""event"",""trial"",""time""
""fullscreenenter"",""0"",""2964""
","
","
","""event"",""trial"",""time""
""fullscreenenter"",""0"",""2964""
","
","null","<p></p>","null","","","","","","","","","","","","","","","","","","","","","","","",""
"","do_recog","197","578246","0.0-107.0-0.0","""event"",""trial"",""time""
""fullscreenenter"",""0"",""2964""
","
","
","""event"",""trial"",""time""
""fullscreenenter"",""0"",""2964""
","
","810.7999999523163","","","","","","","","54","","","","318","probe-50","","","","","1","[object Object]","119","2","1","","","",""
"","html-keyboard-response","198","579261","0.0-107.0-1.0","""event"",""trial"",""time""
""fullscreenenter"",""0"",""2964""
","
","
","""event"",""trial"",""time""
""fullscreenenter"",""0"",""2964""
","
","null","<p></p>","null","","","","","","","","","","","","","","","","","","","","","","","",""
"","do_trial","199","582214","0.0-108.0-0.0","""event"",""trial"",""time""
""fullscreenenter"",""0"",""2964""
","
","
","""event"",""trial"",""time""
""fullscreenenter"",""0"",""2964""
","
","362.80000019073486","","","","","","","","50","1,0,1","6","blank","319","null","0.19645079511516814","0.3853197574548274","0.6691378664279312","0","","","","","","","","",""
"","html-keyboard-response","200","583232","0.0-108.0-1.0","""event"",""trial"",""time""
""fullscreenenter"",""0"",""2964""
","
","
","""event"",""trial"",""time""
""fullscreenenter"",""0"",""2964""
","
","null","<p></p>","null","","","","","","","","","","","","","","","","","","","","","","","",""
"","do_recog","201","585800","0.0-109.0-0.0","""event"",""trial"",""time""
""fullscreenenter"",""0"",""2964""
","
","
","""event"",""trial"",""time""
""fullscreenenter"",""0"",""2964""
","
","1053.6000001430511","","","","","","","","54","","","","320","probe-55","","","","","1","[object Object]","151","3","1","","","",""
"","html-keyboard-response","202","586818","0.0-109.0-1.0","""event"",""trial"",""time""
""fullscreenenter"",""0"",""2964""
","
","
","""event"",""trial"",""time""
""fullscreenenter"",""0"",""2964""
","
","null","<p></p>","null","","","","","","","","","","","","","","","","","","","","","","","",""
"","do_trial","203","589774","0.0-110.0-0.0","""event"",""trial"",""time""
""fullscreenenter"",""0"",""2964""
","
","
","""event"",""trial"",""time""
""fullscreenenter"",""0"",""2964""
","
","344.09999990463257","","","","","","","","51","0,0,0","6","blank","321","null","0.05091829275214634","0.2676797167196053","0.6251006100049755","0","","","","","","","","",""
"","html-keyboard-response","204","590794","0.0-110.0-1.0","""event"",""trial"",""time""
""fullscreenenter"",""0"",""2964""
","
","
","""event"",""trial"",""time""
""fullscreenenter"",""0"",""2964""
","
","null","<p></p>","null","","","","","","","","","","","","","","","","","","","","","","","",""
"","do_recog","205","596817","0.0-111.0-0.0","""event"",""trial"",""time""
""fullscreenenter"",""0"",""2964""
","
","
","""event"",""trial"",""time""
""fullscreenenter"",""0"",""2964""
","
","null","","","","","","","","null","","","","322","probe-235","","","","","0","[object Object]","null","null","0","","","",""
"","html-keyboard-response","206","597822","0.0-111.0-1.0","""event"",""trial"",""time""
""fullscreenenter"",""0"",""2964""
","
","
","""event"",""trial"",""time""
""fullscreenenter"",""0"",""2964""
","
","null","<p></p>","null","","","","","","","","","","","","","","","","","","","","","","","",""
"","do_trial","207","601089","0.0-112.0-0.0","""event"",""trial"",""time""
""fullscreenenter"",""0"",""2964""
","
","
","""event"",""trial"",""time""
""fullscreenenter"",""0"",""2964""
","
","646.5","","","","","","","","49","0,0,1","6","blank","323","null","0.10319708246771853","0.24443422320844338","0.7287391770769299","0","","","","","","","","",""
"","html-keyboard-response","208","602092","0.0-112.0-1.0","""event"",""trial"",""time""
""fullscreenenter"",""0"",""2964""
","
","
","""event"",""trial"",""time""
""fullscreenenter"",""0"",""2964""
","
","null","<p></p>","null","","","","","","","","","","","","","","","","","","","","","","","",""
"","do_trial","209","605686","0.0-113.0-0.0","""event"",""trial"",""time""
""fullscreenenter"",""0"",""2964""
","
","
","""event"",""trial"",""time""
""fullscreenenter"",""0"",""2964""
","
","985","","","","","","","","50","1,0,0","6","blank","324","null","0.14315686540825212","0.37999029197715395","0.6374638991071374","0","","","","","","","","",""
"","html-keyboard-response","210","606690","0.0-113.0-1.0","""event"",""trial"",""time""
""fullscreenenter"",""0"",""2964""
","
","
","""event"",""trial"",""time""
""fullscreenenter"",""0"",""2964""
","
","null","<p></p>","null","","","","","","","","","","","","","","","","","","","","","","","",""
"","do_trial","211","609621","0.0-114.0-0.0","""event"",""trial"",""time""
""fullscreenenter"",""0"",""2964""
","
","
","""event"",""trial"",""time""
""fullscreenenter"",""0"",""2964""
","
","323.7000000476837","","","","","","","","51","0,1,1","6","blank","325","null","0.1711648365460006","0.31219809273971805","0.6860469567984947","1","","","","","","","","",""
"","html-keyboard-response","212","610636","0.0-114.0-1.0","""event"",""trial"",""time""
""fullscreenenter"",""0"",""2964""
","
","
","""event"",""trial"",""time""
""fullscreenenter"",""0"",""2964""
","
","null","<p></p>","null","","","","","","","","","","","","","","","","","","","","","","","",""
"","do_recog","213","613090","0.0-115.0-0.0","""event"",""trial"",""time""
""fullscreenenter"",""0"",""2964""
","
","
","""event"",""trial"",""time""
""fullscreenenter"",""0"",""2964""
","
","927.5999999046326","","","","","","","","54","","","","326","probe-51","","","","","1","[object Object]","195","4","1","","","",""
"","html-keyboard-response","214","614108","0.0-115.0-1.0","""event"",""trial"",""time""
""fullscreenenter"",""0"",""2964""
","
","
","""event"",""trial"",""time""
""fullscreenenter"",""0"",""2964""
","
","null","<p></p>","null","","","","","","","","","","","","","","","","","","","","","","","",""
"","do_trial","215","617177","0.0-116.0-0.0","""event"",""trial"",""time""
""fullscreenenter"",""0"",""2964""
","
","
","""event"",""trial"",""time""
""fullscreenenter"",""0"",""2964""
","
","455.39999985694885","","","","","","","","49","0,0,1","6","blank","327","null","0.10902210443074906","0.3430010284311395","0.7512457161830848","0","","","","","","","","",""
"","html-keyboard-response","216","618182","0.0-116.0-1.0","""event"",""trial"",""time""
""fullscreenenter"",""0"",""2964""
","
","
","""event"",""trial"",""time""
""fullscreenenter"",""0"",""2964""
","
","null","<p></p>","null","","","","","","","","","","","","","","","","","","","","","","","",""
"","do_trial","217","621281","0.0-117.0-0.0","""event"",""trial"",""time""
""fullscreenenter"",""0"",""2964""
","
","
","""event"",""trial"",""time""
""fullscreenenter"",""0"",""2964""
","
","491","","","","","","","","50","0,0,1","6","blank","328","null","0.15885675096408172","0.24070081341177738","0.765515752221788","0","","","","","","","","",""
"","html-keyboard-response","218","622298","0.0-117.0-1.0","""event"",""trial"",""time""
""fullscreenenter"",""0"",""2964""
","
","
","""event"",""trial"",""time""
""fullscreenenter"",""0"",""2964""
","
","null","<p></p>","null","","","","","","","","","","","","","","","","","","","","","","","",""
"","do_trial","219","625574","0.0-118.0-0.0","""event"",""trial"",""time""
""fullscreenenter"",""0"",""2964""
","
","
","""event"",""trial"",""time""
""fullscreenenter"",""0"",""2964""
","
","678","","","","","","","","51","0,0,1","6","blank","329","null","0.05085735976155261","0.3689956424031442","0.6518485941226283","1","","","","","","","","",""
"","html-keyboard-response","220","626577","0.0-118.0-1.0","""event"",""trial"",""time""
""fullscreenenter"",""0"",""2964""
","
","
","""event"",""trial"",""time""
""fullscreenenter"",""0"",""2964""
","
","null","<p></p>","null","","","","","","","","","","","","","","","","","","","","","","","",""
"","do_trial","221","630425","0.0-119.0-0.0","""event"",""trial"",""time""
""fullscreenenter"",""0"",""2964""
","
","
","""event"",""trial"",""time""
""fullscreenenter"",""0"",""2964""
","
","1243.8999998569489","","","","","","","","49","0,0,0","6","blank","330","null","0.05284881739276883","0.43904094153374545","0.556012052835846","0","","","","","","","","",""
"","html-keyboard-response","222","631428","0.0-119.0-1.0","""event"",""trial"",""time""
""fullscreenenter"",""0"",""2964""
","
","
","""event"",""trial"",""time""
""fullscreenenter"",""0"",""2964""
","
","null","<p></p>","null","","","","","","","","","","","","","","","","","","","","","","","",""
"","do_recog","223","633623","0.0-120.0-0.0","""event"",""trial"",""time""
""fullscreenenter"",""0"",""2964""
","
","
","""event"",""trial"",""time""
""fullscreenenter"",""0"",""2964""
","
","678.9000000953674","","","","","","","","54","","","","331","probe-107","","","","","1","[object Object]","35","0","1","","","",""
"","html-keyboard-response","224","634641","0.0-120.0-1.0","""event"",""trial"",""time""
""fullscreenenter"",""0"",""2964""
","
","
","""event"",""trial"",""time""
""fullscreenenter"",""0"",""2964""
","
","null","<p></p>","null","","","","","","","","","","","","","","","","","","","","","","","",""
"","do_trial","225","638592","0.0-121.0-0.0","""event"",""trial"",""time""
""fullscreenenter"",""0"",""2964""
","
","
","""event"",""trial"",""time""
""fullscreenenter"",""0"",""2964""
","
","1336.1000001430511","","","","","","","","50","0,1,0","6","blank","332","null","0.1006330238168487","0.492146729896229","0.5775453949837817","1","","","","","","","","",""
"","html-keyboard-response","226","639609","0.0-121.0-1.0","""event"",""trial"",""time""
""fullscreenenter"",""0"",""2964""
","
","
","""event"",""trial"",""time""
""fullscreenenter"",""0"",""2964""
","
","null","<p></p>","null","","","","","","","","","","","","","","","","","","","","","","","",""
"","do_recog","227","642005","0.0-122.0-0.0","""event"",""trial"",""time""
""fullscreenenter"",""0"",""2964""
","
","
","""event"",""trial"",""time""
""fullscreenenter"",""0"",""2964""
","
","875.7000000476837","","","","","","","","54","","","","333","probe-105","","","","","1","[object Object]","154","3","1","","","",""
"","html-keyboard-response","228","643022","0.0-122.0-1.0","""event"",""trial"",""time""
""fullscreenenter"",""0"",""2964""
","
","
","""event"",""trial"",""time""
""fullscreenenter"",""0"",""2964""
","
","null","<p></p>","null","","","","","","","","","","","","","","","","","","","","","","","",""
"","do_trial","229","646343","0.0-123.0-0.0","""event"",""trial"",""time""
""fullscreenenter"",""0"",""2964""
","
","
","""event"",""trial"",""time""
""fullscreenenter"",""0"",""2964""
","
","697.3999998569489","","","","","","","","51","0,0,1","6","blank","334","null","0.158749533236725","0.5107072547917014","0.49307793257751914","1","","","","","","","","",""
"","html-keyboard-response","230","647348","0.0-123.0-1.0","""event"",""trial"",""time""
""fullscreenenter"",""0"",""2964""
","
","
","""event"",""trial"",""time""
""fullscreenenter"",""0"",""2964""
","
","null","<p></p>","null","","","","","","","","","","","","","","","","","","","","","","","",""
"","do_trial","231","650852","0.0-124.0-0.0","""event"",""trial"",""time""
""fullscreenenter"",""0"",""2964""
","
","
","""event"",""trial"",""time""
""fullscreenenter"",""0"",""2964""
","
","899.0999999046326","","","","","","","","49","0,1,1","6","blank","335","null","0.16558280709643478","0.35098106173034055","0.5132135954813835","0","","","","","","","","",""
"","html-keyboard-response","232","651857","0.0-124.0-1.0","""event"",""trial"",""time""
""fullscreenenter"",""0"",""2964""
","
","
","""event"",""trial"",""time""
""fullscreenenter"",""0"",""2964""
","
","null","<p></p>","null","","","","","","","","","","","","","","","","","","","","","","","",""
"","do_trial","233","654872","0.0-125.0-0.0","""event"",""trial"",""time""
""fullscreenenter"",""0"",""2964""
","
","
","""event"",""trial"",""time""
""fullscreenenter"",""0"",""2964""
","
","408.5","","","","","","","","50","1,1,1","6","blank","336","null","0.23306447914699255","0.35580264955372637","0.5048129041613575","1","","","","","","","","",""
"","html-keyboard-response","234","655891","0.0-125.0-1.0","""event"",""trial"",""time""
""fullscreenenter"",""0"",""2964""
","
","
","""event"",""trial"",""time""
""fullscreenenter"",""0"",""2964""
","
","null","<p></p>","null","","","","","","","","","","","","","","","","","","","","","","","",""
"","do_trial","235","658832","0.0-126.0-0.0","""event"",""trial"",""time""
""fullscreenenter"",""0"",""2964""
","
","
","""event"",""trial"",""time""
""fullscreenenter"",""0"",""2964""
","
","346.40000009536743","","","","","","","","51","0,0,1","6","blank","337","null","0.22469236834581083","0.38618235496812303","0.5780811633611792","1","","","","","","","","",""
"","html-keyboard-response","236","659849","0.0-126.0-1.0","""event"",""trial"",""time""
""fullscreenenter"",""0"",""2964""
","
","
","""event"",""trial"",""time""
""fullscreenenter"",""0"",""2964""
","
","null","<p></p>","null","","","","","","","","","","","","","","","","","","","","","","","",""
"","do_recog","237","662050","0.0-127.0-0.0","""event"",""trial"",""time""
""fullscreenenter"",""0"",""2964""
","
","
","""event"",""trial"",""time""
""fullscreenenter"",""0"",""2964""
","
","683.1999998092651","","","","","","","","54","","","","338","probe-138","","","","","1","[object Object]","70","1","1","","","",""
"","html-keyboard-response","238","663064","0.0-127.0-1.0","""event"",""trial"",""time""
""fullscreenenter"",""0"",""2964""
","
","
","""event"",""trial"",""time""
""fullscreenenter"",""0"",""2964""
","
","null","<p></p>","null","","","","","","","","","","","","","","","","","","","","","","","",""
"","do_trial","239","666260","0.0-128.0-0.0","""event"",""trial"",""time""
""fullscreenenter"",""0"",""2964""
","
","
","""event"",""trial"",""time""
""fullscreenenter"",""0"",""2964""
","
","614.4000000953674","","","","","","","","49","0,1,0","6","blank","339","null","0.3088778008363013","0.29745785780453265","0.5798612989293025","0","","","","","","","","",""
"","html-keyboard-response","240","667274","0.0-128.0-1.0","""event"",""trial"",""time""
""fullscreenenter"",""0"",""2964""
","
","
","""event"",""trial"",""time""
""fullscreenenter"",""0"",""2964""
","
","null","<p></p>","null","","","","","","","","","","","","","","","","","","","","","","","",""
"","do_trial","241","670499","0.0-129.0-0.0","""event"",""trial"",""time""
""fullscreenenter"",""0"",""2964""
","
","
","""event"",""trial"",""time""
""fullscreenenter"",""0"",""2964""
","
","615.7000000476837","","","","","","","","50","0,1,1","6","blank","340","null","0.4127323510810365","0.1631512365479238","0.5907374937468529","1","","","","","","","","",""
"","html-keyboard-response","242","671516","0.0-129.0-1.0","""event"",""trial"",""time""
""fullscreenenter"",""0"",""2964""
","
","
","""event"",""trial"",""time""
""fullscreenenter"",""0"",""2964""
","
","null","<p></p>","null","","","","","","","","","","","","","","","","","","","","","","","",""
"","do_trial","243","674536","0.0-130.0-0.0","""event"",""trial"",""time""
""fullscreenenter"",""0"",""2964""
","
","
","""event"",""trial"",""time""
""fullscreenenter"",""0"",""2964""
","
","426.60000014305115","","","","","","","","51","0,0,1","6","blank","341","null","0.30172729172447826","0.22209113433713398","0.5215911105131406","1","","","","","","","","",""
"","html-keyboard-response","244","675555","0.0-130.0-1.0","""event"",""trial"",""time""
""fullscreenenter"",""0"",""2964""
","
","
","""event"",""trial"",""time""
""fullscreenenter"",""0"",""2964""
","
","null","<p></p>","null","","","","","","","","","","","","","","","","","","","","","","","",""
"","do_recog","245","677576","0.0-131.0-0.0","""event"",""trial"",""time""
""fullscreenenter"",""0"",""2964""
","
","
","""event"",""trial"",""time""
""fullscreenenter"",""0"",""2964""
","
","499.69999980926514","","","","","","","","54","","","","342","probe-149","","","","","1","[object Object]","36","0","1","","","",""
"","html-keyboard-response","246","678593","0.0-131.0-1.0","""event"",""trial"",""time""
""fullscreenenter"",""0"",""2964""
","
","
","""event"",""trial"",""time""
""fullscreenenter"",""0"",""2964""
","
","null","<p></p>","null","","","","","","","","","","","","","","","","","","","","","","","",""
"","do_trial","247","681834","0.0-132.0-0.0","""event"",""trial"",""time""
""fullscreenenter"",""0"",""2964""
","
","
","""event"",""trial"",""time""
""fullscreenenter"",""0"",""2964""
","
","644.2999999523163","","","","","","","","49","0,1,1","6","blank","343","null","0.17621744295851544","0.34542676576740505","0.4944690578466646","0","","","","","","","","",""
"","html-keyboard-response","248","682850","0.0-132.0-1.0","""event"",""trial"",""time""
""fullscreenenter"",""0"",""2964""
","
","
","""event"",""trial"",""time""
""fullscreenenter"",""0"",""2964""
","
","null","<p></p>","null","","","","","","","","","","","","","","","","","","","","","","","",""
"","do_trial","249","686510","0.0-133.0-0.0","""event"",""trial"",""time""
""fullscreenenter"",""0"",""2964""
","
","
","""event"",""trial"",""time""
""fullscreenenter"",""0"",""2964""
","
","1067.3999998569489","","","","","","","","50","1,0,1","6","blank","344","null","0.11395841982219863","0.27367630009651217","0.4171973290851546","0","","","","","","","","",""
"","html-keyboard-response","250","687526","0.0-133.0-1.0","""event"",""trial"",""time""
""fullscreenenter"",""0"",""2964""
","
","
","""event"",""trial"",""time""
""fullscreenenter"",""0"",""2964""
","
","null","<p></p>","null","","","","","","","","","","","","","","","","","","","","","","","",""
"","do_trial","251","690487","0.0-134.0-0.0","""event"",""trial"",""time""
""fullscreenenter"",""0"",""2964""
","
","
","""event"",""trial"",""time""
""fullscreenenter"",""0"",""2964""
","
","341.5","","","","","","","","51","0,1,1","6","blank","345","null","0.09979121559721656","0.21834808964217228","0.6258199762569477","1","","","","","","","","",""
"","html-keyboard-response","252","691493","0.0-134.0-1.0","""event"",""trial"",""time""
""fullscreenenter"",""0"",""2964""
","
","
","""event"",""trial"",""time""
""fullscreenenter"",""0"",""2964""
","
","null","<p></p>","null","","","","","","","","","","","","","","","","","","","","","","","",""
"","do_trial","253","694481","0.0-135.0-0.0","""event"",""trial"",""time""
""fullscreenenter"",""0"",""2964""
","
","
","""event"",""trial"",""time""
""fullscreenenter"",""0"",""2964""
","
","398.89999985694885","","","","","","","","49","0,1,1","6","blank","346","null","0.14647526218611728","0.3428134200520168","0.6585411548660163","0","","","","","","","","",""
"","html-keyboard-response","254","695498","0.0-135.0-1.0","""event"",""trial"",""time""
""fullscreenenter"",""0"",""2964""
","
","
","""event"",""trial"",""time""
""fullscreenenter"",""0"",""2964""
","
","null","<p></p>","null","","","","","","","","","","","","","","","","","","","","","","","",""
"","do_recog","255","697993","0.0-136.0-0.0","""event"",""trial"",""time""
""fullscreenenter"",""0"",""2964""
","
","
","""event"",""trial"",""time""
""fullscreenenter"",""0"",""2964""
","
","962.5999999046326","","","","","","","","54","","","","347","probe-41","","","","","1","[object Object]","190","4","1","","","",""
"","html-keyboard-response","256","699007","0.0-136.0-1.0","""event"",""trial"",""time""
""fullscreenenter"",""0"",""2964""
","
","
","""event"",""trial"",""time""
""fullscreenenter"",""0"",""2964""
","
","null","<p></p>","null","","","","","","","","","","","","","","","","","","","","","","","",""
"","do_trial","257","702567","0.0-137.0-0.0","""event"",""trial"",""time""
""fullscreenenter"",""0"",""2964""
","
","
","""event"",""trial"",""time""
""fullscreenenter"",""0"",""2964""
","
","975.5","","","","","","","","50","0,0,0","6","blank","348","null","0.09694152212773624","0.17559263499798206","0.603070572462341","0","","","","","","","","",""
"","html-keyboard-response","258","703581","0.0-137.0-1.0","""event"",""trial"",""time""
""fullscreenenter"",""0"",""2964""
","
","
","""event"",""trial"",""time""
""fullscreenenter"",""0"",""2964""
","
","null","<p></p>","null","","","","","","","","","","","","","","","","","","","","","","","",""
"","break","259","737113","0.0-138.0-0.0","""event"",""trial"",""time""
""fullscreenenter"",""0"",""2964""
","
","
","""event"",""trial"",""time""
""fullscreenenter"",""0"",""2964""
","
","33531.5","<div class='center'><p>Time to take a quick break! You have 2 minutes to rest, but you can move on sooner if you'd like.</p><p> Press the <b>space bar</b> to continue.</p></div>","32","","","","","","","","","","","","","","","","","","","","","","","",""
"","do_recog","260","740090","0.0-138.0-1.0","""event"",""trial"",""time""
""fullscreenenter"",""0"",""2964""
","
","
","""event"",""trial"",""time""
""fullscreenenter"",""0"",""2964""
","
","1455.7000000476837","","","","","","","","54","","","","349","probe-67","","","","","1","[object Object]","34","0","1","","","",""
"","html-keyboard-response","261","741104","0.0-138.0-2.0","""event"",""trial"",""time""
""fullscreenenter"",""0"",""2964""
","
","
","""event"",""trial"",""time""
""fullscreenenter"",""0"",""2964""
","
","null","<p></p>","null","","","","","","","","","","","","","","","","","","","","","","","",""
"","do_trial","262","744494","0.0-139.0-0.0","""event"",""trial"",""time""
""fullscreenenter"",""0"",""2964""
","
","
","""event"",""trial"",""time""
""fullscreenenter"",""0"",""2964""
","
","789.5","","","","","","","","49","0,0,1","6","blank","350","null","0.23099970422462257","0.29193003729962663","0.4518480557547623","0","","","","","","","","",""
"","html-keyboard-response","263","745498","0.0-139.0-1.0","""event"",""trial"",""time""
""fullscreenenter"",""0"",""2964""
","
","
","""event"",""trial"",""time""
""fullscreenenter"",""0"",""2964""
","
","null","<p></p>","null","","","","","","","","","","","","","","","","","","","","","","","",""
"","do_trial","264","748458","0.0-140.0-0.0","""event"",""trial"",""time""
""fullscreenenter"",""0"",""2964""
","
","
","""event"",""trial"",""time""
""fullscreenenter"",""0"",""2964""
","
","374.2000000476837","","","","","","","","50","0,0,0","6","blank","351","null","0.20841086225062785","0.24611825478402896","0.5034875880759044","0","","","","","","","","",""
"","html-keyboard-response","265","749474","0.0-140.0-1.0","""event"",""trial"",""time""
""fullscreenenter"",""0"",""2964""
","
","
","""event"",""trial"",""time""
""fullscreenenter"",""0"",""2964""
","
","null","<p></p>","null","","","","","","","","","","","","","","","","","","","","","","","",""
"","do_trial","266","752431","0.0-141.0-0.0","""event"",""trial"",""time""
""fullscreenenter"",""0"",""2964""
","
","
","""event"",""trial"",""time""
""fullscreenenter"",""0"",""2964""
","
","354.2000000476837","","","","","","","","51","0,1,0","6","blank","352","null","0.06724613898506453","0.15342533550025825","0.404599940064946","0","","","","","","","","",""
"","html-keyboard-response","267","753447","0.0-141.0-1.0","""event"",""trial"",""time""
""fullscreenenter"",""0"",""2964""
","
","
","""event"",""trial"",""time""
""fullscreenenter"",""0"",""2964""
","
","null","<p></p>","null","","","","","","","","","","","","","","","","","","","","","","","",""
"","do_trial","268","756376","0.0-142.0-0.0","""event"",""trial"",""time""
""fullscreenenter"",""0"",""2964""
","
","
","""event"",""trial"",""time""
""fullscreenenter"",""0"",""2964""
","
","331.2999999523163","","","","","","","","49","0,0,0","6","blank","353","null","0.07766740546921988","0.178577567844338","0.2295656974452161","0","","","","","","","","",""
"","html-keyboard-response","269","757379","0.0-142.0-1.0","""event"",""trial"",""time""
""fullscreenenter"",""0"",""2964""
","
","
","""event"",""trial"",""time""
""fullscreenenter"",""0"",""2964""
","
","null","<p></p>","null","","","","","","","","","","","","","","","","","","","","","","","",""
"","do_trial","270","760340","0.0-143.0-0.0","""event"",""trial"",""time""
""fullscreenenter"",""0"",""2964""
","
","
","""event"",""trial"",""time""
""fullscreenenter"",""0"",""2964""
","
","344.59999990463257","","","","","","","","50","1,0,1","6","blank","354","null","0.19837763742506828","0.31047715761933414","0.12120250977897859","0","","","","","","","","",""
"","html-keyboard-response","271","761345","0.0-143.0-1.0","""event"",""trial"",""time""
""fullscreenenter"",""0"",""2964""
","
","
","""event"",""trial"",""time""
""fullscreenenter"",""0"",""2964""
","
","null","<p></p>","null","","","","","","","","","","","","","","","","","","","","","","","",""
"","do_recog","272","763791","0.0-144.0-0.0","""event"",""trial"",""time""
""fullscreenenter"",""0"",""2964""
","
","
","""event"",""trial"",""time""
""fullscreenenter"",""0"",""2964""
","
","920.7999999523163","","","","","","","","54","","","","355","probe-25","","","","","1","[object Object]","118","2","1","","","",""
"","html-keyboard-response","273","764809","0.0-144.0-1.0","""event"",""trial"",""time""
""fullscreenenter"",""0"",""2964""
","
","
","""event"",""trial"",""time""
""fullscreenenter"",""0"",""2964""
","
","null","<p></p>","null","","","","","","","","","","","","","","","","","","","","","","","",""
"","do_trial","274","767859","0.0-145.0-0.0","""event"",""trial"",""time""
""fullscreenenter"",""0"",""2964""
","
","
","""event"",""trial"",""time""
""fullscreenenter"",""0"",""2964""
","
","471.59999990463257","","","","","","","","51","0,1,1","6","blank","356","null","0.22254938565775156","0.33951918307828766","0.17272288467970726","1","","","","","","","","",""
"","html-keyboard-response","275","768876","0.0-145.0-1.0","""event"",""trial"",""time""
""fullscreenenter"",""0"",""2964""
","
","
","""event"",""trial"",""time""
""fullscreenenter"",""0"",""2964""
","
","null","<p></p>","null","","","","","","","","","","","","","","","","","","","","","","","",""
"","do_trial","276","771882","0.0-146.0-0.0","""event"",""trial"",""time""
""fullscreenenter"",""0"",""2964""
","
","
","""event"",""trial"",""time""
""fullscreenenter"",""0"",""2964""
","
","411.89999985694885","","","","","","","","49","0,0,0","6","blank","357","null","0.16661020366355922","0.31505914852433103","0.19085979729320796","0","","","","","","","","",""
"","html-keyboard-response","277","772885","0.0-146.0-1.0","""event"",""trial"",""time""
""fullscreenenter"",""0"",""2964""
","
","
","""event"",""trial"",""time""
""fullscreenenter"",""0"",""2964""
","
","null","<p></p>","null","","","","","","","","","","","","","","","","","","","","","","","",""
"","do_trial","278","775774","0.0-147.0-0.0","""event"",""trial"",""time""
