success,trial_type,trial_index,time_elapsed,internal_node_id,rt,stimulus,subject_id,key_press,response,choice_outcomes,context_n,context_img_id,trial_n,probe_img_id,pR_red,pR_white,pR_black,outcome,is_valid,image_to_show,probed_trial,probed_context,correct,context_id
TRUE,fullscreen,0,3865,0.0-0.0,,,,,,,,,,,,,,,,,,,,
,pavlovia,1,3871,0.0-1.0,,,,,,,,,,,,,,,,,,,,
,html-keyboard-response,2,8352,0.0-2.0,4479.4,"<div class='center'><p>Like yesterday,as the head captain of the ship, you have one important things to do: </p><b><p> Pick the pirate who you think will be most successful at robbing the next ship.</p></b><p>This is important in determining how much bonus money you’ll win.</p><br><p>The game will start by showing you the pirates. First pick a pirate using the <b> 1, 2, 3 </b> buttons on your keyboard. </p><p> Press <b>'1'</b> to choose red beard, <b>'2'</b> to choose white beard, and <b>'3'</b> to choose black beard</p><p> You only have 3 seconds to pick a pirate, so please make a choice quickly! If you are too slow, you’ll have to wait a bit during the time out.</p><p> Don’t feel rushed, but please do try to make a choice every time.</p><p>How good a pirate is at robbing a ship will change depending on the place they are in and how good the defenses are of the ship.</p><p><b>[Press the space bar to begin the practice game]</b></p></div>",6108a9d24e7f19c6f3469291,32,,,,,,,,,,,,,,,,
,html-keyboard-response,3,10796,0.0-3.0,2443.7,"<div class='center'><p>You’ve arrived at the final island of your journey! Unfortunately, it’s very foggy out, so you won’t be able to see it in the distance like the previous islands you've visited.</p><p>You’ll still be deciding which pirate you want to rob a ship like before. However, because of the fog, you also won’t be able to see the ship.</p><p>This means you do not have to remember the ships you rob on this island.</p><p><b>[Press the space bar to continue]</b></p></div>",,32,,,,,,,,,,,,,,,,
,html-keyboard-response,4,16705,0.0-4.0,5907.4,"<div class='center'><p> Sometimes you’ll be shown a ship, and you will be asked if you saw this ship on a past island.</p><p> Here is an example of what you will see.</p><p><b>[Press the space bar to continue]</b></p><p><img src='run_exp/static/images/tutorial/example_recog_trial.png' height='500'></p></div>",,32,,,,,,,,,,,,,,,,
,html-keyboard-response,5,27554,0.0-5.0,10848.3,"<div class='center'><p> You will press the 5, 6, 7, 8 buttons on your keyboard to respond.</p><p>If you are very sure saw the ship, press <b>5</b> on your keyboard.</p><p> If you think you  saw it before but are not sure, then press <b>6</b>.</p><p> If you think you have not seen it before but are not sure, then press <b>7</b>.</p><p> If you are sure you did not see the ship before, then press <b>8</b>.</p><p><b>[Press the space bar to continue]</b></p><p><img src='run_exp/static/images/tutorial/example_recog_trial.png' height='500'></p></div>",,32,,,,,,,,,,,,,,,,
,html-keyboard-response,6,34435,0.0-6.0,6879.3,"<div class='center'><p> If you remember correctly, then you’ll get a gold coin like this: </p><p><img src='run_exp/static/images/tutorial/reward_small.png' height='200'></p><p>If you do not remember correctly, then you'll see a red x like this: </p><p><img src='run_exp/static/images/tutorial/reward_no.png' height='200'></p><p>Importantly, when you are shown a ship, take the time to remind yourself which island you saw it on. This will help you in the next part of the study.</p><p><b>[Press the space bar to continue]</b></p></div>",,32,,,,,,,,,,,,,,,,
,html-keyboard-response,7,37407,0.0-7.0,2970.5,"<div class='center'><p>Let's go over the important points again. Your job is to: </p><p>1. Pick the pirate who is best at robbing ships and will bring you back gold coins. </p><p>2. Correctly remember whether or not you saw a ship before. If you did see the ship before, remind yourself on which island you saw the ship. </p><p><b>[Press the space bar to begin the next part of the study]</b></p></div>",,32,,,,,,,,,,,,,,,,
,do_welcome,8,38925,0.0-8.0,null,,,,null,,,,,,,,,,,,,,,
,do_trial,9,44238,0.0-9.0-0.0,2758.1,,,,49,"1,1,1",6,blank,230,null,0.320589343,0.280572021,0.525305234,1,,,,,,
,html-keyboard-response,10,45244,0.0-9.0-1.0,null,<p></p>,,null,,,,,,,,,,,,,,,,
,do_trial,11,48455,0.0-10.0-0.0,657.6,,,,49,"1,0,1",6,blank,231,null,0.239538757,0.100697647,0.596571654,1,,,,,,
,html-keyboard-response,12,49460,0.0-10.0-1.0,null,<p></p>,,null,,,,,,,,,,,,,,,,
,do_trial,13,52379,0.0-11.0-0.0,366.6,,,,50,"1,0,0",6,blank,232,null,0.172705427,0.123036253,0.512441286,0,,,,,,
,html-keyboard-response,14,53384,0.0-11.0-1.0,null,<p></p>,,null,,,,,,,,,,,,,,,,
,do_trial,15,56201,0.0-12.0-0.0,270.1,,,,51,"1,0,1",6,blank,233,null,0.27047257,0.101011939,0.430864944,1,,,,,,
,html-keyboard-response,16,57206,0.0-12.0-1.0,null,<p></p>,,null,,,,,,,,,,,,,,,,
,do_trial,17,60020,0.0-13.0-0.0,266.4,,,,51,"0,0,0",6,blank,234,null,0.245517213,0.102050789,0.389800161,0,,,,,,
,html-keyboard-response,18,61025,0.0-13.0-1.0,null,<p></p>,,null,,,,,,,,,,,,,,,,
,do_trial,19,63846,0.0-14.0-0.0,271.5,,,,49,"0,0,0",6,blank,235,null,0.255751779,0.116076863,0.497125831,0,,,,,,
,html-keyboard-response,20,64851,0.0-14.0-1.0,null,<p></p>,,null,,,,,,,,,,,,,,,,
,do_trial,21,67874,0.0-15.0-0.0,471.5,,,,51,"0,0,1",6,blank,236,null,0.07838622,0.0950501,0.417839049,1,,,,,,
,html-keyboard-response,22,68879,0.0-15.0-1.0,null,<p></p>,,null,,,,,,,,,,,,,,,,
,do_trial,23,71698,0.0-16.0-0.0,267.6,,,,51,"0,0,0",6,blank,237,null,0.093630484,0.085805549,0.403569619,0,,,,,,
,html-keyboard-response,24,72703,0.0-16.0-1.0,null,<p></p>,,null,,,,,,,,,,,,,,,,
,do_trial,25,75567,0.0-17.0-0.0,316.5,,,,49,"0,0,0",6,blank,238,null,0.250184921,0.142967929,0.349579957,0,,,,,,
,html-keyboard-response,26,76572,0.0-17.0-1.0,null,<p></p>,,null,,,,,,,,,,,,,,,,
,do_trial,27,79395,0.0-18.0-0.0,272.4,,,,50,"0,0,0",6,blank,239,null,0.268585659,0.362445633,0.41829216,0,,,,,,
,html-keyboard-response,28,80400,0.0-18.0-1.0,null,<p></p>,,null,,,,,,,,,,,,,,,,
,do_trial,29,83231,0.0-19.0-0.0,280.6,,,,49,"0,1,0",6,blank,240,null,0.377254138,0.436612909,0.468361842,0,,,,,,
,html-keyboard-response,30,84237,0.0-19.0-1.0,null,<p></p>,,null,,,,,,,,,,,,,,,,
,do_trial,31,87073,0.0-20.0-0.0,288.3,,,,49,"1,0,1",6,blank,241,null,0.48150906,0.422491477,0.504428868,1,,,,,,
,html-keyboard-response,32,88078,0.0-20.0-1.0,null,<p></p>,,null,,,,,,,,,,,,,,,,
,do_recog,33,94097,0.0-21.0-0.0,null,,,,null,,,,242,probe-176,,,,,1,[object Object],83,2,0,
,html-keyboard-response,34,95101,0.0-21.0-1.0,null,<p></p>,,null,,,,,,,,,,,,,,,,
,do_trial,35,98754,0.0-22.0-0.0,1101.7,,,,49,"0,1,1",6,blank,243,null,0.320598672,0.533766655,0.312200779,0,,,,,,
,html-keyboard-response,36,99759,0.0-22.0-1.0,null,<p></p>,,null,,,,,,,,,,,,,,,,
,do_recog,37,102735,0.0-23.0-0.0,1463.9,,,,55,,,,244,probe-169,,,,,1,[object Object],120,3,0,
,html-keyboard-response,38,103740,0.0-23.0-1.0,null,<p></p>,,null,,,,,,,,,,,,,,,,
,do_trial,39,107104,0.0-24.0-0.0,811.9,,,,49,"0,1,1",6,blank,245,null,0.292893314,0.50182807,0.2808935,0,,,,,,
,html-keyboard-response,40,108109,0.0-24.0-1.0,null,<p></p>,,null,,,,,,,,,,,,,,,,
,do_trial,41,110993,0.0-25.0-0.0,333.3,,,,50,"1,0,0",6,blank,246,null,0.280050848,0.433135019,0.266888773,0,,,,,,
,html-keyboard-response,42,111998,0.0-25.0-1.0,null,<p></p>,,null,,,,,,,,,,,,,,,,
,do_recog,43,114849,0.0-26.0-0.0,1341.7,,,,55,,,,247,probe-07,,,,,1,[object Object],42,1,0,
,html-keyboard-response,44,115852,0.0-26.0-1.0,null,<p></p>,,null,,,,,,,,,,,,,,,,
,do_trial,45,118801,0.0-27.0-0.0,396.3,,,,49,"1,0,0",6,blank,248,null,0.452366091,0.349266783,0.184554032,1,,,,,,
,html-keyboard-response,46,119803,0.0-27.0-1.0,null,<p></p>,,null,,,,,,,,,,,,,,,,
,do_recog,47,122621,0.0-28.0-0.0,1309.3,,,,54,,,,249,probe-93,,,,,1,[object Object],85,2,1,
,html-keyboard-response,48,123625,0.0-28.0-1.0,null,<p></p>,,null,,,,,,,,,,,,,,,,
,do_trial,49,126570,0.0-29.0-0.0,391.9,,,,50,"1,0,0",6,blank,250,null,0.420057321,0.49932594,0.169059103,0,,,,,,
,html-keyboard-response,50,127574,0.0-29.0-1.0,null,<p></p>,,null,,,,,,,,,,,,,,,,
,do_recog,51,129910,0.0-30.0-0.0,823.9,,,,55,,,,251,probe-40,,,,,1,[object Object],124,3,0,
,html-keyboard-response,52,130914,0.0-30.0-1.0,null,<p></p>,,null,,,,,,,,,,,,,,,,
,do_trial,53,134304,0.0-31.0-0.0,838.7,,,,51,"0,0,0",6,blank,252,null,0.331872031,0.605067015,0.084549718,0,,,,,,
,html-keyboard-response,54,135310,0.0-31.0-1.0,null,<p></p>,,null,,,,,,,,,,,,,,,,
,do_trial,55,138835,0.0-32.0-0.0,972.7,,,,49,"0,0,0",6,blank,253,null,0.28724701,0.556080311,0.172154599,0,,,,,,
,html-keyboard-response,56,139843,0.0-32.0-1.0,null,<p></p>,,null,,,,,,,,,,,,,,,,
,do_trial,57,142829,0.0-33.0-0.0,395.1,,,,51,"1,1,0",6,blank,254,null,0.456445696,0.533851693,0.149941912,0,,,,,,
,html-keyboard-response,58,143831,0.0-33.0-1.0,null,<p></p>,,null,,,,,,,,,,,,,,,,
,do_trial,59,146767,0.0-34.0-0.0,384.3,,,,49,"1,1,0",6,blank,255,null,0.368974794,0.542503631,0.21643599,1,,,,,,
,html-keyboard-response,60,147771,0.0-34.0-1.0,null,<p></p>,,null,,,,,,,,,,,,,,,,
,do_trial,61,150782,0.0-35.0-0.0,456.1,,,,49,"0,1,0",6,blank,256,null,0.377171101,0.697667267,0.183591237,0,,,,,,
,html-keyboard-response,62,151784,0.0-35.0-1.0,null,<p></p>,,null,,,,,,,,,,,,,,,,
,do_recog,63,154761,0.0-36.0-0.0,1463,,,,54,,,,257,probe-02,,,,,1,[object Object],88,2,1,
,html-keyboard-response,64,155765,0.0-36.0-1.0,null,<p></p>,,null,,,,,,,,,,,,,,,,
,do_trial,65,158874,0.0-37.0-0.0,555.4,,,,49,"0,1,0",6,blank,258,null,0.239036894,0.588520769,0.157716385,0,,,,,,
,html-keyboard-response,66,159879,0.0-37.0-1.0,null,<p></p>,,null,,,,,,,,,,,,,,,,
,do_trial,67,162868,0.0-38.0-0.0,440.7,,,,51,"1,1,0",6,blank,259,null,0.314277812,0.564400508,0.173076025,0,,,,,,
,html-keyboard-response,68,163872,0.0-38.0-1.0,null,<p></p>,,null,,,,,,,,,,,,,,,,
,do_trial,69,166827,0.0-39.0-0.0,406,,,,49,"1,1,0",6,blank,260,null,0.293497609,0.733484988,0.173719129,1,,,,,,
,html-keyboard-response,70,167834,0.0-39.0-1.0,null,<p></p>,,null,,,,,,,,,,,,,,,,
,do_trial,71,171003,0.0-40.0-0.0,616.7,,,,49,"0,1,0",6,blank,261,null,0.390133314,0.665832009,0.051699151,0,,,,,,
,html-keyboard-response,72,172008,0.0-40.0-1.0,null,<p></p>,,null,,,,,,,,,,,,,,,,
,do_trial,73,174942,0.0-41.0-0.0,382.5,,,,51,"1,0,0",6,blank,262,null,0.406504093,0.585735425,0.186552074,0,,,,,,
,html-keyboard-response,74,175948,0.0-41.0-1.0,null,<p></p>,,null,,,,,,,,,,,,,,,,
,do_trial,75,178855,0.0-42.0-0.0,355,,,,50,"0,1,0",6,blank,263,null,0.361446369,0.674085004,0.083489046,1,,,,,,
,html-keyboard-response,76,179860,0.0-42.0-1.0,null,<p></p>,,null,,,,,,,,,,,,,,,,
,do_recog,77,182438,0.0-43.0-0.0,1070.7,,,,55,,,,264,probe-15,,,,,1,[object Object],49,1,0,
,html-keyboard-response,78,183445,0.0-43.0-1.0,null,<p></p>,,null,,,,,,,,,,,,,,,,
,do_trial,79,186421,0.0-44.0-0.0,424.2,,,,49,"0,1,0",6,blank,265,null,0.317528435,0.607736902,0.098732742,0,,,,,,
,html-keyboard-response,80,187424,0.0-44.0-1.0,null,<p></p>,,null,,,,,,,,,,,,,,,,
,do_recog,81,189946,0.0-45.0-0.0,1009.7,,,,54,,,,266,probe-76,,,,,1,[object Object],164,4,1,
,html-keyboard-response,82,190950,0.0-45.0-1.0,null,<p></p>,,null,,,,,,,,,,,,,,,,
,do_trial,83,193908,0.0-46.0-0.0,406.5,,,,50,"0,0,1",6,blank,267,null,0.316185787,0.569445793,0.118786929,0,,,,,,
,html-keyboard-response,84,194912,0.0-46.0-1.0,null,<p></p>,,null,,,,,,,,,,,,,,,,
,do_trial,85,197810,0.0-47.0-0.0,346.7,,,,50,"1,1,0",6,blank,268,null,0.370471713,0.588158555,0.091360011,1,,,,,,
,html-keyboard-response,86,198812,0.0-47.0-1.0,null,<p></p>,,null,,,,,,,,,,,,,,,,
,do_trial,87,201877,0.0-48.0-0.0,513.7,,,,50,"1,0,0",6,blank,269,null,0.461580939,0.568178185,0.069334145,0,,,,,,
,html-keyboard-response,88,202881,0.0-48.0-1.0,null,<p></p>,,null,,,,,,,,,,,,,,,,
,do_trial,89,205714,0.0-49.0-0.0,286,,,,49,"0,1,0",6,blank,270,null,0.314799974,0.704555293,0.12090137,0,,,,,,
,html-keyboard-response,90,206719,0.0-49.0-1.0,null,<p></p>,,null,,,,,,,,,,,,,,,,
,do_trial,91,209850,0.0-50.0-0.0,584.5,,,,51,"0,1,0",6,blank,271,null,0.408275412,0.560854182,0.065354988,0,,,,,,
,html-keyboard-response,92,210855,0.0-50.0-1.0,null,<p></p>,,null,,,,,,,,,,,,,,,,
,do_recog,93,213376,0.0-51.0-0.0,1008.4,,,,54,,,,272,probe-120,,,,,1,[object Object],47,1,1,
,html-keyboard-response,94,214380,0.0-51.0-1.0,null,<p></p>,,null,,,,,,,,,,,,,,,,
,do_trial,95,218150,0.0-52.0-0.0,1221.1,,,,49,"1,1,0",6,blank,273,null,0.592238389,0.543615987,0.065392739,1,,,,,,
,html-keyboard-response,96,219154,0.0-52.0-1.0,null,<p></p>,,null,,,,,,,,,,,,,,,,
,do_trial,97,222182,0.0-53.0-0.0,474.4,,,,49,"0,1,1",6,blank,274,null,0.403221969,0.641595285,0.159024717,0,,,,,,
,html-keyboard-response,98,223186,0.0-53.0-1.0,null,<p></p>,,null,,,,,,,,,,,,,,,,
,do_trial,99,226177,0.0-54.0-0.0,439.6,,,,49,"1,0,1",6,blank,275,null,0.389044003,0.485632967,0.180899692,1,,,,,,
,html-keyboard-response,100,227182,0.0-54.0-1.0,null,<p></p>,,null,,,,,,,,,,,,,,,,
,do_recog,101,229902,0.0-55.0-0.0,1207.9,,,,54,,,,276,probe-254,,,,,0,[object Object],null,null,0,
,html-keyboard-response,102,230908,0.0-55.0-1.0,null,<p></p>,,null,,,,,,,,,,,,,,,,
,do_trial,103,233950,0.0-56.0-0.0,487.8,,,,49,"0,0,1",6,blank,277,null,0.362411515,0.470836226,0.284492834,0,,,,,,
,html-keyboard-response,104,234955,0.0-56.0-1.0,null,<p></p>,,null,,,,,,,,,,,,,,,,
,do_recog,105,237542,0.0-57.0-0.0,1076.5,,,,55,,,,278,probe-179,,,,,1,[object Object],204,5,0,
,html-keyboard-response,106,238547,0.0-57.0-1.0,null,<p></p>,,null,,,,,,,,,,,,,,,,
,do_trial,107,241551,0.0-58.0-0.0,456.5,,,,49,"0,0,0",6,blank,279,null,0.268183916,0.445186362,0.165896135,0,,,,,,
,html-keyboard-response,108,242555,0.0-58.0-1.0,null,<p></p>,,null,,,,,,,,,,,,,,,,
,do_trial,109,245346,0.0-59.0-0.0,243.3,,,,50,"0,1,1",6,blank,280,null,0.252515165,0.420716662,0.330779887,1,,,,,,
,html-keyboard-response,110,246351,0.0-59.0-1.0,null,<p></p>,,null,,,,,,,,,,,,,,,,
,do_trial,111,249232,0.0-60.0-0.0,327.1,,,,51,"1,1,0",6,blank,281,null,0.275078238,0.542555588,0.1650283,0,,,,,,
,html-keyboard-response,112,250237,0.0-60.0-1.0,null,<p></p>,,null,,,,,,,,,,,,,,,,
,do_trial,113,253241,0.0-61.0-0.0,453.5,,,,49,"0,0,0",6,blank,282,null,0.347766818,0.549237293,0.218056858,0,,,,,,
,html-keyboard-response,114,254246,0.0-61.0-1.0,null,<p></p>,,null,,,,,,,,,,,,,,,,
,do_trial,115,257201,0.0-62.0-0.0,404.4,,,,50,"1,1,1",6,blank,283,null,0.316581694,0.470059188,0.204607597,1,,,,,,
,html-keyboard-response,116,258206,0.0-62.0-1.0,null,<p></p>,,null,,,,,,,,,,,,,,,,
,do_trial,117,261376,0.0-63.0-0.0,624.6,,,,50,"0,0,0",6,blank,284,null,0.315215336,0.526494759,0.056907814,0,,,,,,
,html-keyboard-response,118,262381,0.0-63.0-1.0,null,<p></p>,,null,,,,,,,,,,,,,,,,
,do_recog,119,264925,0.0-64.0-0.0,1036.6,,,,54,,,,285,probe-160,,,,,1,[object Object],129,3,1,
,html-keyboard-response,120,265931,0.0-64.0-1.0,null,<p></p>,,null,,,,,,,,,,,,,,,,
,do_trial,121,268858,0.0-65.0-0.0,375.3,,,,49,"1,1,0",6,blank,286,null,0.377604099,0.73099875,0.253988849,1,,,,,,
,html-keyboard-response,122,269862,0.0-65.0-1.0,null,<p></p>,,null,,,,,,,,,,,,,,,,
,do_recog,123,272300,0.0-66.0-0.0,926.3,,,,55,,,,287,probe-47,,,,,1,[object Object],201,5,0,
,html-keyboard-response,124,273305,0.0-66.0-1.0,null,<p></p>,,null,,,,,,,,,,,,,,,,
,do_trial,125,276477,0.0-67.0-0.0,621.1,,,,49,"0,1,1",6,blank,288,null,0.308695819,0.654378176,0.282133214,0,,,,,,
,html-keyboard-response,126,277481,0.0-67.0-1.0,null,<p></p>,,null,,,,,,,,,,,,,,,,
,do_recog,127,280259,0.0-68.0-0.0,1266.4,,,,53,,,,289,probe-212,,,,,1,[object Object],206,5,1,
,html-keyboard-response,128,281264,0.0-68.0-1.0,null,<p></p>,,null,,,,,,,,,,,,,,,,
,do_trial,129,284183,0.0-69.0-0.0,367.7,,,,49,"0,1,0",6,blank,290,null,0.293133459,0.468777556,0.086880143,0,,,,,,
,html-keyboard-response,130,285185,0.0-69.0-1.0,null,<p></p>,,null,,,,,,,,,,,,,,,,
,do_trial,131,288136,0.0-70.0-0.0,399.9,,,,49,"0,0,1",6,blank,291,null,0.344981504,0.48098672,0.225657192,0,,,,,,
,html-keyboard-response,132,289140,0.0-70.0-1.0,null,<p></p>,,null,,,,,,,,,,,,,,,,
,do_trial,133,292071,0.0-71.0-0.0,378.8,,,,50,"1,0,1",6,blank,292,null,0.411055711,0.601292743,0.262182837,0,,,,,,
,html-keyboard-response,134,293076,0.0-71.0-1.0,null,<p></p>,,null,,,,,,,,,,,,,,,,
,do_recog,135,295750,0.0-72.0-0.0,1166.5,,,,54,,,,293,probe-138,,,,,1,[object Object],122,3,1,
,html-keyboard-response,136,296754,0.0-72.0-1.0,null,<p></p>,,null,,,,,,,,,,,,,,,,
,do_trial,137,300176,0.0-73.0-0.0,872.8,,,,50,"1,0,0",6,blank,294,null,0.403076771,0.602470772,0.188858486,0,,,,,,
,html-keyboard-response,138,301181,0.0-73.0-1.0,null,<p></p>,,null,,,,,,,,,,,,,,,,
,do_trial,139,304433,0.0-74.0-0.0,700.3,,,,50,"1,0,1",6,blank,295,null,0.482056737,0.528679295,0.062139609,0,,,,,,
,html-keyboard-response,140,305438,0.0-74.0-1.0,null,<p></p>,,null,,,,,,,,,,,,,,,,
,do_trial,141,308381,0.0-75.0-0.0,392.2,,,,51,"1,0,0",6,blank,296,null,0.535483501,0.599487499,0.136287332,0,,,,,,
,html-keyboard-response,142,309386,0.0-75.0-1.0,null,<p></p>,,null,,,,,,,,,,,,,,,,
,do_trial,143,312407,0.0-76.0-0.0,471.8,,,,49,"1,0,0",6,blank,297,null,0.671135141,0.445282329,0.233222674,1,,,,,,
,html-keyboard-response,144,313412,0.0-76.0-1.0,null,<p></p>,,null,,,,,,,,,,,,,,,,
,do_trial,145,316239,0.0-77.0-0.0,275.9,,,,49,"0,0,0",6,blank,298,null,0.591023877,0.333436449,0.221014049,0,,,,,,
,html-keyboard-response,146,317244,0.0-77.0-1.0,null,<p></p>,,null,,,,,,,,,,,,,,,,
,do_trial,147,320073,0.0-78.0-0.0,278.3,,,,51,"1,0,1",6,blank,299,null,0.571348464,0.233151676,0.339078268,1,,,,,,
,html-keyboard-response,148,321078,0.0-78.0-1.0,null,<p></p>,,null,,,,,,,,,,,,,,,,
,do_trial,149,324091,0.0-79.0-0.0,461.5,,,,51,"1,1,1",6,blank,300,null,0.58200375,0.216140215,0.315985501,1,,,,,,
,html-keyboard-response,150,325096,0.0-79.0-1.0,null,<p></p>,,null,,,,,,,,,,,,,,,,
,do_recog,151,327795,0.0-80.0-0.0,1187.4,,,,55,,,,301,probe-224,,,,,1,[object Object],207,5,0,
,html-keyboard-response,152,328800,0.0-80.0-1.0,null,<p></p>,,null,,,,,,,,,,,,,,,,
,do_trial,153,331799,0.0-81.0-0.0,452,,,,49,"1,1,0",6,blank,302,null,0.6327576,0.173189634,0.332163824,1,,,,,,
,html-keyboard-response,154,332805,0.0-81.0-1.0,null,<p></p>,,null,,,,,,,,,,,,,,,,
,do_recog,155,335245,0.0-82.0-0.0,928,,,,54,,,,303,probe-113,,,,,1,[object Object],126,3,1,
,html-keyboard-response,156,336249,0.0-82.0-1.0,null,<p></p>,,null,,,,,,,,,,,,,,,,
,do_trial,157,339198,0.0-83.0-0.0,396.6,,,,49,"0,0,0",6,blank,304,null,0.514176791,0.101119728,0.327800127,0,,,,,,
,html-keyboard-response,158,340203,0.0-83.0-1.0,null,<p></p>,,null,,,,,,,,,,,,,,,,
,do_trial,159,343178,0.0-84.0-0.0,426.5,,,,50,"0,0,0",6,blank,305,null,0.524170058,0.275985012,0.235703888,0,,,,,,
,html-keyboard-response,160,344183,0.0-84.0-1.0,null,<p></p>,,null,,,,,,,,,,,,,,,,
,do_recog,161,346779,0.0-85.0-0.0,1084.6,,,,54,,,,306,probe-186,,,,,1,[object Object],44,1,1,
,html-keyboard-response,162,347782,0.0-85.0-1.0,null,<p></p>,,null,,,,,,,,,,,,,,,,
,do_trial,163,351171,0.0-86.0-0.0,840.4,,,,51,"0,0,0",6,blank,307,null,0.605939836,0.336314797,0.226922566,0,,,,,,
,html-keyboard-response,164,352176,0.0-86.0-1.0,null,<p></p>,,null,,,,,,,,,,,,,,,,
,do_trial,165,355587,0.0-87.0-0.0,859.1,,,,50,"0,0,1",6,blank,308,null,0.597087309,0.296775704,0.255043065,0,,,,,,
,html-keyboard-response,166,356592,0.0-87.0-1.0,null,<p></p>,,null,,,,,,,,,,,,,,,,
,do_trial,167,359422,0.0-88.0-0.0,278.9,,,,51,"0,0,0",6,blank,309,null,0.579529764,0.304156862,0.263002022,0,,,,,,
,html-keyboard-response,168,360427,0.0-88.0-1.0,null,<p></p>,,null,,,,,,,,,,,,,,,,
,do_recog,169,362978,0.0-89.0-0.0,1039.7,,,,54,,,,310,probe-148,,,,,1,[object Object],205,5,1,
,html-keyboard-response,170,363982,0.0-89.0-1.0,null,<p></p>,,null,,,,,,,,,,,,,,,,
,do_trial,171,367181,0.0-90.0-0.0,647.2,,,,49,"1,0,0",6,blank,311,null,0.654236049,0.153296381,0.120501361,1,,,,,,
,html-keyboard-response,172,368186,0.0-90.0-1.0,null,<p></p>,,null,,,,,,,,,,,,,,,,
,do_trial,173,371626,0.0-91.0-0.0,889,,,,50,"1,0,1",6,blank,312,null,0.67633824,0.077357869,0.215479984,0,,,,,,
,html-keyboard-response,174,372631,0.0-91.0-1.0,null,<p></p>,,null,,,,,,,,,,,,,,,,
,do_trial,175,375635,0.0-92.0-0.0,451.7,,,,51,"1,0,0",6,blank,313,null,0.696182464,0.067862417,0.318487115,0,,,,,,
,html-keyboard-response,176,376639,0.0-92.0-1.0,null,<p></p>,,null,,,,,,,,,,,,,,,,
,do_trial,177,379646,0.0-93.0-0.0,454.8,,,,51,"1,0,0",6,blank,314,null,0.653703713,0.060528997,0.416593703,0,,,,,,
,html-keyboard-response,178,380650,0.0-93.0-1.0,null,<p></p>,,null,,,,,,,,,,,,,,,,
,do_trial,179,383609,0.0-94.0-0.0,406.1,,,,49,"1,0,0",6,blank,315,null,0.611122395,0.069762413,0.341951848,1,,,,,,
,html-keyboard-response,180,384614,0.0-94.0-1.0,null,<p></p>,,null,,,,,,,,,,,,,,,,
,do_recog,181,387448,0.0-95.0-0.0,1321.6,,,,53,,,,316,probe-172,,,,,1,[object Object],127,3,1,
,html-keyboard-response,182,388452,0.0-95.0-1.0,null,<p></p>,,null,,,,,,,,,,,,,,,,
,do_trial,183,391613,0.0-96.0-0.0,610.6,,,,49,"0,0,1",6,blank,317,null,0.649922321,0.059493053,0.380924875,0,,,,,,
,html-keyboard-response,184,392618,0.0-96.0-1.0,null,<p></p>,,null,,,,,,,,,,,,,,,,
,do_recog,185,395520,0.0-97.0-0.0,1389.6,,,,54,,,,318,probe-151,,,,,1,[object Object],81,2,1,
,html-keyboard-response,186,396524,0.0-97.0-1.0,null,<p></p>,,null,,,,,,,,,,,,,,,,
,do_trial,187,399817,0.0-98.0-0.0,743.5,,,,49,"0,0,0",6,blank,319,null,0.539125876,0.144224494,0.395346891,0,,,,,,
,html-keyboard-response,188,400821,0.0-98.0-1.0,null,<p></p>,,null,,,,,,,,,,,,,,,,
,do_trial,189,404234,0.0-99.0-0.0,860.6,,,,50,"1,0,0",6,blank,320,null,0.627530241,0.140421439,0.388982021,0,,,,,,
,html-keyboard-response,190,405238,0.0-99.0-1.0,null,<p></p>,,null,,,,,,,,,,,,,,,,
,do_trial,191,408366,0.0-100.0-0.0,576.9,,,,50,"1,0,1",6,blank,321,null,0.77473528,0.12299708,0.503432819,0,,,,,,
,html-keyboard-response,192,409372,0.0-100.0-1.0,null,<p></p>,,null,,,,,,,,,,,,,,,,
,do_trial,193,412323,0.0-101.0-0.0,399,,,,50,"1,0,1",6,blank,322,null,0.728015199,0.05676622,0.531473596,0,,,,,,
,html-keyboard-response,194,413327,0.0-101.0-1.0,null,<p></p>,,null,,,,,,,,,,,,,,,,
,do_trial,195,416184,0.0-102.0-0.0,309.5,,,,51,"0,0,1",6,blank,323,null,0.574152666,0.066986464,0.380109178,1,,,,,,
,html-keyboard-response,196,417188,0.0-102.0-1.0,null,<p></p>,,null,,,,,,,,,,,,,,,,
,do_recog,197,420274,0.0-103.0-0.0,1575.1,,,,53,,,,324,probe-149,,,,,1,[object Object],45,1,1,
,html-keyboard-response,198,421278,0.0-103.0-1.0,null,<p></p>,,null,,,,,,,,,,,,,,,,
,do_trial,199,424511,0.0-104.0-0.0,685,,,,49,"1,0,1",6,blank,325,null,0.600782733,0.089892462,0.345121242,1,,,,,,
,html-keyboard-response,200,425517,0.0-104.0-1.0,null,<p></p>,,null,,,,,,,,,,,,,,,,
,do_recog,201,428191,0.0-105.0-0.0,1164.6,,,,55,,,,326,probe-185,,,,,1,[object Object],166,4,0,
,html-keyboard-response,202,429197,0.0-105.0-1.0,null,<p></p>,,null,,,,,,,,,,,,,,,,
,do_trial,203,432133,0.0-106.0-0.0,381.8,,,,51,"0,0,0",6,blank,327,null,0.711795881,0.092709176,0.434033769,0,,,,,,
,html-keyboard-response,204,433138,0.0-106.0-1.0,null,<p></p>,,null,,,,,,,,,,,,,,,,
,do_trial,205,436157,0.0-107.0-0.0,469.3,,,,50,"0,0,0",6,blank,328,null,0.617518198,0.061471065,0.364414619,0,,,,,,
,html-keyboard-response,206,437163,0.0-107.0-1.0,null,<p></p>,,null,,,,,,,,,,,,,,,,
,do_trial,207,440044,0.0-108.0-0.0,331,,,,49,"1,0,0",6,blank,329,null,0.688300146,0.113551106,0.306855347,1,,,,,,
,html-keyboard-response,208,441048,0.0-108.0-1.0,null,<p></p>,,null,,,,,,,,,,,,,,,,
,do_trial,209,445372,0.0-109.0-0.0,1775.2,,,,50,"0,0,1",6,blank,330,null,0.711184985,0.094726435,0.214144488,0,,,,,,
,html-keyboard-response,210,446376,0.0-109.0-1.0,null,<p></p>,,null,,,,,,,,,,,,,,,,
,do_trial,211,449310,0.0-110.0-0.0,380.4,,,,51,"0,0,0",6,blank,331,null,0.532753959,0.080036405,0.244834581,0,,,,,,
,html-keyboard-response,212,450315,0.0-110.0-1.0,null,<p></p>,,null,,,,,,,,,,,,,,,,
,do_trial,213,453990,0.0-111.0-0.0,1127.2,,,,50,"0,0,0",6,blank,332,null,0.529228677,0.0613449,0.273491948,0,,,,,,
,html-keyboard-response,214,454994,0.0-111.0-1.0,null,<p></p>,,null,,,,,,,,,,,,,,,,
,do_trial,215,461673,0.0-112.0-0.0,null,,,,null,"1,0,0",6,blank,333,null,0.582366115,0.113539596,0.169893716,,,,,,,
,html-keyboard-response,216,462675,0.0-112.0-1.0,null,<p></p>,,null,,,,,,,,,,,,,,,,
,do_recog,217,465695,0.0-113.0-0.0,1511.4,,,,55,,,,334,probe-184,,,,,1,[object Object],165,4,0,
,html-keyboard-response,218,466702,0.0-113.0-1.0,null,<p></p>,,null,,,,,,,,,,,,,,,,
,do_trial,219,469826,0.0-114.0-0.0,575.2,,,,50,"1,0,0",6,blank,335,null,0.726632641,0.22666192,0.099260549,0,,,,,,
,html-keyboard-response,220,470831,0.0-114.0-1.0,null,<p></p>,,null,,,,,,,,,,,,,,,,
,do_trial,221,473900,0.0-115.0-0.0,519.8,,,,50,"1,0,0",6,blank,336,null,0.719215163,0.079950511,0.114717616,0,,,,,,
,html-keyboard-response,222,474905,0.0-115.0-1.0,null,<p></p>,,null,,,,,,,,,,,,,,,,
,do_recog,223,477804,0.0-116.0-0.0,1390.3,,,,53,,,,337,probe-06,,,,,1,[object Object],84,2,1,
,html-keyboard-response,224,478811,0.0-116.0-1.0,null,<p></p>,,null,,,,,,,,,,,,,,,,
,do_trial,225,481721,0.0-117.0-0.0,359.1,,,,49,"1,1,1",6,blank,338,null,0.701558343,0.246677728,0.202687166,1,,,,,,
,html-keyboard-response,226,482726,0.0-117.0-1.0,null,<p></p>,,null,,,,,,,,,,,,,,,,
,do_trial,227,485797,0.0-118.0-0.0,523.8,,,,49,"1,0,1",6,blank,339,null,0.625656592,0.286919681,0.369619813,1,,,,,,
,html-keyboard-response,228,486801,0.0-118.0-1.0,null,<p></p>,,null,,,,,,,,,,,,,,,,
,do_trial,229,489877,0.0-119.0-0.0,524.1,,,,49,"1,0,1",6,blank,340,null,0.606087173,0.202764674,0.355746718,1,,,,,,
,html-keyboard-response,230,490882,0.0-119.0-1.0,null,<p></p>,,null,,,,,,,,,,,,,,,,
,do_trial,231,493729,0.0-120.0-0.0,295.9,,,,51,"0,0,1",6,blank,341,null,0.511880486,0.17388349,0.295946194,1,,,,,,
,html-keyboard-response,232,494734,0.0-120.0-1.0,null,<p></p>,,null,,,,,,,,,,,,,,,,
,do_trial,233,497847,0.0-121.0-0.0,562.1,,,,51,"1,0,1",6,blank,342,null,0.657977104,0.299275965,0.196356139,1,,,,,,
,html-keyboard-response,234,498851,0.0-121.0-1.0,null,<p></p>,,null,,,,,,,,,,,,,,,,
,do_trial,235,501793,0.0-122.0-0.0,392.6,,,,51,"0,1,0",6,blank,343,null,0.616579052,0.161814205,0.332154983,0,,,,,,
,html-keyboard-response,236,502798,0.0-122.0-1.0,null,<p></p>,,null,,,,,,,,,,,,,,,,
,do_recog,237,505509,0.0-123.0-0.0,1201.2,,,,54,,,,344,probe-19,,,,,1,[object Object],160,4,1,
,html-keyboard-response,238,506510,0.0-123.0-1.0,null,<p></p>,,null,,,,,,,,,,,,,,,,
,do_trial,239,509672,0.0-124.0-0.0,615.5,,,,50,"1,0,0",6,blank,345,null,0.667870154,0.072793725,0.364269119,0,,,,,,
,html-keyboard-response,240,510678,0.0-124.0-1.0,null,<p></p>,,null,,,,,,,,,,,,,,,,
,do_trial,241,513828,0.0-125.0-0.0,599.9,,,,49,"0,0,1",6,blank,346,null,0.746477566,0.100514854,0.378441185,0,,,,,,
,html-keyboard-response,242,514833,0.0-125.0-1.0,null,<p></p>,,null,,,,,,,,,,,,,,,,
,do_recog,243,517600,0.0-126.0-0.0,1255.1,,,,53,,,,347,probe-13,,,,,1,[object Object],82,2,1,
,html-keyboard-response,244,518604,0.0-126.0-1.0,null,<p></p>,,null,,,,,,,,,,,,,,,,
,do_trial,245,521759,0.0-127.0-0.0,608.2,,,,49,"1,0,0",6,blank,348,null,0.805064428,0.232493025,0.414906571,1,,,,,,
,html-keyboard-response,246,522764,0.0-127.0-1.0,null,<p></p>,,null,,,,,,,,,,,,,,,,
,do_trial,247,525775,0.0-128.0-0.0,458.4,,,,50,"1,1,0",6,blank,349,null,0.561712564,0.393725058,0.343412224,1,,,,,,
,html-keyboard-response,248,526779,0.0-128.0-1.0,null,<p></p>,,null,,,,,,,,,,,,,,,,
,do_trial,249,529757,0.0-129.0-0.0,426.7,,,,49,"0,1,0",6,blank,350,null,0.433317371,0.394096078,0.293157374,0,,,,,,
,html-keyboard-response,250,530762,0.0-129.0-1.0,null,<p></p>,,null,,,,,,,,,,,,,,,,
,do_trial,251,533657,0.0-130.0-0.0,343.4,,,,50,"0,1,0",6,blank,351,null,0.319964079,0.575556799,0.164768109,1,,,,,,
,html-keyboard-response,252,534659,0.0-130.0-1.0,null,<p></p>,,null,,,,,,,,,,,,,,,,
,do_recog,253,537649,0.0-131.0-0.0,1482.1,,,,53,,,,352,probe-109,,,,,1,[object Object],87,2,1,
,html-keyboard-response,254,538655,0.0-131.0-1.0,null,<p></p>,,null,,,,,,,,,,,,,,,,
,do_trial,255,542155,0.0-132.0-0.0,948.5,,,,50,"0,0,0",6,blank,353,null,0.214345277,0.549566399,0.082332618,0,,,,,,
,html-keyboard-response,256,543160,0.0-132.0-1.0,null,<p></p>,,null,,,,,,,,,,,,,,,,
,do_recog,257,546541,0.0-133.0-0.0,1869.8,,,,54,,,,354,probe-132,,,,,1,[object Object],128,3,1,
,html-keyboard-response,258,547546,0.0-133.0-1.0,null,<p></p>,,null,,,,,,,,,,,,,,,,
,do_trial,259,550636,0.0-134.0-0.0,539.5,,,,49,"0,1,0",6,blank,355,null,0.244609869,0.497912801,0.230170388,0,,,,,,
,html-keyboard-response,260,551641,0.0-134.0-1.0,null,<p></p>,,null,,,,,,,,,,,,,,,,
,do_recog,261,554722,0.0-135.0-0.0,1574.1,,,,53,,,,356,probe-225,,,,,1,[object Object],41,1,1,
,html-keyboard-response,262,555727,0.0-135.0-1.0,null,<p></p>,,null,,,,,,,,,,,,,,,,
,do_trial,263,559038,0.0-136.0-0.0,759.6,,,,50,"1,1,0",6,blank,357,null,0.238411368,0.492419309,0.142911751,1,,,,,,
,html-keyboard-response,264,560043,0.0-136.0-1.0,null,<p></p>,,null,,,,,,,,,,,,,,,,
,do_trial,265,563319,0.0-137.0-0.0,730.2,,,,51,"0,1,0",6,blank,358,null,0.135713161,0.549448673,0.13101416,0,,,,,,
,html-keyboard-response,266,564324,0.0-137.0-1.0,null,<p></p>,,null,,,,,,,,,,,,,,,,
,do_trial,267,567645,0.0-138.0-0.0,771.1,,,,50,"0,1,0",6,blank,359,null,0.204121291,0.61550268,0.083125178,1,,,,,,
,html-keyboard-response,268,568650,0.0-138.0-1.0,null,<p></p>,,null,,,,,,,,,,,,,,,,
,do_trial,269,572034,0.0-139.0-0.0,831.7,,,,50,"1,1,0",6,blank,360,null,0.258075468,0.641956592,0.160215072,1,,,,,,
,html-keyboard-response,270,573039,0.0-139.0-1.0,null,<p></p>,,null,,,,,,,,,,,,,,,,
,do_trial,271,576287,0.0-140.0-0.0,699.9,,,,50,"0,1,0",6,blank,361,null,0.199533128,0.719387708,0.128195839,1,,,,,,
,html-keyboard-response,272,577292,0.0-140.0-1.0,null,<p></p>,,null,,,,,,,,,,,,,,,,
,do_trial,273,580228,0.0-141.0-0.0,385.3,,,,51,"0,0,0",6,blank,362,null,0.193640048,0.602110645,0.173760977,0,,,,,,
,html-keyboard-response,274,581233,0.0-141.0-1.0,null,<p></p>,,null,,,,,,,,,,,,,,,,
,do_recog,275,584081,0.0-142.0-0.0,1339.5,,,,53,,,,363,probe-92,,,,,1,[object Object],169,4,1,
,html-keyboard-response,276,585088,0.0-142.0-1.0,null,<p></p>,,null,,,,,,,,,,,,,,,,
,do_trial,277,588270,0.0-143.0-0.0,631,,,,50,"0,1,0",6,blank,364,null,0.175905477,0.500572083,0.107734476,1,,,,,,
,html-keyboard-response,278,589274,0.0-143.0-1.0,null,<p></p>,,null,,,,,,,,,,,,,,,,
,do_trial,279,592230,0.0-144.0-0.0,404.2,,,,49,"0,1,0",6,blank,365,null,0.2380241,0.458570151,0.058947399,0,,,,,,
,html-keyboard-response,280,593234,0.0-144.0-1.0,null,<p></p>,,null,,,,,,,,,,,,,,,,
,do_trial,281,596214,0.0-145.0-0.0,428.4,,,,50,"1,0,1",6,blank,366,null,0.229108721,0.464405717,0.076178298,0,,,,,,
,html-keyboard-response,282,597219,0.0-145.0-1.0,null,<p></p>,,null,,,,,,,,,,,,,,,,
,do_trial,283,600083,0.0-146.0-0.0,314.5,,,,51,"1,1,1",6,blank,367,null,0.283700107,0.612644883,0.06384662,1,,,,,,
,html-keyboard-response,284,601088,0.0-146.0-1.0,null,<p></p>,,null,,,,,,,,,,,,,,,,
,do_trial,285,604297,0.0-147.0-0.0,660.4,,,,50,"0,1,0",6,blank,368,null,0.242679916,0.524411707,0.064923994,1,,,,,,
,html-keyboard-response,286,605302,0.0-147.0-1.0,null,<p></p>,,null,,,,,,,,,,,,,,,,
,do_trial,287,608220,0.0-148.0-0.0,368.8,,,,49,"0,0,0",6,blank,369,null,0.232095192,0.618691571,0.079198566,0,,,,,,
,html-keyboard-response,288,609224,0.0-148.0-1.0,null,<p></p>,,null,,,,,,,,,,,,,,,,
,do_recog,289,611915,0.0-149.0-0.0,1180.4,,,,54,,,,370,probe-220,,,,,1,[object Object],121,3,1,
,html-keyboard-response,290,612919,0.0-149.0-1.0,null,<p></p>,,null,,,,,,,,,,,,,,,,
,do_trial,291,616096,0.0-150.0-0.0,622.8,,,,50,"0,1,0",6,blank,371,null,0.379660146,0.54824756,0.108772303,1,,,,,,
,html-keyboard-response,292,617101,0.0-150.0-1.0,null,<p></p>,,null,,,,,,,,,,,,,,,,
,do_trial,293,620049,0.0-151.0-0.0,397.3,,,,50,"0,1,0",6,blank,372,null,0.423768778,0.528671238,0.267149942,1,,,,,,
,html-keyboard-response,294,621052,0.0-151.0-1.0,null,<p></p>,,null,,,,,,,,,,,,,,,,
,do_trial,295,623903,0.0-152.0-0.0,302.5,,,,49,"1,1,0",6,blank,373,null,0.334488901,0.394104803,0.173333126,1,,,,,,
,html-keyboard-response,296,624907,0.0-152.0-1.0,null,<p></p>,,null,,,,,,,,,,,,,,,,
,do_trial,297,627913,0.0-153.0-0.0,454.4,,,,49,"0,1,0",6,blank,374,null,0.353806282,0.456483967,0.063863005,0,,,,,,
,html-keyboard-response,298,628918,0.0-153.0-1.0,null,<p></p>,,null,,,,,,,,,,,,,,,,
,do_recog,299,631836,0.0-154.0-0.0,1406.5,,,,55,,,,375,probe-125,,,,,1,[object Object],161,4,0,
,html-keyboard-response,300,632840,0.0-154.0-1.0,null,<p></p>,,null,,,,,,,,,,,,,,,,
,do_trial,301,636128,0.0-155.0-0.0,734.2,,,,50,"0,0,1",6,blank,376,null,0.315308461,0.596850062,0.119631904,0,,,,,,
,html-keyboard-response,302,637133,0.0-155.0-1.0,null,<p></p>,,null,,,,,,,,,,,,,,,,
,do_trial,303,639953,0.0-156.0-0.0,273,,,,51,"0,1,0",6,blank,377,null,0.368693548,0.656798629,0.122419949,0,,,,,,
,html-keyboard-response,304,640957,0.0-156.0-1.0,null,<p></p>,,null,,,,,,,,,,,,,,,,
,do_trial,305,643871,0.0-157.0-0.0,363.7,,,,49,"0,0,0",6,blank,378,null,0.180632512,0.702187163,0.116978984,0,,,,,,
,html-keyboard-response,306,644875,0.0-157.0-1.0,null,<p></p>,,null,,,,,,,,,,,,,,,,
,do_recog,307,647497,0.0-158.0-0.0,1109.9,,,,53,,,,379,probe-117,,,,,1,[object Object],43,1,1,
,html-keyboard-response,308,648501,0.0-158.0-1.0,null,<p></p>,,null,,,,,,,,,,,,,,,,
,do_trial,309,651435,0.0-159.0-0.0,384.7,,,,50,"0,1,0",6,blank,380,null,0.210121174,0.698369681,0.179817526,1,,,,,,
,html-keyboard-response,310,652441,0.0-159.0-1.0,null,<p></p>,,null,,,,,,,,,,,,,,,,
,do_recog,311,655198,0.0-160.0-0.0,1245.2,,,,55,,,,381,probe-18,,,,,1,[object Object],125,3,0,
,html-keyboard-response,312,656202,0.0-160.0-1.0,null,<p></p>,,null,,,,,,,,,,,,,,,,
,do_trial,313,659095,0.0-161.0-0.0,341.4,,,,50,"0,1,0",6,blank,382,null,0.266311986,0.688866022,0.210985847,1,,,,,,
,html-keyboard-response,314,660099,0.0-161.0-1.0,null,<p></p>,,null,,,,,,,,,,,,,,,,
,do_recog,315,662877,0.0-162.0-0.0,1265.6,,,,54,,,,383,probe-115,,,,,1,[object Object],46,1,1,
,html-keyboard-response,316,663883,0.0-162.0-1.0,null,<p></p>,,null,,,,,,,,,,,,,,,,
,do_trial,317,666828,0.0-163.0-0.0,397.3,,,,50,"0,0,0",6,blank,384,null,0.283526018,0.697550239,0.074220069,0,,,,,,
,html-keyboard-response,318,667833,0.0-163.0-1.0,null,<p></p>,,null,,,,,,,,,,,,,,,,
,do_trial,319,670858,0.0-164.0-0.0,477.2,,,,50,"1,0,0",6,blank,385,null,0.366104901,0.600819197,0.110654706,0,,,,,,
,html-keyboard-response,320,671862,0.0-164.0-1.0,null,<p></p>,,null,,,,,,,,,,,,,,,,
,do_trial,321,674831,0.0-165.0-0.0,417.2,,,,51,"0,1,0",6,blank,386,null,0.260878471,0.604299196,0.214281365,0,,,,,,
,html-keyboard-response,322,675835,0.0-165.0-1.0,null,<p></p>,,null,,,,,,,,,,,,,,,,
,do_trial,323,678952,0.0-166.0-0.0,565.1,,,,50,"0,1,0",6,blank,387,null,0.333706091,0.599938959,0.067225711,1,,,,,,
,html-keyboard-response,324,679957,0.0-166.0-1.0,null,<p></p>,,null,,,,,,,,,,,,,,,,
,do_trial,325,682890,0.0-167.0-0.0,382,,,,50,"0,1,0",6,blank,388,null,0.124411192,0.598081015,0.08562502,1,,,,,,
,html-keyboard-response,326,683895,0.0-167.0-1.0,null,<p></p>,,null,,,,,,,,,,,,,,,,
,do_recog,327,686710,0.0-168.0-0.0,1303.4,,,,54,,,,389,probe-164,,,,,1,[object Object],167,4,1,
,html-keyboard-response,328,687715,0.0-168.0-1.0,null,<p></p>,,null,,,,,,,,,,,,,,,,
,do_trial,329,691219,0.0-169.0-0.0,952.9,,,,50,"0,1,0",6,blank,390,null,0.178884438,0.529516504,0.090057509,1,,,,,,
,html-keyboard-response,330,692224,0.0-169.0-1.0,null,<p></p>,,null,,,,,,,,,,,,,,,,
,do_trial,331,695705,0.0-170.0-0.0,929.5,,,,51,"0,0,0",6,blank,391,null,0.153387183,0.579831808,0.093208929,0,,,,,,
,html-keyboard-response,332,696710,0.0-170.0-1.0,null,<p></p>,,null,,,,,,,,,,,,,,,,
,do_recog,333,699505,0.0-171.0-0.0,1283.7,,,,55,,,,392,probe-28,,,,,1,[object Object],80,2,0,
,html-keyboard-response,334,700510,0.0-171.0-1.0,null,<p></p>,,null,,,,,,,,,,,,,,,,
,do_trial,335,703572,0.0-172.0-0.0,516.7,,,,50,"0,1,0",6,blank,393,null,0.334574896,0.625629686,0.051316992,1,,,,,,
,html-keyboard-response,336,704577,0.0-172.0-1.0,null,<p></p>,,null,,,,,,,,,,,,,,,,
,do_trial,337,707573,0.0-173.0-0.0,444.3,,,,50,"0,0,0",6,blank,394,null,0.300265069,0.602879177,0.059786719,0,,,,,,
,html-keyboard-response,338,708574,0.0-173.0-1.0,null,<p></p>,,null,,,,,,,,,,,,,,,,
,do_trial,339,712811,0.0-174.0-0.0,1683.4,,,,50,"0,0,0",6,blank,395,null,0.166723787,0.4992844,0.11687409,0,,,,,,
,html-keyboard-response,340,713816,0.0-174.0-1.0,null,<p></p>,,null,,,,,,,,,,,,,,,,
,do_recog,341,716421,0.0-175.0-0.0,1094.6,,,,55,,,,396,probe-209,,,,,1,[object Object],208,5,0,
,html-keyboard-response,342,717425,0.0-175.0-1.0,null,<p></p>,,null,,,,,,,,,,,,,,,,
,do_trial,343,720378,0.0-176.0-0.0,405.5,,,,50,"0,0,0",6,blank,397,null,0.221035393,0.50484217,0.175159077,0,,,,,,
,html-keyboard-response,344,721385,0.0-176.0-1.0,null,<p></p>,,null,,,,,,,,,,,,,,,,
,do_recog,345,724273,0.0-177.0-0.0,1378.9,,,,56,,,,398,probe-146,,,,,1,[object Object],203,5,0,
,html-keyboard-response,346,725278,0.0-177.0-1.0,null,<p></p>,,null,,,,,,,,,,,,,,,,
,do_trial,347,728175,0.0-178.0-0.0,345.7,,,,50,"0,1,0",6,blank,399,null,0.410387559,0.689378995,0.072067592,1,,,,,,
,html-keyboard-response,348,729180,0.0-178.0-1.0,null,<p></p>,,null,,,,,,,,,,,,,,,,
,do_recog,349,731883,0.0-179.0-0.0,1195.7,,,,53,,,,400,probe-130,,,,,1,[object Object],202,5,1,
,html-keyboard-response,350,732887,0.0-179.0-1.0,null,<p></p>,,null,,,,,,,,,,,,,,,,
,do_trial,351,735931,0.0-180.0-0.0,492.1,,,,50,"1,1,0",6,blank,401,null,0.565233302,0.768834903,0.112527404,1,,,,,,
,html-keyboard-response,352,736936,0.0-180.0-1.0,null,<p></p>,,null,,,,,,,,,,,,,,,,
,do_trial,353,740151,0.0-181.0-0.0,663.5,,,,50,"1,0,0",6,blank,402,null,0.483748305,0.721378252,0.164319735,0,,,,,,
,html-keyboard-response,354,741155,0.0-181.0-1.0,null,<p></p>,,null,,,,,,,,,,,,,,,,
,do_trial,355,744051,0.0-182.0-0.0,344.1,,,,49,"0,1,0",6,blank,403,null,0.505883336,0.518778997,0.412155671,0,,,,,,
,html-keyboard-response,356,745056,0.0-182.0-1.0,null,<p></p>,,null,,,,,,,,,,,,,,,,
,do_trial,357,747995,0.0-183.0-0.0,387.8,,,,51,"1,0,0",6,blank,404,null,0.396540621,0.351501378,0.393256589,0,,,,,,
,html-keyboard-response,358,749000,0.0-183.0-1.0,null,<p></p>,,null,,,,,,,,,,,,,,,,
,do_trial,359,751924,0.0-184.0-0.0,373.1,,,,49,"1,1,0",6,blank,405,null,0.377735385,0.214175481,0.609679058,1,,,,,,
,html-keyboard-response,360,752930,0.0-184.0-1.0,null,<p></p>,,null,,,,,,,,,,,,,,,,
,do_trial,361,755981,0.0-185.0-0.0,504,,,,49,"0,1,0",6,blank,406,null,0.245286587,0.226024161,0.690845661,0,,,,,,
,html-keyboard-response,362,756986,0.0-185.0-1.0,null,<p></p>,,null,,,,,,,,,,,,,,,,
,do_recog,363,759519,0.0-186.0-0.0,1021.6,,,,55,,,,407,probe-152,,,,,1,[object Object],86,2,0,
,html-keyboard-response,364,760524,0.0-186.0-1.0,null,<p></p>,,null,,,,,,,,,,,,,,,,
,do_trial,365,763389,0.0-187.0-0.0,318.4,,,,50,"1,0,0",6,blank,408,null,0.280424776,0.191176191,0.607876168,0,,,,,,
,html-keyboard-response,366,764395,0.0-187.0-1.0,null,<p></p>,,null,,,,,,,,,,,,,,,,
,do_recog,367,767044,0.0-188.0-0.0,1136.8,,,,53,,,,409,probe-10,,,,,1,[object Object],48,1,1,
,html-keyboard-response,368,768049,0.0-188.0-1.0,null,<p></p>,,null,,,,,,,,,,,,,,,,
,do_trial,369,771163,0.0-189.0-0.0,562.1,,,,49,"1,0,1",6,blank,410,null,0.273073208,0.061886542,0.615437555,1,,,,,,
,html-keyboard-response,370,772165,0.0-189.0-1.0,null,<p></p>,,null,,,,,,,,,,,,,,,,
,do_recog,371,774699,0.0-190.0-0.0,1022.6,,,,55,,,,411,probe-91,,,,,1,[object Object],200,5,0,
,html-keyboard-response,372,775704,0.0-190.0-1.0,null,<p></p>,,null,,,,,,,,,,,,,,,,
,do_trial,373,779082,0.0-191.0-0.0,827.1,,,,51,"0,1,1",6,blank,412,null,0.239674344,0.078647011,0.581500217,1,,,,,,
,html-keyboard-response,374,780087,0.0-191.0-1.0,null,<p></p>,,null,,,,,,,,,,,,,,,,
,do_trial,375,783371,0.0-192.0-0.0,733.4,,,,50,"1,1,1",6,blank,413,null,0.356160833,0.129620269,0.5692964,1,,,,,,
,html-keyboard-response,376,784377,0.0-192.0-1.0,null,<p></p>,,null,,,,,,,,,,,,,,,,
,do_trial,377,787859,0.0-193.0-0.0,930.5,,,,49,"1,0,1",6,blank,414,null,0.298999668,0.211905334,0.605104429,1,,,,,,
,html-keyboard-response,378,788864,0.0-193.0-1.0,null,<p></p>,,null,,,,,,,,,,,,,,,,
,do_recog,379,791442,0.0-194.0-0.0,1066.4,,,,53,,,,415,probe-159,,,,,1,[object Object],163,4,1,
,html-keyboard-response,380,792445,0.0-194.0-1.0,null,<p></p>,,null,,,,,,,,,,,,,,,,
,do_trial,381,795528,0.0-195.0-0.0,532.1,,,,50,"1,1,1",6,blank,416,null,0.255692327,0.239242354,0.498422279,1,,,,,,
,html-keyboard-response,382,796533,0.0-195.0-1.0,null,<p></p>,,null,,,,,,,,,,,,,,,,
,do_trial,383,800019,0.0-196.0-0.0,935.3,,,,49,"1,1,0",6,blank,417,null,0.258897729,0.102494364,0.52477739,1,,,,,,
,html-keyboard-response,384,801024,0.0-196.0-1.0,null,<p></p>,,null,,,,,,,,,,,,,,,,
,do_trial,385,804057,0.0-197.0-0.0,481.2,,,,51,"0,0,1",6,blank,418,null,0.314654564,0.16925971,0.531132549,1,,,,,,
,html-keyboard-response,386,805062,0.0-197.0-1.0,null,<p></p>,,null,,,,,,,,,,,,,,,,
,do_trial,387,809540,0.0-198.0-0.0,1929.5,,,,51,"1,0,0",6,blank,419,null,0.304843598,0.170227793,0.515183111,0,,,,,,
,html-keyboard-response,388,810545,0.0-198.0-1.0,null,<p></p>,,null,,,,,,,,,,,,,,,,
,do_trial,389,813790,0.0-199.0-0.0,695.7,,,,50,"0,0,1",6,blank,420,null,0.291231891,0.155122129,0.575132241,0,,,,,,
,html-keyboard-response,390,814795,0.0-199.0-1.0,null,<p></p>,,null,,,,,,,,,,,,,,,,
,do_trial,391,817825,0.0-200.0-0.0,477.2,,,,49,"0,0,1",6,blank,421,null,0.272497649,0.143506662,0.467576646,0,,,,,,
,html-keyboard-response,392,818829,0.0-200.0-1.0,null,<p></p>,,null,,,,,,,,,,,,,,,,
,do_recog,393,821620,0.0-201.0-0.0,1282.6,,,,54,,,,422,probe-134,,,,,1,[object Object],209,5,1,
,html-keyboard-response,394,822624,0.0-201.0-1.0,null,<p></p>,,null,,,,,,,,,,,,,,,,
,do_trial,395,825829,0.0-202.0-0.0,654.2,,,,51,"0,0,1",6,blank,423,null,0.267485926,0.125016557,0.413759678,1,,,,,,
,html-keyboard-response,396,826834,0.0-202.0-1.0,null,<p></p>,,null,,,,,,,,,,,,,,,,
,do_trial,397,829478,0.0-203.0-0.0,579.8,,,,51,"0,0,0",6,blank,424,null,0.0940612,0.076486654,0.584044574,0,,,,,,
,html-keyboard-response,398,830483,0.0-203.0-1.0,null,<p></p>,,null,,,,,,,,,,,,,,,,
,do_trial,399,833785,0.0-204.0-0.0,750.9,,,,50,"0,0,1",6,blank,425,null,0.290515485,0.088315068,0.668564397,0,,,,,,
,html-keyboard-response,400,834788,0.0-204.0-1.0,null,<p></p>,,null,,,,,,,,,,,,,,,,
,do_trial,401,837721,0.0-205.0-0.0,381.4,,,,49,"0,0,1",6,blank,426,null,0.254299695,0.126726866,0.689931074,0,,,,,,
,html-keyboard-response,402,838727,0.0-205.0-1.0,null,<p></p>,,null,,,,,,,,,,,,,,,,
,do_trial,403,842023,0.0-206.0-0.0,744.9,,,,51,"1,0,1",6,blank,427,null,0.212751692,0.141165745,0.646912297,1,,,,,,
,html-keyboard-response,404,843024,0.0-206.0-1.0,null,<p></p>,,null,,,,,,,,,,,,,,,,
,do_trial,405,846099,0.0-207.0-0.0,524.5,,,,50,"0,0,0",6,blank,428,null,0.12646815,0.211046505,0.577993122,0,,,,,,
,html-keyboard-response,406,847104,0.0-207.0-1.0,null,<p></p>,,null,,,,,,,,,,,,,,,,
,do_recog,407,849871,0.0-208.0-0.0,1254.3,,,,53,,,,429,probe-223,,,,,1,[object Object],89,2,1,
,html-keyboard-response,408,850875,0.0-208.0-1.0,null,<p></p>,,null,,,,,,,,,,,,,,,,
,do_trial,409,853893,0.0-209.0-0.0,468.5,,,,50,"1,0,1",6,blank,430,null,0.174044858,0.167627873,0.51041994,0,,,,,,
,html-keyboard-response,410,854894,0.0-209.0-1.0,null,<p></p>,,null,,,,,,,,,,,,,,,,
,do_trial,411,857750,0.0-210.0-0.0,304.7,,,,49,"0,0,0",6,blank,431,null,0.21572445,0.215437587,0.567819903,0,,,,,,
,html-keyboard-response,412,858755,0.0-210.0-1.0,null,<p></p>,,null,,,,,,,,,,,,,,,,
,do_trial,413,862058,0.0-211.0-0.0,752.3,,,,51,"1,0,1",6,blank,432,null,0.228896579,0.166549499,0.502205677,1,,,,,,
,html-keyboard-response,414,863064,0.0-211.0-1.0,null,<p></p>,,null,,,,,,,,,,,,,,,,
,do_trial,415,866340,0.0-212.0-0.0,725.3,,,,50,"0,1,1",6,blank,433,null,0.341641899,0.095936935,0.716126709,1,,,,,,
,html-keyboard-response,416,867345,0.0-212.0-1.0,null,<p></p>,,null,,,,,,,,,,,,,,,,
,do_trial,417,870594,0.0-213.0-0.0,698.5,,,,50,"0,1,1",6,blank,434,null,0.258957935,0.095441798,0.679549118,1,,,,,,
,html-keyboard-response,418,871599,0.0-213.0-1.0,null,<p></p>,,null,,,,,,,,,,,,,,,,
,do_trial,419,875879,0.0-214.0-0.0,1733.4,,,,49,"0,0,0",6,blank,435,null,0.284276481,0.14157926,0.658256205,0,,,,,,
,html-keyboard-response,420,876884,0.0-214.0-1.0,null,<p></p>,,null,,,,,,,,,,,,,,,,
,do_recog,421,879684,0.0-215.0-0.0,1290.3,,,,53,,,,436,probe-72,,,,,1,[object Object],123,3,1,
,html-keyboard-response,422,880688,0.0-215.0-1.0,null,<p></p>,,null,,,,,,,,,,,,,,,,
,do_trial,423,884745,0.0-216.0-0.0,1505.9,,,,50,"0,0,1",6,blank,437,null,0.453559921,0.184847902,0.581573048,0,,,,,,
,html-keyboard-response,424,885747,0.0-216.0-1.0,null,<p></p>,,null,,,,,,,,,,,,,,,,
,do_recog,425,888434,0.0-217.0-0.0,1174.9,,,,53,,,,438,probe-228,,,,,1,[object Object],162,4,1,
,html-keyboard-response,426,889439,0.0-217.0-1.0,null,<p></p>,,null,,,,,,,,,,,,,,,,
,do_trial,427,893327,0.0-218.0-0.0,1337.6,,,,50,"0,0,1",6,blank,439,null,0.475830191,0.208263507,0.669184043,0,,,,,,
,html-keyboard-response,428,894331,0.0-218.0-1.0,null,<p></p>,,null,,,,,,,,,,,,,,,,
,do_trial,429,897503,0.0-219.0-0.0,615.5,,,,51,"1,0,1",6,blank,440,null,0.301910784,0.123587002,0.799524122,1,,,,,,
,html-keyboard-response,430,898508,0.0-219.0-1.0,null,<p></p>,,null,,,,,,,,,,,,,,,,
,do_trial,431,902084,0.0-220.0-0.0,1020.1,,,,50,"0,1,0",6,blank,441,null,0.288891809,0.079019272,0.692739116,1,,,,,,
,html-keyboard-response,432,903089,0.0-220.0-1.0,null,<p></p>,,null,,,,,,,,,,,,,,,,
,do_recog,433,905818,0.0-221.0-0.0,1214.6,,,,54,,,,442,probe-77,,,,,1,[object Object],168,4,1,
,html-keyboard-response,434,906823,0.0-221.0-1.0,null,<p></p>,,null,,,,,,,,,,,,,,,,
,do_trial,435,910286,0.0-222.0-0.0,911.6,,,,51,"0,0,1",6,blank,443,null,0.425104415,0.195936896,0.667713412,1,,,,,,
,html-keyboard-response,436,911291,0.0-222.0-1.0,null,<p></p>,,null,,,,,,,,,,,,,,,,
,do_trial,437,914267,0.0-223.0-0.0,426.4,,,,50,"1,0,0",6,blank,444,null,0.551885991,0.073963713,0.575304018,0,,,,,,
,html-keyboard-response,438,915273,0.0-223.0-1.0,null,<p></p>,,null,,,,,,,,,,,,,,,,
,do_trial,439,918743,0.0-224.0-0.0,921.4,,,,50,"0,0,1",6,blank,445,null,0.406861787,0.115647885,0.541349832,0,,,,,,
,html-keyboard-response,440,919750,0.0-224.0-1.0,null,<p></p>,,null,,,,,,,,,,,,,,,,
,do_trial,441,922645,0.0-225.0-0.0,348.7,,,,49,"1,0,1",6,blank,446,null,0.313144101,0.09854063,0.602976563,1,,,,,,
,html-keyboard-response,442,923651,0.0-225.0-1.0,null,<p></p>,,null,,,,,,,,,,,,,,,,
,do_trial,443,926502,0.0-226.0-0.0,299.4,,,,51,"0,1,1",6,blank,447,null,0.329950903,0.066997914,0.641607271,1,,,,,,
,html-keyboard-response,444,927507,0.0-226.0-1.0,null,<p></p>,,null,,,,,,,,,,,,,,,,
,do_recog,445,930151,0.0-227.0-0.0,1133.4,,,,53,,,,448,probe-202,,,,,1,[object Object],40,1,1,
,html-keyboard-response,446,931153,0.0-227.0-1.0,null,<p></p>,,null,,,,,,,,,,,,,,,,
,do_trial,447,934120,0.0-228.0-0.0,415.7,,,,50,"0,0,1",6,blank,449,null,0.390922376,0.214464195,0.506968854,0,,,,,,
,html-keyboard-response,448,935125,0.0-228.0-1.0,null,<p></p>,,null,,,,,,,,,,,,,,,,
,do_recog,449,937794,0.0-229.0-0.0,1156.9,,,,53,,,,450,probe-246,,,,,0,[object Object],null,null,0,
,html-keyboard-response,450,938798,0.0-229.0-1.0,null,<p></p>,,null,,,,,,,,,,,,,,,,
,do_trial,451,942014,0.0-230.0-0.0,665,,,,50,"1,0,0",6,blank,451,null,0.326910573,0.168722178,0.494498113,0,,,,,,
,html-keyboard-response,452,943019,0.0-230.0-1.0,null,<p></p>,,null,,,,,,,,,,,,,,,,
,do_trial,453,946003,0.0-231.0-0.0,431.6,,,,49,"0,1,0",6,blank,452,null,0.295473296,0.351614974,0.493954427,0,,,,,,
,html-keyboard-response,454,947007,0.0-231.0-1.0,null,<p></p>,,null,,,,,,,,,,,,,,,,
,do_recog,455,949986,0.0-232.0-0.0,1466.8,,,,54,,,,453,probe-245,,,,,0,[object Object],null,null,0,
,html-keyboard-response,456,950988,0.0-232.0-1.0,null,<p></p>,,null,,,,,,,,,,,,,,,,
,do_trial,457,954207,0.0-233.0-0.0,665.6,,,,50,"0,0,1",6,blank,454,null,0.325672987,0.37230177,0.568142862,0,,,,,,
,html-keyboard-response,458,955212,0.0-233.0-1.0,null,<p></p>,,null,,,,,,,,,,,,,,,,
,do_recog,459,957936,0.0-234.0-0.0,1211.8,,,,55,,,,455,probe-241,,,,,0,[object Object],null,null,1,
,html-keyboard-response,460,958942,0.0-234.0-1.0,null,<p></p>,,null,,,,,,,,,,,,,,,,
,do_trial,461,961839,0.0-235.0-0.0,348.2,,,,50,"0,0,1",6,blank,456,null,0.421661631,0.261961663,0.342849415,0,,,,,,
,html-keyboard-response,462,962843,0.0-235.0-1.0,null,<p></p>,,null,,,,,,,,,,,,,,,,
,do_recog,463,965556,0.0-236.0-0.0,1200.5,,,,54,,,,457,probe-247,,,,,0,[object Object],null,null,0,
,html-keyboard-response,464,966560,0.0-236.0-1.0,null,<p></p>,,null,,,,,,,,,,,,,,,,
,do_trial,465,969852,0.0-237.0-0.0,739.7,,,,50,"0,1,0",6,blank,458,null,0.353113666,0.433835446,0.054133512,1,,,,,,
,html-keyboard-response,466,970857,0.0-237.0-1.0,null,<p></p>,,null,,,,,,,,,,,,,,,,
,do_trial,467,973798,0.0-238.0-0.0,394.1,,,,51,"0,0,0",6,blank,459,null,0.359207621,0.561141566,0.087404377,0,,,,,,
,html-keyboard-response,468,974802,0.0-238.0-1.0,null,<p></p>,,null,,,,,,,,,,,,,,,,
,do_trial,469,977969,0.0-239.0-0.0,619.3,,,,49,"0,0,1",6,blank,460,null,0.341255688,0.503590683,0.153493068,0,,,,,,
,html-keyboard-response,470,978970,0.0-239.0-1.0,null,<p></p>,,null,,,,,,,,,,,,,,,,
,do_trial,471,982291,0.0-240.0-0.0,768.1,,,,50,"0,0,0",6,blank,461,null,0.309064206,0.539541249,0.053737843,0,,,,,,
,html-keyboard-response,472,983296,0.0-240.0-1.0,null,<p></p>,,null,,,,,,,,,,,,,,,,
,do_trial,473,986183,0.0-241.0-0.0,335.4,,,,51,"0,0,0",6,blank,462,null,0.371510011,0.581926024,0.063184988,0,,,,,,
,html-keyboard-response,474,987188,0.0-241.0-1.0,null,<p></p>,,null,,,,,,,,,,,,,,,,
,do_recog,475,990023,0.0-242.0-0.0,1324.4,,,,56,,,,463,probe-233,,,,,0,[object Object],null,null,1,
,html-keyboard-response,476,991027,0.0-242.0-1.0,null,<p></p>,,null,,,,,,,,,,,,,,,,
,do_trial,477,994003,0.0-243.0-0.0,423.9,,,,50,"0,0,0",6,blank,464,null,0.297361495,0.554055669,0.057460416,0,,,,,,
,html-keyboard-response,478,995008,0.0-243.0-1.0,null,<p></p>,,null,,,,,,,,,,,,,,,,
,do_recog,479,998200,0.0-244.0-0.0,1681,,,,54,,,,465,probe-240,,,,,0,[object Object],null,null,0,
,html-keyboard-response,480,999205,0.0-244.0-1.0,null,<p></p>,,null,,,,,,,,,,,,,,,,
,do_trial,481,1003547,0.0-245.0-0.0,1790.4,,,,50,"0,1,1",6,blank,466,null,0.333810534,0.550875675,0.178745933,1,,,,,,
,html-keyboard-response,482,1004551,0.0-245.0-1.0,null,<p></p>,,null,,,,,,,,,,,,,,,,
,do_trial,483,1008962,0.0-246.0-0.0,1858.3,,,,51,"0,1,0",6,blank,467,null,0.18986431,0.535042735,0.284426024,0,,,,,,
,html-keyboard-response,484,1009967,0.0-246.0-1.0,null,<p></p>,,null,,,,,,,,,,,,,,,,
,do_trial,485,1012855,0.0-247.0-0.0,336.6,,,,51,"0,1,0",6,blank,468,null,0.107123713,0.479712293,0.14424799,0,,,,,,
,html-keyboard-response,486,1013860,0.0-247.0-1.0,null,<p></p>,,null,,,,,,,,,,,,,,,,
,do_trial,487,1016740,0.0-248.0-0.0,328.1,,,,50,"0,0,0",6,blank,469,null,0.219437778,0.564565025,0.064139919,0,,,,,,
,html-keyboard-response,488,1017741,0.0-248.0-1.0,null,<p></p>,,null,,,,,,,,,,,,,,,,
,do_trial,489,1020711,0.0-249.0-0.0,416.5,,,,49,"0,1,0",6,blank,470,null,0.175332193,0.690209985,0.100771174,0,,,,,,
,html-keyboard-response,490,1021716,0.0-249.0-1.0,null,<p></p>,,null,,,,,,,,,,,,,,,,
,do_recog,491,1024313,0.0-250.0-0.0,1089.8,,,,55,,,,471,probe-251,,,,,0,[object Object],null,null,1,
,html-keyboard-response,492,1025315,0.0-250.0-1.0,null,<p></p>,,null,,,,,,,,,,,,,,,,
,do_trial,493,1028580,0.0-251.0-0.0,713.5,,,,50,"0,0,0",6,blank,472,null,0.239000569,0.610055818,0.198090061,0,,,,,,
,html-keyboard-response,494,1029583,0.0-251.0-1.0,null,<p></p>,,null,,,,,,,,,,,,,,,,
,do_trial,495,1032432,0.0-252.0-0.0,299.3,,,,51,"1,0,0",6,blank,473,null,0.126572327,0.52383982,0.100746978,0,,,,,,
,html-keyboard-response,496,1033437,0.0-252.0-1.0,null,<p></p>,,null,,,,,,,,,,,,,,,,
,do_trial,497,1036428,0.0-253.0-0.0,439.3,,,,49,"0,1,0",6,blank,474,null,0.186383957,0.551973679,0.220644804,0,,,,,,
,html-keyboard-response,498,1037432,0.0-253.0-1.0,null,<p></p>,,null,,,,,,,,,,,,,,,,
,do_trial,499,1040488,0.0-254.0-0.0,507.8,,,,50,"0,1,0",6,blank,475,null,0.261314976,0.627094666,0.26399311,1,,,,,,
,html-keyboard-response,500,1041492,0.0-254.0-1.0,null,<p></p>,,null,,,,,,,,,,,,,,,,
,do_trial,501,1044444,0.0-255.0-0.0,400.6,,,,49,"0,1,0",6,blank,476,null,0.282611675,0.651368016,0.067610412,0,,,,,,
,html-keyboard-response,502,1045449,0.0-255.0-1.0,null,<p></p>,,null,,,,,,,,,,,,,,,,
,do_recog,503,1048229,0.0-256.0-0.0,1268.1,,,,53,,,,477,probe-255,,,,,0,[object Object],null,null,0,
,html-keyboard-response,504,1049234,0.0-256.0-1.0,null,<p></p>,,null,,,,,,,,,,,,,,,,
,do_trial,505,1052081,0.0-257.0-0.0,295.2,,,,50,"0,0,0",6,blank,478,null,0.33269497,0.743909861,0.083707629,0,,,,,,
,html-keyboard-response,506,1053086,0.0-257.0-1.0,null,<p></p>,,null,,,,,,,,,,,,,,,,
,do_recog,507,1055777,0.0-258.0-0.0,1179.3,,,,55,,,,479,probe-232,,,,,0,[object Object],null,null,1,
,html-keyboard-response,508,1056781,0.0-258.0-1.0,null,<p></p>,,null,,,,,,,,,,,,,,,,
,do_pick_best_pirate,509,1061730,0.0-259.0-0.0,3935.9,,,,49,,,,,,,,,,,,,,,
,do_pick_best_pirate,510,1065258,0.0-260.0-0.0,2516.3,,,,51,,,,,,,,,,,,,,,
,do_pick_best_pirate,511,1067218,0.0-261.0-0.0,948.1,,,,50,,,,,,,,,,,,,,,
,do_pick_best_pirate,512,1069366,0.0-262.0-0.0,1136.2,,,,51,,,,,,,,,,,,,,,
,do_pick_best_pirate,513,1071258,0.0-263.0-0.0,880.7,,,,49,,,,,,,,,,,,,,,
,do_pick_best_pirate,514,1075008,0.0-264.0-0.0,2738.3,,,,50,,,,,,,,,,,,,,,
,html-keyboard-response,515,1082869,0.0-265.0-0.0,7860.2,<p>You are all done with the experiment!</p><p> You made $15 plus $2 in bonus payment!</p><p>Thank you for participating. You will recieve your payment within 3 days.<p><b>[Press the space bar to end the experiment]</b></p></div>,,32,,,,,,,,,,,,,,,,