"success","trial_type","trial_index","time_elapsed","internal_node_id","interactions","blur_events","focus_events","fullscreenenter_events","fullscreenexit_events","rt","stimulus","key_press","subject_id","participant_id","age","gender","prompt","response","choice_outcomes","context_n","context_img_id","trial_n","probe_img_id","pR_red","pR_white","pR_black","outcome","is_valid","image_to_show","probed_trial","probed_context","correct","probe","probed_trial_n","probed_context_n","context_im"
"true","fullscreen","0","2157","0.0-0.0","""event"",""trial"",""time""
""fullscreenenter"",""0"",""1219""
","
","
","""event"",""trial"",""time""
""fullscreenenter"",""0"",""1219""
","
","","","","","","","","","","","","","","","","","","","","","","","","","","",""
"","pavlovia","1","2164","0.0-1.0","""event"",""trial"",""time""
""fullscreenenter"",""0"",""1219""
","
","
","""event"",""trial"",""time""
""fullscreenenter"",""0"",""1219""
","
","","","","","","","","","","","","","","","","","","","","","","","","","","",""
"","welc_back","2","11979","0.0-2.0","""event"",""trial"",""time""
""fullscreenenter"",""0"",""1219""
","
","
","""event"",""trial"",""time""
""fullscreenenter"",""0"",""1219""
","
","null","run_exp/static/audio/clip_29_welcome_back.m4a","null","463","132","14","Female","<div class='center'><p>Welcome to day 2!</p><p> Yesterday, you were the head captain of a pirate ship. You asked your fellow pirates to rob other ships of their gold across six different islands.</p></div>","","","","","","","","","","","","","","","","","","",""
"","html-keyboard-response","3","14031","0.0-3.0","""event"",""trial"",""time""
""fullscreenenter"",""0"",""1219""
","
","
","""event"",""trial"",""time""
""fullscreenenter"",""0"",""1219""
","
","2049.2000000476837","<div class='center'><p>Welcome to day 2!</p><p> Yesterday, you were the head captain of a pirate ship. You asked your fellow pirates to rob other ships of their gold across six different islands.</p><p><b>[Press the space bar to continue]</b></p></div>","32","","","","","","","","","","","","","","","","","","","","","","","",""
"","day_1_summary_goal","4","31251","0.0-4.0","""event"",""trial"",""time""
""fullscreenenter"",""0"",""1219""
","
","
","""event"",""trial"",""time""
""fullscreenenter"",""0"",""1219""
","
","null","run_exp/static/audio/clip_30_goal_of_game.m4a","null","","","","","<div class='center'><p>Today, like yesterday, you get to pick which pirate you want to rob the next ship.</p><p>If the pirate is successful in robbing a ship, you get gold coins that look like this: </p><p><img src='run_exp/static/images/tutorial/reward.png' height='150'></p><p> If they were not successful in robbing the ship, then you will get no gold coins and you'll see a big red x like this: </p><p><img src='run_exp/static/images/tutorial/reward_no.png' height='150'></p></div>","","","","","","","","","","","","","","","","","","",""
"","html-keyboard-response","5","32995","0.0-5.0","""event"",""trial"",""time""
""fullscreenenter"",""0"",""1219""
","
","
","""event"",""trial"",""time""
""fullscreenenter"",""0"",""1219""
","
","1741.300000011921","<div class='center'><p>Today, like yesterday, you get to pick which pirate you want to rob the next ship.</p><p>If the pirate is successful in robbing a ship, you get gold coins that look like this: </p><p><img src='run_exp/static/images/tutorial/reward.png' height='150'></p><p> If they were not successful in robbing the ship, then you will get no gold coins and you'll see a big red x like this: </p><p><img src='run_exp/static/images/tutorial/reward_no.png' height='150'></p><p><b>[Press the space bar to continue]</b></p></div>","32","","","","","","","","","","","","","","","","","","","","","","","",""
"","day_1_summary_pick","6","47691","0.0-6.0","""event"",""trial"",""time""
""fullscreenenter"",""0"",""1219""
","
","
","""event"",""trial"",""time""
""fullscreenenter"",""0"",""1219""
","
","null","run_exp/static/audio/clip_31_how_to_pick_a_pirate.m4a","null","","","","","<div class='center'><p>Also, just like yesterday, you will use the 1,2,3 keys on your keyboard to pick a pirate. Press '1' to choose red beard, '2' to choose white beard, and '3' to choose black beard . You only have 3 seconds to pick a pirate, so please make a choice quickly!</p></div>","","","","","","","","","","","","","","","","","","",""
"","html-keyboard-response","7","48550","0.0-7.0","""event"",""trial"",""time""
""fullscreenenter"",""0"",""1219""
","
","
","""event"",""trial"",""time""
""fullscreenenter"",""0"",""1219""
","
","857.8000000119209","<div class='center'><p>Also, just like yesterday, you will use the 1,2,3 keys on your keyboard to pick a pirate. Press '1' to choose red beard, '2' to choose white beard, and '3' to choose black beard . You only have 3 seconds to pick a pirate, so please make a choice quickly!</p><p><b>[Press the space bar to continue]</b></p></div>","32","","","","","","","","","","","","","","","","","","","","","","","",""
"","test_phase_begin","8","78946","0.0-8.0","""event"",""trial"",""time""
""fullscreenenter"",""0"",""1219""
","
","
","""event"",""trial"",""time""
""fullscreenenter"",""0"",""1219""
","
","null","run_exp/static/audio/clip_32_final_place.m4a","null","","","","","<div class='center'><p>You’ve arrived at the final island of your journey! Unfortunately, it’s very foggy out, so you won’t be able to see it in the distance like the other islands you've visited.</p><p>You’ll still be deciding which pirate you want to rob a ship like before. However, because of the fog, you also won’t be able to see the ship.</p><p>This means you do not have to remember the ships you rob on this island.</p><p>Unlike yesterday, you won't be visiting multiple islands today. You will stay on this island for the entire game. This game will last ~30 minutes.</p></div>","","","","","","","","","","","","","","","","","","",""
"","html-keyboard-response","9","80030","0.0-9.0","""event"",""trial"",""time""
""fullscreenenter"",""0"",""1219""
","
","
","""event"",""trial"",""time""
""fullscreenenter"",""0"",""1219""
","
","1081.8999999761581","<div class='center'><p>You’ve arrived at the final island of your journey! Unfortunately, it’s very foggy out, so you won’t be able to see it in the distance like the other islands you've visited.</p><p>You’ll still be deciding which pirate you want to rob a ship like before. However, because of the fog, you also won’t be able to see the ship.</p><p>This means you do not have to remember the ships you rob on this island.</p><p>Unlike yesterday, you won't be visiting multiple islands today. You will stay on this island for the entire game. This game will last ~30 minutes.</p><p><b>[Press the space bar to continue]</b></p></div>","32","","","","","","","","","","","","","","","","","","","","","","","",""
"","explain_probe_1","10","87747","0.0-10.0","""event"",""trial"",""time""
""fullscreenenter"",""0"",""1219""
","
","
","""event"",""trial"",""time""
""fullscreenenter"",""0"",""1219""
","
","null","run_exp/static/audio/clip_33_recognition_1.m4a","null","","","","","<div class='center'><p> Sometimes you’ll be shown a ship, and you will be asked if you saw this ship on a past island.</p><p> Here is an example of what you will see.</p><p><img src='run_exp/static/images/tutorial/example_recog_trial.png' height='500'></p></div>","","","","","","","","","","","","","","","","","","",""
"","html-keyboard-response","11","88698","0.0-11.0","""event"",""trial"",""time""
""fullscreenenter"",""0"",""1219""
","
","
","""event"",""trial"",""time""
""fullscreenenter"",""0"",""1219""
","
","949.8000000119209","<div class='center'><p> Sometimes you’ll be shown a ship, and you will be asked if you saw this ship on a past island.</p><p> Here is an example of what you will see.</p><p><img src='run_exp/static/images/tutorial/example_recog_trial.png' height='500'></p><p><b>[Press the space bar to continue]</b></p></div>","32","","","","","","","","","","","","","","","","","","","","","","","",""
"","explain_probe_2","12","110410","0.0-12.0","""event"",""trial"",""time""
""fullscreenenter"",""0"",""1219""
","
","
","""event"",""trial"",""time""
""fullscreenenter"",""0"",""1219""
","
","null","run_exp/static/audio/clip_34_recognition_2.m4a","null","","","","","<div class='center'><p> You will press the 5, 6, 7, 8 keys on your keyboard to respond.</p><p>If you are sure you saw the ship, press <b>5</b> on your keyboard.</p><p> If you think you saw it before but aren't sure, then press <b>6</b>.</p><p> If you think you have <b>not</b> seen it before but aren't sure, then press <b>7</b>.</p><p> If you are sure you did <b>not</b> see the ship before, then press <b>8</b>.</p><p><img src='run_exp/static/images/tutorial/example_recog_trial.png' height='500'></p></div>","","","","","","","","","","","","","","","","","","",""
"","html-keyboard-response","13","111052","0.0-13.0","""event"",""trial"",""time""
""fullscreenenter"",""0"",""1219""
","
","
","""event"",""trial"",""time""
""fullscreenenter"",""0"",""1219""
","
","639.8999999761581","<div class='center'><p> You will press the 5, 6, 7, 8 keys on your keyboard to respond.</p><p>If you are sure you saw the ship, press <b>5</b> on your keyboard.</p><p> If you think you saw it before but aren't sure, then press <b>6</b>.</p><p> If you think you have <b>not</b> seen it before but aren't sure, then press <b>7</b>.</p><p> If you are sure you did <b>not</b> see the ship before, then press <b>8</b>.</p><p><img src='run_exp/static/images/tutorial/example_recog_trial.png' height='500'></p><p><b>[Press the space bar to continue]</b></p></div>","32","","","","","","","","","","","","","","","","","","","","","","","",""
"","explain_outcome","14","128267","0.0-14.0","""event"",""trial"",""time""
""fullscreenenter"",""0"",""1219""
","
","
","""event"",""trial"",""time""
""fullscreenenter"",""0"",""1219""
","
","null","run_exp/static/audio/clip_35_recognition_3.m4a","null","","","","","<div class='center'><p> If you remember correctly, then you’ll get a gold coin like this: </p><p><img src='run_exp/static/images/tutorial/reward_small.png' height='200'></p><p>If you do not remember correctly, then you'll see a red x like this: </p><p><img src='run_exp/static/images/tutorial/reward_no.png' height='200'></p><p>Importantly, when you are shown a ship, take the time to remind yourself which island you saw it on. This will help you in the next part of the study.</p></div>","","","","","","","","","","","","","","","","","","",""
"","html-keyboard-response","15","128895","0.0-15.0","""event"",""trial"",""time""
""fullscreenenter"",""0"",""1219""
","
","
","""event"",""trial"",""time""
""fullscreenenter"",""0"",""1219""
","
","626.5","<div class='center'><p> If you remember correctly, then you’ll get a gold coin like this: </p><p><img src='run_exp/static/images/tutorial/reward_small.png' height='200'></p><p>If you do not remember correctly, then you'll see a red x like this: </p><p><img src='run_exp/static/images/tutorial/reward_no.png' height='200'></p><p>Importantly, when you are shown a ship, take the time to remind yourself which island you saw it on. This will help you in the next part of the study.</p><p><b>[Press the space bar to continue]</b></p></div>","32","","","","","","","","","","","","","","","","","","","","","","","",""
"","begin_test_phase","16","144707","0.0-16.0","""event"",""trial"",""time""
""fullscreenenter"",""0"",""1219""
","
","
","""event"",""trial"",""time""
""fullscreenenter"",""0"",""1219""
","
","null","run_exp/static/audio/clip_36_begin_final.m4a","null","","","","","<div class='center'><p>Let's go over the important points again. Your job is to: </p><p>1. Pick the pirate who is best at robbing ships and will bring you back gold coins. </p><p>2. Correctly remember whether or not you saw a ship before. If you did see the ship before, remind yourself on which island you saw it. </p></div>","","","","","","","","","","","","","","","","","","",""
"","html-keyboard-response","17","145312","0.0-17.0","""event"",""trial"",""time""
""fullscreenenter"",""0"",""1219""
","
","
","""event"",""trial"",""time""
""fullscreenenter"",""0"",""1219""
","
","538.3000000119209","<div class='center'><p>Let's go over the important points again. Your job is to: </p><p>1. Pick the pirate who is best at robbing ships and will bring you back gold coins. </p><p>2. Correctly remember whether or not you saw a ship before. If you did see the ship before, remind yourself on which island you saw it. </p><p><b>[Press the space bar to continue]</b></p></div>","32","","","","","","","","","","","","","","","","","","","","","","","",""
"","do_welcome","18","149328","0.0-18.0","""event"",""trial"",""time""
""fullscreenenter"",""0"",""1219""
","
","
","""event"",""trial"",""time""
""fullscreenenter"",""0"",""1219""
","
","null","","","","","","","","null","","","","","","","","","","","","","","","","","",""
"","do_trial","19","153606","0.0-19.0-0.0","""event"",""trial"",""time""
""fullscreenenter"",""0"",""1219""
","
","
","""event"",""trial"",""time""
""fullscreenenter"",""0"",""1219""
","
","1723.699999988079","","","","","","","","49","0,0,0","6","blank","230","null","0.6485751581549516","0.3637563475751253","0.295585039750081","0","","","","","","","","",""
"","html-keyboard-response","20","154611","0.0-19.0-1.0","""event"",""trial"",""time""
""fullscreenenter"",""0"",""1219""
","
","
","""event"",""trial"",""time""
""fullscreenenter"",""0"",""1219""
","
","null","<p></p>","null","","","","","","","","","","","","","","","","","","","","","","","",""
"","do_trial","21","157494","0.0-20.0-0.0","""event"",""trial"",""time""
""fullscreenenter"",""0"",""1219""
","
","
","""event"",""trial"",""time""
""fullscreenenter"",""0"",""1219""
","
","323.80000001192093","","","","","","","","50","0,0,0","6","blank","231","null","0.5241328710037952","0.19779679213138462","0.26402943674938706","0","","","","","","","","",""
"","html-keyboard-response","22","158498","0.0-20.0-1.0","""event"",""trial"",""time""
""fullscreenenter"",""0"",""1219""
","
","
","""event"",""trial"",""time""
""fullscreenenter"",""0"",""1219""
","
","null","<p></p>","null","","","","","","","","","","","","","","","","","","","","","","","",""
"","do_trial","23","161351","0.0-21.0-0.0","""event"",""trial"",""time""
""fullscreenenter"",""0"",""1219""
","
","
","""event"",""trial"",""time""
""fullscreenenter"",""0"",""1219""
","
","301","","","","","","","","51","1,0,0","6","blank","232","null","0.6701436509342488","0.2925856165240146","0.0959636743631248","0","","","","","","","","",""
"","html-keyboard-response","24","162355","0.0-21.0-1.0","""event"",""trial"",""time""
""fullscreenenter"",""0"",""1219""
","
","
","""event"",""trial"",""time""
""fullscreenenter"",""0"",""1219""
","
","null","<p></p>","null","","","","","","","","","","","","","","","","","","","","","","","",""
"","do_trial","25","165177","0.0-22.0-0.0","""event"",""trial"",""time""
""fullscreenenter"",""0"",""1219""
","
","
","""event"",""trial"",""time""
""fullscreenenter"",""0"",""1219""
","
","266.89999997615814","","","","","","","","49","0,1,0","6","blank","233","null","0.4443650429597035","0.19969429353035736","0.12228361228402931","0","","","","","","","","",""
"","html-keyboard-response","26","166182","0.0-22.0-1.0","""event"",""trial"",""time""
""fullscreenenter"",""0"",""1219""
","
","
","""event"",""trial"",""time""
""fullscreenenter"",""0"",""1219""
","
","null","<p></p>","null","","","","","","","","","","","","","","","","","","","","","","","",""
"","do_trial","27","169436","0.0-23.0-0.0","""event"",""trial"",""time""
""fullscreenenter"",""0"",""1219""
","
","
","""event"",""trial"",""time""
""fullscreenenter"",""0"",""1219""
","
","702.1999999880791","","","","","","","","49","0,0,0","6","blank","234","null","0.3516637211939198","0.1580894410691822","0.053963899520604104","0","","","","","","","","",""
"","html-keyboard-response","28","170441","0.0-23.0-1.0","""event"",""trial"",""time""
""fullscreenenter"",""0"",""1219""
","
","
","""event"",""trial"",""time""
""fullscreenenter"",""0"",""1219""
","
","null","<p></p>","null","","","","","","","","","","","","","","","","","","","","","","","",""
"","do_trial","29","173306","0.0-24.0-0.0","""event"",""trial"",""time""
""fullscreenenter"",""0"",""1219""
","
","
","""event"",""trial"",""time""
""fullscreenenter"",""0"",""1219""
","
","314.30000001192093","","","","","","","","49","0,0,1","6","blank","235","null","0.4285537945651182","0.07228497082027797","0.3091474390246349","0","","","","","","","","",""
"","html-keyboard-response","30","174311","0.0-24.0-1.0","""event"",""trial"",""time""
""fullscreenenter"",""0"",""1219""
","
","
","""event"",""trial"",""time""
""fullscreenenter"",""0"",""1219""
","
","null","<p></p>","null","","","","","","","","","","","","","","","","","","","","","","","",""
"","do_trial","31","177233","0.0-25.0-0.0","""event"",""trial"",""time""
""fullscreenenter"",""0"",""1219""
","
","
","""event"",""trial"",""time""
""fullscreenenter"",""0"",""1219""
","
","368.60000002384186","","","","","","","","49","0,0,0","6","blank","236","null","0.5296234073629683","0.1647671996134796","0.27321426121533365","0","","","","","","","","",""
"","html-keyboard-response","32","178237","0.0-25.0-1.0","""event"",""trial"",""time""
""fullscreenenter"",""0"",""1219""
","
","
","""event"",""trial"",""time""
""fullscreenenter"",""0"",""1219""
","
","null","<p></p>","null","","","","","","","","","","","","","","","","","","","","","","","",""
"","do_trial","33","180833","0.0-26.0-0.0","""event"",""trial"",""time""
""fullscreenenter"",""0"",""1219""
","
","
","""event"",""trial"",""time""
""fullscreenenter"",""0"",""1219""
","
","40","","","","","","","","50","0,0,0","6","blank","237","null","0.6037479645000867","0.17814429896486197","0.062222571979551326","0","","","","","","","","",""
"","html-keyboard-response","34","181837","0.0-26.0-1.0","""event"",""trial"",""time""
""fullscreenenter"",""0"",""1219""
","
","
","""event"",""trial"",""time""
""fullscreenenter"",""0"",""1219""
","
","null","<p></p>","null","","","","","","","","","","","","","","","","","","","","","","","",""
"","do_trial","35","184683","0.0-27.0-0.0","""event"",""trial"",""time""
""fullscreenenter"",""0"",""1219""
","
","
","""event"",""trial"",""time""
""fullscreenenter"",""0"",""1219""
","
","290.5","","","","","","","","50","0,0,0","6","blank","238","null","0.6060537116022667","0.27628131026862435","0.0547813908389539","0","","","","","","","","",""
"","html-keyboard-response","36","185686","0.0-27.0-1.0","""event"",""trial"",""time""
""fullscreenenter"",""0"",""1219""
","
","
","""event"",""trial"",""time""
""fullscreenenter"",""0"",""1219""
","
","null","<p></p>","null","","","","","","","","","","","","","","","","","","","","","","","",""
"","do_trial","37","188558","0.0-28.0-0.0","""event"",""trial"",""time""
""fullscreenenter"",""0"",""1219""
","
","
","""event"",""trial"",""time""
""fullscreenenter"",""0"",""1219""
","
","322.9000000357628","","","","","","","","50","1,0,1","6","blank","239","null","0.5233073361505567","0.21247125595747446","0.10270939638113344","0","","","","","","","","",""
"","html-keyboard-response","38","189563","0.0-28.0-1.0","""event"",""trial"",""time""
""fullscreenenter"",""0"",""1219""
","
","
","""event"",""trial"",""time""
""fullscreenenter"",""0"",""1219""
","
","null","<p></p>","null","","","","","","","","","","","","","","","","","","","","","","","",""
"","do_trial","39","192655","0.0-29.0-0.0","""event"",""trial"",""time""
""fullscreenenter"",""0"",""1219""
","
","
","""event"",""trial"",""time""
""fullscreenenter"",""0"",""1219""
","
","540.5","","","","","","","","50","0,0,0","6","blank","240","null","0.42256634979105157","0.31840161049887344","0.0710324435035356","0","","","","","","","","",""
"","html-keyboard-response","40","193659","0.0-29.0-1.0","""event"",""trial"",""time""
""fullscreenenter"",""0"",""1219""
","
","
","""event"",""trial"",""time""
""fullscreenenter"",""0"",""1219""
","
","null","<p></p>","null","","","","","","","","","","","","","","","","","","","","","","","",""
"","do_recog","41","199676","0.0-30.0-0.0","""event"",""trial"",""time""
""fullscreenenter"",""0"",""1219""
","
","
","""event"",""trial"",""time""
""fullscreenenter"",""0"",""1219""
","
","null","","","","","","","","null","","","","241","probe-206","","","","","1","[object Object]","192","4","0","","","",""
"","html-keyboard-response","42","200680","0.0-30.0-1.0","""event"",""trial"",""time""
""fullscreenenter"",""0"",""1219""
","
","
","""event"",""trial"",""time""
""fullscreenenter"",""0"",""1219""
","
","null","<p></p>","null","","","","","","","","","","","","","","","","","","","","","","","",""
"","do_trial","43","205055","0.0-31.0-0.0","""event"",""trial"",""time""
""fullscreenenter"",""0"",""1219""
","
","
","""event"",""trial"",""time""
""fullscreenenter"",""0"",""1219""
","
","1819.6000000238419","","","","","","","","51","1,0,0","6","blank","242","null","0.5382483417010754","0.3641666287964694","0.10073319091378043","0","","","","","","","","",""
"","html-keyboard-response","44","206060","0.0-31.0-1.0","""event"",""trial"",""time""
""fullscreenenter"",""0"",""1219""
","
","
","""event"",""trial"",""time""
""fullscreenenter"",""0"",""1219""
","
","null","<p></p>","null","","","","","","","","","","","","","","","","","","","","","","","",""
"","do_trial","45","209369","0.0-32.0-0.0","""event"",""trial"",""time""
""fullscreenenter"",""0"",""1219""
","
","
","""event"",""trial"",""time""
""fullscreenenter"",""0"",""1219""
","
","759.6999999880791","","","","","","","","51","0,0,1","6","blank","243","null","0.2800301573080191","0.473901948338385","0.2126610677832084","1","","","","","","","","",""
"","html-keyboard-response","46","210371","0.0-32.0-1.0","""event"",""trial"",""time""
""fullscreenenter"",""0"",""1219""
","
","
","""event"",""trial"",""time""
""fullscreenenter"",""0"",""1219""
","
","null","<p></p>","null","","","","","","","","","","","","","","","","","","","","","","","",""
"","do_trial","47","213196","0.0-33.0-0.0","""event"",""trial"",""time""
""fullscreenenter"",""0"",""1219""
","
","
","""event"",""trial"",""time""
""fullscreenenter"",""0"",""1219""
","
","262.4000000357628","","","","","","","","51","1,0,1","6","blank","244","null","0.2148836496601535","0.4760054345649799","0.21413979596148722","1","","","","","","","","",""
"","html-keyboard-response","48","214201","0.0-33.0-1.0","""event"",""trial"",""time""
""fullscreenenter"",""0"",""1219""
","
","
","""event"",""trial"",""time""
""fullscreenenter"",""0"",""1219""
","
","null","<p></p>","null","","","","","","","","","","","","","","","","","","","","","","","",""
"","do_trial","49","216753","0.0-34.0-0.0","""event"",""trial"",""time""
""fullscreenenter"",""0"",""1219""
","
","
","""event"",""trial"",""time""
""fullscreenenter"",""0"",""1219""
","
","0.19999998807907104","","","","","","","","51","0,1,1","6","blank","245","null","0.25424833842315164","0.5504594434261944","0.20622297389557503","1","","","","","","","","",""
"","html-keyboard-response","50","217758","0.0-34.0-1.0","""event"",""trial"",""time""
""fullscreenenter"",""0"",""1219""
","
","
","""event"",""trial"",""time""
""fullscreenenter"",""0"",""1219""
","
","null","<p></p>","null","","","","","","","","","","","","","","","","","","","","","","","",""
"","do_trial","51","220563","0.0-35.0-0.0","""event"",""trial"",""time""
""fullscreenenter"",""0"",""1219""
","
","
","""event"",""trial"",""time""
""fullscreenenter"",""0"",""1219""
","
","254.69999998807907","","","","","","","","51","0,1,0","6","blank","246","null","0.24576126045905305","0.6080768190547857","0.23531174894454338","0","","","","","","","","",""
"","html-keyboard-response","52","221568","0.0-35.0-1.0","""event"",""trial"",""time""
""fullscreenenter"",""0"",""1219""
","
","
","""event"",""trial"",""time""
""fullscreenenter"",""0"",""1219""
","
","null","<p></p>","null","","","","","","","","","","","","","","","","","","","","","","","",""
"","do_recog","53","225401","0.0-36.0-0.0","""event"",""trial"",""time""
""fullscreenenter"",""0"",""1219""
","
","
","""event"",""trial"",""time""
""fullscreenenter"",""0"",""1219""
","
","2319.5","","","","","","","","54","","","","247","probe-183","","","","","1","[object Object]","30","0","1","","","",""
"","html-keyboard-response","54","226405","0.0-36.0-1.0","""event"",""trial"",""time""
""fullscreenenter"",""0"",""1219""
","
","
","""event"",""trial"",""time""
""fullscreenenter"",""0"",""1219""
","
","null","<p></p>","null","","","","","","","","","","","","","","","","","","","","","","","",""
"","do_trial","55","229571","0.0-37.0-0.0","""event"",""trial"",""time""
""fullscreenenter"",""0"",""1219""
","
","
","""event"",""trial"",""time""
""fullscreenenter"",""0"",""1219""
","
","616.3000000119209","","","","","","","","51","0,1,0","6","blank","248","null","0.1856846997309499","0.6821832581714743","0.2814744823581113","0","","","","","","","","",""
"","html-keyboard-response","56","230577","0.0-37.0-1.0","""event"",""trial"",""time""
""fullscreenenter"",""0"",""1219""
","
","
","""event"",""trial"",""time""
""fullscreenenter"",""0"",""1219""
","
","null","<p></p>","null","","","","","","","","","","","","","","","","","","","","","","","",""
"","do_trial","57","233376","0.0-38.0-0.0","""event"",""trial"",""time""
""fullscreenenter"",""0"",""1219""
","
","
","""event"",""trial"",""time""
""fullscreenenter"",""0"",""1219""
","
","241.30000001192093","","","","","","","","51","1,1,0","6","blank","249","null","0.12549776134665783","0.7638031527419074","0.19848815932907343","0","","","","","","","","",""
"","html-keyboard-response","58","234381","0.0-38.0-1.0","""event"",""trial"",""time""
""fullscreenenter"",""0"",""1219""
","
","
","""event"",""trial"",""time""
""fullscreenenter"",""0"",""1219""
","
","null","<p></p>","null","","","","","","","","","","","","","","","","","","","","","","","",""
"","do_trial","59","237117","0.0-39.0-0.0","""event"",""trial"",""time""
""fullscreenenter"",""0"",""1219""
","
","
","""event"",""trial"",""time""
""fullscreenenter"",""0"",""1219""
","
","184.19999998807907","","","","","","","","51","0,1,0","6","blank","250","null","0.08397722286737631","0.5611181864296754","0.1590472026368884","0","","","","","","","","",""
"","html-keyboard-response","60","238122","0.0-39.0-1.0","""event"",""trial"",""time""
""fullscreenenter"",""0"",""1219""
","
","
","""event"",""trial"",""time""
""fullscreenenter"",""0"",""1219""
","
","null","<p></p>","null","","","","","","","","","","","","","","","","","","","","","","","",""
"","do_trial","61","240719","0.0-40.0-0.0","""event"",""trial"",""time""
""fullscreenenter"",""0"",""1219""
","
","
","""event"",""trial"",""time""
""fullscreenenter"",""0"",""1219""
","
","42.10000002384186","","","","","","","","51","0,1,0","6","blank","251","null","0.07360543423698941","0.5451217607735432","0.26698586797010837","0","","","","","","","","",""
"","html-keyboard-response","62","241724","0.0-40.0-1.0","""event"",""trial"",""time""
""fullscreenenter"",""0"",""1219""
","
","
","""event"",""trial"",""time""
""fullscreenenter"",""0"",""1219""
","
","null","<p></p>","null","","","","","","","","","","","","","","","","","","","","","","","",""
"","do_recog","63","245379","0.0-41.0-0.0","""event"",""trial"",""time""
""fullscreenenter"",""0"",""1219""
","
","
","""event"",""trial"",""time""
""fullscreenenter"",""0"",""1219""
","
","2141.899999976158","","","","","","","","53","","","","252","probe-09","","","","","1","[object Object]","34","0","1","","","",""
"","html-keyboard-response","64","246383","0.0-41.0-1.0","""event"",""trial"",""time""
""fullscreenenter"",""0"",""1219""
","
","
","""event"",""trial"",""time""
""fullscreenenter"",""0"",""1219""
","
","null","<p></p>","null","","","","","","","","","","","","","","","","","","","","","","","",""
"","do_trial","65","249515","0.0-42.0-0.0","""event"",""trial"",""time""
""fullscreenenter"",""0"",""1219""
","
","
","""event"",""trial"",""time""
""fullscreenenter"",""0"",""1219""
","
","575.1999999880791","","","","","","","","51","0,1,0","6","blank","253","null","0.08600220914790907","0.582944347852747","0.19384189124569012","0","","","","","","","","",""
"","html-keyboard-response","66","250520","0.0-42.0-1.0","""event"",""trial"",""time""
""fullscreenenter"",""0"",""1219""
","
","
","""event"",""trial"",""time""
""fullscreenenter"",""0"",""1219""
","
","null","<p></p>","null","","","","","","","","","","","","","","","","","","","","","","","",""
"","do_trial","67","253273","0.0-43.0-0.0","""event"",""trial"",""time""
""fullscreenenter"",""0"",""1219""
","
","
","""event"",""trial"",""time""
""fullscreenenter"",""0"",""1219""
","
","201.5","","","","","","","","49","1,0,1","6","blank","254","null","0.08390128204323721","0.6398913592819002","0.22791369438158904","1","","","","","","","","",""
"","html-keyboard-response","68","254278","0.0-43.0-1.0","""event"",""trial"",""time""
""fullscreenenter"",""0"",""1219""
","
","
","""event"",""trial"",""time""
""fullscreenenter"",""0"",""1219""
","
","null","<p></p>","null","","","","","","","","","","","","","","","","","","","","","","","",""
"","do_trial","69","257066","0.0-44.0-0.0","""event"",""trial"",""time""
""fullscreenenter"",""0"",""1219""
","
","
","""event"",""trial"",""time""
""fullscreenenter"",""0"",""1219""
","
","235.29999995231628","","","","","","","","49","0,0,0","6","blank","255","null","0.08999982379767195","0.506114520514041","0.27657874467120247","0","","","","","","","","",""
"","html-keyboard-response","70","258071","0.0-44.0-1.0","""event"",""trial"",""time""
""fullscreenenter"",""0"",""1219""
","
","
","""event"",""trial"",""time""
""fullscreenenter"",""0"",""1219""
","
","null","<p></p>","null","","","","","","","","","","","","","","","","","","","","","","","",""
"","do_trial","71","260966","0.0-45.0-0.0","""event"",""trial"",""time""
""fullscreenenter"",""0"",""1219""
","
","
","""event"",""trial"",""time""
""fullscreenenter"",""0"",""1219""
","
","343.5","","","","","","","","49","0,0,1","6","blank","256","null","0.05180994484245083","0.579527222393489","0.2877607000971681","0","","","","","","","","",""
"","html-keyboard-response","72","261970","0.0-45.0-1.0","""event"",""trial"",""time""
""fullscreenenter"",""0"",""1219""
","
","
","""event"",""trial"",""time""
""fullscreenenter"",""0"",""1219""
","
","null","<p></p>","null","","","","","","","","","","","","","","","","","","","","","","","",""
"","do_trial","73","264668","0.0-46.0-0.0","""event"",""trial"",""time""
""fullscreenenter"",""0"",""1219""
","
","
","""event"",""trial"",""time""
""fullscreenenter"",""0"",""1219""
","
","143.89999997615814","","","","","","","","49","0,1,0","6","blank","257","null","0.10372910568843942","0.6151258439308948","0.23832521030768752","0","","","","","","","","",""
"","html-keyboard-response","74","265672","0.0-46.0-1.0","""event"",""trial"",""time""
""fullscreenenter"",""0"",""1219""
","
","
","""event"",""trial"",""time""
""fullscreenenter"",""0"",""1219""
","
","null","<p></p>","null","","","","","","","","","","","","","","","","","","","","","","","",""
"","do_trial","75","268301","0.0-47.0-0.0","""event"",""trial"",""time""
""fullscreenenter"",""0"",""1219""
","
","
","""event"",""trial"",""time""
""fullscreenenter"",""0"",""1219""
","
","70.80000001192093","","","","","","","","51","1,1,0","6","blank","258","null","0.23477358581088162","0.7430332426938848","0.1613016569865713","0","","","","","","","","",""
"","html-keyboard-response","76","269306","0.0-47.0-1.0","""event"",""trial"",""time""
""fullscreenenter"",""0"",""1219""
","
","
","""event"",""trial"",""time""
""fullscreenenter"",""0"",""1219""
","
","null","<p></p>","null","","","","","","","","","","","","","","","","","","","","","","","",""
"","do_trial","77","271857","0.0-48.0-0.0","""event"",""trial"",""time""
""fullscreenenter"",""0"",""1219""
","
","
","""event"",""trial"",""time""
""fullscreenenter"",""0"",""1219""
","
","0.09999996423721313","","","","","","","","49","0,1,0","6","blank","259","null","0.3143534514316521","0.6661770729847742","0.22833347167661328","0","","","","","","","","",""
"","html-keyboard-response","78","272861","0.0-48.0-1.0","""event"",""trial"",""time""
""fullscreenenter"",""0"",""1219""
","
","
","""event"",""trial"",""time""
""fullscreenenter"",""0"",""1219""
","
","null","<p></p>","null","","","","","","","","","","","","","","","","","","","","","","","",""
"","do_recog","79","276632","0.0-49.0-0.0","""event"",""trial"",""time""
""fullscreenenter"",""0"",""1219""
","
","
","""event"",""trial"",""time""
""fullscreenenter"",""0"",""1219""
","
","2258.199999988079","","","","","","","","55","","","","260","probe-33","","","","","1","[object Object]","79","1","0","","","",""
"","html-keyboard-response","80","277636","0.0-49.0-1.0","""event"",""trial"",""time""
""fullscreenenter"",""0"",""1219""
","
","
","""event"",""trial"",""time""
""fullscreenenter"",""0"",""1219""
","
","null","<p></p>","null","","","","","","","","","","","","","","","","","","","","","","","",""
"","do_trial","81","280980","0.0-50.0-0.0","""event"",""trial"",""time""
""fullscreenenter"",""0"",""1219""
","
","
","""event"",""trial"",""time""
""fullscreenenter"",""0"",""1219""
","
","792.1999999880791","","","","","","","","51","0,1,0","6","blank","261","null","0.22868527056202767","0.6330301695475441","0.3032166685421731","0","","","","","","","","",""
"","html-keyboard-response","82","281984","0.0-50.0-1.0","""event"",""trial"",""time""
""fullscreenenter"",""0"",""1219""
","
","
","""event"",""trial"",""time""
""fullscreenenter"",""0"",""1219""
","
","null","<p></p>","null","","","","","","","","","","","","","","","","","","","","","","","",""
"","do_trial","83","284983","0.0-51.0-0.0","""event"",""trial"",""time""
""fullscreenenter"",""0"",""1219""
","
","
","""event"",""trial"",""time""
""fullscreenenter"",""0"",""1219""
","
","441.5","","","","","","","","49","0,1,0","6","blank","262","null","0.06780320451661956","0.6258893026446775","0.2535101624484246","0","","","","","","","","",""
"","html-keyboard-response","84","285988","0.0-51.0-1.0","""event"",""trial"",""time""
""fullscreenenter"",""0"",""1219""
","
","
","""event"",""trial"",""time""
""fullscreenenter"",""0"",""1219""
","
","null","<p></p>","null","","","","","","","","","","","","","","","","","","","","","","","",""
"","do_recog","85","289359","0.0-52.0-0.0","""event"",""trial"",""time""
""fullscreenenter"",""0"",""1219""
","
","
","""event"",""trial"",""time""
""fullscreenenter"",""0"",""1219""
","
","1860.7000000476837","","","","","","","","55","","","","263","probe-176","","","","","1","[object Object]","119","2","0","","","",""
"","html-keyboard-response","86","290363","0.0-52.0-1.0","""event"",""trial"",""time""
""fullscreenenter"",""0"",""1219""
","
","
","""event"",""trial"",""time""
""fullscreenenter"",""0"",""1219""
","
","null","<p></p>","null","","","","","","","","","","","","","","","","","","","","","","","",""
"","do_trial","87","293964","0.0-53.0-0.0","""event"",""trial"",""time""
""fullscreenenter"",""0"",""1219""
","
","
","""event"",""trial"",""time""
""fullscreenenter"",""0"",""1219""
","
","1043.7999999523163","","","","","","","","50","0,1,0","6","blank","264","null","0.1434576298703732","0.46518362232861216","0.2306336339824211","1","","","","","","","","",""
"","html-keyboard-response","88","294967","0.0-53.0-1.0","""event"",""trial"",""time""
""fullscreenenter"",""0"",""1219""
","
","
","""event"",""trial"",""time""
""fullscreenenter"",""0"",""1219""
","
","null","<p></p>","null","","","","","","","","","","","","","","","","","","","","","","","",""
"","do_trial","89","297842","0.0-54.0-0.0","""event"",""trial"",""time""
""fullscreenenter"",""0"",""1219""
","
","
","""event"",""trial"",""time""
""fullscreenenter"",""0"",""1219""
","
","314.5","","","","","","","","50","0,1,1","6","blank","265","null","0.05030716900848542","0.45635248578252857","0.29857502959167415","1","","","","","","","","",""
"","html-keyboard-response","90","298847","0.0-54.0-1.0","""event"",""trial"",""time""
""fullscreenenter"",""0"",""1219""
","
","
","""event"",""trial"",""time""
""fullscreenenter"",""0"",""1219""
","
","null","<p></p>","null","","","","","","","","","","","","","","","","","","","","","","","",""
"","do_trial","91","302125","0.0-55.0-0.0","""event"",""trial"",""time""
""fullscreenenter"",""0"",""1219""
","
","
","""event"",""trial"",""time""
""fullscreenenter"",""0"",""1219""
","
","717.8000000119209","","","","","","","","50","0,0,0","6","blank","266","null","0.20261334763433503","0.4492246571083608","0.35088029949219973","0","","","","","","","","",""
"","html-keyboard-response","92","303130","0.0-55.0-1.0","""event"",""trial"",""time""
""fullscreenenter"",""0"",""1219""
","
","
","""event"",""trial"",""time""
""fullscreenenter"",""0"",""1219""
","
","null","<p></p>","null","","","","","","","","","","","","","","","","","","","","","","","",""
"","do_trial","93","305897","0.0-56.0-0.0","""event"",""trial"",""time""
""fullscreenenter"",""0"",""1219""
","
","
","""event"",""trial"",""time""
""fullscreenenter"",""0"",""1219""
","
","209.70000004768372","","","","","","","","50","0,1,1","6","blank","267","null","0.1392125346526593","0.4482028559879231","0.4022966526878846","1","","","","","","","","",""
"","html-keyboard-response","94","306902","0.0-56.0-1.0","""event"",""trial"",""time""
""fullscreenenter"",""0"",""1219""
","
","
","""event"",""trial"",""time""
""fullscreenenter"",""0"",""1219""
","
","null","<p></p>","null","","","","","","","","","","","","","","","","","","","","","","","",""
"","do_trial","95","309809","0.0-57.0-0.0","""event"",""trial"",""time""
""fullscreenenter"",""0"",""1219""
","
","
","""event"",""trial"",""time""
""fullscreenenter"",""0"",""1219""
","
","356.2999999523163","","","","","","","","50","0,0,1","6","blank","268","null","0.13277689919471944","0.554693027143102","0.4052694618464419","0","","","","","","","","",""
"","html-keyboard-response","96","310814","0.0-57.0-1.0","""event"",""trial"",""time""
""fullscreenenter"",""0"",""1219""
","
","
","""event"",""trial"",""time""
""fullscreenenter"",""0"",""1219""
","
","null","<p></p>","null","","","","","","","","","","","","","","","","","","","","","","","",""
"","break","97","430823","0.0-58.0-0.0","""event"",""trial"",""time""
""fullscreenenter"",""0"",""1219""
","
","
","""event"",""trial"",""time""
""fullscreenenter"",""0"",""1219""
","
","null","<div class='center'><p>Time to take a quick break! You have 2 minutes to rest, but you can move on sooner if you'd like.</p><p> Press the <b>space bar</b> to continue.</p></div>","null","","","","","","","","","","","","","","","","","","","","","","","",""
"","do_trial","98","436880","0.0-58.0-1.0","""event"",""trial"",""time""
""fullscreenenter"",""0"",""1219""
","
","
","""event"",""trial"",""time""
""fullscreenenter"",""0"",""1219""
","
","null","","","","","","","","null","0,1,1","6","blank","269","null","0.2523347699790212","0.6297176169234033","0.2315092606738647","","","","","","","","","",""
"","html-keyboard-response","99","437885","0.0-58.0-2.0","""event"",""trial"",""time""
""fullscreenenter"",""0"",""1219""
","
","
","""event"",""trial"",""time""
""fullscreenenter"",""0"",""1219""
","
","null","<p></p>","null","","","","","","","","","","","","","","","","","","","","","","","",""
"","do_trial","100","440909","0.0-59.0-0.0","""event"",""trial"",""time""
""fullscreenenter"",""0"",""1219""
","
","
","""event"",""trial"",""time""
""fullscreenenter"",""0"",""1219""
","
","470","","","","","","","","50","1,1,1","6","blank","270","null","0.1830302056059265","0.6183378092935206","0.29402431199783235","1","","","","","","","","",""
"","html-keyboard-response","101","441914","0.0-59.0-1.0","""event"",""trial"",""time""
""fullscreenenter"",""0"",""1219""
","
","
","""event"",""trial"",""time""
""fullscreenenter"",""0"",""1219""
","
","null","<p></p>","null","","","","","","","","","","","","","","","","","","","","","","","",""
"","do_recog","102","445361","0.0-60.0-0.0","""event"",""trial"",""time""
""fullscreenenter"",""0"",""1219""
","
","
","""event"",""trial"",""time""
""fullscreenenter"",""0"",""1219""
","
","1934.5","","","","","","","","53","","","","271","probe-248","","","","","0","[object Object]","null","null","0","","","",""
"","html-keyboard-response","103","446364","0.0-60.0-1.0","""event"",""trial"",""time""
""fullscreenenter"",""0"",""1219""
","
","
","""event"",""trial"",""time""
""fullscreenenter"",""0"",""1219""
","
","null","<p></p>","null","","","","","","","","","","","","","","","","","","","","","","","",""
"","do_trial","104","449917","0.0-61.0-0.0","""event"",""trial"",""time""
""fullscreenenter"",""0"",""1219""
","
","
","""event"",""trial"",""time""
""fullscreenenter"",""0"",""1219""
","
","996.6000000238419","","","","","","","","50","0,1,1","6","blank","272","null","0.1952426374912212","0.7139206019723724","0.3156058460330231","1","","","","","","","","",""
"","html-keyboard-response","105","450922","0.0-61.0-1.0","""event"",""trial"",""time""
""fullscreenenter"",""0"",""1219""
","
","
","""event"",""trial"",""time""
""fullscreenenter"",""0"",""1219""
","
","null","<p></p>","null","","","","","","","","","","","","","","","","","","","","","","","",""
"","do_recog","106","454609","0.0-62.0-0.0","""event"",""trial"",""time""
""fullscreenenter"",""0"",""1219""
","
","
","""event"",""trial"",""time""
""fullscreenenter"",""0"",""1219""
","
","2174.099999964237","","","","","","","","55","","","","273","probe-239","","","","","0","[object Object]","null","null","1","","","",""
"","html-keyboard-response","107","455613","0.0-62.0-1.0","""event"",""trial"",""time""
""fullscreenenter"",""0"",""1219""
","
","
","""event"",""trial"",""time""
""fullscreenenter"",""0"",""1219""
","
","null","<p></p>","null","","","","","","","","","","","","","","","","","","","","","","","",""
"","do_trial","108","459412","0.0-63.0-0.0","""event"",""trial"",""time""
""fullscreenenter"",""0"",""1219""
","
","
","""event"",""trial"",""time""
""fullscreenenter"",""0"",""1219""
","
","1241","","","","","","","","50","0,1,0","6","blank","274","null","0.25221429066325207","0.6852855571900236","0.31676150379766993","1","","","","","","","","",""
"","html-keyboard-response","109","460413","0.0-63.0-1.0","""event"",""trial"",""time""
""fullscreenenter"",""0"",""1219""
","
","
","""event"",""trial"",""time""
""fullscreenenter"",""0"",""1219""
","
","null","<p></p>","null","","","","","","","","","","","","","","","","","","","","","","","",""
"","do_trial","110","464057","0.0-64.0-0.0","""event"",""trial"",""time""
""fullscreenenter"",""0"",""1219""
","
","
","""event"",""trial"",""time""
""fullscreenenter"",""0"",""1219""
","
","1088.5999999642372","","","","","","","","50","0,0,1","6","blank","275","null","0.21810324597246492","0.5406338216806248","0.3867724788810518","0","","","","","","","","",""
"","html-keyboard-response","111","465062","0.0-64.0-1.0","""event"",""trial"",""time""
""fullscreenenter"",""0"",""1219""
","
","
","""event"",""trial"",""time""
""fullscreenenter"",""0"",""1219""
","
","null","<p></p>","null","","","","","","","","","","","","","","","","","","","","","","","",""
"","do_recog","112","468212","0.0-65.0-0.0","""event"",""trial"",""time""
""fullscreenenter"",""0"",""1219""
","
","
","""event"",""trial"",""time""
""fullscreenenter"",""0"",""1219""
","
","1636.8999999761581","","","","","","","","56","","","","276","probe-18","","","","","1","[object Object]","153","3","0","","","",""
"","html-keyboard-response","113","469215","0.0-65.0-1.0","""event"",""trial"",""time""
""fullscreenenter"",""0"",""1219""
","
","
","""event"",""trial"",""time""
""fullscreenenter"",""0"",""1219""
","
","null","<p></p>","null","","","","","","","","","","","","","","","","","","","","","","","",""
"","do_trial","114","472885","0.0-66.0-0.0","""event"",""trial"",""time""
""fullscreenenter"",""0"",""1219""
","
","
","""event"",""trial"",""time""
""fullscreenenter"",""0"",""1219""
","
","1110.5","","","","","","","","50","0,1,0","6","blank","277","null","0.10992311304453725","0.5841628883347537","0.2846572845774804","1","","","","","","","","",""
"","html-keyboard-response","115","473890","0.0-66.0-1.0","""event"",""trial"",""time""
""fullscreenenter"",""0"",""1219""
","
","
","""event"",""trial"",""time""
""fullscreenenter"",""0"",""1219""
","
","null","<p></p>","null","","","","","","","","","","","","","","","","","","","","","","","",""
"","do_trial","116","476844","0.0-67.0-0.0","""event"",""trial"",""time""
""fullscreenenter"",""0"",""1219""
","
","
","""event"",""trial"",""time""
""fullscreenenter"",""0"",""1219""
","
","398.30000001192093","","","","","","","","50","0,0,1","6","blank","278","null","0.09735610830819955","0.6634245378201645","0.24572073494778798","0","","","","","","","","",""
"","html-keyboard-response","117","477850","0.0-67.0-1.0","""event"",""trial"",""time""
""fullscreenenter"",""0"",""1219""
","
","
","""event"",""trial"",""time""
""fullscreenenter"",""0"",""1219""
","
","null","<p></p>","null","","","","","","","","","","","","","","","","","","","","","","","",""
"","do_trial","118","480678","0.0-68.0-0.0","""event"",""trial"",""time""
""fullscreenenter"",""0"",""1219""
","
","
","""event"",""trial"",""time""
""fullscreenenter"",""0"",""1219""
","
","278.19999998807907","","","","","","","","50","0,1,1","6","blank","279","null","0.08811445731665518","0.6816142540145418","0.21947679054316405","1","","","","","","","","",""
"","html-keyboard-response","119","481680","0.0-68.0-1.0","""event"",""trial"",""time""
""fullscreenenter"",""0"",""1219""
","
","
","""event"",""trial"",""time""
""fullscreenenter"",""0"",""1219""
","
","null","<p></p>","null","","","","","","","","","","","","","","","","","","","","","","","",""
"","do_trial","120","484706","0.0-69.0-0.0","""event"",""trial"",""time""
""fullscreenenter"",""0"",""1219""
","
","
","""event"",""trial"",""time""
""fullscreenenter"",""0"",""1219""
","
","471.80000001192093","","","","","","","","50","0,0,0","6","blank","280","null","0.23687280132749763","0.8303125514062987","0.3102226612657777","0","","","","","","","","",""
"","html-keyboard-response","121","485710","0.0-69.0-1.0","""event"",""trial"",""time""
""fullscreenenter"",""0"",""1219""
","
","
","""event"",""trial"",""time""
""fullscreenenter"",""0"",""1219""
","
","null","<p></p>","null","","","","","","","","","","","","","","","","","","","","","","","",""
"","do_trial","122","488683","0.0-70.0-0.0","""event"",""trial"",""time""
""fullscreenenter"",""0"",""1219""
","
","
","""event"",""trial"",""time""
""fullscreenenter"",""0"",""1219""
","
","418.60000002384186","","","","","","","","50","0,0,0","6","blank","281","null","0.20782019161317244","0.7424242063279934","0.1755647230364008","0","","","","","","","","",""
"","html-keyboard-response","123","489688","0.0-70.0-1.0","""event"",""trial"",""time""
""fullscreenenter"",""0"",""1219""
","
","
","""event"",""trial"",""time""
""fullscreenenter"",""0"",""1219""
","
","null","<p></p>","null","","","","","","","","","","","","","","","","","","","","","","","",""
"","do_recog","124","493762","0.0-71.0-0.0","""event"",""trial"",""time""
""fullscreenenter"",""0"",""1219""
","
","
","""event"",""trial"",""time""
""fullscreenenter"",""0"",""1219""
","
","2561.5","","","","","","","","54","","","","282","probe-14","","","","","1","[object Object]","154","3","1","","","",""
"","html-keyboard-response","125","494766","0.0-71.0-1.0","""event"",""trial"",""time""
""fullscreenenter"",""0"",""1219""
","
","
","""event"",""trial"",""time""
""fullscreenenter"",""0"",""1219""
","
","null","<p></p>","null","","","","","","","","","","","","","","","","","","","","","","","",""
"","do_trial","126","497740","0.0-72.0-0.0","""event"",""trial"",""time""
""fullscreenenter"",""0"",""1219""
","
","
","""event"",""trial"",""time""
""fullscreenenter"",""0"",""1219""
","
","420.89999997615814","","","","","","","","50","0,1,0","6","blank","283","null","0.08651983952871327","0.7073574838741672","0.2896134657045348","1","","","","","","","","",""
"","html-keyboard-response","127","498745","0.0-72.0-1.0","""event"",""trial"",""time""
""fullscreenenter"",""0"",""1219""
","
","
","""event"",""trial"",""time""
""fullscreenenter"",""0"",""1219""
","
","null","<p></p>","null","","","","","","","","","","","","","","","","","","","","","","","",""
"","do_recog","128","502162","0.0-73.0-0.0","""event"",""trial"",""time""
""fullscreenenter"",""0"",""1219""
","
","
","""event"",""trial"",""time""
""fullscreenenter"",""0"",""1219""
","
","1904.5999999642372","","","","","","","","54","","","","284","probe-48","","","","","1","[object Object]","35","0","1","","","",""
"","html-keyboard-response","129","503166","0.0-73.0-1.0","""event"",""trial"",""time""
""fullscreenenter"",""0"",""1219""
","
","
","""event"",""trial"",""time""
""fullscreenenter"",""0"",""1219""
","
","null","<p></p>","null","","","","","","","","","","","","","","","","","","","","","","","",""
"","do_trial","130","507551","0.0-74.0-0.0","""event"",""trial"",""time""
""fullscreenenter"",""0"",""1219""
","
","
","""event"",""trial"",""time""
""fullscreenenter"",""0"",""1219""
","
","1839.5","","","","","","","","50","1,1,0","6","blank","285","null","0.13849880575807302","0.592382847420268","0.19969171964957022","1","","","","","","","","",""
"","html-keyboard-response","131","508556","0.0-74.0-1.0","""event"",""trial"",""time""
""fullscreenenter"",""0"",""1219""
","
","
","""event"",""trial"",""time""
""fullscreenenter"",""0"",""1219""
","
","null","<p></p>","null","","","","","","","","","","","","","","","","","","","","","","","",""
"","do_recog","132","511866","0.0-75.0-0.0","""event"",""trial"",""time""
""fullscreenenter"",""0"",""1219""
","
","
","""event"",""trial"",""time""
""fullscreenenter"",""0"",""1219""
","
","1801.8999999761581","","","","","","","","55","","","","286","probe-144","","","","","1","[object Object]","152","3","0","","","",""
"","html-keyboard-response","133","512871","0.0-75.0-1.0","""event"",""trial"",""time""
""fullscreenenter"",""0"",""1219""
","
","
","""event"",""trial"",""time""
""fullscreenenter"",""0"",""1219""
","
","null","<p></p>","null","","","","","","","","","","","","","","","","","","","","","","","",""
"","do_trial","134","515965","0.0-76.0-0.0","""event"",""trial"",""time""
""fullscreenenter"",""0"",""1219""
","
","
","""event"",""trial"",""time""
""fullscreenenter"",""0"",""1219""
","
","544","","","","","","","","50","1,1,1","6","blank","287","null","0.26791813212434795","0.6846685828284814","0.22171489488496346","1","","","","","","","","",""
"","html-keyboard-response","135","516967","0.0-76.0-1.0","""event"",""trial"",""time""
""fullscreenenter"",""0"",""1219""
","
","
","""event"",""trial"",""time""
""fullscreenenter"",""0"",""1219""
","
","null","<p></p>","null","","","","","","","","","","","","","","","","","","","","","","","",""
"","do_trial","136","520034","0.0-77.0-0.0","""event"",""trial"",""time""
""fullscreenenter"",""0"",""1219""
","
","
","""event"",""trial"",""time""
""fullscreenenter"",""0"",""1219""
","
","505.69999998807907","","","","","","","","50","0,0,0","6","blank","288","null","0.30251845576210995","0.7441828733081337","0.3558285726363144","0","","","","","","","","",""
"","html-keyboard-response","137","521039","0.0-77.0-1.0","""event"",""trial"",""time""
""fullscreenenter"",""0"",""1219""
","
","
","""event"",""trial"",""time""
""fullscreenenter"",""0"",""1219""
","
","null","<p></p>","null","","","","","","","","","","","","","","","","","","","","","","","",""
"","do_trial","138","524029","0.0-78.0-0.0","""event"",""trial"",""time""
""fullscreenenter"",""0"",""1219""
","
","
","""event"",""trial"",""time""
""fullscreenenter"",""0"",""1219""
","
","438.89999997615814","","","","","","","","50","0,0,0","6","blank","289","null","0.17642572772298834","0.5667025574736345","0.15849389501337904","0","","","","","","","","",""
"","html-keyboard-response","139","525034","0.0-78.0-1.0","""event"",""trial"",""time""
""fullscreenenter"",""0"",""1219""
","
","
","""event"",""trial"",""time""
""fullscreenenter"",""0"",""1219""
","
","null","<p></p>","null","","","","","","","","","","","","","","","","","","","","","","","",""
"","do_trial","140","527860","0.0-79.0-0.0","""event"",""trial"",""time""
""fullscreenenter"",""0"",""1219""
","
","
","""event"",""trial"",""time""
""fullscreenenter"",""0"",""1219""
","
","275.0999999642372","","","","","","","","50","0,0,1","6","blank","290","null","0.06692378582889941","0.5618755959203616","0.19308634182353576","0","","","","","","","","",""
"","html-keyboard-response","141","528865","0.0-79.0-1.0","""event"",""trial"",""time""
""fullscreenenter"",""0"",""1219""
","
","
","""event"",""trial"",""time""
""fullscreenenter"",""0"",""1219""
","
","null","<p></p>","null","","","","","","","","","","","","","","","","","","","","","","","",""
"","do_trial","142","531846","0.0-80.0-0.0","""event"",""trial"",""time""
""fullscreenenter"",""0"",""1219""
","
","
","""event"",""trial"",""time""
""fullscreenenter"",""0"",""1219""
","
","430.19999998807907","","","","","","","","50","0,0,0","6","blank","291","null","0.06492021299497094","0.6159638406238227","0.29577928293396694","0","","","","","","","","",""
"","html-keyboard-response","143","532849","0.0-80.0-1.0","""event"",""trial"",""time""
""fullscreenenter"",""0"",""1219""
","
","
","""event"",""trial"",""time""
""fullscreenenter"",""0"",""1219""
","
","null","<p></p>","null","","","","","","","","","","","","","","","","","","","","","","","",""
"","do_trial","144","535752","0.0-81.0-0.0","""event"",""trial"",""time""
""fullscreenenter"",""0"",""1219""
","
","
","""event"",""trial"",""time""
""fullscreenenter"",""0"",""1219""
","
","351.69999998807907","","","","","","","","50","0,1,0","6","blank","292","null","0.11716370954303047","0.6555596572125423","0.29770091127764897","1","","","","","","","","",""
"","html-keyboard-response","145","536756","0.0-81.0-1.0","""event"",""trial"",""time""
""fullscreenenter"",""0"",""1219""
","
","
","""event"",""trial"",""time""
""fullscreenenter"",""0"",""1219""
","
","null","<p></p>","null","","","","","","","","","","","","","","","","","","","","","","","",""
"","do_trial","146","539927","0.0-82.0-0.0","""event"",""trial"",""time""
""fullscreenenter"",""0"",""1219""
","
","
","""event"",""trial"",""time""
""fullscreenenter"",""0"",""1219""
","
","620","","","","","","","","50","0,1,1","6","blank","293","null","0.13545285212679653","0.5699434116561325","0.4724808504680798","1","","","","","","","","",""
"","html-keyboard-response","147","540932","0.0-82.0-1.0","""event"",""trial"",""time""
""fullscreenenter"",""0"",""1219""
","
","
","""event"",""trial"",""time""
""fullscreenenter"",""0"",""1219""
","
","null","<p></p>","null","","","","","","","","","","","","","","","","","","","","","","","",""
"","do_recog","148","544662","0.0-83.0-0.0","""event"",""trial"",""time""
""fullscreenenter"",""0"",""1219""
","
","
","""event"",""trial"",""time""
""fullscreenenter"",""0"",""1219""
","
","2223.100000023842","","","","","","","","55","","","","294","probe-127","","","","","1","[object Object]","115","2","0","","","",""
"","html-keyboard-response","149","545667","0.0-83.0-1.0","""event"",""trial"",""time""
""fullscreenenter"",""0"",""1219""
","
","
","""event"",""trial"",""time""
""fullscreenenter"",""0"",""1219""
","
","null","<p></p>","null","","","","","","","","","","","","","","","","","","","","","","","",""
"","do_trial","150","548775","0.0-84.0-0.0","""event"",""trial"",""time""
""fullscreenenter"",""0"",""1219""
","
","
","""event"",""trial"",""time""
""fullscreenenter"",""0"",""1219""
","
","550.5","","","","","","","","50","1,0,0","6","blank","295","null","0.12476533203371962","0.3763643139937516","0.5894005026749747","0","","","","","","","","",""
"","html-keyboard-response","151","549780","0.0-84.0-1.0","""event"",""trial"",""time""
""fullscreenenter"",""0"",""1219""
","
","
","""event"",""trial"",""time""
""fullscreenenter"",""0"",""1219""
","
","null","<p></p>","null","","","","","","","","","","","","","","","","","","","","","","","",""
"","do_recog","152","552823","0.0-85.0-0.0","""event"",""trial"",""time""
""fullscreenenter"",""0"",""1219""
","
","
","""event"",""trial"",""time""
""fullscreenenter"",""0"",""1219""
","
","1530.4000000357628","","","","","","","","54","","","","296","probe-68","","","","","1","[object Object]","113","2","1","","","",""
"","html-keyboard-response","153","553828","0.0-85.0-1.0","""event"",""trial"",""time""
""fullscreenenter"",""0"",""1219""
","
","
","""event"",""trial"",""time""
""fullscreenenter"",""0"",""1219""
","
","null","<p></p>","null","","","","","","","","","","","","","","","","","","","","","","","",""
"","do_trial","154","557205","0.0-86.0-0.0","""event"",""trial"",""time""
""fullscreenenter"",""0"",""1219""
","
","
","""event"",""trial"",""time""
""fullscreenenter"",""0"",""1219""
","
","820.5","","","","","","","","50","0,1,0","6","blank","297","null","0.0704366177200013","0.3086864918079045","0.6337084225245738","1","","","","","","","","",""
"","html-keyboard-response","155","558210","0.0-86.0-1.0","""event"",""trial"",""time""
""fullscreenenter"",""0"",""1219""
","
","
","""event"",""trial"",""time""
""fullscreenenter"",""0"",""1219""
","
","null","<p></p>","null","","","","","","","","","","","","","","","","","","","","","","","",""
"","do_trial","156","561058","0.0-87.0-0.0","""event"",""trial"",""time""
""fullscreenenter"",""0"",""1219""
","
","
","""event"",""trial"",""time""
""fullscreenenter"",""0"",""1219""
","
","291.89999997615814","","","","","","","","50","0,0,1","6","blank","298","null","0.05743773970476968","0.42437575285705614","0.7567706797695458","0","","","","","","","","",""
"","html-keyboard-response","157","562062","0.0-87.0-1.0","""event"",""trial"",""time""
""fullscreenenter"",""0"",""1219""
","
","
","""event"",""trial"",""time""
""fullscreenenter"",""0"",""1219""
","
","null","<p></p>","null","","","","","","","","","","","","","","","","","","","","","","","",""
"","do_recog","158","565040","0.0-88.0-0.0","""event"",""trial"",""time""
""fullscreenenter"",""0"",""1219""
","
","
","""event"",""trial"",""time""
""fullscreenenter"",""0"",""1219""
","
","1465.6000000238419","","","","","","","","53","","","","299","probe-49","","","","","1","[object Object]","32","0","1","","","",""
"","html-keyboard-response","159","566045","0.0-88.0-1.0","""event"",""trial"",""time""
""fullscreenenter"",""0"",""1219""
","
","
","""event"",""trial"",""time""
""fullscreenenter"",""0"",""1219""
","
","null","<p></p>","null","","","","","","","","","","","","","","","","","","","","","","","",""
"","do_trial","160","569391","0.0-89.0-0.0","""event"",""trial"",""time""
""fullscreenenter"",""0"",""1219""
","
","
","""event"",""trial"",""time""
""fullscreenenter"",""0"",""1219""
","
","791.3999999761581","","","","","","","","50","0,0,1","6","blank","300","null","0.10327550343860781","0.3625091228583386","0.8310792195858778","0","","","","","","","","",""
"","html-keyboard-response","161","570395","0.0-89.0-1.0","""event"",""trial"",""time""
""fullscreenenter"",""0"",""1219""
","
","
","""event"",""trial"",""time""
""fullscreenenter"",""0"",""1219""
","
","null","<p></p>","null","","","","","","","","","","","","","","","","","","","","","","","",""
"","do_trial","162","573373","0.0-90.0-0.0","""event"",""trial"",""time""
""fullscreenenter"",""0"",""1219""
","
","
","""event"",""trial"",""time""
""fullscreenenter"",""0"",""1219""
","
","414.69999998807907","","","","","","","","50","0,1,1","6","blank","301","null","0.1233879468761175","0.42797033718266375","0.7599594042479276","1","","","","","","","","",""
"","html-keyboard-response","163","574377","0.0-90.0-1.0","""event"",""trial"",""time""
""fullscreenenter"",""0"",""1219""
","
","
","""event"",""trial"",""time""
""fullscreenenter"",""0"",""1219""
","
","null","<p></p>","null","","","","","","","","","","","","","","","","","","","","","","","",""
"","do_trial","164","577333","0.0-91.0-0.0","""event"",""trial"",""time""
""fullscreenenter"",""0"",""1219""
","
","
","""event"",""trial"",""time""
""fullscreenenter"",""0"",""1219""
","
","403.5","","","","","","","","50","0,1,0","6","blank","302","null","0.08233505214690393","0.442447878294483","0.5995003601385014","1","","","","","","","","",""
"","html-keyboard-response","165","578338","0.0-91.0-1.0","""event"",""trial"",""time""
""fullscreenenter"",""0"",""1219""
","
","
","""event"",""trial"",""time""
""fullscreenenter"",""0"",""1219""
","
","null","<p></p>","null","","","","","","","","","","","","","","","","","","","","","","","",""
"","do_trial","166","581392","0.0-92.0-0.0","""event"",""trial"",""time""
""fullscreenenter"",""0"",""1219""
","
","
","""event"",""trial"",""time""
""fullscreenenter"",""0"",""1219""
","
","505.9000000357628","","","","","","","","50","0,0,1","6","blank","303","null","0.061959226361898496","0.29700587447486776","0.7260363234454519","0","","","","","","","","",""
"","html-keyboard-response","167","582397","0.0-92.0-1.0","""event"",""trial"",""time""
""fullscreenenter"",""0"",""1219""
","
","
","""event"",""trial"",""time""
""fullscreenenter"",""0"",""1219""
","
","null","<p></p>","null","","","","","","","","","","","","","","","","","","","","","","","",""
"","do_trial","168","585304","0.0-93.0-0.0","""event"",""trial"",""time""
""fullscreenenter"",""0"",""1219""
","
","
","""event"",""trial"",""time""
""fullscreenenter"",""0"",""1219""
","
","355.80000001192093","","","","","","","","50","0,0,1","6","blank","304","null","0.07037607064154353","0.3424703630435733","0.7469364470475631","0","","","","","","","","",""
"","html-keyboard-response","169","586308","0.0-93.0-1.0","""event"",""trial"",""time""
""fullscreenenter"",""0"",""1219""
","
","
","""event"",""trial"",""time""
""fullscreenenter"",""0"",""1219""
","
","null","<p></p>","null","","","","","","","","","","","","","","","","","","","","","","","",""
"","do_recog","170","589412","0.0-94.0-0.0","""event"",""trial"",""time""
""fullscreenenter"",""0"",""1219""
","
","
","""event"",""trial"",""time""
""fullscreenenter"",""0"",""1219""
","
","1592.4000000357628","","","","","","","","55","","","","305","probe-160","","","","","1","[object Object]","36","0","0","","","",""
"","html-keyboard-response","171","590416","0.0-94.0-1.0","""event"",""trial"",""time""
""fullscreenenter"",""0"",""1219""
","
","
","""event"",""trial"",""time""
""fullscreenenter"",""0"",""1219""
","
","null","<p></p>","null","","","","","","","","","","","","","","","","","","","","","","","",""
"","do_trial","172","593416","0.0-95.0-0.0","""event"",""trial"",""time""
""fullscreenenter"",""0"",""1219""
","
","
","""event"",""trial"",""time""
""fullscreenenter"",""0"",""1219""
","
","451.10000002384186","","","","","","","","50","0,1,0","6","blank","306","null","0.13626462655856783","0.36169460901154826","0.5686096988945808","1","","","","","","","","",""
"","html-keyboard-response","173","594420","0.0-95.0-1.0","""event"",""trial"",""time""
""fullscreenenter"",""0"",""1219""
","
","
","""event"",""trial"",""time""
""fullscreenenter"",""0"",""1219""
","
","null","<p></p>","null","","","","","","","","","","","","","","","","","","","","","","","",""
"","do_trial","174","597298","0.0-96.0-0.0","""event"",""trial"",""time""
""fullscreenenter"",""0"",""1219""
","
","
","""event"",""trial"",""time""
""fullscreenenter"",""0"",""1219""
","
","326.5","","","","","","","","50","0,1,1","6","blank","307","null","0.13411344675629672","0.28201903389873517","0.6530288351212613","1","","","","","","","","",""
"","html-keyboard-response","175","598303","0.0-96.0-1.0","""event"",""trial"",""time""
""fullscreenenter"",""0"",""1219""
","
","
","""event"",""trial"",""time""
""fullscreenenter"",""0"",""1219""
","
","null","<p></p>","null","","","","","","","","","","","","","","","","","","","","","","","",""
"","do_trial","176","600908","0.0-97.0-0.0","""event"",""trial"",""time""
""fullscreenenter"",""0"",""1219""
","
","
","""event"",""trial"",""time""
""fullscreenenter"",""0"",""1219""
","
","54","","","","","","","","50","1,1,0","6","blank","308","null","0.0899185749327262","0.3263016784922243","0.47016123158990064","1","","","","","","","","",""
"","html-keyboard-response","177","601913","0.0-97.0-1.0","""event"",""trial"",""time""
""fullscreenenter"",""0"",""1219""
","
","
","""event"",""trial"",""time""
""fullscreenenter"",""0"",""1219""
","
","null","<p></p>","null","","","","","","","","","","","","","","","","","","","","","","","",""
"","break","178","656114","0.0-98.0-0.0","""event"",""trial"",""time""
""fullscreenenter"",""0"",""1219""
","
","
","""event"",""trial"",""time""
""fullscreenenter"",""0"",""1219""
","
","54198","<div class='center'><p>Time to take a quick break! You have 2 minutes to rest, but you can move on sooner if you'd like.</p><p> Press the <b>space bar</b> to continue.</p></div>","32","","","","","","","","","","","","","","","","","","","","","","","",""
"","do_trial","179","659531","0.0-98.0-1.0","""event"",""trial"",""time""
""fullscreenenter"",""0"",""1219""
","
","
","""event"",""trial"",""time""
""fullscreenenter"",""0"",""1219""
","
","862.5","","","","","","","","50","0,0,1","6","blank","309","null","0.16202532358345287","0.2912042627222271","0.3862560324094521","0","","","","","","","","",""
"","html-keyboard-response","180","660535","0.0-98.0-2.0","""event"",""trial"",""time""
""fullscreenenter"",""0"",""1219""
","
","
","""event"",""trial"",""time""
""fullscreenenter"",""0"",""1219""
","
","null","<p></p>","null","","","","","","","","","","","","","","","","","","","","","","","",""
"","do_recog","181","663728","0.0-99.0-0.0","""event"",""trial"",""time""
""fullscreenenter"",""0"",""1219""
","
","
","""event"",""trial"",""time""
""fullscreenenter"",""0"",""1219""
","
","1684.3999999761581","","","","","","","","55","","","","310","probe-243","","","","","0","[object Object]","null","null","1","","","",""
"","html-keyboard-response","182","664731","0.0-99.0-1.0","""event"",""trial"",""time""
""fullscreenenter"",""0"",""1219""
","
","
","""event"",""trial"",""time""
""fullscreenenter"",""0"",""1219""
","
","null","<p></p>","null","","","","","","","","","","","","","","","","","","","","","","","",""
"","do_trial","183","667765","0.0-100.0-0.0","""event"",""trial"",""time""
""fullscreenenter"",""0"",""1219""
","
","
","""event"",""trial"",""time""
""fullscreenenter"",""0"",""1219""
","
","469.10000002384186","","","","","","","","50","0,1,1","6","blank","311","null","0.09542235316537999","0.2991185652965357","0.49071526655282177","1","","","","","","","","",""
"","html-keyboard-response","184","668769","0.0-100.0-1.0","""event"",""trial"",""time""
""fullscreenenter"",""0"",""1219""
","
","
","""event"",""trial"",""time""
""fullscreenenter"",""0"",""1219""
","
","null","<p></p>","null","","","","","","","","","","","","","","","","","","","","","","","",""
"","do_trial","185","671655","0.0-101.0-0.0","""event"",""trial"",""time""
""fullscreenenter"",""0"",""1219""
","
","
","""event"",""trial"",""time""
""fullscreenenter"",""0"",""1219""
","
","323","","","","","","","","50","0,0,1","6","blank","312","null","0.10216138042508108","0.25620058931575007","0.5737542570462815","0","","","","","","","","",""
"","html-keyboard-response","186","672660","0.0-101.0-1.0","""event"",""trial"",""time""
""fullscreenenter"",""0"",""1219""
","
","
","""event"",""trial"",""time""
""fullscreenenter"",""0"",""1219""
","
","null","<p></p>","null","","","","","","","","","","","","","","","","","","","","","","","",""
"","do_trial","187","675474","0.0-102.0-0.0","""event"",""trial"",""time""
""fullscreenenter"",""0"",""1219""
","
","
","""event"",""trial"",""time""
""fullscreenenter"",""0"",""1219""
","
","259.4000000357628","","","","","","","","50","0,0,1","6","blank","313","null","0.14252669537573673","0.3588288286197816","0.625492164596864","0","","","","","","","","",""
"","html-keyboard-response","188","676478","0.0-102.0-1.0","""event"",""trial"",""time""
""fullscreenenter"",""0"",""1219""
","
","
","""event"",""trial"",""time""
""fullscreenenter"",""0"",""1219""
","
","null","<p></p>","null","","","","","","","","","","","","","","","","","","","","","","","",""
"","do_recog","189","679452","0.0-103.0-0.0","""event"",""trial"",""time""
""fullscreenenter"",""0"",""1219""
","
","
","""event"",""trial"",""time""
""fullscreenenter"",""0"",""1219""
","
","1461.1000000238419","","","","","","","","55","","","","314","probe-71","","","","","1","[object Object]","39","0","0","","","",""
"","html-keyboard-response","190","680457","0.0-103.0-1.0","""event"",""trial"",""time""
""fullscreenenter"",""0"",""1219""
","
","
","""event"",""trial"",""time""
""fullscreenenter"",""0"",""1219""
","
","null","<p></p>","null","","","","","","","","","","","","","","","","","","","","","","","",""
"","do_trial","191","683586","0.0-104.0-0.0","""event"",""trial"",""time""
""fullscreenenter"",""0"",""1219""
","
","
","""event"",""trial"",""time""
""fullscreenenter"",""0"",""1219""
","
","573.7000000476837","","","","","","","","50","0,0,1","6","blank","315","null","0.10695829516702311","0.2810615756684156","0.5523452272021304","0","","","","","","","","",""
"","html-keyboard-response","192","684591","0.0-104.0-1.0","""event"",""trial"",""time""
""fullscreenenter"",""0"",""1219""
","
","
","""event"",""trial"",""time""
""fullscreenenter"",""0"",""1219""
","
","null","<p></p>","null","","","","","","","","","","","","","","","","","","","","","","","",""
"","do_trial","193","687576","0.0-105.0-0.0","""event"",""trial"",""time""
""fullscreenenter"",""0"",""1219""
","
","
","""event"",""trial"",""time""
""fullscreenenter"",""0"",""1219""
","
","431.69999998807907","","","","","","","","50","0,1,0","6","blank","316","null","0.11951382166928612","0.4563477655382576","0.49262132285971966","1","","","","","","","","",""
"","html-keyboard-response","194","688580","0.0-105.0-1.0","""event"",""trial"",""time""
""fullscreenenter"",""0"",""1219""
","
","
","""event"",""trial"",""time""
""fullscreenenter"",""0"",""1219""
","
","null","<p></p>","null","","","","","","","","","","","","","","","","","","","","","","","",""
"","do_trial","195","691606","0.0-106.0-0.0","""event"",""trial"",""time""
""fullscreenenter"",""0"",""1219""
","
","
","""event"",""trial"",""time""
""fullscreenenter"",""0"",""1219""
","
","479.0999999642372","","","","","","","","50","0,0,0","6","blank","317","null","0.05740927339696917","0.38906359098756815","0.42813189817399433","0","","","","","","","","",""
"","html-keyboard-response","196","692610","0.0-106.0-1.0","""event"",""trial"",""time""
""fullscreenenter"",""0"",""1219""
","
","
","""event"",""trial"",""time""
""fullscreenenter"",""0"",""1219""
","
","null","<p></p>","null","","","","","","","","","","","","","","","","","","","","","","","",""
"","do_recog","197","696028","0.0-107.0-0.0","""event"",""trial"",""time""
""fullscreenenter"",""0"",""1219""
","
","
","""event"",""trial"",""time""
""fullscreenenter"",""0"",""1219""
","
","1905.199999988079","","","","","","","","53","","","","318","probe-136","","","","","1","[object Object]","116","2","1","","","",""
"","html-keyboard-response","198","697033","0.0-107.0-1.0","""event"",""trial"",""time""
""fullscreenenter"",""0"",""1219""
","
","
","""event"",""trial"",""time""
""fullscreenenter"",""0"",""1219""
","
","null","<p></p>","null","","","","","","","","","","","","","","","","","","","","","","","",""
"","do_trial","199","699949","0.0-108.0-0.0","""event"",""trial"",""time""
""fullscreenenter"",""0"",""1219""
","
","
","""event"",""trial"",""time""
""fullscreenenter"",""0"",""1219""
","
","360","","","","","","","","50","0,1,0","6","blank","319","null","0.10964605838334894","0.43439576280772285","0.549408480300539","1","","","","","","","","",""
"","html-keyboard-response","200","700954","0.0-108.0-1.0","""event"",""trial"",""time""
""fullscreenenter"",""0"",""1219""
","
","
","""event"",""trial"",""time""
""fullscreenenter"",""0"",""1219""
","
","null","<p></p>","null","","","","","","","","","","","","","","","","","","","","","","","",""
"","do_trial","201","703855","0.0-109.0-0.0","""event"",""trial"",""time""
""fullscreenenter"",""0"",""1219""
","
","
","""event"",""trial"",""time""
""fullscreenenter"",""0"",""1219""
","
","350.10000002384186","","","","","","","","50","1,0,1","6","blank","320","null","0.10830980577838782","0.45282704424703085","0.4782032199818467","0","","","","","","","","",""
"","html-keyboard-response","202","704859","0.0-109.0-1.0","""event"",""trial"",""time""
""fullscreenenter"",""0"",""1219""
","
","
","""event"",""trial"",""time""
""fullscreenenter"",""0"",""1219""
","
","null","<p></p>","null","","","","","","","","","","","","","","","","","","","","","","","",""
"","do_recog","203","707836","0.0-110.0-0.0","""event"",""trial"",""time""
""fullscreenenter"",""0"",""1219""
","
","
","""event"",""trial"",""time""
""fullscreenenter"",""0"",""1219""
","
","1468.699999988079","","","","","","","","55","","","","321","probe-105","","","","","1","[object Object]","72","1","0","","","",""
"","html-keyboard-response","204","708841","0.0-110.0-1.0","""event"",""trial"",""time""
""fullscreenenter"",""0"",""1219""
","
","
","""event"",""trial"",""time""
""fullscreenenter"",""0"",""1219""
","
","null","<p></p>","null","","","","","","","","","","","","","","","","","","","","","","","",""
"","do_trial","205","712476","0.0-111.0-0.0","""event"",""trial"",""time""
""fullscreenenter"",""0"",""1219""
","
","
","""event"",""trial"",""time""
""fullscreenenter"",""0"",""1219""
","
","1081.800000011921","","","","","","","","51","0,0,1","6","blank","322","null","0.05393855669745011","0.45110742987747626","0.6717536190011002","1","","","","","","","","",""
"","html-keyboard-response","206","713480","0.0-111.0-1.0","""event"",""trial"",""time""
""fullscreenenter"",""0"",""1219""
","
","
","""event"",""trial"",""time""
""fullscreenenter"",""0"",""1219""
","
","null","<p></p>","null","","","","","","","","","","","","","","","","","","","","","","","",""
"","do_recog","207","716525","0.0-112.0-0.0","""event"",""trial"",""time""
""fullscreenenter"",""0"",""1219""
","
","
","""event"",""trial"",""time""
""fullscreenenter"",""0"",""1219""
","
","1532.2000000476837","","","","","","","","53","","","","323","probe-247","","","","","0","[object Object]","null","null","0","","","",""
"","html-keyboard-response","208","717529","0.0-112.0-1.0","""event"",""trial"",""time""
""fullscreenenter"",""0"",""1219""
","
","
","""event"",""trial"",""time""
""fullscreenenter"",""0"",""1219""
","
","null","<p></p>","null","","","","","","","","","","","","","","","","","","","","","","","",""
"","do_trial","209","720725","0.0-113.0-0.0","""event"",""trial"",""time""
""fullscreenenter"",""0"",""1219""
","
","
","""event"",""trial"",""time""
""fullscreenenter"",""0"",""1219""
","
","644.6000000238419","","","","","","","","51","1,0,0","6","blank","324","null","0.08776316443800002","0.5433088662322281","0.7145336074051953","0","","","","","","","","",""
"","html-keyboard-response","210","721730","0.0-113.0-1.0","""event"",""trial"",""time""
""fullscreenenter"",""0"",""1219""
","
","
","""event"",""trial"",""time""
""fullscreenenter"",""0"",""1219""
","
","null","<p></p>","null","","","","","","","","","","","","","","","","","","","","","","","",""
"","do_trial","211","724521","0.0-114.0-0.0","""event"",""trial"",""time""
""fullscreenenter"",""0"",""1219""
","
","
","""event"",""trial"",""time""
""fullscreenenter"",""0"",""1219""
","
","222.19999998807907","","","","","","","","51","0,0,1","6","blank","325","null","0.24375665955316728","0.5622131415622083","0.661443906532831","1","","","","","","","","",""
"","html-keyboard-response","212","725526","0.0-114.0-1.0","""event"",""trial"",""time""
""fullscreenenter"",""0"",""1219""
","
","
","""event"",""trial"",""time""
""fullscreenenter"",""0"",""1219""
","
","null","<p></p>","null","","","","","","","","","","","","","","","","","","","","","","","",""
"","do_trial","213","728375","0.0-115.0-0.0","""event"",""trial"",""time""
""fullscreenenter"",""0"",""1219""
","
","
","""event"",""trial"",""time""
""fullscreenenter"",""0"",""1219""
","
","291.89999997615814","","","","","","","","51","0,0,0","6","blank","326","null","0.16256709197557023","0.3633792647341557","0.5814793086071971","0","","","","","","","","",""
"","html-keyboard-response","214","729380","0.0-115.0-1.0","""event"",""trial"",""time""
""fullscreenenter"",""0"",""1219""
","
","
","""event"",""trial"",""time""
""fullscreenenter"",""0"",""1219""
","
","null","<p></p>","null","","","","","","","","","","","","","","","","","","","","","","","",""
"","do_trial","215","732311","0.0-116.0-0.0","""event"",""trial"",""time""
""fullscreenenter"",""0"",""1219""
","
","
","""event"",""trial"",""time""
""fullscreenenter"",""0"",""1219""
","
","372.5","","","","","","","","51","0,1,0","6","blank","327","null","0.20450567960282973","0.2962367174211418","0.5305524467881856","0","","","","","","","","",""
"","html-keyboard-response","216","733316","0.0-116.0-1.0","""event"",""trial"",""time""
""fullscreenenter"",""0"",""1219""
","
","
","""event"",""trial"",""time""
""fullscreenenter"",""0"",""1219""
","
","null","<p></p>","null","","","","","","","","","","","","","","","","","","","","","","","",""
"","do_trial","217","735918","0.0-117.0-0.0","""event"",""trial"",""time""
""fullscreenenter"",""0"",""1219""
","
","
","""event"",""trial"",""time""
""fullscreenenter"",""0"",""1219""
","
","50.700000047683716","","","","","","","","51","0,0,0","6","blank","328","null","0.1715991364247252","0.3046959630458071","0.5021090882471394","0","","","","","","","","",""
"","html-keyboard-response","218","736922","0.0-117.0-1.0","""event"",""trial"",""time""
""fullscreenenter"",""0"",""1219""
","
","
","""event"",""trial"",""time""
""fullscreenenter"",""0"",""1219""
","
","null","<p></p>","null","","","","","","","","","","","","","","","","","","","","","","","",""
"","do_trial","219","739818","0.0-118.0-0.0","""event"",""trial"",""time""
""fullscreenenter"",""0"",""1219""
","
","
","""event"",""trial"",""time""
""fullscreenenter"",""0"",""1219""
","
","344.39999997615814","","","","","","","","50","1,1,0","6","blank","329","null","0.18978951869427532","0.4926785288855048","0.46317745444275465","1","","","","","","","","",""
"","html-keyboard-response","220","740822","0.0-118.0-1.0","""event"",""trial"",""time""
""fullscreenenter"",""0"",""1219""
","
","
","""event"",""trial"",""time""
""fullscreenenter"",""0"",""1219""
","
","null","<p></p>","null","","","","","","","","","","","","","","","","","","","","","","","",""
"","do_recog","221","743324","0.0-119.0-0.0","""event"",""trial"",""time""
""fullscreenenter"",""0"",""1219""
","
","
","""event"",""trial"",""time""
""fullscreenenter"",""0"",""1219""
","
","992.8000000119209","","","","","","","","53","","","","330","probe-21","","","","","1","[object Object]","74","1","1","","","",""
"","html-keyboard-response","222","744329","0.0-119.0-1.0","""event"",""trial"",""time""
""fullscreenenter"",""0"",""1219""
","
","
","""event"",""trial"",""time""
""fullscreenenter"",""0"",""1219""
","
","null","<p></p>","null","","","","","","","","","","","","","","","","","","","","","","","",""
"","do_trial","223","747212","0.0-120.0-0.0","""event"",""trial"",""time""
""fullscreenenter"",""0"",""1219""
","
","
","""event"",""trial"",""time""
""fullscreenenter"",""0"",""1219""
","
","325.39999997615814","","","","","","","","50","0,0,0","6","blank","331","null","0.1877390467110498","0.37697265542079783","0.4331426715106632","0","","","","","","","","",""
"","html-keyboard-response","224","748216","0.0-120.0-1.0","""event"",""trial"",""time""
""fullscreenenter"",""0"",""1219""
","
","
","""event"",""trial"",""time""
""fullscreenenter"",""0"",""1219""
","
","null","<p></p>","null","","","","","","","","","","","","","","","","","","","","","","","",""
"","do_trial","225","750983","0.0-121.0-0.0","""event"",""trial"",""time""
""fullscreenenter"",""0"",""1219""
","
","
","""event"",""trial"",""time""
""fullscreenenter"",""0"",""1219""
","
","218.69999998807907","","","","","","","","51","0,0,0","6","blank","332","null","0.22610938341348544","0.35881859914310676","0.5214679314732981","0","","","","","","","","",""
"","html-keyboard-response","226","751988","0.0-121.0-1.0","""event"",""trial"",""time""
""fullscreenenter"",""0"",""1219""
","
","
","""event"",""trial"",""time""
""fullscreenenter"",""0"",""1219""
","
","null","<p></p>","null","","","","","","","","","","","","","","","","","","","","","","","",""
"","do_trial","227","754809","0.0-122.0-0.0","""event"",""trial"",""time""
""fullscreenenter"",""0"",""1219""
","
","
","""event"",""trial"",""time""
""fullscreenenter"",""0"",""1219""
","
","271","","","","","","","","50","0,0,1","6","blank","333","null","0.29869355815857224","0.24585780187105663","0.684605222048875","0","","","","","","","","",""
"","html-keyboard-response","228","755814","0.0-122.0-1.0","""event"",""trial"",""time""
""fullscreenenter"",""0"",""1219""
","
","
","""event"",""trial"",""time""
""fullscreenenter"",""0"",""1219""
","
","null","<p></p>","null","","","","","","","","","","","","","","","","","","","","","","","",""
"","do_trial","229","758884","0.0-123.0-0.0","""event"",""trial"",""time""
""fullscreenenter"",""0"",""1219""
","
","
","""event"",""trial"",""time""
""fullscreenenter"",""0"",""1219""
","
","520.4000000357628","","","","","","","","50","0,0,1","6","blank","334","null","0.13309025762775034","0.2929376368758301","0.6628125656679879","0","","","","","","","","",""
"","html-keyboard-response","230","759888","0.0-123.0-1.0","""event"",""trial"",""time""
""fullscreenenter"",""0"",""1219""
","
","
","""event"",""trial"",""time""
""fullscreenenter"",""0"",""1219""
","
","null","<p></p>","null","","","","","","","","","","","","","","","","","","","","","","","",""
"","do_recog","231","762943","0.0-124.0-0.0","""event"",""trial"",""time""
""fullscreenenter"",""0"",""1219""
","
","
","""event"",""trial"",""time""
""fullscreenenter"",""0"",""1219""
","
","1545","","","","","","","","55","","","","335","probe-233","","","","","0","[object Object]","null","null","1","","","",""
"","html-keyboard-response","232","763948","0.0-124.0-1.0","""event"",""trial"",""time""
""fullscreenenter"",""0"",""1219""
","
","
","""event"",""trial"",""time""
""fullscreenenter"",""0"",""1219""
","
","null","<p></p>","null","","","","","","","","","","","","","","","","","","","","","","","",""
"","do_trial","233","767190","0.0-125.0-0.0","""event"",""trial"",""time""
""fullscreenenter"",""0"",""1219""
","
","
","""event"",""trial"",""time""
""fullscreenenter"",""0"",""1219""
","
","691.0999999642372","","","","","","","","50","0,0,1","6","blank","336","null","0.12470772674156591","0.3148460450263009","0.5592062711164631","0","","","","","","","","",""
"","html-keyboard-response","234","768195","0.0-125.0-1.0","""event"",""trial"",""time""
""fullscreenenter"",""0"",""1219""
","
","
","""event"",""trial"",""time""
""fullscreenenter"",""0"",""1219""
","
","null","<p></p>","null","","","","","","","","","","","","","","","","","","","","","","","",""
"","do_trial","235","771062","0.0-126.0-0.0","""event"",""trial"",""time""
""fullscreenenter"",""0"",""1219""
","
","
","""event"",""trial"",""time""
""fullscreenenter"",""0"",""1219""
","
","315.69999998807907","","","","","","","","50","0,1,1","6","blank","337","null","0.06575533223244343","0.3108543241536684","0.5504872157093404","1","","","","","","","","",""
"","html-keyboard-response","236","772067","0.0-126.0-1.0","""event"",""trial"",""time""
""fullscreenenter"",""0"",""1219""
","
","
","""event"",""trial"",""time""
""fullscreenenter"",""0"",""1219""
","
","null","<p></p>","null","","","","","","","","","","","","","","","","","","","","","","","",""
"","do_trial","237","775281","0.0-127.0-0.0","""event"",""trial"",""time""
""fullscreenenter"",""0"",""1219""
","
","
","""event"",""trial"",""time""
""fullscreenenter"",""0"",""1219""
","
","659.6000000238419","","","","","","","","50","0,1,0","6","blank","338","null","0.09243610119782009","0.3723986068947686","0.5074857765634486","1","","","","","","","","",""
"","html-keyboard-response","238","776286","0.0-127.0-1.0","""event"",""trial"",""time""
""fullscreenenter"",""0"",""1219""
","
","
","""event"",""trial"",""time""
""fullscreenenter"",""0"",""1219""
","
","null","<p></p>","null","","","","","","","","","","","","","","","","","","","","","","","",""
"","do_trial","239","779690","0.0-128.0-0.0","""event"",""trial"",""time""
""fullscreenenter"",""0"",""1219""
","
","
","""event"",""trial"",""time""
""fullscreenenter"",""0"",""1219""
","
","854.2000000476837","","","","","","","","50","1,0,1","6","blank","339","null","0.14391484710516544","0.4178644916235417","0.5686705987946591","0","","","","","","","","",""
"","html-keyboard-response","240","780695","0.0-128.0-1.0","""event"",""trial"",""time""
""fullscreenenter"",""0"",""1219""
","
","
","""event"",""trial"",""time""
""fullscreenenter"",""0"",""1219""
","
","null","<p></p>","null","","","","","","","","","","","","","","","","","","","","","","","",""
"","do_trial","241","783938","0.0-129.0-0.0","""event"",""trial"",""time""
""fullscreenenter"",""0"",""1219""
","
","
","""event"",""trial"",""time""
""fullscreenenter"",""0"",""1219""
","
","681.3000000119209","","","","","","","","50","1,1,0","6","blank","340","null","0.2735708426955061","0.2811426377167728","0.5882579309387324","1","","","","","","","","",""
"","html-keyboard-response","242","784943","0.0-129.0-1.0","""event"",""trial"",""time""
""fullscreenenter"",""0"",""1219""
","
","
","""event"",""trial"",""time""
""fullscreenenter"",""0"",""1219""
","
","null","<p></p>","null","","","","","","","","","","","","","","","","","","","","","","","",""
"","do_trial","243","788536","0.0-130.0-0.0","""event"",""trial"",""time""
""fullscreenenter"",""0"",""1219""
","
","
","""event"",""trial"",""time""
""fullscreenenter"",""0"",""1219""
","
","1038.2000000476837","","","","","","","","50","0,0,1","6","blank","341","null","0.1268965828942547","0.3341210426421429","0.662972444838057","0","","","","","","","","",""
"","html-keyboard-response","244","789541","0.0-130.0-1.0","""event"",""trial"",""time""
""fullscreenenter"",""0"",""1219""
","
","
","""event"",""trial"",""time""
""fullscreenenter"",""0"",""1219""
","
","null","<p></p>","null","","","","","","","","","","","","","","","","","","","","","","","",""
"","do_recog","245","792873","0.0-131.0-0.0","""event"",""trial"",""time""
""fullscreenenter"",""0"",""1219""
","
","
","""event"",""trial"",""time""
""fullscreenenter"",""0"",""1219""
","
","1822.300000011921","","","","","","","","56","","","","342","probe-222","","","","","1","[object Object]","195","4","0","","","",""
"","html-keyboard-response","246","793878","0.0-131.0-1.0","""event"",""trial"",""time""
""fullscreenenter"",""0"",""1219""
","
","
","""event"",""trial"",""time""
""fullscreenenter"",""0"",""1219""
","
","null","<p></p>","null","","","","","","","","","","","","","","","","","","","","","","","",""
"","do_trial","247","797012","0.0-132.0-0.0","""event"",""trial"",""time""
""fullscreenenter"",""0"",""1219""
","
","
","""event"",""trial"",""time""
""fullscreenenter"",""0"",""1219""
","
","572.3999999761581","","","","","","","","51","0,1,1","6","blank","343","null","0.11114114526152015","0.44206865331641737","0.7680419949038919","1","","","","","","","","",""
"","html-keyboard-response","248","798017","0.0-132.0-1.0","""event"",""trial"",""time""
""fullscreenenter"",""0"",""1219""
","
","
","""event"",""trial"",""time""
""fullscreenenter"",""0"",""1219""
","
","null","<p></p>","null","","","","","","","","","","","","","","","","","","","","","","","",""
"","do_recog","249","801201","0.0-133.0-0.0","""event"",""trial"",""time""
""fullscreenenter"",""0"",""1219""
","
","
","""event"",""trial"",""time""
""fullscreenenter"",""0"",""1219""
","
","1672.5","","","","","","","","55","","","","344","probe-23","","","","","1","[object Object]","37","0","0","","","",""
"","html-keyboard-response","250","802205","0.0-133.0-1.0","""event"",""trial"",""time""
""fullscreenenter"",""0"",""1219""
","
","
","""event"",""trial"",""time""
""fullscreenenter"",""0"",""1219""
","
","null","<p></p>","null","","","","","","","","","","","","","","","","","","","","","","","",""
"","do_trial","251","805194","0.0-134.0-0.0","""event"",""trial"",""time""
""fullscreenenter"",""0"",""1219""
","
","
","""event"",""trial"",""time""
""fullscreenenter"",""0"",""1219""
","
","431.80000001192093","","","","","","","","51","0,0,1","6","blank","345","null","0.1962786837916701","0.33527349872183243","0.7689180566105692","1","","","","","","","","",""
"","html-keyboard-response","252","806199","0.0-134.0-1.0","""event"",""trial"",""time""
""fullscreenenter"",""0"",""1219""
","
","
","""event"",""trial"",""time""
""fullscreenenter"",""0"",""1219""
","
","null","<p></p>","null","","","","","","","","","","","","","","","","","","","","","","","",""
"","do_trial","253","809203","0.0-135.0-0.0","""event"",""trial"",""time""
""fullscreenenter"",""0"",""1219""
","
","
","""event"",""trial"",""time""
""fullscreenenter"",""0"",""1219""
","
","450.19999998807907","","","","","","","","51","0,0,1","6","blank","346","null","0.23960561078063264","0.41065617060158405","0.3629631716537072","1","","","","","","","","",""
"","html-keyboard-response","254","810207","0.0-135.0-1.0","""event"",""trial"",""time""
""fullscreenenter"",""0"",""1219""
","
","
","""event"",""trial"",""time""
""fullscreenenter"",""0"",""1219""
","
","null","<p></p>","null","","","","","","","","","","","","","","","","","","","","","","","",""
"","do_trial","255","813172","0.0-136.0-0.0","""event"",""trial"",""time""
""fullscreenenter"",""0"",""1219""
","
","
","""event"",""trial"",""time""
""fullscreenenter"",""0"",""1219""
","
","411.30000001192093","","","","","","","","51","0,0,0","6","blank","347","null","0.3081589846776687","0.4849706648064752","0.3215896562537654","0","","","","","","","","",""
"","html-keyboard-response","256","814176","0.0-136.0-1.0","""event"",""trial"",""time""
""fullscreenenter"",""0"",""1219""
","
","
","""event"",""trial"",""time""
""fullscreenenter"",""0"",""1219""
","
","null","<p></p>","null","","","","","","","","","","","","","","","","","","","","","","","",""
"","do_trial","257","816966","0.0-137.0-0.0","""event"",""trial"",""time""
""fullscreenenter"",""0"",""1219""
","
","
","""event"",""trial"",""time""
""fullscreenenter"",""0"",""1219""
","
","235.69999998807907","","","","","","","","51","0,1,0","6","blank","348","null","0.3351049568340372","0.4345147921653495","0.16088297652016562","0","","","","","","","","",""
"","html-keyboard-response","258","817970","0.0-137.0-1.0","""event"",""trial"",""time""
""fullscreenenter"",""0"",""1219""
","
","
","""event"",""trial"",""time""
""fullscreenenter"",""0"",""1219""
","
","null","<p></p>","null","","","","","","","","","","","","","","","","","","","","","","","",""
"","break","259","886614","0.0-138.0-0.0","""event"",""trial"",""time""
""fullscreenenter"",""0"",""1219""
","
","
","""event"",""trial"",""time""
""fullscreenenter"",""0"",""1219""
","
","68640.5","<div class='center'><p>Time to take a quick break! You have 2 minutes to rest, but you can move on sooner if you'd like.</p><p> Press the <b>space bar</b> to continue.</p></div>","32","","","","","","","","","","","","","","","","","","","","","","","",""
"","do_trial","260","890127","0.0-138.0-1.0","""event"",""trial"",""time""
""fullscreenenter"",""0"",""1219""
","
","
","""event"",""trial"",""time""
""fullscreenenter"",""0"",""1219""
","
","968.5999999642372","","","","","","","","51","0,1,0","6","blank","349","null","0.3994007324118065","0.5815914881175615","0.1749044756370486","0","","","","","","","","",""
"","html-keyboard-response","261","891132","0.0-138.0-2.0","""event"",""trial"",""time""
""fullscreenenter"",""0"",""1219""
","
","
","""event"",""trial"",""time""
""fullscreenenter"",""0"",""1219""
","
","null","<p></p>","null","","","","","","","","","","","","","","","","","","","","","","","",""
"","do_recog","262","894412","0.0-139.0-0.0","""event"",""trial"",""time""
""fullscreenenter"",""0"",""1219""
","
","
","""event"",""trial"",""time""
""fullscreenenter"",""0"",""1219""
","
","1768.8999999761581","","","","","","","","54","","","","350","probe-218","","","","","1","[object Object]","75","1","1","","","",""
"","html-keyboard-response","263","895417","0.0-139.0-1.0","""event"",""trial"",""time""
""fullscreenenter"",""0"",""1219""
","
","
","""event"",""trial"",""time""
""fullscreenenter"",""0"",""1219""
","
","null","<p></p>","null","","","","","","","","","","","","","","","","","","","","","","","",""
"","do_trial","264","898572","0.0-140.0-0.0","""event"",""trial"",""time""
""fullscreenenter"",""0"",""1219""
","
","
","""event"",""trial"",""time""
""fullscreenenter"",""0"",""1219""
","
","600.6999999880791","","","","","","","","51","0,1,0","6","blank","351","null","0.37266155744141477","0.48722045853522006","0.05611057494202003","0","","","","","","","","",""
"","html-keyboard-response","265","899577","0.0-140.0-1.0","""event"",""trial"",""time""
""fullscreenenter"",""0"",""1219""
","
","
","""event"",""trial"",""time""
""fullscreenenter"",""0"",""1219""
","
","null","<p></p>","null","","","","","","","","","","","","","","","","","","","","","","","",""
"","do_trial","266","902350","0.0-141.0-0.0","""event"",""trial"",""time""
""fullscreenenter"",""0"",""1219""
","
","
","""event"",""trial"",""time""
""fullscreenenter"",""0"",""1219""
","
","226.20000004768372","","","","","","","","50","0,0,0","6","blank","352","null","0.39885283050383336","0.5677271141033383","0.1968059350456475","0","","","","","","","","",""
"","html-keyboard-response","267","903355","0.0-141.0-1.0","""event"",""trial"",""time""
""fullscreenenter"",""0"",""1219""
","
","
","""event"",""trial"",""time""
""fullscreenenter"",""0"",""1219""
","
","null","<p></p>","null","","","","","","","","","","","","","","","","","","","","","","","",""
"","do_trial","268","906288","0.0-142.0-0.0","""event"",""trial"",""time""
""fullscreenenter"",""0"",""1219""
","
","
","""event"",""trial"",""time""
""fullscreenenter"",""0"",""1219""
","
","382.2000000476837","","","","","","","","50","0,1,0","6","blank","353","null","0.45799458592705977","0.5614812905829952","0.11985417755426468","1","","","","","","","","",""
"","html-keyboard-response","269","907293","0.0-142.0-1.0","""event"",""trial"",""time""
""fullscreenenter"",""0"",""1219""
","
","
","""event"",""trial"",""time""
""fullscreenenter"",""0"",""1219""
","
","null","<p></p>","null","","","","","","","","","","","","","","","","","","","","","","","",""
"","do_trial","270","910245","0.0-143.0-0.0","""event"",""trial"",""time""
""fullscreenenter"",""0"",""1219""
","
","
","""event"",""trial"",""time""
""fullscreenenter"",""0"",""1219""
","
","397.19999998807907","","","","","","","","51","0,0,1","6","blank","354","null","0.30205437029942017","0.7052533164770719","0.19658465352919724","1","","","","","","","","",""
"","html-keyboard-response","271","911249","0.0-143.0-1.0","""event"",""trial"",""time""
""fullscreenenter"",""0"",""1219""
","
","
","""event"",""trial"",""time""
""fullscreenenter"",""0"",""1219""
","
","null","<p></p>","null","","","","","","","","","","","","","","","","","","","","","","","",""
"","do_trial","272","914719","0.0-144.0-0.0","""event"",""trial"",""time""
""fullscreenenter"",""0"",""1219""
","
","
","""event"",""trial"",""time""
""fullscreenenter"",""0"",""1219""
","
","917.6999999880791","","","","","","","","51","0,0,0","6","blank","355","null","0.316882353423638","0.6264789319058134","0.18381290367786984","0","","","","","","","","",""
"","html-keyboard-response","273","915724","0.0-144.0-1.0","""event"",""trial"",""time""
""fullscreenenter"",""0"",""1219""
","
","
","""event"",""trial"",""time""
""fullscreenenter"",""0"",""1219""
","
","null","<p></p>","null","","","","","","","","","","","","","","","","","","","","","","","",""
"","do_trial","274","918703","0.0-145.0-0.0","""event"",""trial"",""time""
""fullscreenenter"",""0"",""1219""
","
","
","""event"",""trial"",""time""
""fullscreenenter"",""0"",""1219""
","
","417.4000000357628","","","","","","","","51","0,0,0","6","blank","356","null","0.33111569238830896","0.6351060323961953","0.1603768976251234","0","","","","","","","","",""
"","html-keyboard-response","275","919707","0.0-145.0-1.0","""event"",""trial"",""time""
""fullscreenenter"",""0"",""1219""
","
","
","""event"",""trial"",""time""
""fullscreenenter"",""0"",""1219""
","
","null","<p></p>","null","","","","","","","","","","","","","","","","","","","","","","","",""
"","do_trial","276","922607","0.0-146.0-0.0","""event"",""trial"",""time""
""fullscreenenter"",""0"",""1219""
","
","
","""event"",""trial"",""time""
""fullscreenenter"",""0"",""1219""
","
","348.5","","","","","","","","51","0,0,0","6","blank","357","null","0.30361286036828233","0.6744334262975223","0.1452786457819396","0","","","","","","","","",""
"","html-keyboard-response","277","923611","0.0-146.0-1.0","""event"",""trial"",""time""
