"success","trial_type","trial_index","time_elapsed","internal_node_id","interactions","blur_events","focus_events","fullscreenenter_events","fullscreenexit_events","rt","stimulus","key_press","subject_id","participant_id","age","gender","prompt","response","choice_outcomes","context_n","context_img_id","trial_n","probe_img_id","pR_red","pR_white","pR_black","outcome","is_valid","image_to_show","probed_trial","probed_context","correct","probe","probed_trial_n","probed_context_n","context_im"
"true","fullscreen","0","2352","0.0-0.0","""event"",""trial"",""time""
""fullscreenenter"",""0"",""1355""
","
","
","""event"",""trial"",""time""
""fullscreenenter"",""0"",""1355""
","
","","","","","","","","","","","","","","","","","","","","","","","","","","",""
"","pavlovia","1","2357","0.0-1.0","""event"",""trial"",""time""
""fullscreenenter"",""0"",""1355""
","
","
","""event"",""trial"",""time""
""fullscreenenter"",""0"",""1355""
","
","","","","","","","","","","","","","","","","","","","","","","","","","","",""
"","welc_back","2","12122","0.0-2.0","""event"",""trial"",""time""
""fullscreenenter"",""0"",""1355""
","
","
","""event"",""trial"",""time""
""fullscreenenter"",""0"",""1355""
","
","null","run_exp/static/audio/clip_29_welcome_back.m4a","null","2119","813","13","Female","<div class='center'><p>Welcome to day 2!</p><p> Yesterday, you were the head captain of a pirate ship. You asked your fellow pirates to rob other ships of their gold across six different islands.</p></div>","","","","","","","","","","","","","","","","","","",""
"","html-keyboard-response","3","12377","0.0-3.0","""event"",""trial"",""time""
""fullscreenenter"",""0"",""1355""
","
","
","""event"",""trial"",""time""
""fullscreenenter"",""0"",""1355""
","
","254.39999997615814","<div class='center'><p>Welcome to day 2!</p><p> Yesterday, you were the head captain of a pirate ship. You asked your fellow pirates to rob other ships of their gold across six different islands.</p><p><b>[Press the space bar to continue]</b></p></div>","32","","","","","","","","","","","","","","","","","","","","","","","",""
"","day_1_summary_goal","4","29561","0.0-4.0","""event"",""trial"",""time""
""fullscreenenter"",""0"",""1355""
","
","
","""event"",""trial"",""time""
""fullscreenenter"",""0"",""1355""
","
","null","run_exp/static/audio/clip_30_goal_of_game.m4a","null","","","","","<div class='center'><p>Today, like yesterday, you get to pick which pirate you want to rob the next ship.</p><p>If the pirate is successful in robbing a ship, you get gold coins that look like this: </p><p><img src='run_exp/static/images/tutorial/reward.png' height='150'></p><p> If they were not successful in robbing the ship, then you will get no gold coins and you'll see a big red x like this: </p><p><img src='run_exp/static/images/tutorial/reward_no.png' height='150'></p></div>","","","","","","","","","","","","","","","","","","",""
"","html-keyboard-response","5","29902","0.0-5.0","""event"",""trial"",""time""
""fullscreenenter"",""0"",""1355""
","
","
","""event"",""trial"",""time""
""fullscreenenter"",""0"",""1355""
","
","339","<div class='center'><p>Today, like yesterday, you get to pick which pirate you want to rob the next ship.</p><p>If the pirate is successful in robbing a ship, you get gold coins that look like this: </p><p><img src='run_exp/static/images/tutorial/reward.png' height='150'></p><p> If they were not successful in robbing the ship, then you will get no gold coins and you'll see a big red x like this: </p><p><img src='run_exp/static/images/tutorial/reward_no.png' height='150'></p><p><b>[Press the space bar to continue]</b></p></div>","32","","","","","","","","","","","","","","","","","","","","","","","",""
"","day_1_summary_pick","6","44602","0.0-6.0","""event"",""trial"",""time""
""fullscreenenter"",""0"",""1355""
","
","
","""event"",""trial"",""time""
""fullscreenenter"",""0"",""1355""
","
","null","run_exp/static/audio/clip_31_how_to_pick_a_pirate.m4a","null","","","","","<div class='center'><p>Also, just like yesterday, you will use the 1,2,3 keys on your keyboard to pick a pirate. Press '1' to choose red beard, '2' to choose white beard, and '3' to choose black beard . You only have 3 seconds to pick a pirate, so please make a choice quickly!</p></div>","","","","","","","","","","","","","","","","","","",""
"","html-keyboard-response","7","44902","0.0-7.0","""event"",""trial"",""time""
""fullscreenenter"",""0"",""1355""
","
","
","""event"",""trial"",""time""
""fullscreenenter"",""0"",""1355""
","
","298.9000000357628","<div class='center'><p>Also, just like yesterday, you will use the 1,2,3 keys on your keyboard to pick a pirate. Press '1' to choose red beard, '2' to choose white beard, and '3' to choose black beard . You only have 3 seconds to pick a pirate, so please make a choice quickly!</p><p><b>[Press the space bar to continue]</b></p></div>","32","","","","","","","","","","","","","","","","","","","","","","","",""
"","test_phase_begin","8","75282","0.0-8.0","""event"",""trial"",""time""
""fullscreenenter"",""0"",""1355""
","
","
","""event"",""trial"",""time""
""fullscreenenter"",""0"",""1355""
","
","null","run_exp/static/audio/clip_32_final_place.m4a","null","","","","","<div class='center'><p>You’ve arrived at the final island of your journey! Unfortunately, it’s very foggy out, so you won’t be able to see it in the distance like the other islands you've visited.</p><p>You’ll still be deciding which pirate you want to rob a ship like before. However, because of the fog, you also won’t be able to see the ship.</p><p>This means you do not have to remember the ships you rob on this island.</p><p>Unlike yesterday, you won't be visiting multiple islands today. You will stay on this island for the entire game. This game will last ~30 minutes.</p></div>","","","","","","","","","","","","","","","","","","",""
"","html-keyboard-response","9","75361","0.0-9.0","""event"",""trial"",""time""
""fullscreenenter"",""0"",""1355""
","
","
","""event"",""trial"",""time""
""fullscreenenter"",""0"",""1355""
","
","77.19999998807907","<div class='center'><p>You’ve arrived at the final island of your journey! Unfortunately, it’s very foggy out, so you won’t be able to see it in the distance like the other islands you've visited.</p><p>You’ll still be deciding which pirate you want to rob a ship like before. However, because of the fog, you also won’t be able to see the ship.</p><p>This means you do not have to remember the ships you rob on this island.</p><p>Unlike yesterday, you won't be visiting multiple islands today. You will stay on this island for the entire game. This game will last ~30 minutes.</p><p><b>[Press the space bar to continue]</b></p></div>","32","","","","","","","","","","","","","","","","","","","","","","","",""
"","explain_probe_1","10","83081","0.0-10.0","""event"",""trial"",""time""
""fullscreenenter"",""0"",""1355""
","
","
","""event"",""trial"",""time""
""fullscreenenter"",""0"",""1355""
","
","null","run_exp/static/audio/clip_33_recognition_1.m4a","null","","","","","<div class='center'><p> Sometimes you’ll be shown a ship, and you will be asked if you saw this ship on a past island.</p><p> Here is an example of what you will see.</p><p><img src='run_exp/static/images/tutorial/example_recog_trial.png' height='500'></p></div>","","","","","","","","","","","","","","","","","","",""
"","html-keyboard-response","11","84227","0.0-11.0","""event"",""trial"",""time""
""fullscreenenter"",""0"",""1355""
","
","
","""event"",""trial"",""time""
""fullscreenenter"",""0"",""1355""
","
","1144.199999988079","<div class='center'><p> Sometimes you’ll be shown a ship, and you will be asked if you saw this ship on a past island.</p><p> Here is an example of what you will see.</p><p><img src='run_exp/static/images/tutorial/example_recog_trial.png' height='500'></p><p><b>[Press the space bar to continue]</b></p></div>","32","","","","","","","","","","","","","","","","","","","","","","","",""
"","explain_probe_2","12","105941","0.0-12.0","""event"",""trial"",""time""
""fullscreenenter"",""0"",""1355""
","
","
","""event"",""trial"",""time""
""fullscreenenter"",""0"",""1355""
","
","null","run_exp/static/audio/clip_34_recognition_2.m4a","null","","","","","<div class='center'><p> You will press the 5, 6, 7, 8 keys on your keyboard to respond.</p><p>If you are sure you saw the ship, press <b>5</b> on your keyboard.</p><p> If you think you saw it before but aren't sure, then press <b>6</b>.</p><p> If you think you have <b>not</b> seen it before but aren't sure, then press <b>7</b>.</p><p> If you are sure you did <b>not</b> see the ship before, then press <b>8</b>.</p><p><img src='run_exp/static/images/tutorial/example_recog_trial.png' height='500'></p></div>","","","","","","","","","","","","","","","","","","",""
"","html-keyboard-response","13","106176","0.0-13.0","""event"",""trial"",""time""
""fullscreenenter"",""0"",""1355""
","
","
","""event"",""trial"",""time""
""fullscreenenter"",""0"",""1355""
","
","234.20000004768372","<div class='center'><p> You will press the 5, 6, 7, 8 keys on your keyboard to respond.</p><p>If you are sure you saw the ship, press <b>5</b> on your keyboard.</p><p> If you think you saw it before but aren't sure, then press <b>6</b>.</p><p> If you think you have <b>not</b> seen it before but aren't sure, then press <b>7</b>.</p><p> If you are sure you did <b>not</b> see the ship before, then press <b>8</b>.</p><p><img src='run_exp/static/images/tutorial/example_recog_trial.png' height='500'></p><p><b>[Press the space bar to continue]</b></p></div>","32","","","","","","","","","","","","","","","","","","","","","","","",""
"","explain_outcome","14","123362","0.0-14.0","""event"",""trial"",""time""
""fullscreenenter"",""0"",""1355""
","
","
","""event"",""trial"",""time""
""fullscreenenter"",""0"",""1355""
","
","null","run_exp/static/audio/clip_35_recognition_3.m4a","null","","","","","<div class='center'><p> If you remember correctly, then you’ll get a gold coin like this: </p><p><img src='run_exp/static/images/tutorial/reward_small.png' height='200'></p><p>If you do not remember correctly, then you'll see a red x like this: </p><p><img src='run_exp/static/images/tutorial/reward_no.png' height='200'></p><p>Importantly, when you are shown a ship, take the time to remind yourself which island you saw it on. This will help you in the next part of the study.</p></div>","","","","","","","","","","","","","","","","","","",""
"","html-keyboard-response","15","125551","0.0-15.0","""event"",""trial"",""time""
""fullscreenenter"",""0"",""1355""
","
","
","""event"",""trial"",""time""
""fullscreenenter"",""0"",""1355""
","
","2187.900000035763","<div class='center'><p> If you remember correctly, then you’ll get a gold coin like this: </p><p><img src='run_exp/static/images/tutorial/reward_small.png' height='200'></p><p>If you do not remember correctly, then you'll see a red x like this: </p><p><img src='run_exp/static/images/tutorial/reward_no.png' height='200'></p><p>Importantly, when you are shown a ship, take the time to remind yourself which island you saw it on. This will help you in the next part of the study.</p><p><b>[Press the space bar to continue]</b></p></div>","32","","","","","","","","","","","","","","","","","","","","","","","",""
"","begin_test_phase","16","141361","0.0-16.0","""event"",""trial"",""time""
""fullscreenenter"",""0"",""1355""
","
","
","""event"",""trial"",""time""
""fullscreenenter"",""0"",""1355""
","
","null","run_exp/static/audio/clip_36_begin_final.m4a","null","","","","","<div class='center'><p>Let's go over the important points again. Your job is to: </p><p>1. Pick the pirate who is best at robbing ships and will bring you back gold coins. </p><p>2. Correctly remember whether or not you saw a ship before. If you did see the ship before, remind yourself on which island you saw it. </p></div>","","","","","","","","","","","","","","","","","","",""
"","html-keyboard-response","17","141619","0.0-17.0","""event"",""trial"",""time""
""fullscreenenter"",""0"",""1355""
","
","
","""event"",""trial"",""time""
""fullscreenenter"",""0"",""1355""
","
","237.30000001192093","<div class='center'><p>Let's go over the important points again. Your job is to: </p><p>1. Pick the pirate who is best at robbing ships and will bring you back gold coins. </p><p>2. Correctly remember whether or not you saw a ship before. If you did see the ship before, remind yourself on which island you saw it. </p><p><b>[Press the space bar to continue]</b></p></div>","32","","","","","","","","","","","","","","","","","","","","","","","",""
"","do_welcome","18","145626","0.0-18.0","""event"",""trial"",""time""
""fullscreenenter"",""0"",""1355""
","
","
","""event"",""trial"",""time""
""fullscreenenter"",""0"",""1355""
","
","null","","","","","","","","null","","","","","","","","","","","","","","","","","",""
"","do_trial","19","149793","0.0-19.0-0.0","""event"",""trial"",""time""
""fullscreenenter"",""0"",""1355""
","
","
","""event"",""trial"",""time""
""fullscreenenter"",""0"",""1355""
","
","1641.2000000476837","","","","","","","","49","0,0,0","6","blank","230","null","0.18857875285466036","0.46298834107497205","0.21716313989623107","0","","","","","","","","",""
"","html-keyboard-response","20","150797","0.0-19.0-1.0","""event"",""trial"",""time""
""fullscreenenter"",""0"",""1355""
","
","
","""event"",""trial"",""time""
""fullscreenenter"",""0"",""1355""
","
","null","<p></p>","null","","","","","","","","","","","","","","","","","","","","","","","",""
"","do_trial","21","153672","0.0-20.0-0.0","""event"",""trial"",""time""
""fullscreenenter"",""0"",""1355""
","
","
","""event"",""trial"",""time""
""fullscreenenter"",""0"",""1355""
","
","345.19999998807907","","","","","","","","50","1,1,1","6","blank","231","null","0.08776216874925495","0.49530946055686903","0.2846099159233073","1","","","","","","","","",""
"","html-keyboard-response","22","154681","0.0-20.0-1.0","""event"",""trial"",""time""
""fullscreenenter"",""0"",""1355""
","
","
","""event"",""trial"",""time""
""fullscreenenter"",""0"",""1355""
","
","null","<p></p>","null","","","","","","","","","","","","","","","","","","","","","","","",""
"","do_trial","23","157498","0.0-21.0-0.0","""event"",""trial"",""time""
""fullscreenenter"",""0"",""1355""
","
","
","""event"",""trial"",""time""
""fullscreenenter"",""0"",""1355""
","
","279.9000000357628","","","","","","","","50","0,1,0","6","blank","232","null","0.05864375318775912","0.6247199338696922","0.2912154444082967","1","","","","","","","","",""
"","html-keyboard-response","24","158509","0.0-21.0-1.0","""event"",""trial"",""time""
""fullscreenenter"",""0"",""1355""
","
","
","""event"",""trial"",""time""
""fullscreenenter"",""0"",""1355""
","
","null","<p></p>","null","","","","","","","","","","","","","","","","","","","","","","","",""
"","do_trial","25","161354","0.0-22.0-0.0","""event"",""trial"",""time""
""fullscreenenter"",""0"",""1355""
","
","
","""event"",""trial"",""time""
""fullscreenenter"",""0"",""1355""
","
","306.7999999523163","","","","","","","","50","0,1,0","6","blank","233","null","0.0770992665464033","0.6670763055570476","0.07988764167022733","1","","","","","","","","",""
"","html-keyboard-response","26","162362","0.0-22.0-1.0","""event"",""trial"",""time""
""fullscreenenter"",""0"",""1355""
","
","
","""event"",""trial"",""time""
""fullscreenenter"",""0"",""1355""
","
","null","<p></p>","null","","","","","","","","","","","","","","","","","","","","","","","",""
"","do_trial","27","165213","0.0-23.0-0.0","""event"",""trial"",""time""
""fullscreenenter"",""0"",""1355""
","
","
","""event"",""trial"",""time""
""fullscreenenter"",""0"",""1355""
","
","311.39999997615814","","","","","","","","50","0,0,0","6","blank","234","null","0.1252502870007105","0.6535427140178004","0.11043442236022927","0","","","","","","","","",""
"","html-keyboard-response","28","166223","0.0-23.0-1.0","""event"",""trial"",""time""
""fullscreenenter"",""0"",""1355""
","
","
","""event"",""trial"",""time""
""fullscreenenter"",""0"",""1355""
","
","null","<p></p>","null","","","","","","","","","","","","","","","","","","","","","","","",""
"","do_trial","29","169004","0.0-24.0-0.0","""event"",""trial"",""time""
""fullscreenenter"",""0"",""1355""
","
","
","""event"",""trial"",""time""
""fullscreenenter"",""0"",""1355""
","
","250.60000002384186","","","","","","","","50","0,1,0","6","blank","235","null","0.19285285955675194","0.7403349048370464","0.22006417442452145","1","","","","","","","","",""
"","html-keyboard-response","30","170015","0.0-24.0-1.0","""event"",""trial"",""time""
""fullscreenenter"",""0"",""1355""
","
","
","""event"",""trial"",""time""
""fullscreenenter"",""0"",""1355""
","
","null","<p></p>","null","","","","","","","","","","","","","","","","","","","","","","","",""
"","do_trial","31","172845","0.0-25.0-0.0","""event"",""trial"",""time""
""fullscreenenter"",""0"",""1355""
","
","
","""event"",""trial"",""time""
""fullscreenenter"",""0"",""1355""
","
","293.5","","","","","","","","50","0,0,0","6","blank","236","null","0.2104764152270063","0.5218304135686103","0.18740676032385428","0","","","","","","","","",""
"","html-keyboard-response","32","173854","0.0-25.0-1.0","""event"",""trial"",""time""
""fullscreenenter"",""0"",""1355""
","
","
","""event"",""trial"",""time""
""fullscreenenter"",""0"",""1355""
","
","null","<p></p>","null","","","","","","","","","","","","","","","","","","","","","","","",""
"","do_trial","33","176792","0.0-26.0-0.0","""event"",""trial"",""time""
""fullscreenenter"",""0"",""1355""
","
","
","""event"",""trial"",""time""
""fullscreenenter"",""0"",""1355""
","
","402.10000002384186","","","","","","","","50","0,0,1","6","blank","237","null","0.15055954161196236","0.6864905580374107","0.18352506878915673","0","","","","","","","","",""
"","html-keyboard-response","34","177803","0.0-26.0-1.0","""event"",""trial"",""time""
""fullscreenenter"",""0"",""1355""
","
","
","""event"",""trial"",""time""
""fullscreenenter"",""0"",""1355""
","
","null","<p></p>","null","","","","","","","","","","","","","","","","","","","","","","","",""
"","do_trial","35","180623","0.0-27.0-0.0","""event"",""trial"",""time""
""fullscreenenter"",""0"",""1355""
","
","
","""event"",""trial"",""time""
""fullscreenenter"",""0"",""1355""
","
","283.89999997615814","","","","","","","","51","1,0,0","6","blank","238","null","0.25482489713313444","0.7352674392298099","0.13725460246886698","0","","","","","","","","",""
"","html-keyboard-response","36","181631","0.0-27.0-1.0","""event"",""trial"",""time""
""fullscreenenter"",""0"",""1355""
","
","
","""event"",""trial"",""time""
""fullscreenenter"",""0"",""1355""
","
","null","<p></p>","null","","","","","","","","","","","","","","","","","","","","","","","",""
"","do_trial","37","184494","0.0-28.0-0.0","""event"",""trial"",""time""
""fullscreenenter"",""0"",""1355""
","
","
","""event"",""trial"",""time""
""fullscreenenter"",""0"",""1355""
","
","332.39999997615814","","","","","","","","49","0,0,1","6","blank","239","null","0.15985938743216674","0.6097156475300999","0.1101886225687514","0","","","","","","","","",""
"","html-keyboard-response","38","185505","0.0-28.0-1.0","""event"",""trial"",""time""
""fullscreenenter"",""0"",""1355""
","
","
","""event"",""trial"",""time""
""fullscreenenter"",""0"",""1355""
","
","null","<p></p>","null","","","","","","","","","","","","","","","","","","","","","","","",""
"","do_trial","39","188305","0.0-29.0-0.0","""event"",""trial"",""time""
""fullscreenenter"",""0"",""1355""
","
","
","""event"",""trial"",""time""
""fullscreenenter"",""0"",""1355""
","
","274.0999999642372","","","","","","","","50","0,1,0","6","blank","240","null","0.0752478365464492","0.6019626132295308","0.12677578642390777","1","","","","","","","","",""
"","html-keyboard-response","40","189314","0.0-29.0-1.0","""event"",""trial"",""time""
""fullscreenenter"",""0"",""1355""
","
","
","""event"",""trial"",""time""
""fullscreenenter"",""0"",""1355""
","
","null","<p></p>","null","","","","","","","","","","","","","","","","","","","","","","","",""
"","do_trial","41","192131","0.0-30.0-0.0","""event"",""trial"",""time""
""fullscreenenter"",""0"",""1355""
","
","
","""event"",""trial"",""time""
""fullscreenenter"",""0"",""1355""
","
","290.60000002384186","","","","","","","","50","0,0,1","6","blank","241","null","0.14757082342796715","0.7052314625087722","0.37181207506400604","0","","","","","","","","",""
"","html-keyboard-response","42","193142","0.0-30.0-1.0","""event"",""trial"",""time""
""fullscreenenter"",""0"",""1355""
","
","
","""event"",""trial"",""time""
""fullscreenenter"",""0"",""1355""
","
","null","<p></p>","null","","","","","","","","","","","","","","","","","","","","","","","",""
"","do_trial","43","196081","0.0-31.0-0.0","""event"",""trial"",""time""
""fullscreenenter"",""0"",""1355""
","
","
","""event"",""trial"",""time""
""fullscreenenter"",""0"",""1355""
","
","409.10000002384186","","","","","","","","50","0,0,1","6","blank","242","null","0.2015089913679996","0.5039166421273581","0.6139168802931161","0","","","","","","","","",""
"","html-keyboard-response","44","197093","0.0-31.0-1.0","""event"",""trial"",""time""
""fullscreenenter"",""0"",""1355""
","
","
","""event"",""trial"",""time""
""fullscreenenter"",""0"",""1355""
","
","null","<p></p>","null","","","","","","","","","","","","","","","","","","","","","","","",""
"","do_trial","45","199802","0.0-32.0-0.0","""event"",""trial"",""time""
""fullscreenenter"",""0"",""1355""
","
","
","""event"",""trial"",""time""
""fullscreenenter"",""0"",""1355""
","
","172.19999998807907","","","","","","","","49","0,0,1","6","blank","243","null","0.1804817012916859","0.4746987471469263","0.5797777001238886","0","","","","","","","","",""
"","html-keyboard-response","46","200814","0.0-32.0-1.0","""event"",""trial"",""time""
""fullscreenenter"",""0"",""1355""
","
","
","""event"",""trial"",""time""
""fullscreenenter"",""0"",""1355""
","
","null","<p></p>","null","","","","","","","","","","","","","","","","","","","","","","","",""
"","do_trial","47","203586","0.0-33.0-0.0","""event"",""trial"",""time""
""fullscreenenter"",""0"",""1355""
","
","
","""event"",""trial"",""time""
""fullscreenenter"",""0"",""1355""
","
","240.5","","","","","","","","51","0,0,1","6","blank","244","null","0.1500683460022094","0.34829465168554663","0.6775394002618387","1","","","","","","","","",""
"","html-keyboard-response","48","204599","0.0-33.0-1.0","""event"",""trial"",""time""
""fullscreenenter"",""0"",""1355""
","
","
","""event"",""trial"",""time""
""fullscreenenter"",""0"",""1355""
","
","null","<p></p>","null","","","","","","","","","","","","","","","","","","","","","","","",""
"","do_trial","49","207382","0.0-34.0-0.0","""event"",""trial"",""time""
""fullscreenenter"",""0"",""1355""
","
","
","""event"",""trial"",""time""
""fullscreenenter"",""0"",""1355""
","
","261.5999999642372","","","","","","","","51","0,1,1","6","blank","245","null","0.10279018628391497","0.3742506221513199","0.7402886271355362","1","","","","","","","","",""
"","html-keyboard-response","50","208395","0.0-34.0-1.0","""event"",""trial"",""time""
""fullscreenenter"",""0"",""1355""
","
","
","""event"",""trial"",""time""
""fullscreenenter"",""0"",""1355""
","
","null","<p></p>","null","","","","","","","","","","","","","","","","","","","","","","","",""
"","do_recog","51","214423","0.0-35.0-0.0","""event"",""trial"",""time""
""fullscreenenter"",""0"",""1355""
","
","
","""event"",""trial"",""time""
""fullscreenenter"",""0"",""1355""
","
","null","","","","","","","","null","","","","246","probe-82","","","","","1","[object Object]","153","3","0","","","",""
"","html-keyboard-response","52","215435","0.0-35.0-1.0","""event"",""trial"",""time""
""fullscreenenter"",""0"",""1355""
","
","
","""event"",""trial"",""time""
""fullscreenenter"",""0"",""1355""
","
","null","<p></p>","null","","","","","","","","","","","","","","","","","","","","","","","",""
"","do_trial","53","219084","0.0-36.0-0.0","""event"",""trial"",""time""
""fullscreenenter"",""0"",""1355""
","
","
","""event"",""trial"",""time""
""fullscreenenter"",""0"",""1355""
","
","1125.9000000357628","","","","","","","","51","0,1,1","6","blank","247","null","0.07392150553571854","0.36265624923145523","0.6799867060942222","1","","","","","","","","",""
"","html-keyboard-response","54","220089","0.0-36.0-1.0","""event"",""trial"",""time""
""fullscreenenter"",""0"",""1355""
","
","
","""event"",""trial"",""time""
""fullscreenenter"",""0"",""1355""
","
","null","<p></p>","null","","","","","","","","","","","","","","","","","","","","","","","",""
"","do_trial","55","223143","0.0-37.0-0.0","""event"",""trial"",""time""
""fullscreenenter"",""0"",""1355""
","
","
","""event"",""trial"",""time""
""fullscreenenter"",""0"",""1355""
","
","521.8999999761581","","","","","","","","51","0,0,1","6","blank","248","null","0.1871019464151851","0.28116970680614906","0.758012779039454","1","","","","","","","","",""
"","html-keyboard-response","56","224149","0.0-37.0-1.0","""event"",""trial"",""time""
""fullscreenenter"",""0"",""1355""
","
","
","""event"",""trial"",""time""
""fullscreenenter"",""0"",""1355""
","
","null","<p></p>","null","","","","","","","","","","","","","","","","","","","","","","","",""
"","do_trial","57","227101","0.0-38.0-0.0","""event"",""trial"",""time""
""fullscreenenter"",""0"",""1355""
","
","
","""event"",""trial"",""time""
""fullscreenenter"",""0"",""1355""
","
","425.39999997615814","","","","","","","","51","0,0,1","6","blank","249","null","0.2038616035881176","0.26237680035644945","0.7964107770660127","1","","","","","","","","",""
"","html-keyboard-response","58","228111","0.0-38.0-1.0","""event"",""trial"",""time""
""fullscreenenter"",""0"",""1355""
","
","
","""event"",""trial"",""time""
""fullscreenenter"",""0"",""1355""
","
","null","<p></p>","null","","","","","","","","","","","","","","","","","","","","","","","",""
"","do_trial","59","231167","0.0-39.0-0.0","""event"",""trial"",""time""
""fullscreenenter"",""0"",""1355""
","
","
","""event"",""trial"",""time""
""fullscreenenter"",""0"",""1355""
","
","520.7999999523163","","","","","","","","51","1,0,1","6","blank","250","null","0.11373428978988509","0.33463810456604703","0.6052073042993645","1","","","","","","","","",""
"","html-keyboard-response","60","232172","0.0-39.0-1.0","""event"",""trial"",""time""
""fullscreenenter"",""0"",""1355""
","
","
","""event"",""trial"",""time""
""fullscreenenter"",""0"",""1355""
","
","null","<p></p>","null","","","","","","","","","","","","","","","","","","","","","","","",""
"","do_trial","61","235055","0.0-40.0-0.0","""event"",""trial"",""time""
""fullscreenenter"",""0"",""1355""
","
","
","""event"",""trial"",""time""
""fullscreenenter"",""0"",""1355""
","
","361.69999998807907","","","","","","","","51","0,0,1","6","blank","251","null","0.07359220012487407","0.37907877394787515","0.602031018902954","1","","","","","","","","",""
"","html-keyboard-response","62","236063","0.0-40.0-1.0","""event"",""trial"",""time""
""fullscreenenter"",""0"",""1355""
","
","
","""event"",""trial"",""time""
""fullscreenenter"",""0"",""1355""
","
","null","<p></p>","null","","","","","","","","","","","","","","","","","","","","","","","",""
"","do_recog","63","240561","0.0-41.0-0.0","""event"",""trial"",""time""
""fullscreenenter"",""0"",""1355""
","
","
","""event"",""trial"",""time""
""fullscreenenter"",""0"",""1355""
","
","2983.600000023842","","","","","","","","53","","","","252","probe-25","","","","","1","[object Object]","193","4","1","","","",""
"","html-keyboard-response","64","241571","0.0-41.0-1.0","""event"",""trial"",""time""
""fullscreenenter"",""0"",""1355""
","
","
","""event"",""trial"",""time""
""fullscreenenter"",""0"",""1355""
","
","null","<p></p>","null","","","","","","","","","","","","","","","","","","","","","","","",""
"","do_trial","65","245095","0.0-42.0-0.0","""event"",""trial"",""time""
""fullscreenenter"",""0"",""1355""
","
","
","""event"",""trial"",""time""
""fullscreenenter"",""0"",""1355""
","
","995.6999999880791","","","","","","","","51","0,0,0","6","blank","253","null","0.1140042082582635","0.4365383356252919","0.6866617953572396","0","","","","","","","","",""
"","html-keyboard-response","66","246103","0.0-42.0-1.0","""event"",""trial"",""time""
""fullscreenenter"",""0"",""1355""
","
","
","""event"",""trial"",""time""
""fullscreenenter"",""0"",""1355""
","
","null","<p></p>","null","","","","","","","","","","","","","","","","","","","","","","","",""
"","do_trial","67","249059","0.0-43.0-0.0","""event"",""trial"",""time""
""fullscreenenter"",""0"",""1355""
","
","
","""event"",""trial"",""time""
""fullscreenenter"",""0"",""1355""
","
","432.39999997615814","","","","","","","","51","0,0,0","6","blank","254","null","0.10998508249555408","0.3426419113466933","0.6744510580688088","0","","","","","","","","",""
"","html-keyboard-response","68","250071","0.0-43.0-1.0","""event"",""trial"",""time""
""fullscreenenter"",""0"",""1355""
","
","
","""event"",""trial"",""time""
""fullscreenenter"",""0"",""1355""
","
","null","<p></p>","null","","","","","","","","","","","","","","","","","","","","","","","",""
"","do_recog","69","253959","0.0-44.0-0.0","""event"",""trial"",""time""
""fullscreenenter"",""0"",""1355""
","
","
","""event"",""trial"",""time""
""fullscreenenter"",""0"",""1355""
","
","2370.199999988079","","","","","","","","56","","","","255","probe-32","","","","","1","[object Object]","158","3","0","","","",""
"","html-keyboard-response","70","254969","0.0-44.0-1.0","""event"",""trial"",""time""
""fullscreenenter"",""0"",""1355""
","
","
","""event"",""trial"",""time""
""fullscreenenter"",""0"",""1355""
","
","null","<p></p>","null","","","","","","","","","","","","","","","","","","","","","","","",""
"","do_trial","71","258059","0.0-45.0-0.0","""event"",""trial"",""time""
""fullscreenenter"",""0"",""1355""
","
","
","""event"",""trial"",""time""
""fullscreenenter"",""0"",""1355""
","
","563.3000000119209","","","","","","","","49","1,1,1","6","blank","256","null","0.11462400188055889","0.39542426148222987","0.5922358416195593","1","","","","","","","","",""
"","html-keyboard-response","72","259072","0.0-45.0-1.0","""event"",""trial"",""time""
""fullscreenenter"",""0"",""1355""
","
","
","""event"",""trial"",""time""
""fullscreenenter"",""0"",""1355""
","
","null","<p></p>","null","","","","","","","","","","","","","","","","","","","","","","","",""
"","do_trial","73","261967","0.0-46.0-0.0","""event"",""trial"",""time""
""fullscreenenter"",""0"",""1355""
","
","
","""event"",""trial"",""time""
""fullscreenenter"",""0"",""1355""
","
","370.60000002384186","","","","","","","","49","0,1,1","6","blank","257","null","0.09143366676938622","0.45888190523319516","0.6317659475393522","0","","","","","","","","",""
"","html-keyboard-response","74","262971","0.0-46.0-1.0","""event"",""trial"",""time""
""fullscreenenter"",""0"",""1355""
","
","
","""event"",""trial"",""time""
""fullscreenenter"",""0"",""1355""
","
","null","<p></p>","null","","","","","","","","","","","","","","","","","","","","","","","",""
"","do_trial","75","265805","0.0-47.0-0.0","""event"",""trial"",""time""
""fullscreenenter"",""0"",""1355""
","
","
","""event"",""trial"",""time""
""fullscreenenter"",""0"",""1355""
","
","306.19999998807907","","","","","","","","49","0,0,0","6","blank","258","null","0.18772351530976436","0.4694736578570513","0.5434120944717582","0","","","","","","","","",""
"","html-keyboard-response","76","266810","0.0-47.0-1.0","""event"",""trial"",""time""
""fullscreenenter"",""0"",""1355""
","
","
","""event"",""trial"",""time""
""fullscreenenter"",""0"",""1355""
","
","null","<p></p>","null","","","","","","","","","","","","","","","","","","","","","","","",""
"","do_recog","77","270420","0.0-48.0-0.0","""event"",""trial"",""time""
""fullscreenenter"",""0"",""1355""
","
","
","""event"",""trial"",""time""
""fullscreenenter"",""0"",""1355""
","
","2101.100000023842","","","","","","","","53","","","","259","probe-64","","","","","1","[object Object]","198","4","1","","","",""
"","html-keyboard-response","78","271428","0.0-48.0-1.0","""event"",""trial"",""time""
""fullscreenenter"",""0"",""1355""
","
","
","""event"",""trial"",""time""
""fullscreenenter"",""0"",""1355""
","
","null","<p></p>","null","","","","","","","","","","","","","","","","","","","","","","","",""
"","do_trial","79","274382","0.0-49.0-0.0","""event"",""trial"",""time""
""fullscreenenter"",""0"",""1355""
","
","
","""event"",""trial"",""time""
""fullscreenenter"",""0"",""1355""
","
","422.5","","","","","","","","51","0,0,1","6","blank","260","null","0.2600354286806039","0.486216104038283","0.6311872466110985","1","","","","","","","","",""
"","html-keyboard-response","80","275387","0.0-49.0-1.0","""event"",""trial"",""time""
""fullscreenenter"",""0"",""1355""
","
","
","""event"",""trial"",""time""
""fullscreenenter"",""0"",""1355""
","
","null","<p></p>","null","","","","","","","","","","","","","","","","","","","","","","","",""
"","do_trial","81","278452","0.0-50.0-0.0","""event"",""trial"",""time""
""fullscreenenter"",""0"",""1355""
","
","
","""event"",""trial"",""time""
""fullscreenenter"",""0"",""1355""
","
","535.5","","","","","","","","51","0,1,1","6","blank","261","null","0.11474778301868478","0.4990461742152006","0.5257037480559649","1","","","","","","","","",""
"","html-keyboard-response","82","279461","0.0-50.0-1.0","""event"",""trial"",""time""
""fullscreenenter"",""0"",""1355""
","
","
","""event"",""trial"",""time""
""fullscreenenter"",""0"",""1355""
","
","null","<p></p>","null","","","","","","","","","","","","","","","","","","","","","","","",""
"","do_trial","83","282541","0.0-51.0-0.0","""event"",""trial"",""time""
""fullscreenenter"",""0"",""1355""
","
","
","""event"",""trial"",""time""
""fullscreenenter"",""0"",""1355""
","
","546.1999999880791","","","","","","","","51","1,1,1","6","blank","262","null","0.1650579234668731","0.5283688278017665","0.7470875146834842","1","","","","","","","","",""
"","html-keyboard-response","84","283553","0.0-51.0-1.0","""event"",""trial"",""time""
""fullscreenenter"",""0"",""1355""
","
","
","""event"",""trial"",""time""
""fullscreenenter"",""0"",""1355""
","
","null","<p></p>","null","","","","","","","","","","","","","","","","","","","","","","","",""
"","do_trial","85","286485","0.0-52.0-0.0","""event"",""trial"",""time""
""fullscreenenter"",""0"",""1355""
","
","
","""event"",""trial"",""time""
""fullscreenenter"",""0"",""1355""
","
","410.80000001192093","","","","","","","","51","0,0,0","6","blank","263","null","0.1834574189292004","0.3744871260940532","0.6959334603094003","0","","","","","","","","",""
"","html-keyboard-response","86","287487","0.0-52.0-1.0","""event"",""trial"",""time""
""fullscreenenter"",""0"",""1355""
","
","
","""event"",""trial"",""time""
""fullscreenenter"",""0"",""1355""
","
","null","<p></p>","null","","","","","","","","","","","","","","","","","","","","","","","",""
"","do_trial","87","290383","0.0-53.0-0.0","""event"",""trial"",""time""
""fullscreenenter"",""0"",""1355""
","
","
","""event"",""trial"",""time""
""fullscreenenter"",""0"",""1355""
","
","366.60000002384186","","","","","","","","51","0,0,0","6","blank","264","null","0.17139786685078007","0.28102367951262336","0.6070179604304949","0","","","","","","","","",""
"","html-keyboard-response","88","291389","0.0-53.0-1.0","""event"",""trial"",""time""
""fullscreenenter"",""0"",""1355""
","
","
","""event"",""trial"",""time""
""fullscreenenter"",""0"",""1355""
","
","null","<p></p>","null","","","","","","","","","","","","","","","","","","","","","","","",""
"","do_trial","89","294164","0.0-54.0-0.0","""event"",""trial"",""time""
""fullscreenenter"",""0"",""1355""
","
","
","""event"",""trial"",""time""
""fullscreenenter"",""0"",""1355""
","
","246","","","","","","","","49","0,0,0","6","blank","265","null","0.14956684545715368","0.23362805617296084","0.6846197959166688","0","","","","","","","","",""
"","html-keyboard-response","90","295170","0.0-54.0-1.0","""event"",""trial"",""time""
""fullscreenenter"",""0"",""1355""
","
","
","""event"",""trial"",""time""
""fullscreenenter"",""0"",""1355""
","
","null","<p></p>","null","","","","","","","","","","","","","","","","","","","","","","","",""
"","do_recog","91","298652","0.0-55.0-0.0","""event"",""trial"",""time""
""fullscreenenter"",""0"",""1355""
","
","
","""event"",""trial"",""time""
""fullscreenenter"",""0"",""1355""
","
","1967.300000011921","","","","","","","","56","","","","266","probe-242","","","","","0","[object Object]","null","null","1","","","",""
"","html-keyboard-response","92","299661","0.0-55.0-1.0","""event"",""trial"",""time""
""fullscreenenter"",""0"",""1355""
","
","
","""event"",""trial"",""time""
""fullscreenenter"",""0"",""1355""
","
","null","<p></p>","null","","","","","","","","","","","","","","","","","","","","","","","",""
"","do_trial","93","302857","0.0-56.0-0.0","""event"",""trial"",""time""
""fullscreenenter"",""0"",""1355""
","
","
","""event"",""trial"",""time""
""fullscreenenter"",""0"",""1355""
","
","669.5","","","","","","","","51","0,0,1","6","blank","267","null","0.1162840183645298","0.2831771416499106","0.7061423492356635","1","","","","","","","","",""
"","html-keyboard-response","94","303868","0.0-56.0-1.0","""event"",""trial"",""time""
""fullscreenenter"",""0"",""1355""
","
","
","""event"",""trial"",""time""
""fullscreenenter"",""0"",""1355""
","
","null","<p></p>","null","","","","","","","","","","","","","","","","","","","","","","","",""
"","do_recog","95","306997","0.0-57.0-0.0","""event"",""trial"",""time""
""fullscreenenter"",""0"",""1355""
","
","
","""event"",""trial"",""time""
""fullscreenenter"",""0"",""1355""
","
","1622.7999999523163","","","","","","","","53","","","","268","probe-09","","","","","1","[object Object]","31","0","1","","","",""
"","html-keyboard-response","96","308006","0.0-57.0-1.0","""event"",""trial"",""time""
""fullscreenenter"",""0"",""1355""
","
","
","""event"",""trial"",""time""
""fullscreenenter"",""0"",""1355""
","
","null","<p></p>","null","","","","","","","","","","","","","","","","","","","","","","","",""
"","break","97","316925","0.0-58.0-0.0","""event"",""trial"",""time""
""fullscreenenter"",""0"",""1355""
","
","
","""event"",""trial"",""time""
""fullscreenenter"",""0"",""1355""
","
","8918.099999964237","<div class='center'><p>Time to take a quick break! You have 2 minutes to rest, but you can move on sooner if you'd like.</p><p> Press the <b>space bar</b> to continue.</p></div>","32","","","","","","","","","","","","","","","","","","","","","","","",""
"","do_trial","98","320379","0.0-58.0-1.0","""event"",""trial"",""time""
""fullscreenenter"",""0"",""1355""
","
","
","""event"",""trial"",""time""
""fullscreenenter"",""0"",""1355""
","
","928.5","","","","","","","","51","0,0,1","6","blank","269","null","0.09326545104318282","0.34620040865010554","0.717830890035465","1","","","","","","","","",""
"","html-keyboard-response","99","321391","0.0-58.0-2.0","""event"",""trial"",""time""
""fullscreenenter"",""0"",""1355""
","
","
","""event"",""trial"",""time""
""fullscreenenter"",""0"",""1355""
","
","null","<p></p>","null","","","","","","","","","","","","","","","","","","","","","","","",""
"","do_trial","100","324772","0.0-59.0-0.0","""event"",""trial"",""time""
""fullscreenenter"",""0"",""1355""
","
","
","""event"",""trial"",""time""
""fullscreenenter"",""0"",""1355""
","
","855.1000000238419","","","","","","","","51","1,1,1","6","blank","270","null","0.2706822239356836","0.289611337747199","0.6689676582414696","1","","","","","","","","",""
"","html-keyboard-response","101","325782","0.0-59.0-1.0","""event"",""trial"",""time""
""fullscreenenter"",""0"",""1355""
","
","
","""event"",""trial"",""time""
""fullscreenenter"",""0"",""1355""
","
","null","<p></p>","null","","","","","","","","","","","","","","","","","","","","","","","",""
"","do_trial","102","328613","0.0-60.0-0.0","""event"",""trial"",""time""
""fullscreenenter"",""0"",""1355""
","
","
","""event"",""trial"",""time""
""fullscreenenter"",""0"",""1355""
","
","310","","","","","","","","51","0,0,1","6","blank","271","null","0.23818145373227537","0.2642952405504374","0.6391101408651446","1","","","","","","","","",""
"","html-keyboard-response","103","329619","0.0-60.0-1.0","""event"",""trial"",""time""
""fullscreenenter"",""0"",""1355""
","
","
","""event"",""trial"",""time""
""fullscreenenter"",""0"",""1355""
","
","null","<p></p>","null","","","","","","","","","","","","","","","","","","","","","","","",""
"","do_trial","104","332494","0.0-61.0-0.0","""event"",""trial"",""time""
""fullscreenenter"",""0"",""1355""
","
","
","""event"",""trial"",""time""
""fullscreenenter"",""0"",""1355""
","
","352.89999997615814","","","","","","","","51","1,0,0","6","blank","272","null","0.22746841607414753","0.2804845035193966","0.5614230489489609","0","","","","","","","","",""
"","html-keyboard-response","105","333503","0.0-61.0-1.0","""event"",""trial"",""time""
""fullscreenenter"",""0"",""1355""
","
","
","""event"",""trial"",""time""
""fullscreenenter"",""0"",""1355""
","
","null","<p></p>","null","","","","","","","","","","","","","","","","","","","","","","","",""
"","do_recog","106","336365","0.0-62.0-0.0","""event"",""trial"",""time""
""fullscreenenter"",""0"",""1355""
","
","
","""event"",""trial"",""time""
""fullscreenenter"",""0"",""1355""
","
","1346.9000000357628","","","","","","","","56","","","","273","probe-194","","","","","1","[object Object]","194","4","0","","","",""
"","html-keyboard-response","107","337375","0.0-62.0-1.0","""event"",""trial"",""time""
""fullscreenenter"",""0"",""1355""
","
","
","""event"",""trial"",""time""
""fullscreenenter"",""0"",""1355""
","
","null","<p></p>","null","","","","","","","","","","","","","","","","","","","","","","","",""
"","do_trial","108","340274","0.0-63.0-0.0","""event"",""trial"",""time""
""fullscreenenter"",""0"",""1355""
","
","
","""event"",""trial"",""time""
""fullscreenenter"",""0"",""1355""
","
","370.19999998807907","","","","","","","","50","1,1,1","6","blank","274","null","0.17354268802134357","0.30496466766807845","0.4751608502561907","1","","","","","","","","",""
"","html-keyboard-response","109","341283","0.0-63.0-1.0","""event"",""trial"",""time""
""fullscreenenter"",""0"",""1355""
","
","
","""event"",""trial"",""time""
""fullscreenenter"",""0"",""1355""
","
","null","<p></p>","null","","","","","","","","","","","","","","","","","","","","","","","",""
"","do_recog","110","344757","0.0-64.0-0.0","""event"",""trial"",""time""
""fullscreenenter"",""0"",""1355""
","
","
","""event"",""trial"",""time""
""fullscreenenter"",""0"",""1355""
","
","1959","","","","","","","","53","","","","275","probe-229","","","","","1","[object Object]","78","1","1","","","",""
"","html-keyboard-response","111","345764","0.0-64.0-1.0","""event"",""trial"",""time""
""fullscreenenter"",""0"",""1355""
","
","
","""event"",""trial"",""time""
""fullscreenenter"",""0"",""1355""
","
","null","<p></p>","null","","","","","","","","","","","","","","","","","","","","","","","",""
"","do_trial","112","348805","0.0-65.0-0.0","""event"",""trial"",""time""
""fullscreenenter"",""0"",""1355""
","
","
","""event"",""trial"",""time""
""fullscreenenter"",""0"",""1355""
","
","513.6999999880791","","","","","","","","51","0,0,1","6","blank","276","null","0.06915001042284151","0.339416160866099","0.48217913192489087","1","","","","","","","","",""
"","html-keyboard-response","113","349816","0.0-65.0-1.0","""event"",""trial"",""time""
""fullscreenenter"",""0"",""1355""
","
","
","""event"",""trial"",""time""
""fullscreenenter"",""0"",""1355""
","
","null","<p></p>","null","","","","","","","","","","","","","","","","","","","","","","","",""
"","do_recog","114","352618","0.0-66.0-0.0","""event"",""trial"",""time""
""fullscreenenter"",""0"",""1355""
","
","
","""event"",""trial"",""time""
""fullscreenenter"",""0"",""1355""
","
","1282.199999988079","","","","","","","","56","","","","277","probe-148","","","","","1","[object Object]","197","4","0","","","",""
"","html-keyboard-response","115","353627","0.0-66.0-1.0","""event"",""trial"",""time""
""fullscreenenter"",""0"",""1355""
","
","
","""event"",""trial"",""time""
""fullscreenenter"",""0"",""1355""
","
","null","<p></p>","null","","","","","","","","","","","","","","","","","","","","","","","",""
"","do_trial","116","356600","0.0-67.0-0.0","""event"",""trial"",""time""
""fullscreenenter"",""0"",""1355""
","
","
","""event"",""trial"",""time""
""fullscreenenter"",""0"",""1355""
","
","444.30000001192093","","","","","","","","51","0,0,1","6","blank","278","null","0.07679432404809018","0.32685735702382696","0.5441320104667028","1","","","","","","","","",""
"","html-keyboard-response","117","357613","0.0-67.0-1.0","""event"",""trial"",""time""
""fullscreenenter"",""0"",""1355""
","
","
","""event"",""trial"",""time""
""fullscreenenter"",""0"",""1355""
","
","null","<p></p>","null","","","","","","","","","","","","","","","","","","","","","","","",""
"","do_trial","118","360584","0.0-68.0-0.0","""event"",""trial"",""time""
""fullscreenenter"",""0"",""1355""
","
","
","""event"",""trial"",""time""
""fullscreenenter"",""0"",""1355""
","
","441.30000001192093","","","","","","","","51","0,1,1","6","blank","279","null","0.10254156475729818","0.35295921643852035","0.5999418663755622","1","","","","","","","","",""
"","html-keyboard-response","119","361595","0.0-68.0-1.0","""event"",""trial"",""time""
""fullscreenenter"",""0"",""1355""
","
","
","""event"",""trial"",""time""
""fullscreenenter"",""0"",""1355""
","
","null","<p></p>","null","","","","","","","","","","","","","","","","","","","","","","","",""
"","do_trial","120","364715","0.0-69.0-0.0","""event"",""trial"",""time""
""fullscreenenter"",""0"",""1355""
","
","
","""event"",""trial"",""time""
""fullscreenenter"",""0"",""1355""
","
","595.6000000238419","","","","","","","","51","0,1,1","6","blank","280","null","0.08034548397189525","0.21629229075647055","0.5788634216938274","1","","","","","","","","",""
"","html-keyboard-response","121","365728","0.0-69.0-1.0","""event"",""trial"",""time""
""fullscreenenter"",""0"",""1355""
","
","
","""event"",""trial"",""time""
""fullscreenenter"",""0"",""1355""
","
","null","<p></p>","null","","","","","","","","","","","","","","","","","","","","","","","",""
"","do_trial","122","368647","0.0-70.0-0.0","""event"",""trial"",""time""
""fullscreenenter"",""0"",""1355""
","
","
","""event"",""trial"",""time""
""fullscreenenter"",""0"",""1355""
","
","384.2000000476837","","","","","","","","51","0,1,1","6","blank","281","null","0.051920540328039985","0.3527212472464868","0.647785939188684","1","","","","","","","","",""
"","html-keyboard-response","123","369659","0.0-70.0-1.0","""event"",""trial"",""time""
""fullscreenenter"",""0"",""1355""
","
","
","""event"",""trial"",""time""
""fullscreenenter"",""0"",""1355""
","
","null","<p></p>","null","","","","","","","","","","","","","","","","","","","","","","","",""
"","do_trial","124","372612","0.0-71.0-0.0","""event"",""trial"",""time""
""fullscreenenter"",""0"",""1355""
","
","
","""event"",""trial"",""time""
""fullscreenenter"",""0"",""1355""
","
","423.89999997615814","","","","","","","","51","1,0,0","6","blank","282","null","0.15388096240701696","0.34452532372307704","0.6679338387425294","0","","","","","","","","",""
"","html-keyboard-response","125","373622","0.0-71.0-1.0","""event"",""trial"",""time""
""fullscreenenter"",""0"",""1355""
","
","
","""event"",""trial"",""time""
""fullscreenenter"",""0"",""1355""
","
","null","<p></p>","null","","","","","","","","","","","","","","","","","","","","","","","",""
"","do_trial","126","376483","0.0-72.0-0.0","""event"",""trial"",""time""
""fullscreenenter"",""0"",""1355""
","
","
","""event"",""trial"",""time""
""fullscreenenter"",""0"",""1355""
","
","332.5","","","","","","","","50","0,0,1","6","blank","283","null","0.19608354206892276","0.36537971803997765","0.6864662076346055","0","","","","","","","","",""
"","html-keyboard-response","127","377496","0.0-72.0-1.0","""event"",""trial"",""time""
""fullscreenenter"",""0"",""1355""
","
","
","""event"",""trial"",""time""
""fullscreenenter"",""0"",""1355""
","
","null","<p></p>","null","","","","","","","","","","","","","","","","","","","","","","","",""
"","do_recog","128","380370","0.0-73.0-0.0","""event"",""trial"",""time""
""fullscreenenter"",""0"",""1355""
","
","
","""event"",""trial"",""time""
""fullscreenenter"",""0"",""1355""
","
","1354.9000000357628","","","","","","","","56","","","","284","probe-124","","","","","1","[object Object]","110","2","0","","","",""
"","html-keyboard-response","129","381380","0.0-73.0-1.0","""event"",""trial"",""time""
""fullscreenenter"",""0"",""1355""
","
","
","""event"",""trial"",""time""
""fullscreenenter"",""0"",""1355""
","
","null","<p></p>","null","","","","","","","","","","","","","","","","","","","","","","","",""
"","do_trial","130","384489","0.0-74.0-0.0","""event"",""trial"",""time""
""fullscreenenter"",""0"",""1355""
","
","
","""event"",""trial"",""time""
""fullscreenenter"",""0"",""1355""
","
","574.1999999880791","","","","","","","","51","1,0,1","6","blank","285","null","0.2071151644289308","0.29406114904550396","0.5075662380594895","1","","","","","","","","",""
"","html-keyboard-response","131","385504","0.0-74.0-1.0","""event"",""trial"",""time""
""fullscreenenter"",""0"",""1355""
","
","
","""event"",""trial"",""time""
""fullscreenenter"",""0"",""1355""
","
","null","<p></p>","null","","","","","","","","","","","","","","","","","","","","","","","",""
"","do_trial","132","388481","0.0-75.0-0.0","""event"",""trial"",""time""
""fullscreenenter"",""0"",""1355""
","
","
","""event"",""trial"",""time""
""fullscreenenter"",""0"",""1355""
","
","445.5","","","","","","","","51","0,0,0","6","blank","286","null","0.09815587010198265","0.23497770646746283","0.6917010623228598","0","","","","","","","","",""
"","html-keyboard-response","133","389492","0.0-75.0-1.0","""event"",""trial"",""time""
""fullscreenenter"",""0"",""1355""
","
","
","""event"",""trial"",""time""
""fullscreenenter"",""0"",""1355""
","
","null","<p></p>","null","","","","","","","","","","","","","","","","","","","","","","","",""
"","do_trial","134","392523","0.0-76.0-0.0","""event"",""trial"",""time""
""fullscreenenter"",""0"",""1355""
","
","
","""event"",""trial"",""time""
""fullscreenenter"",""0"",""1355""
","
","500.69999998807907","","","","","","","","51","0,0,1","6","blank","287","null","0.14245406712053477","0.35039520578270483","0.5484250208516473","1","","","","","","","","",""
"","html-keyboard-response","135","393532","0.0-76.0-1.0","""event"",""trial"",""time""
""fullscreenenter"",""0"",""1355""
","
","
","""event"",""trial"",""time""
""fullscreenenter"",""0"",""1355""
","
","null","<p></p>","null","","","","","","","","","","","","","","","","","","","","","","","",""
"","do_trial","136","396639","0.0-77.0-0.0","""event"",""trial"",""time""
""fullscreenenter"",""0"",""1355""
","
","
","""event"",""trial"",""time""
""fullscreenenter"",""0"",""1355""
","
","582.6999999880791","","","","","","","","51","0,0,1","6","blank","288","null","0.10871660960339567","0.17409813922335926","0.6146546902048032","1","","","","","","","","",""
"","html-keyboard-response","137","397645","0.0-77.0-1.0","""event"",""trial"",""time""
""fullscreenenter"",""0"",""1355""
","
","
","""event"",""trial"",""time""
""fullscreenenter"",""0"",""1355""
","
","null","<p></p>","null","","","","","","","","","","","","","","","","","","","","","","","",""
"","do_trial","138","400627","0.0-78.0-0.0","""event"",""trial"",""time""
""fullscreenenter"",""0"",""1355""
","
","
","""event"",""trial"",""time""
""fullscreenenter"",""0"",""1355""
","
","446.80000001192093","","","","","","","","51","0,1,0","6","blank","289","null","0.13745286720301322","0.30749386726539707","0.549184635339343","0","","","","","","","","",""
"","html-keyboard-response","139","401635","0.0-78.0-1.0","""event"",""trial"",""time""
""fullscreenenter"",""0"",""1355""
","
","
","""event"",""trial"",""time""
""fullscreenenter"",""0"",""1355""
","
","null","<p></p>","null","","","","","","","","","","","","","","","","","","","","","","","",""
"","do_trial","140","404506","0.0-79.0-0.0","""event"",""trial"",""time""
""fullscreenenter"",""0"",""1355""
","
","
","""event"",""trial"",""time""
""fullscreenenter"",""0"",""1355""
","
","339.4000000357628","","","","","","","","51","1,0,1","6","blank","290","null","0.20628609059139988","0.1905091165286965","0.6073771170178857","1","","","","","","","","",""
"","html-keyboard-response","141","405516","0.0-79.0-1.0","""event"",""trial"",""time""
""fullscreenenter"",""0"",""1355""
","
","
","""event"",""trial"",""time""
""fullscreenenter"",""0"",""1355""
","
","null","<p></p>","null","","","","","","","","","","","","","","","","","","","","","","","",""
"","do_trial","142","408402","0.0-80.0-0.0","""event"",""trial"",""time""
""fullscreenenter"",""0"",""1355""
","
","
","""event"",""trial"",""time""
""fullscreenenter"",""0"",""1355""
","
","349","","","","","","","","51","0,1,0","6","blank","291","null","0.38831424156477623","0.25901597460613773","0.5299557060103309","0","","","","","","","","",""
"","html-keyboard-response","143","409415","0.0-80.0-1.0","""event"",""trial"",""time""
""fullscreenenter"",""0"",""1355""
","
","
","""event"",""trial"",""time""
""fullscreenenter"",""0"",""1355""
","
","null","<p></p>","null","","","","","","","","","","","","","","","","","","","","","","","",""
"","do_recog","144","412193","0.0-81.0-0.0","""event"",""trial"",""time""
""fullscreenenter"",""0"",""1355""
","
","
","""event"",""trial"",""time""
""fullscreenenter"",""0"",""1355""
","
","1273.6000000238419","","","","","","","","56","","","","292","probe-243","","","","","0","[object Object]","null","null","1","","","",""
"","html-keyboard-response","145","413201","0.0-81.0-1.0","""event"",""trial"",""time""
""fullscreenenter"",""0"",""1355""
","
","
","""event"",""trial"",""time""
""fullscreenenter"",""0"",""1355""
","
","null","<p></p>","null","","","","","","","","","","","","","","","","","","","","","","","",""
"","do_trial","146","416094","0.0-82.0-0.0","""event"",""trial"",""time""
""fullscreenenter"",""0"",""1355""
","
","
","""event"",""trial"",""time""
""fullscreenenter"",""0"",""1355""
","
","358.5","","","","","","","","51","1,0,0","6","blank","293","null","0.46913606235900446","0.07426977552488076","0.3592536773749994","0","","","","","","","","",""
"","html-keyboard-response","147","417102","0.0-82.0-1.0","""event"",""trial"",""time""
""fullscreenenter"",""0"",""1355""
","
","
","""event"",""trial"",""time""
""fullscreenenter"",""0"",""1355""
","
","null","<p></p>","null","","","","","","","","","","","","","","","","","","","","","","","",""
"","do_trial","148","419916","0.0-83.0-0.0","""event"",""trial"",""time""
""fullscreenenter"",""0"",""1355""
","
","
","""event"",""trial"",""time""
""fullscreenenter"",""0"",""1355""
","
","290.7999999523163","","","","","","","","49","0,0,0","6","blank","294","null","0.5757772449595586","0.13822622444245464","0.1425625570108451","0","","","","","","","","",""
"","html-keyboard-response","149","420930","0.0-83.0-1.0","""event"",""trial"",""time""
""fullscreenenter"",""0"",""1355""
","
","
","""event"",""trial"",""time""
""fullscreenenter"",""0"",""1355""
","
","null","<p></p>","null","","","","","","","","","","","","","","","","","","","","","","","",""
"","do_trial","150","423724","0.0-84.0-0.0","""event"",""trial"",""time""
""fullscreenenter"",""0"",""1355""
","
","
","""event"",""trial"",""time""
""fullscreenenter"",""0"",""1355""
","
","271.19999998807907","","","","","","","","50","1,0,0","6","blank","295","null","0.6160180637907692","0.271236524471312","0.08718343878194437","0","","","","","","","","",""
"","html-keyboard-response","151","424736","0.0-84.0-1.0","""event"",""trial"",""time""
""fullscreenenter"",""0"",""1355""
","
","
","""event"",""trial"",""time""
""fullscreenenter"",""0"",""1355""
","
","null","<p></p>","null","","","","","","","","","","","","","","","","","","","","","","","",""
"","do_trial","152","427521","0.0-85.0-0.0","""event"",""trial"",""time""
""fullscreenenter"",""0"",""1355""
","
","
","""event"",""trial"",""time""
""fullscreenenter"",""0"",""1355""
","
","256.80000001192093","","","","","","","","51","1,1,0","6","blank","296","null","0.6127863154349404","0.3009156429963753","0.12795207514778578","0","","","","","","","","",""
"","html-keyboard-response","153","428533","0.0-85.0-1.0","""event"",""trial"",""time""
""fullscreenenter"",""0"",""1355""
","
","
","""event"",""trial"",""time""
""fullscreenenter"",""0"",""1355""
","
","null","<p></p>","null","","","","","","","","","","","","","","","","","","","","","","","",""
"","do_recog","154","431622","0.0-86.0-0.0","""event"",""trial"",""time""
""fullscreenenter"",""0"",""1355""
","
","
","""event"",""trial"",""time""
""fullscreenenter"",""0"",""1355""
","
","1574.9000000357628","","","","","","","","53","","","","297","probe-67","","","","","1","[object Object]","191","4","1","","","",""
"","html-keyboard-response","155","432629","0.0-86.0-1.0","""event"",""trial"",""time""
""fullscreenenter"",""0"",""1355""
","
","
","""event"",""trial"",""time""
""fullscreenenter"",""0"",""1355""
","
","null","<p></p>","null","","","","","","","","","","","","","","","","","","","","","","","",""
"","do_trial","156","435568","0.0-87.0-0.0","""event"",""trial"",""time""
""fullscreenenter"",""0"",""1355""
","
","
","""event"",""trial"",""time""
""fullscreenenter"",""0"",""1355""
","
","412.89999997615814","","","","","","","","51","1,0,0","6","blank","298","null","0.6528058976468978","0.2621754655573122","0.15378199444377447","0","","","","","","","","",""
"","html-keyboard-response","157","436580","0.0-87.0-1.0","""event"",""trial"",""time""
""fullscreenenter"",""0"",""1355""
","
","
","""event"",""trial"",""time""
""fullscreenenter"",""0"",""1355""
","
","null","<p></p>","null","","","","","","","","","","","","","","","","","","","","","","","",""
"","do_recog","158","439217","0.0-88.0-0.0","""event"",""trial"",""time""
""fullscreenenter"",""0"",""1355""
","
","
","""event"",""trial"",""time""
""fullscreenenter"",""0"",""1355""
","
","1117.699999988079","","","","","","","","56","","","","299","probe-214","","","","","1","[object Object]","79","1","0","","","",""
"","html-keyboard-response","159","440229","0.0-88.0-1.0","""event"",""trial"",""time""
""fullscreenenter"",""0"",""1355""
","
","
","""event"",""trial"",""time""
""fullscreenenter"",""0"",""1355""
","
","null","<p></p>","null","","","","","","","","","","","","","","","","","","","","","","","",""
"","do_trial","160","443183","0.0-89.0-0.0","""event"",""trial"",""time""
""fullscreenenter"",""0"",""1355""
","
","
","""event"",""trial"",""time""
""fullscreenenter"",""0"",""1355""
","
","429","","","","","","","","49","1,1,0","6","blank","300","null","0.7248147857469991","0.21043431591207118","0.06052600800059759","1","","","","","","","","",""
"","html-keyboard-response","161","444193","0.0-89.0-1.0","""event"",""trial"",""time""
""fullscreenenter"",""0"",""1355""
","
","
","""event"",""trial"",""time""
""fullscreenenter"",""0"",""1355""
","
","null","<p></p>","null","","","","","","","","","","","","","","","","","","","","","","","",""
"","do_recog","162","447414","0.0-90.0-0.0","""event"",""trial"",""time""
""fullscreenenter"",""0"",""1355""
","
","
","""event"",""trial"",""time""
""fullscreenenter"",""0"",""1355""
","
","1705.2000000476837","","","","","","","","55","","","","301","probe-183","","","","","1","[object Object]","35","0","0","","","",""
"","html-keyboard-response","163","448422","0.0-90.0-1.0","""event"",""trial"",""time""
""fullscreenenter"",""0"",""1355""
","
","
","""event"",""trial"",""time""
""fullscreenenter"",""0"",""1355""
","
","null","<p></p>","null","","","","","","","","","","","","","","","","","","","","","","","",""
"","do_trial","164","451371","0.0-91.0-0.0","""event"",""trial"",""time""
""fullscreenenter"",""0"",""1355""
","
","
","""event"",""trial"",""time""
""fullscreenenter"",""0"",""1355""
","
","412.80000001192093","","","","","","","","49","1,0,0","6","blank","302","null","0.6797166663730703","0.24872979990187163","0.14845809616651554","1","","","","","","","","",""
"","html-keyboard-response","165","452372","0.0-91.0-1.0","""event"",""trial"",""time""
""fullscreenenter"",""0"",""1355""
","
","
","""event"",""trial"",""time""
""fullscreenenter"",""0"",""1355""
","
","null","<p></p>","null","","","","","","","","","","","","","","","","","","","","","","","",""
"","do_trial","166","455314","0.0-92.0-0.0","""event"",""trial"",""time""
""fullscreenenter"",""0"",""1355""
","
","
","""event"",""trial"",""time""
""fullscreenenter"",""0"",""1355""
","
","416.19999998807907","","","","","","","","49","1,0,1","6","blank","303","null","0.6067575703655966","0.3518525062612588","0.16105430899952283","1","","","","","","","","",""
"","html-keyboard-response","167","456324","0.0-92.0-1.0","""event"",""trial"",""time""
""fullscreenenter"",""0"",""1355""
","
","
","""event"",""trial"",""time""
""fullscreenenter"",""0"",""1355""
","
","null","<p></p>","null","","","","","","","","","","","","","","","","","","","","","","","",""
"","do_trial","168","459294","0.0-93.0-0.0","""event"",""trial"",""time""
""fullscreenenter"",""0"",""1355""
","
","
","""event"",""trial"",""time""
""fullscreenenter"",""0"",""1355""
","
","436.69999998807907","","","","","","","","49","1,0,1","6","blank","304","null","0.6904989354705475","0.3033694572805691","0.10703933736045315","1","","","","","","","","",""
"","html-keyboard-response","169","460301","0.0-93.0-1.0","""event"",""trial"",""time""
""fullscreenenter"",""0"",""1355""
","
","
","""event"",""trial"",""time""
""fullscreenenter"",""0"",""1355""
","
","null","<p></p>","null","","","","","","","","","","","","","","","","","","","","","","","",""
"","do_recog","170","463672","0.0-94.0-0.0","""event"",""trial"",""time""
""fullscreenenter"",""0"",""1355""
","
","
","""event"",""trial"",""time""
""fullscreenenter"",""0"",""1355""
","
","1854.8999999761581","","","","","","","","53","","","","305","probe-192","","","","","1","[object Object]","196","4","1","","","",""
"","html-keyboard-response","171","464683","0.0-94.0-1.0","""event"",""trial"",""time""
""fullscreenenter"",""0"",""1355""
","
","
","""event"",""trial"",""time""
""fullscreenenter"",""0"",""1355""
","
","null","<p></p>","null","","","","","","","","","","","","","","","","","","","","","","","",""
"","do_trial","172","467260","0.0-95.0-0.0","""event"",""trial"",""time""
""fullscreenenter"",""0"",""1355""
","
","
","""event"",""trial"",""time""
""fullscreenenter"",""0"",""1355""
","
","42.89999997615814","","","","","","","","49","1,0,0","6","blank","306","null","0.5947607342101838","0.3719997531538297","0.06064198411565948","1","","","","","","","","",""
"","html-keyboard-response","173","468271","0.0-95.0-1.0","""event"",""trial"",""time""
""fullscreenenter"",""0"",""1355""
","
","
","""event"",""trial"",""time""
""fullscreenenter"",""0"",""1355""
","
","null","<p></p>","null","","","","","","","","","","","","","","","","","","","","","","","",""
"","do_trial","174","471024","0.0-96.0-0.0","""event"",""trial"",""time""
""fullscreenenter"",""0"",""1355""
","
","
","""event"",""trial"",""time""
""fullscreenenter"",""0"",""1355""
","
","218.19999998807907","","","","","","","","49","1,0,1","6","blank","307","null","0.5160858431983151","0.32143325236678294","0.11529757248078618","1","","","","","","","","",""
"","html-keyboard-response","175","472029","0.0-96.0-1.0","""event"",""trial"",""time""
""fullscreenenter"",""0"",""1355""
","
","
","""event"",""trial"",""time""
""fullscreenenter"",""0"",""1355""
","
","null","<p></p>","null","","","","","","","","","","","","","","","","","","","","","","","",""
"","do_recog","176","475445","0.0-97.0-0.0","""event"",""trial"",""time""
""fullscreenenter"",""0"",""1355""
","
","
","""event"",""trial"",""time""
""fullscreenenter"",""0"",""1355""
","
","1895.300000011921","","","","","","","","55","","","","308","probe-184","","","","","1","[object Object]","37","0","0","","","",""
"","html-keyboard-response","177","476450","0.0-97.0-1.0","""event"",""trial"",""time""
""fullscreenenter"",""0"",""1355""
","
","
","""event"",""trial"",""time""
""fullscreenenter"",""0"",""1355""
","
","null","<p></p>","null","","","","","","","","","","","","","","","","","","","","","","","",""
"","break","178","477396","0.0-98.0-0.0","""event"",""trial"",""time""
""fullscreenenter"",""0"",""1355""
","
","
","""event"",""trial"",""time""
""fullscreenenter"",""0"",""1355""
","
","943.6000000238419","<div class='center'><p>Time to take a quick break! You have 2 minutes to rest, but you can move on sooner if you'd like.</p><p> Press the <b>space bar</b> to continue.</p></div>","32","","","","","","","","","","","","","","","","","","","","","","","",""
"","do_trial","179","480711","0.0-98.0-1.0","""event"",""trial"",""time""
""fullscreenenter"",""0"",""1355""
","
","
","""event"",""trial"",""time""
""fullscreenenter"",""0"",""1355""
","
","794.1999999880791","","","","","","","","49","0,0,1","6","blank","309","null","0.5249853419102792","0.3034906521853328","0.13513184377150178","0","","","","","","","","",""
"","html-keyboard-response","180","481722","0.0-98.0-2.0","""event"",""trial"",""time""
""fullscreenenter"",""0"",""1355""
","
","
","""event"",""trial"",""time""
""fullscreenenter"",""0"",""1355""
","
","null","<p></p>","null","","","","","","","","","","","","","","","","","","","","","","","",""
"","do_recog","181","485465","0.0-99.0-0.0","""event"",""trial"",""time""
""fullscreenenter"",""0"",""1355""
","
","
","""event"",""trial"",""time""
""fullscreenenter"",""0"",""1355""
","
","2227.5","","","","","","","","54","","","","310","probe-61","","","","","1","[object Object]","33","0","1","","","",""
"","html-keyboard-response","182","486474","0.0-99.0-1.0","""event"",""trial"",""time""
""fullscreenenter"",""0"",""1355""
","
","
","""event"",""trial"",""time""
""fullscreenenter"",""0"",""1355""
","
","null","<p></p>","null","","","","","","","","","","","","","","","","","","","","","","","",""
"","do_trial","183","489629","0.0-100.0-0.0","""event"",""trial"",""time""
""fullscreenenter"",""0"",""1355""
","
","
","""event"",""trial"",""time""
""fullscreenenter"",""0"",""1355""
","
","619.8000000119209","","","","","","","","49","1,1,1","6","blank","311","null","0.5841140836803661","0.40285472927191235","0.05840158739269995","1","","","","","","","","",""
"","html-keyboard-response","184","490638","0.0-100.0-1.0","""event"",""trial"",""time""
""fullscreenenter"",""0"",""1355""
","
","
","""event"",""trial"",""time""
""fullscreenenter"",""0"",""1355""
","
","null","<p></p>","null","","","","","","","","","","","","","","","","","","","","","","","",""
"","do_trial","185","493274","0.0-101.0-0.0","""event"",""trial"",""time""
""fullscreenenter"",""0"",""1355""
","
","
","""event"",""trial"",""time""
""fullscreenenter"",""0"",""1355""
","
","114.09999996423721","","","","","","","","49","1,0,1","6","blank","312","null","0.6227217812582655","0.3585864808858838","0.20559679350430238","1","","","","","","","","",""
"","html-keyboard-response","186","494283","0.0-101.0-1.0","""event"",""trial"",""time""
""fullscreenenter"",""0"",""1355""
","
","
","""event"",""trial"",""time""
""fullscreenenter"",""0"",""1355""
","
","null","<p></p>","null","","","","","","","","","","","","","","","","","","","","","","","",""
"","do_recog","187","497222","0.0-102.0-0.0","""event"",""trial"",""time""
""fullscreenenter"",""0"",""1355""
","
","
","""event"",""trial"",""time""
""fullscreenenter"",""0"",""1355""
","
","1424.5","","","","","","","","55","","","","313","probe-208","","","","","1","[object Object]","32","0","0","","","",""
"","html-keyboard-response","188","498233","0.0-102.0-1.0","""event"",""trial"",""time""
""fullscreenenter"",""0"",""1355""
","
","
","""event"",""trial"",""time""
""fullscreenenter"",""0"",""1355""
","
","null","<p></p>","null","","","","","","","","","","","","","","","","","","","","","","","",""
"","do_trial","189","501284","0.0-103.0-0.0","""event"",""trial"",""time""
""fullscreenenter"",""0"",""1355""
","
","
","""event"",""trial"",""time""
""fullscreenenter"",""0"",""1355""
","
","520.4000000357628","","","","","","","","49","1,0,0","6","blank","314","null","0.5796561840607146","0.27716582364704573","0.08281081047020203","1","","","","","","","","",""
"","html-keyboard-response","190","502294","0.0-103.0-1.0","""event"",""trial"",""time""
""fullscreenenter"",""0"",""1355""
","
","
","""event"",""trial"",""time""
""fullscreenenter"",""0"",""1355""
","
","null","<p></p>","null","","","","","","","","","","","","","","","","","","","","","","","",""
"","do_trial","191","505122","0.0-104.0-0.0","""event"",""trial"",""time""
""fullscreenenter"",""0"",""1355""
","
","
","""event"",""trial"",""time""
""fullscreenenter"",""0"",""1355""
","
","291.19999998807907","","","","","","","","49","1,0,0","6","blank","315","null","0.755197835374967","0.3039262519141991","0.13284534008424365","1","","","","","","","","",""
"","html-keyboard-response","192","506136","0.0-104.0-1.0","""event"",""trial"",""time""
""fullscreenenter"",""0"",""1355""
","
","
","""event"",""trial"",""time""
""fullscreenenter"",""0"",""1355""
","
","null","<p></p>","null","","","","","","","","","","","","","","","","","","","","","","","",""
"","do_trial","193","508973","0.0-105.0-0.0","""event"",""trial"",""time""
""fullscreenenter"",""0"",""1355""
","
","
","""event"",""trial"",""time""
""fullscreenenter"",""0"",""1355""
","
","299.30000001192093","","","","","","","","49","1,0,0","6","blank","316","null","0.6206982144883505","0.14210929293139363","0.05092153076650886","1","","","","","","","","",""
"","html-keyboard-response","194","509979","0.0-105.0-1.0","""event"",""trial"",""time""
""fullscreenenter"",""0"",""1355""
","
","
","""event"",""trial"",""time""
""fullscreenenter"",""0"",""1355""
","
","null","<p></p>","null","","","","","","","","","","","","","","","","","","","","","","","",""
"","do_trial","195","512846","0.0-106.0-0.0","""event"",""trial"",""time""
""fullscreenenter"",""0"",""1355""
","
","
","""event"",""trial"",""time""
""fullscreenenter"",""0"",""1355""
","
","342.80000001192093","","","","","","","","49","1,0,0","6","blank","317","null","0.6676275276437944","0.22665689614399948","0.15961785987487925","1","","","","","","","","",""
"","html-keyboard-response","196","513850","0.0-106.0-1.0","""event"",""trial"",""time""
""fullscreenenter"",""0"",""1355""
","
","
","""event"",""trial"",""time""
""fullscreenenter"",""0"",""1355""
","
","null","<p></p>","null","","","","","","","","","","","","","","","","","","","","","","","",""
"","do_trial","197","516712","0.0-107.0-0.0","""event"",""trial"",""time""
""fullscreenenter"",""0"",""1355""
","
","
","""event"",""trial"",""time""
""fullscreenenter"",""0"",""1355""
","
","328.60000002384186","","","","","","","","49","1,0,0","6","blank","318","null","0.45321201244015596","0.16603501441091686","0.2462929160056943","1","","","","","","","","",""
"","html-keyboard-response","198","517721","0.0-107.0-1.0","""event"",""trial"",""time""
""fullscreenenter"",""0"",""1355""
","
","
","""event"",""trial"",""time""
""fullscreenenter"",""0"",""1355""
","
","null","<p></p>","null","","","","","","","","","","","","","","","","","","","","","","","",""
"","do_trial","199","520803","0.0-108.0-0.0","""event"",""trial"",""time""
""fullscreenenter"",""0"",""1355""
","
","
","""event"",""trial"",""time""
""fullscreenenter"",""0"",""1355""
","
","551.5","","","","","","","","49","1,0,0","6","blank","319","null","0.6340431806555765","0.19268272806385278","0.1173058773817289","1","","","","","","","","",""
"","html-keyboard-response","200","521807","0.0-108.0-1.0","""event"",""trial"",""time""
""fullscreenenter"",""0"",""1355""
","
","
","""event"",""trial"",""time""
""fullscreenenter"",""0"",""1355""
","
","null","<p></p>","null","","","","","","","","","","","","","","","","","","","","","","","",""
"","do_recog","201","524923","0.0-109.0-0.0","""event"",""trial"",""time""
""fullscreenenter"",""0"",""1355""
","
","
","""event"",""trial"",""time""
""fullscreenenter"",""0"",""1355""
","
","1601","","","","","","","","56","","","","320","probe-160","","","","","1","[object Object]","39","0","0","","","",""
"","html-keyboard-response","202","525929","0.0-109.0-1.0","""event"",""trial"",""time""
""fullscreenenter"",""0"",""1355""
","
","
","""event"",""trial"",""time""
""fullscreenenter"",""0"",""1355""
","
","null","<p></p>","null","","","","","","","","","","","","","","","","","","","","","","","",""
"","do_trial","203","528808","0.0-110.0-0.0","""event"",""trial"",""time""
""fullscreenenter"",""0"",""1355""
","
","
","""event"",""trial"",""time""
""fullscreenenter"",""0"",""1355""
","
","345.80000001192093","","","","","","","","49","1,0,0","6","blank","321","null","0.6263248236164755","0.20471881115047125","0.13492758133336483","1","","","","","","","","",""
"","html-keyboard-response","204","529815","0.0-110.0-1.0","""event"",""trial"",""time""
""fullscreenenter"",""0"",""1355""
","
","
","""event"",""trial"",""time""
""fullscreenenter"",""0"",""1355""
","
","null","<p></p>","null","","","","","","","","","","","","","","","","","","","","","","","",""
"","do_trial","205","532667","0.0-111.0-0.0","""event"",""trial"",""time""
""fullscreenenter"",""0"",""1355""
","
","
","""event"",""trial"",""time""
""fullscreenenter"",""0"",""1355""
","
","318","","","","","","","","49","0,1,0","6","blank","322","null","0.6366710622578775","0.30878774131853354","0.15895985470286084","0","","","","","","","","",""
"","html-keyboard-response","206","533677","0.0-111.0-1.0","""event"",""trial"",""time""
""fullscreenenter"",""0"",""1355""
","
","
","""event"",""trial"",""time""
""fullscreenenter"",""0"",""1355""
","
","null","<p></p>","null","","","","","","","","","","","","","","","","","","","","","","","",""
"","do_trial","207","536610","0.0-112.0-0.0","""event"",""trial"",""time""
""fullscreenenter"",""0"",""1355""
","
","
","""event"",""trial"",""time""
""fullscreenenter"",""0"",""1355""
","
","404.5","","","","","","","","49","1,0,1","6","blank","323","null","0.7545350348927258","0.2845184474582826","0.17652322586714342","1","","","","","","","","",""
"","html-keyboard-response","208","537613","0.0-112.0-1.0","""event"",""trial"",""time""
""fullscreenenter"",""0"",""1355""
","
","
","""event"",""trial"",""time""
""fullscreenenter"",""0"",""1355""
","
","null","<p></p>","null","","","","","","","","","","","","","","","","","","","","","","","",""
"","do_trial","209","540537","0.0-113.0-0.0","""event"",""trial"",""time""
""fullscreenenter"",""0"",""1355""
","
","
","""event"",""trial"",""time""
""fullscreenenter"",""0"",""1355""
","
","397.4000000357628","","","","","","","","50","1,0,0","6","blank","324","null","0.6484502159989289","0.29110473538002885","0.12220456571995826","0","","","","","","","","",""
"","html-keyboard-response","210","541541","0.0-113.0-1.0","""event"",""trial"",""time""
""fullscreenenter"",""0"",""1355""
","
","
","""event"",""trial"",""time""
""fullscreenenter"",""0"",""1355""
","
","null","<p></p>","null","","","","","","","","","","","","","","","","","","","","","","","",""
"","do_trial","211","544347","0.0-114.0-0.0","""event"",""trial"",""time""
""fullscreenenter"",""0"",""1355""
","
","
","""event"",""trial"",""time""
""fullscreenenter"",""0"",""1355""
","
","284.39999997615814","","","","","","","","49","1,0,0","6","blank","325","null","0.6227337345778886","0.3787567524067859","0.26084701363828317","1","","","","","","","","",""
"","html-keyboard-response","212","545355","0.0-114.0-1.0","""event"",""trial"",""time""
""fullscreenenter"",""0"",""1355""
","
","
","""event"",""trial"",""time""
""fullscreenenter"",""0"",""1355""
","
","null","<p></p>","null","","","","","","","","","","","","","","","","","","","","","","","",""
"","do_trial","213","548305","0.0-115.0-0.0","""event"",""trial"",""time""
""fullscreenenter"",""0"",""1355""
","
","
","""event"",""trial"",""time""
""fullscreenenter"",""0"",""1355""
","
","426.9000000357628","","","","","","","","49","1,0,0","6","blank","326","null","0.5017783678614934","0.3214409600814181","0.1395793042905401","1","","","","","","","","",""
"","html-keyboard-response","214","549315","0.0-115.0-1.0","""event"",""trial"",""time""
""fullscreenenter"",""0"",""1355""
","
","
","""event"",""trial"",""time""
""fullscreenenter"",""0"",""1355""
","
","null","<p></p>","null","","","","","","","","","","","","","","","","","","","","","","","",""
"","do_recog","215","552177","0.0-116.0-0.0","""event"",""trial"",""time""
""fullscreenenter"",""0"",""1355""
","
","
","""event"",""trial"",""time""
""fullscreenenter"",""0"",""1355""
","
","1354.8999999761581","","","","","","","","56","","","","327","probe-104","","","","","1","[object Object]","119","2","0","","","",""
"","html-keyboard-response","216","553187","0.0-116.0-1.0","""event"",""trial"",""time""
""fullscreenenter"",""0"",""1355""
","
","
","""event"",""trial"",""time""
""fullscreenenter"",""0"",""1355""
","
","null","<p></p>","null","","","","","","","","","","","","","","","","","","","","","","","",""
"","do_trial","217","556122","0.0-117.0-0.0","""event"",""trial"",""time""
""fullscreenenter"",""0"",""1355""
","
","
","""event"",""trial"",""time""
""fullscreenenter"",""0"",""1355""
","
","405","","","","","","","","49","1,1,0","6","blank","328","null","0.5189289362265713","0.43286174629709584","0.11261717043627732","1","","","","","","","","",""
"","html-keyboard-response","218","557132","0.0-117.0-1.0","""event"",""trial"",""time""
""fullscreenenter"",""0"",""1355""
","
","
","""event"",""trial"",""time""
""fullscreenenter"",""0"",""1355""
","
","null","<p></p>","null","","","","","","","","","","","","","","","","","","","","","","","",""
"","do_recog","219","560176","0.0-118.0-0.0","""event"",""trial"",""time""
""fullscreenenter"",""0"",""1355""
","
","
","""event"",""trial"",""time""
""fullscreenenter"",""0"",""1355""
","
","1524.800000011921","","","","","","","","56","","","","329","probe-253","","","","","0","[object Object]","null","null","1","","","",""
"","html-keyboard-response","220","561188","0.0-118.0-1.0","""event"",""trial"",""time""
""fullscreenenter"",""0"",""1355""
","
","
","""event"",""trial"",""time""
""fullscreenenter"",""0"",""1355""
","
","null","<p></p>","null","","","","","","","","","","","","","","","","","","","","","","","",""
"","do_trial","221","564196","0.0-119.0-0.0","""event"",""trial"",""time""
""fullscreenenter"",""0"",""1355""
","
","
","""event"",""trial"",""time""
""fullscreenenter"",""0"",""1355""
","
","475","","","","","","","","49","1,1,0","6","blank","330","null","0.5813642080387526","0.4254430040598236","0.06082536554951662","1","","","","","","","","",""
"","html-keyboard-response","222","565208","0.0-119.0-1.0","""event"",""trial"",""time""
""fullscreenenter"",""0"",""1355""
","
","
","""event"",""trial"",""time""
""fullscreenenter"",""0"",""1355""
","
","null","<p></p>","null","","","","","","","","","","","","","","","","","","","","","","","",""
"","do_recog","223","568459","0.0-120.0-0.0","""event"",""trial"",""time""
""fullscreenenter"",""0"",""1355""
","
","
","""event"",""trial"",""time""
""fullscreenenter"",""0"",""1355""
","
","1743.300000011921","","","","","","","","55","","","","331","probe-204","","","","","1","[object Object]","157","3","0","","","",""
"","html-keyboard-response","224","569469","0.0-120.0-1.0","""event"",""trial"",""time""
""fullscreenenter"",""0"",""1355""
","
","
","""event"",""trial"",""time""
""fullscreenenter"",""0"",""1355""
","
","null","<p></p>","null","","","","","","","","","","","","","","","","","","","","","","","",""
"","do_trial","225","572575","0.0-121.0-0.0","""event"",""trial"",""time""
""fullscreenenter"",""0"",""1355""
","
","
","""event"",""trial"",""time""
""fullscreenenter"",""0"",""1355""
","
","580.5","","","","","","","","49","0,1,0","6","blank","332","null","0.5998513756868565","0.29334749534661037","0.0709060269619089","0","","","","","","","","",""
"","html-keyboard-response","226","573584","0.0-121.0-1.0","""event"",""trial"",""time""
""fullscreenenter"",""0"",""1355""
","
","
","""event"",""trial"",""time""
""fullscreenenter"",""0"",""1355""
","
","null","<p></p>","null","","","","","","","","","","","","","","","","","","","","","","","",""
"","do_recog","227","576626","0.0-122.0-0.0","""event"",""trial"",""time""
""fullscreenenter"",""0"",""1355""
","
","
","""event"",""trial"",""time""
""fullscreenenter"",""0"",""1355""
","
","1525.699999988079","","","","","","","","53","","","","333","probe-177","","","","","1","[object Object]","77","1","1","","","",""
"","html-keyboard-response","228","577633","0.0-122.0-1.0","""event"",""trial"",""time""
""fullscreenenter"",""0"",""1355""
","
","
","""event"",""trial"",""time""
""fullscreenenter"",""0"",""1355""
","
","null","<p></p>","null","","","","","","","","","","","","","","","","","","","","","","","",""
"","do_trial","229","580519","0.0-123.0-0.0","""event"",""trial"",""time""
""fullscreenenter"",""0"",""1355""
","
","
","""event"",""trial"",""time""
""fullscreenenter"",""0"",""1355""
","
","356","","","","","","","","49","0,1,0","6","blank","334","null","0.532422164062383","0.3085410631378792","0.16153168003629362","0","","","","","","","","",""
"","html-keyboard-response","230","581527","0.0-123.0-1.0","""event"",""trial"",""time""
""fullscreenenter"",""0"",""1355""
","
","
","""event"",""trial"",""time""
""fullscreenenter"",""0"",""1355""
","
","null","<p></p>","null","","","","","","","","","","","","","","","","","","","","","","","",""
"","do_recog","231","584278","0.0-124.0-0.0","""event"",""trial"",""time""
""fullscreenenter"",""0"",""1355""
","
","
","""event"",""trial"",""time""
""fullscreenenter"",""0"",""1355""
","
","1234.0999999642372","","","","","","","","54","","","","335","probe-211","","","","","1","[object Object]","74","1","1","","","",""
"","html-keyboard-response","232","585290","0.0-124.0-1.0","""event"",""trial"",""time""
""fullscreenenter"",""0"",""1355""
","
","
","""event"",""trial"",""time""
""fullscreenenter"",""0"",""1355""
","
","null","<p></p>","null","","","","","","","","","","","","","","","","","","","","","","","",""
"","do_trial","233","588181","0.0-125.0-0.0","""event"",""trial"",""time""
""fullscreenenter"",""0"",""1355""
","
","
","""event"",""trial"",""time""
""fullscreenenter"",""0"",""1355""
","
","362.5","","","","","","","","50","1,0,1","6","blank","336","null","0.6136669780053372","0.31581960170811","0.18636167342627047","0","","","","","","","","",""
"","html-keyboard-response","234","589190","0.0-125.0-1.0","""event"",""trial"",""time""
""fullscreenenter"",""0"",""1355""
","
","
","""event"",""trial"",""time""
""fullscreenenter"",""0"",""1355""
","
","null","<p></p>","null","","","","","","","","","","","","","","","","","","","","","","","",""
"","do_recog","235","592315","0.0-126.0-0.0","""event"",""trial"",""time""
""fullscreenenter"",""0"",""1355""
","
","
","""event"",""trial"",""time""
""fullscreenenter"",""0"",""1355""
","
","1613.5","","","","","","","","53","","","","337","probe-37","","","","","1","[object Object]","159","3","1","","","",""
"","html-keyboard-response","236","593324","0.0-126.0-1.0","""event"",""trial"",""time""
""fullscreenenter"",""0"",""1355""
","
","
","""event"",""trial"",""time""
""fullscreenenter"",""0"",""1355""
","
","null","<p></p>","null","","","","","","","","","","","","","","","","","","","","","","","",""
"","do_trial","237","596249","0.0-127.0-0.0","""event"",""trial"",""time""
""fullscreenenter"",""0"",""1355""
","
","
","""event"",""trial"",""time""
""fullscreenenter"",""0"",""1355""
","
","395.60000002384186","","","","","","","","49","1,1,0","6","blank","338","null","0.5628200335675525","0.37948334202222866","0.15257182299784808","1","","","","","","","","",""
"","html-keyboard-response","238","597259","0.0-127.0-1.0","""event"",""trial"",""time""
""fullscreenenter"",""0"",""1355""
","
","
","""event"",""trial"",""time""
""fullscreenenter"",""0"",""1355""
","
","null","<p></p>","null","","","","","","","","","","","","","","","","","","","","","","","",""
"","do_trial","239","600329","0.0-128.0-0.0","""event"",""trial"",""time""
""fullscreenenter"",""0"",""1355""
","
","
","""event"",""trial"",""time""
""fullscreenenter"",""0"",""1355""
","
","542.3000000119209","","","","","","","","49","0,0,1","6","blank","339","null","0.6627224782692394","0.308837449026327","0.15215995259654289","0","","","","","","","","",""
"","html-keyboard-response","240","601342","0.0-128.0-1.0","""event"",""trial"",""time""
""fullscreenenter"",""0"",""1355""
","
","
","""event"",""trial"",""time""
""fullscreenenter"",""0"",""1355""
","
","null","<p></p>","null","","","","","","","","","","","","","","","","","","","","","","","",""
"","do_trial","241","604403","0.0-129.0-0.0","""event"",""trial"",""time""
""fullscreenenter"",""0"",""1355""
","
","
","""event"",""trial"",""time""
""fullscreenenter"",""0"",""1355""
","
","527.4000000357628","","","","","","","","49","1,1,0","6","blank","340","null","0.7316586253584514","0.20900484109654158","0.11120394165139344","1","","","","","","","","",""
"","html-keyboard-response","242","605415","0.0-129.0-1.0","""event"",""trial"",""time""
""fullscreenenter"",""0"",""1355""
","
","
","""event"",""trial"",""time""
""fullscreenenter"",""0"",""1355""
","
","null","<p></p>","null","","","","","","","","","","","","","","","","","","","","","","","",""
"","do_trial","243","608239","0.0-130.0-0.0","""event"",""trial"",""time""
""fullscreenenter"",""0"",""1355""
","
","
","""event"",""trial"",""time""
""fullscreenenter"",""0"",""1355""
","
","292.19999998807907","","","","","","","","49","1,1,0","6","blank","341","null","0.8038682925700985","0.29859383031656367","0.18341475897465895","1","","","","","","","","",""
"","html-keyboard-response","244","609247","0.0-130.0-1.0","""event"",""trial"",""time""
""fullscreenenter"",""0"",""1355""
","
","
","""event"",""trial"",""time""
""fullscreenenter"",""0"",""1355""
","
","null","<p></p>","null","","","","","","","","","","","","","","","","","","","","","","","",""
"","do_trial","245","612123","0.0-131.0-0.0","""event"",""trial"",""time""
""fullscreenenter"",""0"",""1355""
","
","
","""event"",""trial"",""time""
""fullscreenenter"",""0"",""1355""
","
","338.19999998807907","","","","","","","","49","0,0,0","6","blank","342","null","0.7956597084619158","0.39420098595817293","0.17241132684588287","0","","","","","","","","",""
"","html-keyboard-response","246","613134","0.0-131.0-1.0","""event"",""trial"",""time""
""fullscreenenter"",""0"",""1355""
","
","
","""event"",""trial"",""time""
""fullscreenenter"",""0"",""1355""
","
","null","<p></p>","null","","","","","","","","","","","","","","","","","","","","","","","",""
"","do_trial","247","616045","0.0-132.0-0.0","""event"",""trial"",""time""
""fullscreenenter"",""0"",""1355""
","
","
","""event"",""trial"",""time""
""fullscreenenter"",""0"",""1355""
","
","377.5","","","","","","","","49","1,1,0","6","blank","343","null","0.8055100703969782","0.3385489399120349","0.21075230131218792","1","","","","","","","","",""
"","html-keyboard-response","248","617056","0.0-132.0-1.0","""event"",""trial"",""time""
""fullscreenenter"",""0"",""1355""
","
","
","""event"",""trial"",""time""
""fullscreenenter"",""0"",""1355""
","
","null","<p></p>","null","","","","","","","","","","","","","","","","","","","","","","","",""
"","do_recog","249","620008","0.0-133.0-0.0","""event"",""trial"",""time""
""fullscreenenter"",""0"",""1355""
","
","
","""event"",""trial"",""time""
""fullscreenenter"",""0"",""1355""
","
","1433.5","","","","","","","","53","","","","344","probe-83","","","","","1","[object Object]","192","4","1","","","",""
"","html-keyboard-response","250","621012","0.0-133.0-1.0","""event"",""trial"",""time""
""fullscreenenter"",""0"",""1355""
","
","
","""event"",""trial"",""time""
""fullscreenenter"",""0"",""1355""
","
","null","<p></p>","null","","","","","","","","","","","","","","","","","","","","","","","",""
"","do_trial","251","623883","0.0-134.0-0.0","""event"",""trial"",""time""
""fullscreenenter"",""0"",""1355""
","
","
","""event"",""trial"",""time""
""fullscreenenter"",""0"",""1355""
","
","337.4000000357628","","","","","","","","49","1,1,0","6","blank","345","null","0.7342313527736161","0.3395119073430016","0.19682962866552195","1","","","","","","","","",""
"","html-keyboard-response","252","624900","0.0-134.0-1.0","""event"",""trial"",""time""
""fullscreenenter"",""0"",""1355""
","
","
","""event"",""trial"",""time""
""fullscreenenter"",""0"",""1355""
","
","null","<p></p>","null","","","","","","","","","","","","","","","","","","","","","","","",""
"","do_trial","253","627426","0.0-135.0-0.0","""event"",""trial"",""time""
""fullscreenenter"",""0"",""1355""
","
","
","""event"",""trial"",""time""
""fullscreenenter"",""0"",""1355""
","
","0.10000002384185791","","","","","","","","49","0,1,0","6","blank","346","null","0.763627310626392","0.21192691611100783","0.21660354900663023","0","","","","","","","","",""
"","html-keyboard-response","254","628432","0.0-135.0-1.0","""event"",""trial"",""time""
""fullscreenenter"",""0"",""1355""
","
","
","""event"",""trial"",""time""
""fullscreenenter"",""0"",""1355""
","
","null","<p></p>","null","","","","","","","","","","","","","","","","","","","","","","","",""
"","do_trial","255","631386","0.0-136.0-0.0","""event"",""trial"",""time""
""fullscreenenter"",""0"",""1355""
","
","
","""event"",""trial"",""time""
""fullscreenenter"",""0"",""1355""
","
","415.60000002384186","","","","","","","","49","0,1,1","6","blank","347","null","0.748883638999359","0.36120817747512063","0.30176852830396506","0","","","","","","","","",""
"","html-keyboard-response","256","632389","0.0-136.0-1.0","""event"",""trial"",""time""
""fullscreenenter"",""0"",""1355""
","
","
","""event"",""trial"",""time""
""fullscreenenter"",""0"",""1355""
","
","null","<p></p>","null","","","","","","","","","","","","","","","","","","","","","","","",""
"","do_trial","257","635198","0.0-137.0-0.0","""event"",""trial"",""time""
""fullscreenenter"",""0"",""1355""
","
","
","""event"",""trial"",""time""
""fullscreenenter"",""0"",""1355""
","
","281.19999998807907","","","","","","","","49","1,1,0","6","blank","348","null","0.5973968363634355","0.33497344349409375","0.3667246875602549","1","","","","","","","","",""
"","html-keyboard-response","258","636202","0.0-137.0-1.0","""event"",""trial"",""time""
""fullscreenenter"",""0"",""1355""
","
","
","""event"",""trial"",""time""
""fullscreenenter"",""0"",""1355""
","
","null","<p></p>","null","","","","","","","","","","","","","","","","","","","","","","","",""
"","break","259","637026","0.0-138.0-0.0","""event"",""trial"",""time""
""fullscreenenter"",""0"",""1355""
","
","
","""event"",""trial"",""time""
""fullscreenenter"",""0"",""1355""
","
","822.8999999761581","<div class='center'><p>Time to take a quick break! You have 2 minutes to rest, but you can move on sooner if you'd like.</p><p> Press the <b>space bar</b> to continue.</p></div>","32","","","","","","","","","","","","","","","","","","","","","","","",""
"","do_trial","260","640141","0.0-138.0-1.0","""event"",""trial"",""time""
""fullscreenenter"",""0"",""1355""
","
","
","""event"",""trial"",""time""
""fullscreenenter"",""0"",""1355""
","
","587","","","","","","","","49","0,1,0","6","blank","349","null","0.4574906265099993","0.3110899442111611","0.39692403934612575","0","","","","","","","","",""
"","html-keyboard-response","261","641147","0.0-138.0-2.0","""event"",""trial"",""time""
""fullscreenenter"",""0"",""1355""
","
","
","""event"",""trial"",""time""
""fullscreenenter"",""0"",""1355""
","
","null","<p></p>","null","","","","","","","","","","","","","","","","","","","","","","","",""
"","do_trial","262","643960","0.0-139.0-0.0","""event"",""trial"",""time""
""fullscreenenter"",""0"",""1355""
","
","
","""event"",""trial"",""time""
""fullscreenenter"",""0"",""1355""
","
","275.4000000357628","","","","","","","","49","0,0,0","6","blank","350","null","0.3361514494573997","0.2884794776937652","0.34950992348354193","0","","","","","","","","",""
"","html-keyboard-response","263","644966","0.0-139.0-1.0","""event"",""trial"",""time""
""fullscreenenter"",""0"",""1355""
","
","
","""event"",""trial"",""time""
""fullscreenenter"",""0"",""1355""
","
","null","<p></p>","null","","","","","","","","","","","","","","","","","","","","","","","",""
"","do_trial","264","647640","0.0-140.0-0.0","""event"",""trial"",""time""
""fullscreenenter"",""0"",""1355""
","
","
","""event"",""trial"",""time""
""fullscreenenter"",""0"",""1355""
","
","135.29999995231628","","","","","","","","50","0,1,1","6","blank","351","null","0.1833413277951339","0.43390638874709114","0.3105978752715401","1","","","","","","","","",""
"","html-keyboard-response","265","648645","0.0-140.0-1.0","""event"",""trial"",""time""
""fullscreenenter"",""0"",""1355""
","
","
","""event"",""trial"",""time""
""fullscreenenter"",""0"",""1355""
","
","null","<p></p>","null","","","","","","","","","","","","","","","","","","","","","","","",""
"","do_recog","266","651600","0.0-141.0-0.0","""event"",""trial"",""time""
""fullscreenenter"",""0"",""1355""
","
","
","""event"",""trial"",""time""
""fullscreenenter"",""0"",""1355""
","
","1438.2999999523163","","","","","","","","55","","","","352","probe-223","","","","","1","[object Object]","71","1","0","","","",""
"","html-keyboard-response","267","652604","0.0-141.0-1.0","""event"",""trial"",""time""
""fullscreenenter"",""0"",""1355""
","
","
","""event"",""trial"",""time""
""fullscreenenter"",""0"",""1355""
","
","null","<p></p>","null","","","","","","","","","","","","","","","","","","","","","","","",""
"","do_trial","268","656320","0.0-142.0-0.0","""event"",""trial"",""time""
""fullscreenenter"",""0"",""1355""
","
","
","""event"",""trial"",""time""
""fullscreenenter"",""0"",""1355""
","
","1181.1000000238419","","","","","","","","50","0,0,1","6","blank","353","null","0.09310559201263904","0.49169839042157465","0.3240329460832973","0","","","","","","","","",""
"","html-keyboard-response","269","657333","0.0-142.0-1.0","""event"",""trial"",""time""
""fullscreenenter"",""0"",""1355""
","
","
","""event"",""trial"",""time""
""fullscreenenter"",""0"",""1355""
","
","null","<p></p>","null","","","","","","","","","","","","","","","","","","","","","","","",""
"","do_trial","270","660217","0.0-143.0-0.0","""event"",""trial"",""time""
""fullscreenenter"",""0"",""1355""
","
","
","""event"",""trial"",""time""
""fullscreenenter"",""0"",""1355""
","
","361.60000002384186","","","","","","","","50","0,0,0","6","blank","354","null","0.052885179102101366","0.5244046108922538","0.2323935251491637","0","","","","","","","","",""
"","html-keyboard-response","271","661229","0.0-143.0-1.0","""event"",""trial"",""time""
""fullscreenenter"",""0"",""1355""
","
","
","""event"",""trial"",""time""
""fullscreenenter"",""0"",""1355""
","
","null","<p></p>","null","","","","","","","","","","","","","","","","","","","","","","","",""
"","do_trial","272","664060","0.0-144.0-0.0","""event"",""trial"",""time""
""fullscreenenter"",""0"",""1355""
","
","
","""event"",""trial"",""time""
""fullscreenenter"",""0"",""1355""
","
","293.5","","","","","","","","49","0,1,1","6","blank","355","null","0.1827417966212026","0.5551464158841523","0.2604300079600566","0","","","","","","","","",""
"","html-keyboard-response","273","665074","0.0-144.0-1.0","""event"",""trial"",""time""
""fullscreenenter"",""0"",""1355""
","
","
","""event"",""trial"",""time""
""fullscreenenter"",""0"",""1355""
","
","null","<p></p>","null","","","","","","","","","","","","","","","","","","","","","","","",""
"","do_trial","274","667902","0.0-145.0-0.0","""event"",""trial"",""time""
""fullscreenenter"",""0"",""1355""
","
","
","""event"",""trial"",""time""
""fullscreenenter"",""0"",""1355""
","
","291.69999998807907","","","","","","","","51","0,0,1","6","blank","356","null","0.18783375901994437","0.560295686399904","0.2641892151166363","1","","","","","","","","",""
"","html-keyboard-response","275","668910","0.0-145.0-1.0","""event"",""trial"",""time""
""fullscreenenter"",""0"",""1355""
","
","
","""event"",""trial"",""time""
""fullscreenenter"",""0"",""1355""
","
","null","<p></p>","null","","","","","","","","","","","","","","","","","","","","","","","",""
"","do_trial","276","671786","0.0-146.0-0.0","""event"",""trial"",""time""
""fullscreenenter"",""0"",""1355""
","
","
","""event"",""trial"",""time""
""fullscreenenter"",""0"",""1355""
","
","349.69999998807907","","","","","","","","51","0,0,1","6","blank","357","null","0.20082794317045022","0.7632933971913173","0.23808393458322147","1","","","","","","","","",""
"","html-keyboard-response","277","672799","0.0-146.0-1.0","""event"",""trial"",""time""
""fullscreenenter"",""0"",""1355""
","
","
