"success","trial_type","trial_index","time_elapsed","internal_node_id","interactions","blur_events","focus_events","fullscreenenter_events","fullscreenexit_events","rt","stimulus","key_press","subject_id","participant_id","age","gender","prompt","response","choice_outcomes","context_n","context_img_id","trial_n","probe_img_id","pR_red","pR_white","pR_black","outcome","is_valid","image_to_show","probed_trial","probed_context","correct","probe","probed_trial_n","probed_context_n","context_im"
"true","fullscreen","0","4596","0.0-0.0","""event"",""trial"",""time""
""fullscreenenter"",""0"",""3611""
","
","
","""event"",""trial"",""time""
""fullscreenenter"",""0"",""3611""
","
","","","","","","","","","","","","","","","","","","","","","","","","","","",""
"","pavlovia","1","4611","0.0-1.0","""event"",""trial"",""time""
""fullscreenenter"",""0"",""3611""
","
","
","""event"",""trial"",""time""
""fullscreenenter"",""0"",""3611""
","
","","","","","","","","","","","","","","","","","","","","","","","","","","",""
"","welc_back","2","14363","0.0-2.0","""event"",""trial"",""time""
""fullscreenenter"",""0"",""3611""
","
","
","""event"",""trial"",""time""
""fullscreenenter"",""0"",""3611""
","
","null","run_exp/static/audio/clip_29_welcome_back.m4a","null","734","946","14","Female","<div class='center'><p>Welcome to day 2!</p><p> Yesterday, you were the head captain of a pirate ship. You asked your fellow pirates to rob other ships of their gold across six different islands.</p></div>","","","","","","","","","","","","","","","","","","",""
"","html-keyboard-response","3","22361","0.0-3.0","""event"",""trial"",""time""
""fullscreenenter"",""0"",""3611""
","
","
","""event"",""trial"",""time""
""fullscreenenter"",""0"",""3611""
","
","7994.329999999991","<div class='center'><p>Welcome to day 2!</p><p> Yesterday, you were the head captain of a pirate ship. You asked your fellow pirates to rob other ships of their gold across six different islands.</p><p><b>[Press the space bar to continue]</b></p></div>","32","","","","","","","","","","","","","","","","","","","","","","","",""
"","day_1_summary_goal","4","39568","0.0-4.0","""event"",""trial"",""time""
""fullscreenenter"",""0"",""3611""
","
","
","""event"",""trial"",""time""
""fullscreenenter"",""0"",""3611""
","
","null","run_exp/static/audio/clip_30_goal_of_game.m4a","null","","","","","<div class='center'><p>Today, like yesterday, you get to pick which pirate you want to rob the next ship.</p><p>If the pirate is successful in robbing a ship, you get gold coins that look like this: </p><p><img src='run_exp/static/images/tutorial/reward.png' height='150'></p><p> If they were not successful in robbing the ship, then you will get no gold coins and you'll see a big red x like this: </p><p><img src='run_exp/static/images/tutorial/reward_no.png' height='150'></p></div>","","","","","","","","","","","","","","","","","","",""
"","html-keyboard-response","5","40323","0.0-5.0","""event"",""trial"",""time""
""fullscreenenter"",""0"",""3611""
","
","
","""event"",""trial"",""time""
""fullscreenenter"",""0"",""3611""
","
","748.1000000000204","<div class='center'><p>Today, like yesterday, you get to pick which pirate you want to rob the next ship.</p><p>If the pirate is successful in robbing a ship, you get gold coins that look like this: </p><p><img src='run_exp/static/images/tutorial/reward.png' height='150'></p><p> If they were not successful in robbing the ship, then you will get no gold coins and you'll see a big red x like this: </p><p><img src='run_exp/static/images/tutorial/reward_no.png' height='150'></p><p><b>[Press the space bar to continue]</b></p></div>","32","","","","","","","","","","","","","","","","","","","","","","","",""
"","day_1_summary_pick","6","55039","0.0-6.0","""event"",""trial"",""time""
""fullscreenenter"",""0"",""3611""
","
","
","""event"",""trial"",""time""
""fullscreenenter"",""0"",""3611""
","
","null","run_exp/static/audio/clip_31_how_to_pick_a_pirate.m4a","null","","","","","<div class='center'><p>Also, just like yesterday, you will use the 1,2,3 keys on your keyboard to pick a pirate. Press '1' to choose red beard, '2' to choose white beard, and '3' to choose black beard . You only have 3 seconds to pick a pirate, so please make a choice quickly!</p></div>","","","","","","","","","","","","","","","","","","",""
"","html-keyboard-response","7","55576","0.0-7.0","""event"",""trial"",""time""
""fullscreenenter"",""0"",""3611""
","
","
","""event"",""trial"",""time""
""fullscreenenter"",""0"",""3611""
","
","534.1849999999831","<div class='center'><p>Also, just like yesterday, you will use the 1,2,3 keys on your keyboard to pick a pirate. Press '1' to choose red beard, '2' to choose white beard, and '3' to choose black beard . You only have 3 seconds to pick a pirate, so please make a choice quickly!</p><p><b>[Press the space bar to continue]</b></p></div>","32","","","","","","","","","","","","","","","","","","","","","","","",""
"","test_phase_begin","8","85962","0.0-8.0","""event"",""trial"",""time""
""fullscreenenter"",""0"",""3611""
","
","
","""event"",""trial"",""time""
""fullscreenenter"",""0"",""3611""
","
","null","run_exp/static/audio/clip_32_final_place.m4a","null","","","","","<div class='center'><p>You’ve arrived at the final island of your journey! Unfortunately, it’s very foggy out, so you won’t be able to see it in the distance like the other islands you've visited.</p><p>You’ll still be deciding which pirate you want to rob a ship like before. However, because of the fog, you also won’t be able to see the ship.</p><p>This means you do not have to remember the ships you rob on this island.</p><p>Unlike yesterday, you won't be visiting multiple islands today. You will stay on this island for the entire game. This game will last ~30 minutes.</p></div>","","","","","","","","","","","","","","","","","","",""
"","html-keyboard-response","9","86842","0.0-9.0","""event"",""trial"",""time""
""fullscreenenter"",""0"",""3611""
","
","
","""event"",""trial"",""time""
""fullscreenenter"",""0"",""3611""
","
","877.8500000000786","<div class='center'><p>You’ve arrived at the final island of your journey! Unfortunately, it’s very foggy out, so you won’t be able to see it in the distance like the other islands you've visited.</p><p>You’ll still be deciding which pirate you want to rob a ship like before. However, because of the fog, you also won’t be able to see the ship.</p><p>This means you do not have to remember the ships you rob on this island.</p><p>Unlike yesterday, you won't be visiting multiple islands today. You will stay on this island for the entire game. This game will last ~30 minutes.</p><p><b>[Press the space bar to continue]</b></p></div>","32","","","","","","","","","","","","","","","","","","","","","","","",""
"","explain_probe_1","10","94534","0.0-10.0","""event"",""trial"",""time""
""fullscreenenter"",""0"",""3611""
","
","
","""event"",""trial"",""time""
""fullscreenenter"",""0"",""3611""
","
","null","run_exp/static/audio/clip_33_recognition_1.m4a","null","","","","","<div class='center'><p> Sometimes you’ll be shown a ship, and you will be asked if you saw this ship on a past island.</p><p> Here is an example of what you will see.</p><p><img src='run_exp/static/images/tutorial/example_recog_trial.png' height='500'></p></div>","","","","","","","","","","","","","","","","","","",""
"","html-keyboard-response","11","98899","0.0-11.0","""event"",""trial"",""time""
""fullscreenenter"",""0"",""3611""
","
","
","""event"",""trial"",""time""
""fullscreenenter"",""0"",""3611""
","
","4361.110000000059","<div class='center'><p> Sometimes you’ll be shown a ship, and you will be asked if you saw this ship on a past island.</p><p> Here is an example of what you will see.</p><p><img src='run_exp/static/images/tutorial/example_recog_trial.png' height='500'></p><p><b>[Press the space bar to continue]</b></p></div>","32","","","","","","","","","","","","","","","","","","","","","","","",""
"","explain_probe_2","12","120623","0.0-12.0","""event"",""trial"",""time""
""fullscreenenter"",""0"",""3611""
","
","
","""event"",""trial"",""time""
""fullscreenenter"",""0"",""3611""
","
","null","run_exp/static/audio/clip_34_recognition_2.m4a","null","","","","","<div class='center'><p> You will press the 5, 6, 7, 8 keys on your keyboard to respond.</p><p>If you are sure you saw the ship, press <b>5</b> on your keyboard.</p><p> If you think you saw it before but aren't sure, then press <b>6</b>.</p><p> If you think you have <b>not</b> seen it before but aren't sure, then press <b>7</b>.</p><p> If you are sure you did <b>not</b> see the ship before, then press <b>8</b>.</p><p><img src='run_exp/static/images/tutorial/example_recog_trial.png' height='500'></p></div>","","","","","","","","","","","","","","","","","","",""
"","html-keyboard-response","13","124325","0.0-13.0","""event"",""trial"",""time""
""fullscreenenter"",""0"",""3611""
","
","
","""event"",""trial"",""time""
""fullscreenenter"",""0"",""3611""
","
","3699.150000000038","<div class='center'><p> You will press the 5, 6, 7, 8 keys on your keyboard to respond.</p><p>If you are sure you saw the ship, press <b>5</b> on your keyboard.</p><p> If you think you saw it before but aren't sure, then press <b>6</b>.</p><p> If you think you have <b>not</b> seen it before but aren't sure, then press <b>7</b>.</p><p> If you are sure you did <b>not</b> see the ship before, then press <b>8</b>.</p><p><img src='run_exp/static/images/tutorial/example_recog_trial.png' height='500'></p><p><b>[Press the space bar to continue]</b></p></div>","32","","","","","","","","","","","","","","","","","","","","","","","",""
"","explain_outcome","14","141531","0.0-14.0","""event"",""trial"",""time""
""fullscreenenter"",""0"",""3611""
","
","
","""event"",""trial"",""time""
""fullscreenenter"",""0"",""3611""
","
","null","run_exp/static/audio/clip_35_recognition_3.m4a","null","","","","","<div class='center'><p> If you remember correctly, then you’ll get a gold coin like this: </p><p><img src='run_exp/static/images/tutorial/reward_small.png' height='200'></p><p>If you do not remember correctly, then you'll see a red x like this: </p><p><img src='run_exp/static/images/tutorial/reward_no.png' height='200'></p><p>Importantly, when you are shown a ship, take the time to remind yourself which island you saw it on. This will help you in the next part of the study.</p></div>","","","","","","","","","","","","","","","","","","",""
"","html-keyboard-response","15","148710","0.0-15.0","""event"",""trial"",""time""
""fullscreenenter"",""0"",""3611""
","
","
","""event"",""trial"",""time""
""fullscreenenter"",""0"",""3611""
","
","7175.780000000057","<div class='center'><p> If you remember correctly, then you’ll get a gold coin like this: </p><p><img src='run_exp/static/images/tutorial/reward_small.png' height='200'></p><p>If you do not remember correctly, then you'll see a red x like this: </p><p><img src='run_exp/static/images/tutorial/reward_no.png' height='200'></p><p>Importantly, when you are shown a ship, take the time to remind yourself which island you saw it on. This will help you in the next part of the study.</p><p><b>[Press the space bar to continue]</b></p></div>","32","","","","","","","","","","","","","","","","","","","","","","","",""
"","begin_test_phase","16","164533","0.0-16.0","""event"",""trial"",""time""
""fullscreenenter"",""0"",""3611""
","
","
","""event"",""trial"",""time""
""fullscreenenter"",""0"",""3611""
","
","null","run_exp/static/audio/clip_36_begin_final.m4a","null","","","","","<div class='center'><p>Let's go over the important points again. Your job is to: </p><p>1. Pick the pirate who is best at robbing ships and will bring you back gold coins. </p><p>2. Correctly remember whether or not you saw a ship before. If you did see the ship before, remind yourself on which island you saw it. </p></div>","","","","","","","","","","","","","","","","","","",""
"","html-keyboard-response","17","195396","0.0-17.0","""event"",""trial"",""time""
""fullscreenenter"",""0"",""3611""
","
","
","""event"",""trial"",""time""
""fullscreenenter"",""0"",""3611""
","
","30237.494999999966","<div class='center'><p>Let's go over the important points again. Your job is to: </p><p>1. Pick the pirate who is best at robbing ships and will bring you back gold coins. </p><p>2. Correctly remember whether or not you saw a ship before. If you did see the ship before, remind yourself on which island you saw it. </p><p><b>[Press the space bar to continue]</b></p></div>","32","","","","","","","","","","","","","","","","","","","","","","","",""
"","do_welcome","18","199416","0.0-18.0","""event"",""trial"",""time""
""fullscreenenter"",""0"",""3611""
","
","
","""event"",""trial"",""time""
""fullscreenenter"",""0"",""3611""
","
","null","","","","","","","","null","","","","","","","","","","","","","","","","","",""
"","do_trial","19","204254","0.0-19.0-0.0","""event"",""trial"",""time""
""fullscreenenter"",""0"",""3611""
","
","
","""event"",""trial"",""time""
""fullscreenenter"",""0"",""3611""
","
","2148.014999999985","","","","","","","","49","1,1,0","6","blank","230","null","0.3652372310740603","0.6689137975613092","0.12473076186349376","1","","","","","","","","",""
"","html-keyboard-response","20","205258","0.0-19.0-1.0","""event"",""trial"",""time""
""fullscreenenter"",""0"",""3611""
","
","
","""event"",""trial"",""time""
""fullscreenenter"",""0"",""3611""
","
","null","<p></p>","null","","","","","","","","","","","","","","","","","","","","","","","",""
"","do_trial","21","211435","0.0-20.0-0.0","""event"",""trial"",""time""
""fullscreenenter"",""0"",""3611""
","
","
","""event"",""trial"",""time""
""fullscreenenter"",""0"",""3611""
","
","null","","","","","","","","null","1,1,0","6","blank","231","null","0.4258306328565057","0.6073088260333259","0.11639657266779298","","","","","","","","","",""
"","html-keyboard-response","22","212439","0.0-20.0-1.0","""event"",""trial"",""time""
""fullscreenenter"",""0"",""3611""
","
","
","""event"",""trial"",""time""
""fullscreenenter"",""0"",""3611""
","
","null","<p></p>","null","","","","","","","","","","","","","","","","","","","","","","","",""
"","do_trial","23","215693","0.0-21.0-0.0","""event"",""trial"",""time""
""fullscreenenter"",""0"",""3611""
","
","
","""event"",""trial"",""time""
""fullscreenenter"",""0"",""3611""
","
","562.679999999993","","","","","","","","49","0,1,0","6","blank","232","null","0.40690000955939926","0.6540370396287851","0.0791983993201238","0","","","","","","","","",""
"","html-keyboard-response","24","216698","0.0-21.0-1.0","""event"",""trial"",""time""
""fullscreenenter"",""0"",""3611""
","
","
","""event"",""trial"",""time""
""fullscreenenter"",""0"",""3611""
","
","null","<p></p>","null","","","","","","","","","","","","","","","","","","","","","","","",""
"","do_trial","25","219732","0.0-22.0-0.0","""event"",""trial"",""time""
""fullscreenenter"",""0"",""3611""
","
","
","""event"",""trial"",""time""
""fullscreenenter"",""0"",""3611""
","
","374.26499999989755","","","","","","","","50","1,1,1","6","blank","233","null","0.35278538570376744","0.7488671290208784","0.16189626490101133","1","","","","","","","","",""
"","html-keyboard-response","26","220736","0.0-22.0-1.0","""event"",""trial"",""time""
""fullscreenenter"",""0"",""3611""
","
","
","""event"",""trial"",""time""
""fullscreenenter"",""0"",""3611""
","
","null","<p></p>","null","","","","","","","","","","","","","","","","","","","","","","","",""
"","do_trial","27","224060","0.0-23.0-0.0","""event"",""trial"",""time""
""fullscreenenter"",""0"",""3611""
","
","
","""event"",""trial"",""time""
""fullscreenenter"",""0"",""3611""
","
","659.2750000000815","","","","","","","","50","1,1,0","6","blank","234","null","0.343262187664834","0.6857925386195842","0.17586412264820475","1","","","","","","","","",""
"","html-keyboard-response","28","225064","0.0-23.0-1.0","""event"",""trial"",""time""
""fullscreenenter"",""0"",""3611""
","
","
","""event"",""trial"",""time""
""fullscreenenter"",""0"",""3611""
","
","null","<p></p>","null","","","","","","","","","","","","","","","","","","","","","","","",""
"","do_trial","29","228509","0.0-24.0-0.0","""event"",""trial"",""time""
""fullscreenenter"",""0"",""3611""
","
","
","""event"",""trial"",""time""
""fullscreenenter"",""0"",""3611""
","
","789.6100000000442","","","","","","","","49","1,1,0","6","blank","235","null","0.4324948995901232","0.5606047811918715","0.12206949947361537","1","","","","","","","","",""
"","html-keyboard-response","30","229513","0.0-24.0-1.0","""event"",""trial"",""time""
""fullscreenenter"",""0"",""3611""
","
","
","""event"",""trial"",""time""
""fullscreenenter"",""0"",""3611""
","
","null","<p></p>","null","","","","","","","","","","","","","","","","","","","","","","","",""
"","do_trial","31","235682","0.0-25.0-0.0","""event"",""trial"",""time""
""fullscreenenter"",""0"",""3611""
","
","
","""event"",""trial"",""time""
""fullscreenenter"",""0"",""3611""
","
","null","","","","","","","","null","0,0,1","6","blank","236","null","0.2551316641500728","0.6065531003947741","0.13470776745543922","","","","","","","","","",""
"","html-keyboard-response","32","236686","0.0-25.0-1.0","""event"",""trial"",""time""
""fullscreenenter"",""0"",""3611""
","
","
","""event"",""trial"",""time""
""fullscreenenter"",""0"",""3611""
","
","null","<p></p>","null","","","","","","","","","","","","","","","","","","","","","","","",""
"","do_trial","33","240114","0.0-26.0-0.0","""event"",""trial"",""time""
""fullscreenenter"",""0"",""3611""
","
","
","""event"",""trial"",""time""
""fullscreenenter"",""0"",""3611""
","
","756.4149999999499","","","","","","","","49","0,0,0","6","blank","237","null","0.3395411243815217","0.5060248551759063","0.11364983652090199","0","","","","","","","","",""
"","html-keyboard-response","34","241118","0.0-26.0-1.0","""event"",""trial"",""time""
""fullscreenenter"",""0"",""3611""
","
","
","""event"",""trial"",""time""
""fullscreenenter"",""0"",""3611""
","
","null","<p></p>","null","","","","","","","","","","","","","","","","","","","","","","","",""
"","do_trial","35","244843","0.0-27.0-0.0","""event"",""trial"",""time""
""fullscreenenter"",""0"",""3611""
","
","
","""event"",""trial"",""time""
""fullscreenenter"",""0"",""3611""
","
","1064.0499999999593","","","","","","","","49","0,0,1","6","blank","238","null","0.38432645048820596","0.6619654675232274","0.09854813247630384","0","","","","","","","","",""
"","html-keyboard-response","36","245847","0.0-27.0-1.0","""event"",""trial"",""time""
""fullscreenenter"",""0"",""3611""
","
","
","""event"",""trial"",""time""
""fullscreenenter"",""0"",""3611""
","
","null","<p></p>","null","","","","","","","","","","","","","","","","","","","","","","","",""
"","do_trial","37","252016","0.0-28.0-0.0","""event"",""trial"",""time""
""fullscreenenter"",""0"",""3611""
","
","
","""event"",""trial"",""time""
""fullscreenenter"",""0"",""3611""
","
","null","","","","","","","","null","0,1,0","6","blank","239","null","0.566214644231045","0.5636799481725265","0.17394854575302696","","","","","","","","","",""
"","html-keyboard-response","38","253020","0.0-28.0-1.0","""event"",""trial"",""time""
""fullscreenenter"",""0"",""3611""
","
","
","""event"",""trial"",""time""
""fullscreenenter"",""0"",""3611""
","
","null","<p></p>","null","","","","","","","","","","","","","","","","","","","","","","","",""
"","do_trial","39","259188","0.0-29.0-0.0","""event"",""trial"",""time""
""fullscreenenter"",""0"",""3611""
","
","
","""event"",""trial"",""time""
""fullscreenenter"",""0"",""3611""
","
","null","","","","","","","","null","1,0,0","6","blank","240","null","0.5942540985572039","0.6074026812062809","0.10889632093660603","","","","","","","","","",""
"","html-keyboard-response","40","260194","0.0-29.0-1.0","""event"",""trial"",""time""
""fullscreenenter"",""0"",""3611""
","
","
","""event"",""trial"",""time""
""fullscreenenter"",""0"",""3611""
","
","null","<p></p>","null","","","","","","","","","","","","","","","","","","","","","","","",""
"","do_recog","41","264590","0.0-30.0-0.0","""event"",""trial"",""time""
""fullscreenenter"",""0"",""3611""
","
","
","""event"",""trial"",""time""
""fullscreenenter"",""0"",""3611""
","
","2865.8700000001118","","","","","","","","53","","","","241","probe-140","","","","","1","[object Object]","191","4","1","","","",""
"","html-keyboard-response","42","265594","0.0-30.0-1.0","""event"",""trial"",""time""
""fullscreenenter"",""0"",""3611""
","
","
","""event"",""trial"",""time""
""fullscreenenter"",""0"",""3611""
","
","null","<p></p>","null","","","","","","","","","","","","","","","","","","","","","","","",""
"","do_trial","43","269653","0.0-31.0-0.0","""event"",""trial"",""time""
""fullscreenenter"",""0"",""3611""
","
","
","""event"",""trial"",""time""
""fullscreenenter"",""0"",""3611""
","
","1373.3649999999325","","","","","","","","49","1,1,0","6","blank","242","null","0.5033897965918486","0.49954797393231354","0.1759510779816306","1","","","","","","","","",""
"","html-keyboard-response","44","270657","0.0-31.0-1.0","""event"",""trial"",""time""
""fullscreenenter"",""0"",""3611""
","
","
","""event"",""trial"",""time""
""fullscreenenter"",""0"",""3611""
","
","null","<p></p>","null","","","","","","","","","","","","","","","","","","","","","","","",""
"","do_recog","45","276686","0.0-32.0-0.0","""event"",""trial"",""time""
""fullscreenenter"",""0"",""3611""
","
","
","""event"",""trial"",""time""
""fullscreenenter"",""0"",""3611""
","
","null","","","","","","","","null","","","","243","probe-66","","","","","1","[object Object]","38","0","0","","","",""
"","html-keyboard-response","46","277689","0.0-32.0-1.0","""event"",""trial"",""time""
""fullscreenenter"",""0"",""3611""
","
","
","""event"",""trial"",""time""
""fullscreenenter"",""0"",""3611""
","
","null","<p></p>","null","","","","","","","","","","","","","","","","","","","","","","","",""
"","do_trial","47","280882","0.0-33.0-0.0","""event"",""trial"",""time""
""fullscreenenter"",""0"",""3611""
","
","
","""event"",""trial"",""time""
""fullscreenenter"",""0"",""3611""
","
","519.5649999999441","","","","","","","","49","1,0,0","6","blank","244","null","0.5539577874489304","0.4263979556126178","0.3375830712273459","1","","","","","","","","",""
"","html-keyboard-response","48","281887","0.0-33.0-1.0","""event"",""trial"",""time""
""fullscreenenter"",""0"",""3611""
","
","
","""event"",""trial"",""time""
""fullscreenenter"",""0"",""3611""
","
","null","<p></p>","null","","","","","","","","","","","","","","","","","","","","","","","",""
"","do_recog","49","285105","0.0-34.0-0.0","""event"",""trial"",""time""
""fullscreenenter"",""0"",""3611""
","
","
","""event"",""trial"",""time""
""fullscreenenter"",""0"",""3611""
","
","1688.2799999999697","","","","","","","","56","","","","245","probe-106","","","","","1","[object Object]","195","4","0","","","",""
"","html-keyboard-response","50","286109","0.0-34.0-1.0","""event"",""trial"",""time""
""fullscreenenter"",""0"",""3611""
","
","
","""event"",""trial"",""time""
""fullscreenenter"",""0"",""3611""
","
","null","<p></p>","null","","","","","","","","","","","","","","","","","","","","","","","",""
"","do_trial","51","292283","0.0-35.0-0.0","""event"",""trial"",""time""
""fullscreenenter"",""0"",""3611""
","
","
","""event"",""trial"",""time""
""fullscreenenter"",""0"",""3611""
","
","null","","","","","","","","null","0,0,1","6","blank","246","null","0.5031179676778071","0.2370614217433602","0.5330712911011126","","","","","","","","","",""
"","html-keyboard-response","52","293288","0.0-35.0-1.0","""event"",""trial"",""time""
""fullscreenenter"",""0"",""3611""
","
","
","""event"",""trial"",""time""
""fullscreenenter"",""0"",""3611""
","
","null","<p></p>","null","","","","","","","","","","","","","","","","","","","","","","","",""
"","do_trial","53","296646","0.0-36.0-0.0","""event"",""trial"",""time""
""fullscreenenter"",""0"",""3611""
","
","
","""event"",""trial"",""time""
""fullscreenenter"",""0"",""3611""
","
","686.8250000000116","","","","","","","","49","0,0,1","6","blank","247","null","0.3041526220482423","0.3296794438158542","0.6485136364495553","0","","","","","","","","",""
"","html-keyboard-response","54","297651","0.0-36.0-1.0","""event"",""trial"",""time""
""fullscreenenter"",""0"",""3611""
","
","
","""event"",""trial"",""time""
""fullscreenenter"",""0"",""3611""
","
","null","<p></p>","null","","","","","","","","","","","","","","","","","","","","","","","",""
"","do_trial","55","301012","0.0-37.0-0.0","""event"",""trial"",""time""
""fullscreenenter"",""0"",""3611""
","
","
","""event"",""trial"",""time""
""fullscreenenter"",""0"",""3611""
","
","690.820000000007","","","","","","","","49","0,0,1","6","blank","248","null","0.31582158076162326","0.33466107438473985","0.5228484496110428","0","","","","","","","","",""
"","html-keyboard-response","56","302018","0.0-37.0-1.0","""event"",""trial"",""time""
""fullscreenenter"",""0"",""3611""
","
","
","""event"",""trial"",""time""
""fullscreenenter"",""0"",""3611""
","
","null","<p></p>","null","","","","","","","","","","","","","","","","","","","","","","","",""
"","do_trial","57","305406","0.0-38.0-0.0","""event"",""trial"",""time""
""fullscreenenter"",""0"",""3611""
","
","
","""event"",""trial"",""time""
""fullscreenenter"",""0"",""3611""
","
","728.1299999999464","","","","","","","","49","0,0,1","6","blank","249","null","0.24975135828575767","0.21066163849362649","0.5654277727265893","0","","","","","","","","",""
"","html-keyboard-response","58","306412","0.0-38.0-1.0","""event"",""trial"",""time""
""fullscreenenter"",""0"",""3611""
","
","
","""event"",""trial"",""time""
""fullscreenenter"",""0"",""3611""
","
","null","<p></p>","null","","","","","","","","","","","","","","","","","","","","","","","",""
"","do_trial","59","310276","0.0-39.0-0.0","""event"",""trial"",""time""
""fullscreenenter"",""0"",""3611""
","
","
","""event"",""trial"",""time""
""fullscreenenter"",""0"",""3611""
","
","1196.2750000000233","","","","","","","","49","0,0,0","6","blank","250","null","0.26819218818070384","0.160085627109262","0.6735691982418419","0","","","","","","","","",""
"","html-keyboard-response","60","311280","0.0-39.0-1.0","""event"",""trial"",""time""
""fullscreenenter"",""0"",""3611""
","
","
","""event"",""trial"",""time""
""fullscreenenter"",""0"",""3611""
","
","null","<p></p>","null","","","","","","","","","","","","","","","","","","","","","","","",""
"","do_trial","61","315292","0.0-40.0-0.0","""event"",""trial"",""time""
""fullscreenenter"",""0"",""3611""
","
","
","""event"",""trial"",""time""
""fullscreenenter"",""0"",""3611""
","
","1346.2550000000629","","","","","","","","49","0,0,1","6","blank","251","null","0.23646206733288458","0.16902235148540257","0.556517772168341","0","","","","","","","","",""
"","html-keyboard-response","62","316301","0.0-40.0-1.0","""event"",""trial"",""time""
""fullscreenenter"",""0"",""3611""
","
","
","""event"",""trial"",""time""
""fullscreenenter"",""0"",""3611""
","
","null","<p></p>","null","","","","","","","","","","","","","","","","","","","","","","","",""
"","do_recog","63","320342","0.0-41.0-0.0","""event"",""trial"",""time""
""fullscreenenter"",""0"",""3611""
","
","
","""event"",""trial"",""time""
""fullscreenenter"",""0"",""3611""
","
","2511.155000000028","","","","","","","","54","","","","252","probe-229","","","","","1","[object Object]","71","1","1","","","",""
"","html-keyboard-response","64","321346","0.0-41.0-1.0","""event"",""trial"",""time""
""fullscreenenter"",""0"",""3611""
","
","
","""event"",""trial"",""time""
""fullscreenenter"",""0"",""3611""
","
","null","<p></p>","null","","","","","","","","","","","","","","","","","","","","","","","",""
"","do_trial","65","325217","0.0-42.0-0.0","""event"",""trial"",""time""
""fullscreenenter"",""0"",""3611""
","
","
","""event"",""trial"",""time""
""fullscreenenter"",""0"",""3611""
","
","1207.5999999999185","","","","","","","","50","1,0,0","6","blank","253","null","0.10666655864307653","0.2026824007216387","0.5832266748851862","0","","","","","","","","",""
"","html-keyboard-response","66","326221","0.0-42.0-1.0","""event"",""trial"",""time""
""fullscreenenter"",""0"",""3611""
","
","
","""event"",""trial"",""time""
""fullscreenenter"",""0"",""3611""
","
","null","<p></p>","null","","","","","","","","","","","","","","","","","","","","","","","",""
"","do_trial","67","330567","0.0-43.0-0.0","""event"",""trial"",""time""
""fullscreenenter"",""0"",""3611""
","
","
","""event"",""trial"",""time""
""fullscreenenter"",""0"",""3611""
","
","1664.3249999999534","","","","","","","","51","0,0,0","6","blank","254","null","0.07563037292268897","0.19377307607873995","0.6244873461882652","0","","","","","","","","",""
"","html-keyboard-response","68","331572","0.0-43.0-1.0","""event"",""trial"",""time""
""fullscreenenter"",""0"",""3611""
","
","
","""event"",""trial"",""time""
""fullscreenenter"",""0"",""3611""
","
","null","<p></p>","null","","","","","","","","","","","","","","","","","","","","","","","",""
"","do_trial","69","335474","0.0-44.0-0.0","""event"",""trial"",""time""
""fullscreenenter"",""0"",""3611""
","
","
","""event"",""trial"",""time""
""fullscreenenter"",""0"",""3611""
","
","1222.6799999999348","","","","","","","","49","0,0,0","6","blank","255","null","0.08326510161286464","0.15205790106522823","0.699094756265485","0","","","","","","","","",""
"","html-keyboard-response","70","336478","0.0-44.0-1.0","""event"",""trial"",""time""
""fullscreenenter"",""0"",""3611""
","
","
","""event"",""trial"",""time""
""fullscreenenter"",""0"",""3611""
","
","null","<p></p>","null","","","","","","","","","","","","","","","","","","","","","","","",""
"","do_trial","71","339671","0.0-45.0-0.0","""event"",""trial"",""time""
""fullscreenenter"",""0"",""3611""
","
","
","""event"",""trial"",""time""
""fullscreenenter"",""0"",""3611""
","
","528.1300000000047","","","","","","","","49","0,0,1","6","blank","256","null","0.06089236385617292","0.1925832443918781","0.6336041706762922","0","","","","","","","","",""
"","html-keyboard-response","72","340674","0.0-45.0-1.0","""event"",""trial"",""time""
""fullscreenenter"",""0"",""3611""
","
","
","""event"",""trial"",""time""
""fullscreenenter"",""0"",""3611""
","
","null","<p></p>","null","","","","","","","","","","","","","","","","","","","","","","","",""
"","do_trial","73","344078","0.0-46.0-0.0","""event"",""trial"",""time""
""fullscreenenter"",""0"",""3611""
","
","
","""event"",""trial"",""time""
""fullscreenenter"",""0"",""3611""
","
","734.5800000000163","","","","","","","","49","0,0,0","6","blank","257","null","0.1477370672384146","0.12467091943824539","0.6389673851868384","0","","","","","","","","",""
"","html-keyboard-response","74","345082","0.0-46.0-1.0","""event"",""trial"",""time""
""fullscreenenter"",""0"",""3611""
","
","
","""event"",""trial"",""time""
""fullscreenenter"",""0"",""3611""
","
","null","<p></p>","null","","","","","","","","","","","","","","","","","","","","","","","",""
"","do_trial","75","348394","0.0-47.0-0.0","""event"",""trial"",""time""
""fullscreenenter"",""0"",""3611""
","
","
","""event"",""trial"",""time""
""fullscreenenter"",""0"",""3611""
","
","650.7449999998789","","","","","","","","49","0,0,1","6","blank","258","null","0.2560914390931593","0.09061146903644957","0.6057324352906422","0","","","","","","","","",""
"","html-keyboard-response","76","349397","0.0-47.0-1.0","""event"",""trial"",""time""
""fullscreenenter"",""0"",""3611""
","
","
","""event"",""trial"",""time""
""fullscreenenter"",""0"",""3611""
","
","null","<p></p>","null","","","","","","","","","","","","","","","","","","","","","","","",""
"","do_recog","77","353604","0.0-48.0-0.0","""event"",""trial"",""time""
""fullscreenenter"",""0"",""3611""
","
","
","""event"",""trial"",""time""
""fullscreenenter"",""0"",""3611""
","
","2685.8150000000023","","","","","","","","54","","","","259","probe-215","","","","","1","[object Object]","158","3","1","","","",""
"","html-keyboard-response","78","354607","0.0-48.0-1.0","""event"",""trial"",""time""
""fullscreenenter"",""0"",""3611""
","
","
","""event"",""trial"",""time""
""fullscreenenter"",""0"",""3611""
","
","null","<p></p>","null","","","","","","","","","","","","","","","","","","","","","","","",""
"","do_trial","79","358746","0.0-49.0-0.0","""event"",""trial"",""time""
""fullscreenenter"",""0"",""3611""
","
","
","""event"",""trial"",""time""
""fullscreenenter"",""0"",""3611""
","
","1473.125","","","","","","","","49","1,1,1","6","blank","260","null","0.2725880112718238","0.05501449594921393","0.5735663945343042","1","","","","","","","","",""
"","html-keyboard-response","80","359749","0.0-49.0-1.0","""event"",""trial"",""time""
""fullscreenenter"",""0"",""3611""
","
","
","""event"",""trial"",""time""
""fullscreenenter"",""0"",""3611""
","
","null","<p></p>","null","","","","","","","","","","","","","","","","","","","","","","","",""
"","do_trial","81","364166","0.0-50.0-0.0","""event"",""trial"",""time""
""fullscreenenter"",""0"",""3611""
","
","
","""event"",""trial"",""time""
""fullscreenenter"",""0"",""3611""
","
","1750.9950000001118","","","","","","","","49","0,0,1","6","blank","261","null","0.3385757126755706","0.0690249700812802","0.5199670213349121","0","","","","","","","","",""
"","html-keyboard-response","82","365172","0.0-50.0-1.0","""event"",""trial"",""time""
""fullscreenenter"",""0"",""3611""
","
","
","""event"",""trial"",""time""
""fullscreenenter"",""0"",""3611""
","
","null","<p></p>","null","","","","","","","","","","","","","","","","","","","","","","","",""
"","do_recog","83","368889","0.0-51.0-0.0","""event"",""trial"",""time""
""fullscreenenter"",""0"",""3611""
","
","
","""event"",""trial"",""time""
""fullscreenenter"",""0"",""3611""
","
","2189.0899999999674","","","","","","","","55","","","","262","probe-236","","","","","0","[object Object]","null","null","1","","","",""
"","html-keyboard-response","84","369892","0.0-51.0-1.0","""event"",""trial"",""time""
""fullscreenenter"",""0"",""3611""
","
","
","""event"",""trial"",""time""
""fullscreenenter"",""0"",""3611""
","
","null","<p></p>","null","","","","","","","","","","","","","","","","","","","","","","","",""
"","do_trial","85","376063","0.0-52.0-0.0","""event"",""trial"",""time""
""fullscreenenter"",""0"",""3611""
","
","
","""event"",""trial"",""time""
""fullscreenenter"",""0"",""3611""
","
","null","","","","","","","","null","1,1,0","6","blank","263","null","0.2731992769222913","0.17449314410174221","0.51029881214224","","","","","","","","","",""
"","html-keyboard-response","86","377067","0.0-52.0-1.0","""event"",""trial"",""time""
""fullscreenenter"",""0"",""3611""
","
","
","""event"",""trial"",""time""
""fullscreenenter"",""0"",""3611""
","
","null","<p></p>","null","","","","","","","","","","","","","","","","","","","","","","","",""
"","do_recog","87","381413","0.0-53.0-0.0","""event"",""trial"",""time""
""fullscreenenter"",""0"",""3611""
","
","
","""event"",""trial"",""time""
""fullscreenenter"",""0"",""3611""
","
","2821.7299999999814","","","","","","","","54","","","","264","probe-101","","","","","1","[object Object]","31","0","1","","","",""
"","html-keyboard-response","88","382418","0.0-53.0-1.0","""event"",""trial"",""time""
""fullscreenenter"",""0"",""3611""
","
","
","""event"",""trial"",""time""
""fullscreenenter"",""0"",""3611""
","
","null","<p></p>","null","","","","","","","","","","","","","","","","","","","","","","","",""
"","do_trial","89","388601","0.0-54.0-0.0","""event"",""trial"",""time""
""fullscreenenter"",""0"",""3611""
","
","
","""event"",""trial"",""time""
""fullscreenenter"",""0"",""3611""
","
","null","","","","","","","","null","0,0,0","6","blank","265","null","0.30544802023131196","0.05524602866931758","0.4889646754560903","","","","","","","","","",""
"","html-keyboard-response","90","389606","0.0-54.0-1.0","""event"",""trial"",""time""
""fullscreenenter"",""0"",""3611""
","
","
","""event"",""trial"",""time""
""fullscreenenter"",""0"",""3611""
","
","null","<p></p>","null","","","","","","","","","","","","","","","","","","","","","","","",""
"","do_trial","91","394224","0.0-55.0-0.0","""event"",""trial"",""time""
""fullscreenenter"",""0"",""3611""
","
","
","""event"",""trial"",""time""
""fullscreenenter"",""0"",""3611""
","
","1952.5499999999884","","","","","","","","49","0,0,0","6","blank","266","null","0.1230595354762454","0.1491094954079384","0.4196584507110327","0","","","","","","","","",""
"","html-keyboard-response","92","395229","0.0-55.0-1.0","""event"",""trial"",""time""
""fullscreenenter"",""0"",""3611""
","
","
","""event"",""trial"",""time""
""fullscreenenter"",""0"",""3611""
","
","null","<p></p>","null","","","","","","","","","","","","","","","","","","","","","","","",""
"","do_trial","93","401413","0.0-56.0-0.0","""event"",""trial"",""time""
""fullscreenenter"",""0"",""3611""
","
","
","""event"",""trial"",""time""
""fullscreenenter"",""0"",""3611""
","
","null","","","","","","","","null","0,0,1","6","blank","267","null","0.19289064910905043","0.11416869985575005","0.4581803728433229","","","","","","","","","",""
"","html-keyboard-response","94","402417","0.0-56.0-1.0","""event"",""trial"",""time""
""fullscreenenter"",""0"",""3611""
","
","
","""event"",""trial"",""time""
""fullscreenenter"",""0"",""3611""
","
","null","<p></p>","null","","","","","","","","","","","","","","","","","","","","","","","",""
"","do_recog","95","408438","0.0-57.0-0.0","""event"",""trial"",""time""
""fullscreenenter"",""0"",""3611""
","
","
","""event"",""trial"",""time""
""fullscreenenter"",""0"",""3611""
","
","null","","","","","","","","null","","","","268","probe-156","","","","","1","[object Object]","111","2","0","","","",""
"","html-keyboard-response","96","409441","0.0-57.0-1.0","""event"",""trial"",""time""
""fullscreenenter"",""0"",""3611""
","
","
","""event"",""trial"",""time""
""fullscreenenter"",""0"",""3611""
","
","null","<p></p>","null","","","","","","","","","","","","","","","","","","","","","","","",""
"","break","97","416529","0.0-58.0-0.0","""event"",""trial"",""time""
""fullscreenenter"",""0"",""3611""
","
","
","""event"",""trial"",""time""
""fullscreenenter"",""0"",""3611""
","
","7084.399999999965","<div class='center'><p>Time to take a quick break! You have 2 minutes to rest, but you can move on sooner if you'd like.</p><p> Press the <b>space bar</b> to continue.</p></div>","32","","","","","","","","","","","","","","","","","","","","","","","",""
"","do_trial","98","422715","0.0-58.0-1.0","""event"",""trial"",""time""
""fullscreenenter"",""0"",""3611""
","
","
","""event"",""trial"",""time""
""fullscreenenter"",""0"",""3611""
","
","null","","","","","","","","null","0,0,1","6","blank","269","null","0.18256240689425954","0.19906665571728682","0.6531437724706413","","","","","","","","","",""
"","html-keyboard-response","99","423717","0.0-58.0-2.0","""event"",""trial"",""time""
""fullscreenenter"",""0"",""3611""
","
","
","""event"",""trial"",""time""
""fullscreenenter"",""0"",""3611""
","
","null","<p></p>","null","","","","","","","","","","","","","","","","","","","","","","","",""
"","do_recog","100","429734","0.0-59.0-0.0","""event"",""trial"",""time""
""fullscreenenter"",""0"",""3611""
","
","
","""event"",""trial"",""time""
""fullscreenenter"",""0"",""3611""
","
","null","","","","","","","","null","","","","270","probe-114","","","","","1","[object Object]","76","1","0","","","",""
"","html-keyboard-response","101","430739","0.0-59.0-1.0","""event"",""trial"",""time""
""fullscreenenter"",""0"",""3611""
","
","
","""event"",""trial"",""time""
""fullscreenenter"",""0"",""3611""
","
","null","<p></p>","null","","","","","","","","","","","","","","","","","","","","","","","",""
"","do_trial","102","433838","0.0-60.0-0.0","""event"",""trial"",""time""
""fullscreenenter"",""0"",""3611""
","
","
","""event"",""trial"",""time""
""fullscreenenter"",""0"",""3611""
","
","420.7249999999185","","","","","","","","51","0,0,0","6","blank","271","null","0.3317233557054612","0.08396250998822634","0.5639433143863147","0","","","","","","","","",""
"","html-keyboard-response","103","434844","0.0-60.0-1.0","""event"",""trial"",""time""
""fullscreenenter"",""0"",""3611""
","
","
","""event"",""trial"",""time""
""fullscreenenter"",""0"",""3611""
","
","null","<p></p>","null","","","","","","","","","","","","","","","","","","","","","","","",""
"","do_trial","104","438058","0.0-61.0-0.0","""event"",""trial"",""time""
""fullscreenenter"",""0"",""3611""
","
","
","""event"",""trial"",""time""
""fullscreenenter"",""0"",""3611""
","
","540.890000000014","","","","","","","","51","1,0,0","6","blank","272","null","0.2554485680736852","0.08248868267579405","0.5053004926058194","0","","","","","","","","",""
"","html-keyboard-response","105","439061","0.0-61.0-1.0","""event"",""trial"",""time""
""fullscreenenter"",""0"",""3611""
","
","
","""event"",""trial"",""time""
""fullscreenenter"",""0"",""3611""
","
","null","<p></p>","null","","","","","","","","","","","","","","","","","","","","","","","",""
"","do_recog","106","442774","0.0-62.0-0.0","""event"",""trial"",""time""
""fullscreenenter"",""0"",""3611""
","
","
","""event"",""trial"",""time""
""fullscreenenter"",""0"",""3611""
","
","2191.954999999958","","","","","","","","55","","","","273","probe-132","","","","","1","[object Object]","72","1","0","","","",""
"","html-keyboard-response","107","443778","0.0-62.0-1.0","""event"",""trial"",""time""
""fullscreenenter"",""0"",""3611""
","
","
","""event"",""trial"",""time""
""fullscreenenter"",""0"",""3611""
","
","null","<p></p>","null","","","","","","","","","","","","","","","","","","","","","","","",""
"","do_trial","108","447408","0.0-63.0-0.0","""event"",""trial"",""time""
""fullscreenenter"",""0"",""3611""
","
","
","""event"",""trial"",""time""
""fullscreenenter"",""0"",""3611""
","
","965.3149999998859","","","","","","","","49","0,0,1","6","blank","274","null","0.15972747154415395","0.11715925008093851","0.6024676301407547","0","","","","","","","","",""
"","html-keyboard-response","109","448414","0.0-63.0-1.0","""event"",""trial"",""time""
""fullscreenenter"",""0"",""3611""
","
","
","""event"",""trial"",""time""
""fullscreenenter"",""0"",""3611""
","
","null","<p></p>","null","","","","","","","","","","","","","","","","","","","","","","","",""
"","do_trial","110","452133","0.0-64.0-0.0","""event"",""trial"",""time""
""fullscreenenter"",""0"",""3611""
","
","
","""event"",""trial"",""time""
""fullscreenenter"",""0"",""3611""
","
","1054.5950000000303","","","","","","","","49","0,0,0","6","blank","275","null","0.3539963270331769","0.16014742045310015","0.6145918913776747","0","","","","","","","","",""
"","html-keyboard-response","111","453136","0.0-64.0-1.0","""event"",""trial"",""time""
""fullscreenenter"",""0"",""3611""
","
","
","""event"",""trial"",""time""
""fullscreenenter"",""0"",""3611""
","
","null","<p></p>","null","","","","","","","","","","","","","","","","","","","","","","","",""
"","do_trial","112","458399","0.0-65.0-0.0","""event"",""trial"",""time""
""fullscreenenter"",""0"",""3611""
","
","
","""event"",""trial"",""time""
""fullscreenenter"",""0"",""3611""
","
","2596.119999999937","","","","","","","","49","1,0,0","6","blank","276","null","0.3310672092279744","0.07107311258398429","0.4578785224538401","1","","","","","","","","",""
"","html-keyboard-response","113","459402","0.0-65.0-1.0","""event"",""trial"",""time""
""fullscreenenter"",""0"",""3611""
","
","
","""event"",""trial"",""time""
""fullscreenenter"",""0"",""3611""
","
","null","<p></p>","null","","","","","","","","","","","","","","","","","","","","","","","",""
"","do_trial","114","462714","0.0-66.0-0.0","""event"",""trial"",""time""
""fullscreenenter"",""0"",""3611""
","
","
","""event"",""trial"",""time""
""fullscreenenter"",""0"",""3611""
","
","646.6650000000373","","","","","","","","50","0,0,0","6","blank","277","null","0.3130326522954412","0.1161538860994091","0.6567190343140727","0","","","","","","","","",""
"","html-keyboard-response","115","463718","0.0-66.0-1.0","""event"",""trial"",""time""
""fullscreenenter"",""0"",""3611""
","
","
","""event"",""trial"",""time""
""fullscreenenter"",""0"",""3611""
","
","null","<p></p>","null","","","","","","","","","","","","","","","","","","","","","","","",""
"","do_trial","116","467057","0.0-67.0-0.0","""event"",""trial"",""time""
""fullscreenenter"",""0"",""3611""
","
","
","""event"",""trial"",""time""
""fullscreenenter"",""0"",""3611""
","
","684.085000000021","","","","","","","","50","0,0,1","6","blank","278","null","0.4204960623287895","0.12037122565644132","0.6962489362228297","0","","","","","","","","",""
"","html-keyboard-response","117","468060","0.0-67.0-1.0","""event"",""trial"",""time""
""fullscreenenter"",""0"",""3611""
","
","
","""event"",""trial"",""time""
""fullscreenenter"",""0"",""3611""
","
","null","<p></p>","null","","","","","","","","","","","","","","","","","","","","","","","",""
"","do_trial","118","471268","0.0-68.0-0.0","""event"",""trial"",""time""
""fullscreenenter"",""0"",""3611""
","
","
","""event"",""trial"",""time""
""fullscreenenter"",""0"",""3611""
","
","548.4400000000023","","","","","","","","49","0,0,0","6","blank","279","null","0.35506771081122596","0.1285008185514279","0.7332053020148033","0","","","","","","","","",""
"","html-keyboard-response","119","472271","0.0-68.0-1.0","""event"",""trial"",""time""
""fullscreenenter"",""0"",""3611""
","
","
","""event"",""trial"",""time""
""fullscreenenter"",""0"",""3611""
","
","null","<p></p>","null","","","","","","","","","","","","","","","","","","","","","","","",""
"","do_trial","120","475885","0.0-69.0-0.0","""event"",""trial"",""time""
""fullscreenenter"",""0"",""3611""
","
","
","""event"",""trial"",""time""
""fullscreenenter"",""0"",""3611""
","
","939.5650000000605","","","","","","","","49","1,0,0","6","blank","280","null","0.3177360051103086","0.18788448949553027","0.7125854031816595","1","","","","","","","","",""
"","html-keyboard-response","121","476889","0.0-69.0-1.0","""event"",""trial"",""time""
""fullscreenenter"",""0"",""3611""
","
","
","""event"",""trial"",""time""
""fullscreenenter"",""0"",""3611""
","
","null","<p></p>","null","","","","","","","","","","","","","","","","","","","","","","","",""
"","do_recog","122","480437","0.0-70.0-0.0","""event"",""trial"",""time""
""fullscreenenter"",""0"",""3611""
","
","
","""event"",""trial"",""time""
""fullscreenenter"",""0"",""3611""
","
","2022.0050000000629","","","","","","","","54","","","","281","probe-154","","","","","1","[object Object]","198","4","1","","","",""
"","html-keyboard-response","123","481443","0.0-70.0-1.0","""event"",""trial"",""time""
""fullscreenenter"",""0"",""3611""
","
","
","""event"",""trial"",""time""
""fullscreenenter"",""0"",""3611""
","
","null","<p></p>","null","","","","","","","","","","","","","","","","","","","","","","","",""
"","do_trial","124","486059","0.0-71.0-0.0","""event"",""trial"",""time""
""fullscreenenter"",""0"",""3611""
","
","
","""event"",""trial"",""time""
""fullscreenenter"",""0"",""3611""
","
","1937.2200000000303","","","","","","","","50","0,0,1","6","blank","282","null","0.3169220424139039","0.07619362747118072","0.8257585412123787","0","","","","","","","","",""
"","html-keyboard-response","125","487063","0.0-71.0-1.0","""event"",""trial"",""time""
""fullscreenenter"",""0"",""3611""
","
","
","""event"",""trial"",""time""
""fullscreenenter"",""0"",""3611""
","
","null","<p></p>","null","","","","","","","","","","","","","","","","","","","","","","","",""
"","do_recog","126","490657","0.0-72.0-0.0","""event"",""trial"",""time""
""fullscreenenter"",""0"",""3611""
","
","
","""event"",""trial"",""time""
""fullscreenenter"",""0"",""3611""
","
","2064.594999999914","","","","","","","","53","","","","283","probe-72","","","","","1","[object Object]","74","1","1","","","",""
"","html-keyboard-response","127","491662","0.0-72.0-1.0","""event"",""trial"",""time""
""fullscreenenter"",""0"",""3611""
","
","
","""event"",""trial"",""time""
""fullscreenenter"",""0"",""3611""
","
","null","<p></p>","null","","","","","","","","","","","","","","","","","","","","","","","",""
"","do_trial","128","496290","0.0-73.0-0.0","""event"",""trial"",""time""
""fullscreenenter"",""0"",""3611""
","
","
","""event"",""trial"",""time""
""fullscreenenter"",""0"",""3611""
","
","1945.5949999999139","","","","","","","","49","1,0,1","6","blank","284","null","0.3283836384792545","0.12291246924154463","0.6844196939332392","1","","","","","","","","",""
"","html-keyboard-response","129","497293","0.0-73.0-1.0","""event"",""trial"",""time""
""fullscreenenter"",""0"",""3611""
","
","
","""event"",""trial"",""time""
""fullscreenenter"",""0"",""3611""
","
","null","<p></p>","null","","","","","","","","","","","","","","","","","","","","","","","",""
"","do_trial","130","501521","0.0-74.0-0.0","""event"",""trial"",""time""
""fullscreenenter"",""0"",""3611""
","
","
","""event"",""trial"",""time""
""fullscreenenter"",""0"",""3611""
","
","1555.4049999999697","","","","","","","","50","0,0,1","6","blank","285","null","0.2994160333279908","0.09130501725084018","0.7314464715114408","0","","","","","","","","",""
"","html-keyboard-response","131","502524","0.0-74.0-1.0","""event"",""trial"",""time""
""fullscreenenter"",""0"",""3611""
","
","
","""event"",""trial"",""time""
""fullscreenenter"",""0"",""3611""
","
","null","<p></p>","null","","","","","","","","","","","","","","","","","","","","","","","",""
"","do_trial","132","506217","0.0-75.0-0.0","""event"",""trial"",""time""
""fullscreenenter"",""0"",""3611""
","
","
","""event"",""trial"",""time""
""fullscreenenter"",""0"",""3611""
","
","1012.9849999999278","","","","","","","","51","1,0,1","6","blank","286","null","0.32135119281804875","0.10700341909743016","0.7768781266887927","1","","","","","","","","",""
"","html-keyboard-response","133","507220","0.0-75.0-1.0","""event"",""trial"",""time""
""fullscreenenter"",""0"",""3611""
","
","
","""event"",""trial"",""time""
""fullscreenenter"",""0"",""3611""
","
","null","<p></p>","null","","","","","","","","","","","","","","","","","","","","","","","",""
"","do_trial","134","510862","0.0-76.0-0.0","""event"",""trial"",""time""
""fullscreenenter"",""0"",""3611""
","
","
","""event"",""trial"",""time""
""fullscreenenter"",""0"",""3611""
","
","980.6599999999744","","","","","","","","49","0,0,1","6","blank","287","null","0.23660723321206384","0.1156432665599501","0.6497069891261156","0","","","","","","","","",""
"","html-keyboard-response","135","511866","0.0-76.0-1.0","""event"",""trial"",""time""
""fullscreenenter"",""0"",""3611""
","
","
","""event"",""trial"",""time""
""fullscreenenter"",""0"",""3611""
","
","null","<p></p>","null","","","","","","","","","","","","","","","","","","","","","","","",""
"","do_trial","136","515453","0.0-77.0-0.0","""event"",""trial"",""time""
""fullscreenenter"",""0"",""3611""
","
","
","""event"",""trial"",""time""
""fullscreenenter"",""0"",""3611""
","
","928.265000000014","","","","","","","","49","0,0,0","6","blank","288","null","0.1525210866605845","0.0543167841424115","0.5961386409430164","0","","","","","","","","",""
"","html-keyboard-response","137","516456","0.0-77.0-1.0","""event"",""trial"",""time""
""fullscreenenter"",""0"",""3611""
","
","
","""event"",""trial"",""time""
""fullscreenenter"",""0"",""3611""
","
","null","<p></p>","null","","","","","","","","","","","","","","","","","","","","","","","",""
"","do_trial","138","520032","0.0-78.0-0.0","""event"",""trial"",""time""
""fullscreenenter"",""0"",""3611""
","
","
","""event"",""trial"",""time""
""fullscreenenter"",""0"",""3611""
","
","915.7249999998021","","","","","","","","49","1,0,1","6","blank","289","null","0.45707435467490565","0.15481064885281734","0.7509619841143135","1","","","","","","","","",""
"","html-keyboard-response","139","521037","0.0-78.0-1.0","""event"",""trial"",""time""
""fullscreenenter"",""0"",""3611""
","
","
","""event"",""trial"",""time""
""fullscreenenter"",""0"",""3611""
","
","null","<p></p>","null","","","","","","","","","","","","","","","","","","","","","","","",""
"","do_recog","140","525315","0.0-79.0-0.0","""event"",""trial"",""time""
""fullscreenenter"",""0"",""3611""
","
","
","""event"",""trial"",""time""
""fullscreenenter"",""0"",""3611""
","
","2750.2700000000186","","","","","","","","53","","","","290","probe-162","","","","","1","[object Object]","35","0","1","","","",""
"","html-keyboard-response","141","526318","0.0-79.0-1.0","""event"",""trial"",""time""
""fullscreenenter"",""0"",""3611""
","
","
","""event"",""trial"",""time""
""fullscreenenter"",""0"",""3611""
","
","null","<p></p>","null","","","","","","","","","","","","","","","","","","","","","","","",""
"","do_trial","142","530147","0.0-80.0-0.0","""event"",""trial"",""time""
""fullscreenenter"",""0"",""3611""
","
","
","""event"",""trial"",""time""
""fullscreenenter"",""0"",""3611""
","
","1154.1450000000186","","","","","","","","49","0,0,1","6","blank","291","null","0.48887891740008566","0.210958444787505","0.640476851929329","0","","","","","","","","",""
"","html-keyboard-response","143","531152","0.0-80.0-1.0","""event"",""trial"",""time""
""fullscreenenter"",""0"",""3611""
","
","
","""event"",""trial"",""time""
""fullscreenenter"",""0"",""3611""
","
","null","<p></p>","null","","","","","","","","","","","","","","","","","","","","","","","",""
"","do_trial","144","534776","0.0-81.0-0.0","""event"",""trial"",""time""
""fullscreenenter"",""0"",""3611""
","
","
","""event"",""trial"",""time""
""fullscreenenter"",""0"",""3611""
","
","955.3400000000838","","","","","","","","49","0,0,1","6","blank","292","null","0.46095144560308093","0.13745710401371639","0.6546719412702438","0","","","","","","","","",""
"","html-keyboard-response","145","535780","0.0-81.0-1.0","""event"",""trial"",""time""
""fullscreenenter"",""0"",""3611""
","
","
","""event"",""trial"",""time""
""fullscreenenter"",""0"",""3611""
","
","null","<p></p>","null","","","","","","","","","","","","","","","","","","","","","","","",""
"","do_trial","146","538528","0.0-82.0-0.0","""event"",""trial"",""time""
""fullscreenenter"",""0"",""3611""
","
","
","""event"",""trial"",""time""
""fullscreenenter"",""0"",""3611""
","
","65.18999999994412","","","","","","","","51","0,0,1","6","blank","293","null","0.3045146215871558","0.19145195552723376","0.4780262970881461","1","","","","","","","","",""
"","html-keyboard-response","147","539531","0.0-82.0-1.0","""event"",""trial"",""time""
""fullscreenenter"",""0"",""3611""
","
","
","""event"",""trial"",""time""
""fullscreenenter"",""0"",""3611""
","
","null","<p></p>","null","","","","","","","","","","","","","","","","","","","","","","","",""
"","do_recog","148","543619","0.0-83.0-0.0","""event"",""trial"",""time""
""fullscreenenter"",""0"",""3611""
","
","
","""event"",""trial"",""time""
""fullscreenenter"",""0"",""3611""
","
","2559.1149999999907","","","","","","","","55","","","","294","probe-59","","","","","1","[object Object]","199","4","0","","","",""
"","html-keyboard-response","149","544622","0.0-83.0-1.0","""event"",""trial"",""time""
""fullscreenenter"",""0"",""3611""
","
","
","""event"",""trial"",""time""
""fullscreenenter"",""0"",""3611""
","
","null","<p></p>","null","","","","","","","","","","","","","","","","","","","","","","","",""
"","do_trial","150","548679","0.0-84.0-0.0","""event"",""trial"",""time""
""fullscreenenter"",""0"",""3611""
","
","
","""event"",""trial"",""time""
""fullscreenenter"",""0"",""3611""
","
","1393.1050000000978","","","","","","","","50","1,1,1","6","blank","295","null","0.3157965030567574","0.23089821216886194","0.5640141012746268","1","","","","","","","","",""
"","html-keyboard-response","151","549682","0.0-84.0-1.0","""event"",""trial"",""time""
""fullscreenenter"",""0"",""3611""
","
","
","""event"",""trial"",""time""
""fullscreenenter"",""0"",""3611""
","
","null","<p></p>","null","","","","","","","","","","","","","","","","","","","","","","","",""
"","do_recog","152","553331","0.0-85.0-0.0","""event"",""trial"",""time""
""fullscreenenter"",""0"",""3611""
","
","
","""event"",""trial"",""time""
""fullscreenenter"",""0"",""3611""
","
","2126.7600000001257","","","","","","","","54","","","","296","probe-121","","","","","1","[object Object]","115","2","1","","","",""
"","html-keyboard-response","153","554335","0.0-85.0-1.0","""event"",""trial"",""time""
""fullscreenenter"",""0"",""3611""
","
","
","""event"",""trial"",""time""
""fullscreenenter"",""0"",""3611""
","
","null","<p></p>","null","","","","","","","","","","","","","","","","","","","","","","","",""
"","do_trial","154","558087","0.0-86.0-0.0","""event"",""trial"",""time""
""fullscreenenter"",""0"",""3611""
","
","
","""event"",""trial"",""time""
""fullscreenenter"",""0"",""3611""
","
","1055.875","","","","","","","","49","1,0,0","6","blank","297","null","0.29472654450089","0.17758598203506876","0.5334549941811698","1","","","","","","","","",""
"","html-keyboard-response","155","559091","0.0-86.0-1.0","""event"",""trial"",""time""
""fullscreenenter"",""0"",""3611""
","
","
","""event"",""trial"",""time""
""fullscreenenter"",""0"",""3611""
","
","null","<p></p>","null","","","","","","","","","","","","","","","","","","","","","","","",""
"","do_trial","156","562805","0.0-87.0-0.0","""event"",""trial"",""time""
""fullscreenenter"",""0"",""3611""
","
","
","""event"",""trial"",""time""
""fullscreenenter"",""0"",""3611""
","
","1033.1549999999115","","","","","","","","49","0,0,0","6","blank","298","null","0.1997378664893212","0.30699312739665596","0.6641978695379918","0","","","","","","","","",""
"","html-keyboard-response","157","563809","0.0-87.0-1.0","""event"",""trial"",""time""
""fullscreenenter"",""0"",""3611""
","
","
","""event"",""trial"",""time""
""fullscreenenter"",""0"",""3611""
","
","null","<p></p>","null","","","","","","","","","","","","","","","","","","","","","","","",""
"","do_recog","158","567663","0.0-88.0-0.0","""event"",""trial"",""time""
""fullscreenenter"",""0"",""3611""
","
","
","""event"",""trial"",""time""
""fullscreenenter"",""0"",""3611""
","
","2326.330000000191","","","","","","","","56","","","","299","probe-135","","","","","1","[object Object]","157","3","0","","","",""
"","html-keyboard-response","159","568666","0.0-88.0-1.0","""event"",""trial"",""time""
""fullscreenenter"",""0"",""3611""
","
","
","""event"",""trial"",""time""
""fullscreenenter"",""0"",""3611""
","
","null","<p></p>","null","","","","","","","","","","","","","","","","","","","","","","","",""
"","do_trial","160","572830","0.0-89.0-0.0","""event"",""trial"",""time""
""fullscreenenter"",""0"",""3611""
","
","
","""event"",""trial"",""time""
""fullscreenenter"",""0"",""3611""
","
","1494.4149999999208","","","","","","","","50","0,1,0","6","blank","300","null","0.3238397442752829","0.45538642029715454","0.5857729888026129","1","","","","","","","","",""
"","html-keyboard-response","161","573834","0.0-89.0-1.0","""event"",""trial"",""time""
""fullscreenenter"",""0"",""3611""
","
","
","""event"",""trial"",""time""
""fullscreenenter"",""0"",""3611""
","
","null","<p></p>","null","","","","","","","","","","","","","","","","","","","","","","","",""
"","do_trial","162","577953","0.0-90.0-0.0","""event"",""trial"",""time""
""fullscreenenter"",""0"",""3611""
","
","
","""event"",""trial"",""time""
""fullscreenenter"",""0"",""3611""
","
","1442.1199999999953","","","","","","","","51","1,1,0","6","blank","301","null","0.21744148615954362","0.5936009300089987","0.4983676551214024","0","","","","","","","","",""
"","html-keyboard-response","163","578958","0.0-90.0-1.0","""event"",""trial"",""time""
""fullscreenenter"",""0"",""3611""
","
","
","""event"",""trial"",""time""
""fullscreenenter"",""0"",""3611""
","
","null","<p></p>","null","","","","","","","","","","","","","","","","","","","","","","","",""
"","do_trial","164","582192","0.0-91.0-0.0","""event"",""trial"",""time""
""fullscreenenter"",""0"",""3611""
","
","
","""event"",""trial"",""time""
""fullscreenenter"",""0"",""3611""
","
","557.7500000001164","","","","","","","","49","0,1,0","6","blank","302","null","0.0669347303832693","0.6456002764994077","0.43603410607311766","0","","","","","","","","",""
"","html-keyboard-response","165","583195","0.0-91.0-1.0","""event"",""trial"",""time""
""fullscreenenter"",""0"",""3611""
","
","
","""event"",""trial"",""time""
""fullscreenenter"",""0"",""3611""
","
","null","<p></p>","null","","","","","","","","","","","","","","","","","","","","","","","",""
"","do_trial","166","586270","0.0-92.0-0.0","""event"",""trial"",""time""
""fullscreenenter"",""0"",""3611""
","
","
","""event"",""trial"",""time""
""fullscreenenter"",""0"",""3611""
","
","404.28999999992084","","","","","","","","49","0,1,0","6","blank","303","null","0.0797211615154375","0.7694448941421785","0.4172491134667111","0","","","","","","","","",""
"","html-keyboard-response","167","587275","0.0-92.0-1.0","""event"",""trial"",""time""
""fullscreenenter"",""0"",""3611""
","
","
","""event"",""trial"",""time""
""fullscreenenter"",""0"",""3611""
","
","null","<p></p>","null","","","","","","","","","","","","","","","","","","","","","","","",""
"","do_trial","168","590284","0.0-93.0-0.0","""event"",""trial"",""time""
""fullscreenenter"",""0"",""3611""
","
","
","""event"",""trial"",""time""
""fullscreenenter"",""0"",""3611""
","
","349.86999999999534","","","","","","","","49","0,1,0","6","blank","304","null","0.2575640060352771","0.716819008792867","0.3312213069126442","0","","","","","","","","",""
"","html-keyboard-response","169","591288","0.0-93.0-1.0","""event"",""trial"",""time""
""fullscreenenter"",""0"",""3611""
","
","
","""event"",""trial"",""time""
""fullscreenenter"",""0"",""3611""
","
","null","<p></p>","null","","","","","","","","","","","","","","","","","","","","","","","",""
"","do_recog","170","597316","0.0-94.0-0.0","""event"",""trial"",""time""
""fullscreenenter"",""0"",""3611""
","
","
","""event"",""trial"",""time""
""fullscreenenter"",""0"",""3611""
","
","null","","","","","","","","null","","","","305","probe-84","","","","","1","[object Object]","117","2","0","","","",""
"","html-keyboard-response","171","598321","0.0-94.0-1.0","""event"",""trial"",""time""
""fullscreenenter"",""0"",""3611""
","
","
","""event"",""trial"",""time""
""fullscreenenter"",""0"",""3611""
","
","null","<p></p>","null","","","","","","","","","","","","","","","","","","","","","","","",""
"","do_trial","172","602150","0.0-95.0-0.0","""event"",""trial"",""time""
""fullscreenenter"",""0"",""3611""
","
","
","""event"",""trial"",""time""
""fullscreenenter"",""0"",""3611""
","
","1149.0900000000838","","","","","","","","49","0,1,1","6","blank","306","null","0.17292833398367916","0.5988928071602503","0.38194299902390677","0","","","","","","","","",""
"","html-keyboard-response","173","603153","0.0-95.0-1.0","""event"",""trial"",""time""
""fullscreenenter"",""0"",""3611""
","
","
","""event"",""trial"",""time""
""fullscreenenter"",""0"",""3611""
","
","null","<p></p>","null","","","","","","","","","","","","","","","","","","","","","","","",""
"","do_trial","174","606632","0.0-96.0-0.0","""event"",""trial"",""time""
""fullscreenenter"",""0"",""3611""
","
","
","""event"",""trial"",""time""
""fullscreenenter"",""0"",""3611""
","
","819.7150000000838","","","","","","","","49","1,1,1","6","blank","307","null","0.11104145018552856","0.5895609594501839","0.35163852842608495","1","","","","","","","","",""
"","html-keyboard-response","175","607636","0.0-96.0-1.0","""event"",""trial"",""time""
""fullscreenenter"",""0"",""3611""
","
","
","""event"",""trial"",""time""
""fullscreenenter"",""0"",""3611""
","
","null","<p></p>","null","","","","","","","","","","","","","","","","","","","","","","","",""
"","do_trial","176","611276","0.0-97.0-0.0","""event"",""trial"",""time""
""fullscreenenter"",""0"",""3611""
","
","
","""event"",""trial"",""time""
""fullscreenenter"",""0"",""3611""
","
","979.214999999851","","","","","","","","51","0,0,1","6","blank","308","null","0.06978958855330465","0.5182021466344354","0.2825607960932824","1","","","","","","","","",""
"","html-keyboard-response","177","612280","0.0-97.0-1.0","""event"",""trial"",""time""
""fullscreenenter"",""0"",""3611""
","
","
","""event"",""trial"",""time""
""fullscreenenter"",""0"",""3611""
","
","null","<p></p>","null","","","","","","","","","","","","","","","","","","","","","","","",""
"","break","178","615849","0.0-98.0-0.0","""event"",""trial"",""time""
""fullscreenenter"",""0"",""3611""
","
","
","""event"",""trial"",""time""
""fullscreenenter"",""0"",""3611""
","
","3563.3049999998184","<div class='center'><p>Time to take a quick break! You have 2 minutes to rest, but you can move on sooner if you'd like.</p><p> Press the <b>space bar</b> to continue.</p></div>","32","","","","","","","","","","","","","","","","","","","","","","","",""
"","do_trial","179","620707","0.0-98.0-1.0","""event"",""trial"",""time""
""fullscreenenter"",""0"",""3611""
","
","
","""event"",""trial"",""time""
""fullscreenenter"",""0"",""3611""
","
","2176.6199999999953","","","","","","","","49","0,0,1","6","blank","309","null","0.10415882226225548","0.5700570189933784","0.36559430702563733","0","","","","","","","","",""
"","html-keyboard-response","180","621710","0.0-98.0-2.0","""event"",""trial"",""time""
""fullscreenenter"",""0"",""3611""
","
","
","""event"",""trial"",""time""
""fullscreenenter"",""0"",""3611""
","
","null","<p></p>","null","","","","","","","","","","","","","","","","","","","","","","","",""
"","do_recog","181","627733","0.0-99.0-0.0","""event"",""trial"",""time""
""fullscreenenter"",""0"",""3611""
","
","
","""event"",""trial"",""time""
""fullscreenenter"",""0"",""3611""
","
","null","","","","","","","","null","","","","310","probe-03","","","","","1","[object Object]","152","3","0","","","",""
"","html-keyboard-response","182","628737","0.0-99.0-1.0","""event"",""trial"",""time""
""fullscreenenter"",""0"",""3611""
","
","
","""event"",""trial"",""time""
""fullscreenenter"",""0"",""3611""
","
","null","<p></p>","null","","","","","","","","","","","","","","","","","","","","","","","",""
"","do_trial","183","631695","0.0-100.0-0.0","""event"",""trial"",""time""
""fullscreenenter"",""0"",""3611""
","
","
","""event"",""trial"",""time""
""fullscreenenter"",""0"",""3611""
","
","277.8399999999674","","","","","","","","50","0,1,1","6","blank","311","null","0.08986836456230897","0.5937321851928825","0.20059324293181438","1","","","","","","","","",""
"","html-keyboard-response","184","632700","0.0-100.0-1.0","""event"",""trial"",""time""
""fullscreenenter"",""0"",""3611""
","
","
","""event"",""trial"",""time""
""fullscreenenter"",""0"",""3611""
","
","null","<p></p>","null","","","","","","","","","","","","","","","","","","","","","","","",""
"","do_recog","185","636983","0.0-101.0-0.0","""event"",""trial"",""time""
""fullscreenenter"",""0"",""3611""
","
","
","""event"",""trial"",""time""
""fullscreenenter"",""0"",""3611""
","
","2755.335000000079","","","","","","","","55","","","","312","probe-189","","","","","1","[object Object]","75","1","0","","","",""
"","html-keyboard-response","186","637987","0.0-101.0-1.0","""event"",""trial"",""time""
""fullscreenenter"",""0"",""3611""
","
","
","""event"",""trial"",""time""
""fullscreenenter"",""0"",""3611""
","
","null","<p></p>","null","","","","","","","","","","","","","","","","","","","","","","","",""
"","do_trial","187","644176","0.0-102.0-0.0","""event"",""trial"",""time""
""fullscreenenter"",""0"",""3611""
","
","
","""event"",""trial"",""time""
""fullscreenenter"",""0"",""3611""
","
","null","","","","","","","","null","0,1,0","6","blank","313","null","0.05816077536930244","0.681610543351384","0.2573056044203891","","","","","","","","","",""
"","html-keyboard-response","188","645181","0.0-102.0-1.0","""event"",""trial"",""time""
""fullscreenenter"",""0"",""3611""
","
","
","""event"",""trial"",""time""
""fullscreenenter"",""0"",""3611""
","
","null","<p></p>","null","","","","","","","","","","","","","","","","","","","","","","","",""
"","do_trial","189","648655","0.0-103.0-0.0","""event"",""trial"",""time""
""fullscreenenter"",""0"",""3611""
","
","
","""event"",""trial"",""time""
""fullscreenenter"",""0"",""3611""
","
","805.515000000014","","","","","","","","51","0,1,0","6","blank","314","null","0.1742033702423673","0.6059658597698709","0.24643903268643094","0","","","","","","","","",""
"","html-keyboard-response","190","649661","0.0-103.0-1.0","""event"",""trial"",""time""
""fullscreenenter"",""0"",""3611""
","
","
","""event"",""trial"",""time""
""fullscreenenter"",""0"",""3611""
","
","null","<p></p>","null","","","","","","","","","","","","","","","","","","","","","","","",""
"","do_recog","191","653147","0.0-104.0-0.0","""event"",""trial"",""time""
""fullscreenenter"",""0"",""3611""
","
","
","""event"",""trial"",""time""
""fullscreenenter"",""0"",""3611""
","
","1967.1300000000047","","","","","","","","55","","","","315","probe-22","","","","","1","[object Object]","151","3","0","","","",""
"","html-keyboard-response","192","654150","0.0-104.0-1.0","""event"",""trial"",""time""
""fullscreenenter"",""0"",""3611""
","
","
","""event"",""trial"",""time""
""fullscreenenter"",""0"",""3611""
","
","null","<p></p>","null","","","","","","","","","","","","","","","","","","","","","","","",""
"","do_trial","193","660316","0.0-105.0-0.0","""event"",""trial"",""time""
""fullscreenenter"",""0"",""3611""
","
","
","""event"",""trial"",""time""
""fullscreenenter"",""0"",""3611""
","
","null","","","","","","","","null","0,1,0","6","blank","316","null","0.1467662877158065","0.6018876315914478","0.1577315386042665","","","","","","","","","",""
"","html-keyboard-response","194","661319","0.0-105.0-1.0","""event"",""trial"",""time""
""fullscreenenter"",""0"",""3611""
","
","
","""event"",""trial"",""time""
""fullscreenenter"",""0"",""3611""
","
","null","<p></p>","null","","","","","","","","","","","","","","","","","","","","","","","",""
"","do_trial","195","665985","0.0-106.0-0.0","""event"",""trial"",""time""
""fullscreenenter"",""0"",""3611""
","
","
","""event"",""trial"",""time""
""fullscreenenter"",""0"",""3611""
","
","1982.4499999999534","","","","","","","","49","1,0,0","6","blank","317","null","0.2913579909277692","0.4260327988573275","0.18756013647622152","1","","","","","","","","",""
"","html-keyboard-response","196","666991","0.0-106.0-1.0","""event"",""trial"",""time""
""fullscreenenter"",""0"",""3611""
","
","
","""event"",""trial"",""time""
""fullscreenenter"",""0"",""3611""
","
","null","<p></p>","null","","","","","","","","","","","","","","","","","","","","","","","",""
"","do_trial","197","670403","0.0-107.0-0.0","""event"",""trial"",""time""
""fullscreenenter"",""0"",""3611""
","
","
","""event"",""trial"",""time""
""fullscreenenter"",""0"",""3611""
","
","735.7199999998556","","","","","","","","49","0,1,0","6","blank","318","null","0.1928838200271346","0.322591855389951","0.1501106450533031","0","","","","","","","","",""
"","html-keyboard-response","198","671407","0.0-107.0-1.0","""event"",""trial"",""time""
""fullscreenenter"",""0"",""3611""
","
","
","""event"",""trial"",""time""
""fullscreenenter"",""0"",""3611""
","
","null","<p></p>","null","","","","","","","","","","","","","","","","","","","","","","","",""
"","do_recog","199","675667","0.0-108.0-0.0","""event"",""trial"",""time""
""fullscreenenter"",""0"",""3611""
","
","
","""event"",""trial"",""time""
""fullscreenenter"",""0"",""3611""
","
","2731.185000000056","","","","","","","","56","","","","319","probe-51","","","","","1","[object Object]","119","2","0","","","",""
"","html-keyboard-response","200","676672","0.0-108.0-1.0","""event"",""trial"",""time""
""fullscreenenter"",""0"",""3611""
","
","
","""event"",""trial"",""time""
""fullscreenenter"",""0"",""3611""
","
","null","<p></p>","null","","","","","","","","","","","","","","","","","","","","","","","",""
"","do_trial","201","680616","0.0-109.0-0.0","""event"",""trial"",""time""
""fullscreenenter"",""0"",""3611""
","
","
","""event"",""trial"",""time""
""fullscreenenter"",""0"",""3611""
","
","1266.2349999997532","","","","","","","","49","0,0,0","6","blank","320","null","0.0853967668597608","0.5158754741867676","0.2535493941315245","0","","","","","","","","",""
"","html-keyboard-response","202","681620","0.0-109.0-1.0","""event"",""trial"",""time""
""fullscreenenter"",""0"",""3611""
","
","
","""event"",""trial"",""time""
""fullscreenenter"",""0"",""3611""
","
","null","<p></p>","null","","","","","","","","","","","","","","","","","","","","","","","",""
"","do_recog","203","684692","0.0-110.0-0.0","""event"",""trial"",""time""
""fullscreenenter"",""0"",""3611""
","
","
","""event"",""trial"",""time""
""fullscreenenter"",""0"",""3611""
","
","1541.4049999999115","","","","","","","","56","","","","321","probe-178","","","","","1","[object Object]","194","4","0","","","",""
"","html-keyboard-response","204","685697","0.0-110.0-1.0","""event"",""trial"",""time""
""fullscreenenter"",""0"",""3611""
","
","
","""event"",""trial"",""time""
""fullscreenenter"",""0"",""3611""
","
","null","<p></p>","null","","","","","","","","","","","","","","","","","","","","","","","",""
"","do_trial","205","689561","0.0-111.0-0.0","""event"",""trial"",""time""
""fullscreenenter"",""0"",""3611""
","
","
","""event"",""trial"",""time""
""fullscreenenter"",""0"",""3611""
","
","1180.8100000000559","","","","","","","","51","0,0,0","6","blank","322","null","0.1385210220814441","0.3748021084572324","0.2339941784549104","0","","","","","","","","",""
"","html-keyboard-response","206","690566","0.0-111.0-1.0","""event"",""trial"",""time""
""fullscreenenter"",""0"",""3611""
","
","
","""event"",""trial"",""time""
""fullscreenenter"",""0"",""3611""
","
","null","<p></p>","null","","","","","","","","","","","","","","","","","","","","","","","",""
"","do_trial","207","694494","0.0-112.0-0.0","""event"",""trial"",""time""
""fullscreenenter"",""0"",""3611""
","
","
","""event"",""trial"",""time""
""fullscreenenter"",""0"",""3611""
","
","1250.9899999999907","","","","","","","","49","0,0,0","6","blank","323","null","0.0514447070981758","0.6217460187172651","0.2829742720708429","0","","","","","","","","",""
"","html-keyboard-response","208","695500","0.0-112.0-1.0","""event"",""trial"",""time""
""fullscreenenter"",""0"",""3611""
","
","
","""event"",""trial"",""time""
""fullscreenenter"",""0"",""3611""
","
","null","<p></p>","null","","","","","","","","","","","","","","","","","","","","","","","",""
"","do_trial","209","698859","0.0-113.0-0.0","""event"",""trial"",""time""
""fullscreenenter"",""0"",""3611""
","
","
","""event"",""trial"",""time""
""fullscreenenter"",""0"",""3611""
","
","685.8200000000652","","","","","","","","49","0,0,0","6","blank","324","null","0.09826872233628729","0.49736672650724545","0.25218253478463587","0","","","","","","","","",""
"","html-keyboard-response","210","699864","0.0-113.0-1.0","""event"",""trial"",""time""
""fullscreenenter"",""0"",""3611""
","
","
","""event"",""trial"",""time""
""fullscreenenter"",""0"",""3611""
","
","null","<p></p>","null","","","","","","","","","","","","","","","","","","","","","","","",""
"","do_trial","211","703111","0.0-114.0-0.0","""event"",""trial"",""time""
""fullscreenenter"",""0"",""3611""
","
","
","""event"",""trial"",""time""
""fullscreenenter"",""0"",""3611""
","
","580.3949999999022","","","","","","","","49","0,0,1","6","blank","325","null","0.15124538735307588","0.5320583969378783","0.2648681379312922","0","","","","","","","","",""
"","html-keyboard-response","212","704115","0.0-114.0-1.0","""event"",""trial"",""time""
""fullscreenenter"",""0"",""3611""
","
","
","""event"",""trial"",""time""
""fullscreenenter"",""0"",""3611""
","
","null","<p></p>","null","","","","","","","","","","","","","","","","","","","","","","","",""
"","do_recog","213","708144","0.0-115.0-0.0","""event"",""trial"",""time""
""fullscreenenter"",""0"",""3611""
","
","
","""event"",""trial"",""time""
""fullscreenenter"",""0"",""3611""
","
","2500.829999999958","","","","","","","","53","","","","326","probe-98","","","","","1","[object Object]","193","4","1","","","",""
"","html-keyboard-response","214","709148","0.0-115.0-1.0","""event"",""trial"",""time""
""fullscreenenter"",""0"",""3611""
","
","
","""event"",""trial"",""time""
""fullscreenenter"",""0"",""3611""
","
","null","<p></p>","null","","","","","","","","","","","","","","","","","","","","","","","",""
"","do_trial","215","712902","0.0-116.0-0.0","""event"",""trial"",""time""
""fullscreenenter"",""0"",""3611""
","
","
","""event"",""trial"",""time""
""fullscreenenter"",""0"",""3611""
","
","1084.8349999999627","","","","","","","","49","0,0,0","6","blank","327","null","0.05029622484551714","0.7072594343309723","0.1560077794011437","0","","","","","","","","",""
"","html-keyboard-response","216","713908","0.0-116.0-1.0","""event"",""trial"",""time""
""fullscreenenter"",""0"",""3611""
","
","
","""event"",""trial"",""time""
""fullscreenenter"",""0"",""3611""
","
","null","<p></p>","null","","","","","","","","","","","","","","","","","","","","","","","",""
"","do_trial","217","717298","0.0-117.0-0.0","""event"",""trial"",""time""
""fullscreenenter"",""0"",""3611""
","
","
","""event"",""trial"",""time""
""fullscreenenter"",""0"",""3611""
","
","721.0149999997811","","","","","","","","50","0,0,0","6","blank","328","null","0.19081810878875835","0.7887405447383763","0.07831791294780416","0","","","","","","","","",""
"","html-keyboard-response","218","718301","0.0-117.0-1.0","""event"",""trial"",""time""
""fullscreenenter"",""0"",""3611""
","
","
","""event"",""trial"",""time""
""fullscreenenter"",""0"",""3611""
","
","null","<p></p>","null","","","","","","","","","","","","","","","","","","","","","","","",""
"","do_trial","219","721477","0.0-118.0-0.0","""event"",""trial"",""time""
""fullscreenenter"",""0"",""3611""
","
","
","""event"",""trial"",""time""
""fullscreenenter"",""0"",""3611""
","
","513.559999999823","","","","","","","","50","0,1,0","6","blank","329","null","0.25291984901941456","0.6899814741470828","0.10240157930590145","1","","","","","","","","",""
"","html-keyboard-response","220","722480","0.0-118.0-1.0","""event"",""trial"",""time""
""fullscreenenter"",""0"",""3611""
","
","
","""event"",""trial"",""time""
""fullscreenenter"",""0"",""3611""
","
","null","<p></p>","null","","","","","","","","","","","","","","","","","","","","","","","",""
"","do_trial","221","725654","0.0-119.0-0.0","""event"",""trial"",""time""
""fullscreenenter"",""0"",""3611""
","
","
","""event"",""trial"",""time""
""fullscreenenter"",""0"",""3611""
","
","513.1550000001444","","","","","","","","49","1,1,0","6","blank","330","null","0.08543645728914502","0.6721942283976249","0.24061787254191103","1","","","","","","","","",""
"","html-keyboard-response","222","726658","0.0-119.0-1.0","""event"",""trial"",""time""
""fullscreenenter"",""0"",""3611""
","
","
","""event"",""trial"",""time""
""fullscreenenter"",""0"",""3611""
","
","null","<p></p>","null","","","","","","","","","","","","","","","","","","","","","","","",""
"","do_recog","223","732683","0.0-120.0-0.0","""event"",""trial"",""time""
""fullscreenenter"",""0"",""3611""
","
","
","""event"",""trial"",""time""
""fullscreenenter"",""0"",""3611""
","
","null","","","","","","","","null","","","","331","probe-111","","","","","1","[object Object]","34","0","0","","","",""
"","html-keyboard-response","224","733687","0.0-120.0-1.0","""event"",""trial"",""time""
""fullscreenenter"",""0"",""3611""
","
","
","""event"",""trial"",""time""
""fullscreenenter"",""0"",""3611""
","
","null","<p></p>","null","","","","","","","","","","","","","","","","","","","","","","","",""
"","do_trial","225","738256","0.0-121.0-0.0","""event"",""trial"",""time""
""fullscreenenter"",""0"",""3611""
","
","
","""event"",""trial"",""time""
""fullscreenenter"",""0"",""3611""
","
","1896.2699999999022","","","","","","","","51","0,1,0","6","blank","332","null","0.05159534349761084","0.6409643261976028","0.22970429097171047","0","","","","","","","","",""
"","html-keyboard-response","226","739259","0.0-121.0-1.0","""event"",""trial"",""time""
""fullscreenenter"",""0"",""3611""
","
","
","""event"",""trial"",""time""
""fullscreenenter"",""0"",""3611""
","
","null","<p></p>","null","","","","","","","","","","","","","","","","","","","","","","","",""
"","do_recog","227","745275","0.0-122.0-0.0","""event"",""trial"",""time""
""fullscreenenter"",""0"",""3611""
","
","
","""event"",""trial"",""time""
""fullscreenenter"",""0"",""3611""
","
","null","","","","","","","","null","","","","333","probe-137","","","","","1","[object Object]","114","2","0","","","",""
"","html-keyboard-response","228","746278","0.0-122.0-1.0","""event"",""trial"",""time""
""fullscreenenter"",""0"",""3611""
","
","
","""event"",""trial"",""time""
""fullscreenenter"",""0"",""3611""
","
","null","<p></p>","null","","","","","","","","","","","","","","","","","","","","","","","",""
"","do_trial","229","749722","0.0-123.0-0.0","""event"",""trial"",""time""
""fullscreenenter"",""0"",""3611""
","
","
","""event"",""trial"",""time""
""fullscreenenter"",""0"",""3611""
","
","773.3199999998324","","","","","","","","49","0,1,0","6","blank","334","null","0.06554157486984409","0.47986210747365476","0.05163553184489096","0","","","","","","","","",""
"","html-keyboard-response","230","750740","0.0-123.0-1.0","""event"",""trial"",""time""
""fullscreenenter"",""0"",""3611""
","
","
","""event"",""trial"",""time""
""fullscreenenter"",""0"",""3611""
","
","null","<p></p>","null","","","","","","","","","","","","","","","","","","","","","","","",""
"","do_trial","231","754942","0.0-124.0-0.0","""event"",""trial"",""time""
""fullscreenenter"",""0"",""3611""
","
","
","""event"",""trial"",""time""
""fullscreenenter"",""0"",""3611""
","
","1539.9999999998836","","","","","","","","50","0,1,0","6","blank","335","null","0.05455435111128966","0.6045622866075203","0.10107395908023144","1","","","","","","","","",""
"","html-keyboard-response","232","755948","0.0-124.0-1.0","""event"",""trial"",""time""
""fullscreenenter"",""0"",""3611""
","
","
","""event"",""trial"",""time""
""fullscreenenter"",""0"",""3611""
","
","null","<p></p>","null","","","","","","","","","","","","","","","","","","","","","","","",""
"","do_recog","233","759298","0.0-125.0-0.0","""event"",""trial"",""time""
""fullscreenenter"",""0"",""3611""
","
","
","""event"",""trial"",""time""
""fullscreenenter"",""0"",""3611""
","
","1822.0850000000792","","","","","","","","56","","","","336","probe-125","","","","","1","[object Object]","197","4","0","","","",""
"","html-keyboard-response","234","760301","0.0-125.0-1.0","""event"",""trial"",""time""
""fullscreenenter"",""0"",""3611""
","
","
","""event"",""trial"",""time""
""fullscreenenter"",""0"",""3611""
","
","null","<p></p>","null","","","","","","","","","","","","","","","","","","","","","","","",""
"","do_trial","235","764092","0.0-126.0-0.0","""event"",""trial"",""time""
""fullscreenenter"",""0"",""3611""
","
","
","""event"",""trial"",""time""
""fullscreenenter"",""0"",""3611""
","
","1111.8149999999441","","","","","","","","50","0,1,0","6","blank","337","null","0.09193241986004293","0.607684219403656","0.11642594833959793","1","","","","","","","","",""
"","html-keyboard-response","236","765098","0.0-126.0-1.0","""event"",""trial"",""time""
""fullscreenenter"",""0"",""3611""
","
","
","""event"",""trial"",""time""
""fullscreenenter"",""0"",""3611""
","
","null","<p></p>","null","","","","","","","","","","","","","","","","","","","","","","","",""
"","do_recog","237","768663","0.0-127.0-0.0","""event"",""trial"",""time""
""fullscreenenter"",""0"",""3611""
","
","
","""event"",""trial"",""time""
""fullscreenenter"",""0"",""3611""
","
","2036.2749999999069","","","","","","","","54","","","","338","probe-85","","","","","1","[object Object]","192","4","1","","","",""
"","html-keyboard-response","238","769667","0.0-127.0-1.0","""event"",""trial"",""time""
""fullscreenenter"",""0"",""3611""
","
","
","""event"",""trial"",""time""
""fullscreenenter"",""0"",""3611""
","
","null","<p></p>","null","","","","","","","","","","","","","","","","","","","","","","","",""
"","do_trial","239","773255","0.0-128.0-0.0","""event"",""trial"",""time""
""fullscreenenter"",""0"",""3611""
","
","
","""event"",""trial"",""time""
""fullscreenenter"",""0"",""3611""
","
","914.9999999998836","","","","","","","","49","0,1,0","6","blank","339","null","0.055065393794896125","0.6598386584544028","0.22830780561398456","0","","","","","","","","",""
"","html-keyboard-response","240","774259","0.0-128.0-1.0","""event"",""trial"",""time""
""fullscreenenter"",""0"",""3611""
","
","
","""event"",""trial"",""time""
""fullscreenenter"",""0"",""3611""
","
","null","<p></p>","null","","","","","","","","","","","","","","","","","","","","","","","",""
"","do_recog","241","780276","0.0-129.0-0.0","""event"",""trial"",""time""
""fullscreenenter"",""0"",""3611""
","
","
","""event"",""trial"",""time""
""fullscreenenter"",""0"",""3611""
","
","null","","","","","","","","null","","","","340","probe-255","","","","","0","[object Object]","null","null","0","","","",""
"","html-keyboard-response","242","781281","0.0-129.0-1.0","""event"",""trial"",""time""
""fullscreenenter"",""0"",""3611""
","
","
","""event"",""trial"",""time""
""fullscreenenter"",""0"",""3611""
","
","null","<p></p>","null","","","","","","","","","","","","","","","","","","","","","","","",""
"","do_trial","243","784957","0.0-130.0-0.0","""event"",""trial"",""time""
""fullscreenenter"",""0"",""3611""
","
","
","""event"",""trial"",""time""
""fullscreenenter"",""0"",""3611""
","
","999.3500000000931","","","","","","","","50","0,1,0","6","blank","341","null","0.09042298576279265","0.657382291540241","0.23898175136699132","1","","","","","","","","",""
"","html-keyboard-response","244","785961","0.0-130.0-1.0","""event"",""trial"",""time""
""fullscreenenter"",""0"",""3611""
","
","
","""event"",""trial"",""time""
""fullscreenenter"",""0"",""3611""
","
","null","<p></p>","null","","","","","","","","","","","","","","","","","","","","","","","",""
"","do_trial","245","789849","0.0-131.0-0.0","""event"",""trial"",""time""
""fullscreenenter"",""0"",""3611""
","
","
","""event"",""trial"",""time""
""fullscreenenter"",""0"",""3611""
","
","1224.5799999998417","","","","","","","","49","0,0,0","6","blank","342","null","0.08465375917408821","0.6047743655571572","0.06607148687229003","0","","","","","","","","",""
"","html-keyboard-response","246","790854","0.0-131.0-1.0","""event"",""trial"",""time""
""fullscreenenter"",""0"",""3611""
","
","
","""event"",""trial"",""time""
""fullscreenenter"",""0"",""3611""
","
","null","<p></p>","null","","","","","","","","","","","","","","","","","","","","","","","",""
"","do_trial","247","794553","0.0-132.0-0.0","""event"",""trial"",""time""
""fullscreenenter"",""0"",""3611""
","
","
","""event"",""trial"",""time""
""fullscreenenter"",""0"",""3611""
","
","1027.469999999972","","","","","","","","49","0,1,0","6","blank","343","null","0.05028321486885126","0.6880260765272117","0.2969746659663941","0","","","","","","","","",""
"","html-keyboard-response","248","795558","0.0-132.0-1.0","""event"",""trial"",""time""
""fullscreenenter"",""0"",""3611""
","
","
","""event"",""trial"",""time""
""fullscreenenter"",""0"",""3611""
","
","null","<p></p>","null","","","","","","","","","","","","","","","","","","","","","","","",""
"","do_trial","249","801717","0.0-133.0-0.0","""event"",""trial"",""time""
""fullscreenenter"",""0"",""3611""
","
","
","""event"",""trial"",""time""
""fullscreenenter"",""0"",""3611""
","
","null","","","","","","","","null","0,0,0","6","blank","344","null","0.16173579204275157","0.6715859917061592","0.13580101863561264","","","","","","","","","",""
"","html-keyboard-response","250","802721","0.0-133.0-1.0","""event"",""trial"",""time""
""fullscreenenter"",""0"",""3611""
","
","
","""event"",""trial"",""time""
""fullscreenenter"",""0"",""3611""
","
","null","<p></p>","null","","","","","","","","","","","","","","","","","","","","","","","",""
"","do_recog","251","805698","0.0-134.0-0.0","""event"",""trial"",""time""
""fullscreenenter"",""0"",""3611""
","
","
","""event"",""trial"",""time""
""fullscreenenter"",""0"",""3611""
","
","1459.1599999997998","","","","","","","","55","","","","345","probe-239","","","","","0","[object Object]","null","null","1","","","",""
"","html-keyboard-response","252","806704","0.0-134.0-1.0","""event"",""trial"",""time""
""fullscreenenter"",""0"",""3611""
","
","
","""event"",""trial"",""time""
""fullscreenenter"",""0"",""3611""
","
","null","<p></p>","null","","","","","","","","","","","","","","","","","","","","","","","",""
"","do_trial","253","812888","0.0-135.0-0.0","""event"",""trial"",""time""
""fullscreenenter"",""0"",""3611""
","
","
","""event"",""trial"",""time""
""fullscreenenter"",""0"",""3611""
","
","null","","","","","","","","null","0,0,1","6","blank","346","null","0.09530821620417765","0.6364782862088375","0.27904350605713374","","","","","","","","","",""
"","html-keyboard-response","254","813892","0.0-135.0-1.0","""event"",""trial"",""time""
""fullscreenenter"",""0"",""3611""
","
","
","""event"",""trial"",""time""
""fullscreenenter"",""0"",""3611""
","
","null","<p></p>","null","","","","","","","","","","","","","","","","","","","","","","","",""
"","do_trial","255","817655","0.0-136.0-0.0","""event"",""trial"",""time""
""fullscreenenter"",""0"",""3611""
","
","
","""event"",""trial"",""time""
""fullscreenenter"",""0"",""3611""
","
","1079.3249999999534","","","","","","","","49","0,1,0","6","blank","347","null","0.17910332337308796","0.755526166497214","0.3031483434503053","0","","","","","","","","",""
"","html-keyboard-response","256","818659","0.0-136.0-1.0","""event"",""trial"",""time""
""fullscreenenter"",""0"",""3611""
","
","
","""event"",""trial"",""time""
""fullscreenenter"",""0"",""3611""
","
","null","<p></p>","null","","","","","","","","","","","","","","","","","","","","","","","",""
"","do_recog","257","822498","0.0-137.0-0.0","""event"",""trial"",""time""
""fullscreenenter"",""0"",""3611""
","
","
","""event"",""trial"",""time""
""fullscreenenter"",""0"",""3611""
","
","2312.7149999999674","","","","","","","","53","","","","348","probe-191","","","","","1","[object Object]","79","1","1","","","",""
"","html-keyboard-response","258","823501","0.0-137.0-1.0","""event"",""trial"",""time""
""fullscreenenter"",""0"",""3611""
","
","
","""event"",""trial"",""time""
""fullscreenenter"",""0"",""3611""
","
","null","<p></p>","null","","","","","","","","","","","","","","","","","","","","","","","",""
"","break","259","826310","0.0-138.0-0.0","""event"",""trial"",""time""
""fullscreenenter"",""0"",""3611""
","
","
","""event"",""trial"",""time""
""fullscreenenter"",""0"",""3611""
","
","2806.105000000098","<div class='center'><p>Time to take a quick break! You have 2 minutes to rest, but you can move on sooner if you'd like.</p><p> Press the <b>space bar</b> to continue.</p></div>","32","","","","","","","","","","","","","","","","","","","","","","","",""
"","do_trial","260","832488","0.0-138.0-1.0","""event"",""trial"",""time""
""fullscreenenter"",""0"",""3611""
","
","
","""event"",""trial"",""time""
""fullscreenenter"",""0"",""3611""
","
","null","","","","","","","","null","0,1,0","6","blank","349","null","0.06623197071680992","0.7097933280757209","0.32047611868831477","","","","","","","","","",""
"","html-keyboard-response","261","833491","0.0-138.0-2.0","""event"",""trial"",""time""
""fullscreenenter"",""0"",""3611""
","
","
","""event"",""trial"",""time""
""fullscreenenter"",""0"",""3611""
","
","null","<p></p>","null","","","","","","","","","","","","","","","","","","","","","","","",""
"","do_recog","262","839506","0.0-139.0-0.0","""event"",""trial"",""time""
""fullscreenenter"",""0"",""3611""
","
","
","""event"",""trial"",""time""
""fullscreenenter"",""0"",""3611""
","
","null","","","","","","","","null","","","","350","probe-141","","","","","1","[object Object]","154","3","0","","","",""
"","html-keyboard-response","263","840510","0.0-139.0-1.0","""event"",""trial"",""time""
""fullscreenenter"",""0"",""3611""
","
","
","""event"",""trial"",""time""
""fullscreenenter"",""0"",""3611""
","
","null","<p></p>","null","","","","","","","","","","","","","","","","","","","","","","","",""
"","do_trial","264","843988","0.0-140.0-0.0","""event"",""trial"",""time""
""fullscreenenter"",""0"",""3611""
","
","
","""event"",""trial"",""time""
""fullscreenenter"",""0"",""3611""
","
","776.1849999999395","","","","","","","","49","0,1,0","6","blank","351","null","0.12272359059902416","0.6882740831464342","0.2123754112232922","0","","","","","","","","",""
"","html-keyboard-response","265","844993","0.0-140.0-1.0","""event"",""trial"",""time""
""fullscreenenter"",""0"",""3611""
","
","
","""event"",""trial"",""time""
""fullscreenenter"",""0"",""3611""
","
","null","<p></p>","null","","","","","","","","","","","","","","","","","","","","","","","",""
"","do_recog","266","851013","0.0-141.0-0.0","""event"",""trial"",""time""
""fullscreenenter"",""0"",""3611""
","
","
","""event"",""trial"",""time""
""fullscreenenter"",""0"",""3611""
","
","null","","","","","","","","null","","","","352","probe-56","","","","","1","[object Object]","110","2","0","","","",""
"","html-keyboard-response","267","852017","0.0-141.0-1.0","""event"",""trial"",""time""
""fullscreenenter"",""0"",""3611""
","
","
","""event"",""trial"",""time""
""fullscreenenter"",""0"",""3611""
","
","null","<p></p>","null","","","","","","","","","","","","","","","","","","","","","","","",""
"","do_trial","268","855992","0.0-142.0-0.0","""event"",""trial"",""time""
""fullscreenenter"",""0"",""3611""
","
","
","""event"",""trial"",""time""
""fullscreenenter"",""0"",""3611""
","
","1283.910000000149","","","","","","","","49","0,1,0","6","blank","353","null","0.15868187186874663","0.7356899530078999","0.19460905867104805","0","","","","","","","","",""
"","html-keyboard-response","269","856998","0.0-142.0-1.0","""event"",""trial"",""time""
""fullscreenenter"",""0"",""3611""
","
","
","""event"",""trial"",""time""
""fullscreenenter"",""0"",""3611""
","
","null","<p></p>","null","","","","","","","","","","","","","","","","","","","","","","","",""
"","do_recog","270","859824","0.0-143.0-0.0","""event"",""trial"",""time""
""fullscreenenter"",""0"",""3611""
","
","
","""event"",""trial"",""time""
""fullscreenenter"",""0"",""3611""
","
","1304.405000000028","","","","","","","","56","","","","354","probe-246","","","","","0","[object Object]","null","null","1","","","",""
"","html-keyboard-response","271","860827","0.0-143.0-1.0","""event"",""trial"",""time""
""fullscreenenter"",""0"",""3611""
","
","
","""event"",""trial"",""time""
""fullscreenenter"",""0"",""3611""
","
","null","<p></p>","null","","","","","","","","","","","","","","","","","","","","","","","",""
"","do_trial","272","864728","0.0-144.0-0.0","""event"",""trial"",""time""
""fullscreenenter"",""0"",""3611""
","
","
","""event"",""trial"",""time""
""fullscreenenter"",""0"",""3611""
","
","1219.1400000001304","","","","","","","","49","0,1,0","6","blank","355","null","0.0810356895355036","0.590527758693079","0.24308133353361036","0","","","","","","","","",""
"","html-keyboard-response","273","865734","0.0-144.0-1.0","""event"",""trial"",""time""
""fullscreenenter"",""0"",""3611""
","
","
","""event"",""trial"",""time""
""fullscreenenter"",""0"",""3611""
","
","null","<p></p>","null","","","","","","","","","","","","","","","","","","","","","","","",""
"","do_trial","274","869797","0.0-145.0-0.0","""event"",""trial"",""time""
""fullscreenenter"",""0"",""3611""
","
","
","""event"",""trial"",""time""
""fullscreenenter"",""0"",""3611""
","
","1393.3499999998603","","","","","","","","49","0,1,0","6","blank","356","null","0.08442405985644921","0.43454502644889836","0.3962553223491516","0","","","","","","","","",""
"","html-keyboard-response","275","870803","0.0-145.0-1.0","""event"",""trial"",""time""
""fullscreenenter"",""0"",""3611""
","
","
","""event"",""trial"",""time""
""fullscreenenter"",""0"",""3611""
","
","null","<p></p>","null","","","","","","","","","","","","","","","","","","","","","","","",""
"","do_trial","276","874702","0.0-146.0-0.0","""event"",""trial"",""time""
""fullscreenenter"",""0"",""3611""
","
","
","""event"",""trial"",""time""
""fullscreenenter"",""0"",""3611""
","
","1229.035000000149","","","","","","","","50","0,1,0","6","blank","357","null","0.08158990852891129","0.4159477902185472","0.520348619580822","1","","","","","","","","",""
"","html-keyboard-response","277","875708","0.0-146.0-1.0","""event"",""trial"",""time""
""fullscreenenter"",""0"",""3611""
","
","
","""event"",""trial"",""time""
""fullscreenenter"",""0"",""3611""
","
","null","<p></p>","null","","","","","","","","","","","","","","","","","","","","","","","",""
