"success","trial_type","trial_index","time_elapsed","internal_node_id","interactions","blur_events","focus_events","fullscreenenter_events","fullscreenexit_events","rt","stimulus","key_press","subject_id","participant_id","age","gender","prompt","response","choice_outcomes","context_n","context_img_id","trial_n","probe_img_id","pR_red","pR_white","pR_black","outcome","is_valid","image_to_show","probed_trial","probed_context","correct","probe","probed_trial_n","probed_context_n","context_im"
"true","fullscreen","0","3413","0.0-0.0","""event"",""trial"",""time""
""focus"",""0"",""0""
""blur"",""0"",""0""
""focus"",""0"",""2285""
""fullscreenenter"",""0"",""2629""
","""event"",""trial"",""time""
""blur"",""0"",""0""
","""event"",""trial"",""time""
""focus"",""0"",""0""
""focus"",""0"",""2285""
","""event"",""trial"",""time""
""fullscreenenter"",""0"",""2629""
","
","","","","","","","","","","","","","","","","","","","","","","","","","","",""
"","pavlovia","1","3414","0.0-1.0","""event"",""trial"",""time""
""focus"",""0"",""0""
""blur"",""0"",""0""
""focus"",""0"",""2285""
""fullscreenenter"",""0"",""2629""
""fullscreenexit"",""2"",""7895""
","""event"",""trial"",""time""
""blur"",""0"",""0""
","""event"",""trial"",""time""
""focus"",""0"",""0""
""focus"",""0"",""2285""
","""event"",""trial"",""time""
""fullscreenenter"",""0"",""2629""
","""event"",""trial"",""time""
""fullscreenexit"",""2"",""7895""
","","","","","","","","","","","","","","","","","","","","","","","","","","",""
"","welc_back","2","13202","0.0-2.0","""event"",""trial"",""time""
""focus"",""0"",""0""
""blur"",""0"",""0""
""focus"",""0"",""2285""
""fullscreenenter"",""0"",""2629""
""fullscreenexit"",""2"",""7895""
""blur"",""3"",""255832""
""focus"",""3"",""18618449""
""blur"",""3"",""18622358""
""focus"",""3"",""18633756""
","""event"",""trial"",""time""
""blur"",""0"",""0""
""blur"",""3"",""255832""
""blur"",""3"",""18622358""
","""event"",""trial"",""time""
""focus"",""0"",""0""
""focus"",""0"",""2285""
""focus"",""3"",""18618449""
""focus"",""3"",""18633756""
","""event"",""trial"",""time""
""fullscreenenter"",""0"",""2629""
","""event"",""trial"",""time""
""fullscreenexit"",""2"",""7895""
","null","run_exp/static/audio/clip_29_welcome_back.m4a","null","1571","1685","18","Male","<div class='center'><p>Welcome to day 2!</p><p> Yesterday, you were the head captain of a pirate ship. You asked your fellow pirates to rob other ships of their gold across six different islands.</p></div>","","","","","","","","","","","","","","","","","","",""
"","html-keyboard-response","3","18635910","0.0-3.0","""event"",""trial"",""time""
""focus"",""0"",""0""
""blur"",""0"",""0""
""focus"",""0"",""2285""
""fullscreenenter"",""0"",""2629""
""fullscreenexit"",""2"",""7895""
""blur"",""3"",""255832""
""focus"",""3"",""18618449""
""blur"",""3"",""18622358""
""focus"",""3"",""18633756""
","""event"",""trial"",""time""
""blur"",""0"",""0""
""blur"",""3"",""255832""
""blur"",""3"",""18622358""
","""event"",""trial"",""time""
""focus"",""0"",""0""
""focus"",""0"",""2285""
""focus"",""3"",""18618449""
""focus"",""3"",""18633756""
","""event"",""trial"",""time""
""fullscreenenter"",""0"",""2629""
","""event"",""trial"",""time""
""fullscreenexit"",""2"",""7895""
","18622707","<div class='center'><p>Welcome to day 2!</p><p> Yesterday, you were the head captain of a pirate ship. You asked your fellow pirates to rob other ships of their gold across six different islands.</p><p><b>[Press the space bar to continue]</b></p></div>","32","","","","","","","","","","","","","","","","","","","","","","","",""
"","day_1_summary_goal","4","18653102","0.0-4.0","""event"",""trial"",""time""
""focus"",""0"",""0""
""blur"",""0"",""0""
""focus"",""0"",""2285""
""fullscreenenter"",""0"",""2629""
""fullscreenexit"",""2"",""7895""
""blur"",""3"",""255832""
""focus"",""3"",""18618449""
""blur"",""3"",""18622358""
""focus"",""3"",""18633756""
","""event"",""trial"",""time""
""blur"",""0"",""0""
""blur"",""3"",""255832""
""blur"",""3"",""18622358""
","""event"",""trial"",""time""
""focus"",""0"",""0""
""focus"",""0"",""2285""
""focus"",""3"",""18618449""
""focus"",""3"",""18633756""
","""event"",""trial"",""time""
""fullscreenenter"",""0"",""2629""
","""event"",""trial"",""time""
""fullscreenexit"",""2"",""7895""
","null","run_exp/static/audio/clip_30_goal_of_game.m4a","null","","","","","<div class='center'><p>Today, like yesterday, you get to pick which pirate you want to rob the next ship.</p><p>If the pirate is successful in robbing a ship, you get gold coins that look like this: </p><p><img src='run_exp/static/images/tutorial/reward.png' height='150'></p><p> If they were not successful in robbing the ship, then you will get no gold coins and you'll see a big red x like this: </p><p><img src='run_exp/static/images/tutorial/reward_no.png' height='150'></p></div>","","","","","","","","","","","","","","","","","","",""
"","html-keyboard-response","5","18655048","0.0-5.0","""event"",""trial"",""time""
""focus"",""0"",""0""
""blur"",""0"",""0""
""focus"",""0"",""2285""
""fullscreenenter"",""0"",""2629""
""fullscreenexit"",""2"",""7895""
""blur"",""3"",""255832""
""focus"",""3"",""18618449""
""blur"",""3"",""18622358""
""focus"",""3"",""18633756""
""blur"",""6"",""18656738""
""focus"",""6"",""18667346""
","""event"",""trial"",""time""
""blur"",""0"",""0""
""blur"",""3"",""255832""
""blur"",""3"",""18622358""
""blur"",""6"",""18656738""
","""event"",""trial"",""time""
""focus"",""0"",""0""
""focus"",""0"",""2285""
""focus"",""3"",""18618449""
""focus"",""3"",""18633756""
""focus"",""6"",""18667346""
","""event"",""trial"",""time""
""fullscreenenter"",""0"",""2629""
","""event"",""trial"",""time""
""fullscreenexit"",""2"",""7895""
","1945","<div class='center'><p>Today, like yesterday, you get to pick which pirate you want to rob the next ship.</p><p>If the pirate is successful in robbing a ship, you get gold coins that look like this: </p><p><img src='run_exp/static/images/tutorial/reward.png' height='150'></p><p> If they were not successful in robbing the ship, then you will get no gold coins and you'll see a big red x like this: </p><p><img src='run_exp/static/images/tutorial/reward_no.png' height='150'></p><p><b>[Press the space bar to continue]</b></p></div>","32","","","","","","","","","","","","","","","","","","","","","","","",""
"","day_1_summary_pick","6","18669732","0.0-6.0","""event"",""trial"",""time""
""focus"",""0"",""0""
""blur"",""0"",""0""
""focus"",""0"",""2285""
""fullscreenenter"",""0"",""2629""
""fullscreenexit"",""2"",""7895""
""blur"",""3"",""255832""
""focus"",""3"",""18618449""
""blur"",""3"",""18622358""
""focus"",""3"",""18633756""
""blur"",""6"",""18656738""
""focus"",""6"",""18667346""
","""event"",""trial"",""time""
""blur"",""0"",""0""
""blur"",""3"",""255832""
""blur"",""3"",""18622358""
""blur"",""6"",""18656738""
","""event"",""trial"",""time""
""focus"",""0"",""0""
""focus"",""0"",""2285""
""focus"",""3"",""18618449""
""focus"",""3"",""18633756""
""focus"",""6"",""18667346""
","""event"",""trial"",""time""
""fullscreenenter"",""0"",""2629""
","""event"",""trial"",""time""
""fullscreenexit"",""2"",""7895""
","null","run_exp/static/audio/clip_31_how_to_pick_a_pirate.m4a","null","","","","","<div class='center'><p>Also, just like yesterday, you will use the 1,2,3 keys on your keyboard to pick a pirate. Press '1' to choose red beard, '2' to choose white beard, and '3' to choose black beard . You only have 3 seconds to pick a pirate, so please make a choice quickly!</p></div>","","","","","","","","","","","","","","","","","","",""
"","html-keyboard-response","7","18674943","0.0-7.0","""event"",""trial"",""time""
""focus"",""0"",""0""
""blur"",""0"",""0""
""focus"",""0"",""2285""
""fullscreenenter"",""0"",""2629""
""fullscreenexit"",""2"",""7895""
""blur"",""3"",""255832""
""focus"",""3"",""18618449""
""blur"",""3"",""18622358""
""focus"",""3"",""18633756""
""blur"",""6"",""18656738""
""focus"",""6"",""18667346""
","""event"",""trial"",""time""
""blur"",""0"",""0""
""blur"",""3"",""255832""
""blur"",""3"",""18622358""
""blur"",""6"",""18656738""
","""event"",""trial"",""time""
""focus"",""0"",""0""
""focus"",""0"",""2285""
""focus"",""3"",""18618449""
""focus"",""3"",""18633756""
""focus"",""6"",""18667346""
","""event"",""trial"",""time""
""fullscreenenter"",""0"",""2629""
","""event"",""trial"",""time""
""fullscreenexit"",""2"",""7895""
","5210","<div class='center'><p>Also, just like yesterday, you will use the 1,2,3 keys on your keyboard to pick a pirate. Press '1' to choose red beard, '2' to choose white beard, and '3' to choose black beard . You only have 3 seconds to pick a pirate, so please make a choice quickly!</p><p><b>[Press the space bar to continue]</b></p></div>","32","","","","","","","","","","","","","","","","","","","","","","","",""
"","test_phase_begin","8","18705323","0.0-8.0","""event"",""trial"",""time""
""focus"",""0"",""0""
""blur"",""0"",""0""
""focus"",""0"",""2285""
""fullscreenenter"",""0"",""2629""
""fullscreenexit"",""2"",""7895""
""blur"",""3"",""255832""
""focus"",""3"",""18618449""
""blur"",""3"",""18622358""
""focus"",""3"",""18633756""
""blur"",""6"",""18656738""
""focus"",""6"",""18667346""
","""event"",""trial"",""time""
""blur"",""0"",""0""
""blur"",""3"",""255832""
""blur"",""3"",""18622358""
""blur"",""6"",""18656738""
","""event"",""trial"",""time""
""focus"",""0"",""0""
""focus"",""0"",""2285""
""focus"",""3"",""18618449""
""focus"",""3"",""18633756""
""focus"",""6"",""18667346""
","""event"",""trial"",""time""
""fullscreenenter"",""0"",""2629""
","""event"",""trial"",""time""
""fullscreenexit"",""2"",""7895""
","null","run_exp/static/audio/clip_32_final_place.m4a","null","","","","","<div class='center'><p>You’ve arrived at the final island of your journey! Unfortunately, it’s very foggy out, so you won’t be able to see it in the distance like the other islands you've visited.</p><p>You’ll still be deciding which pirate you want to rob a ship like before. However, because of the fog, you also won’t be able to see the ship.</p><p>This means you do not have to remember the ships you rob on this island.</p><p>Unlike yesterday, you won't be visiting multiple islands today. You will stay on this island for the entire game. This game will last ~30 minutes.</p></div>","","","","","","","","","","","","","","","","","","",""
"","html-keyboard-response","9","18706062","0.0-9.0","""event"",""trial"",""time""
""focus"",""0"",""0""
""blur"",""0"",""0""
""focus"",""0"",""2285""
""fullscreenenter"",""0"",""2629""
""fullscreenexit"",""2"",""7895""
""blur"",""3"",""255832""
""focus"",""3"",""18618449""
""blur"",""3"",""18622358""
""focus"",""3"",""18633756""
""blur"",""6"",""18656738""
""focus"",""6"",""18667346""
","""event"",""trial"",""time""
""blur"",""0"",""0""
""blur"",""3"",""255832""
""blur"",""3"",""18622358""
""blur"",""6"",""18656738""
","""event"",""trial"",""time""
""focus"",""0"",""0""
""focus"",""0"",""2285""
""focus"",""3"",""18618449""
""focus"",""3"",""18633756""
""focus"",""6"",""18667346""
","""event"",""trial"",""time""
""fullscreenenter"",""0"",""2629""
","""event"",""trial"",""time""
""fullscreenexit"",""2"",""7895""
","739","<div class='center'><p>You’ve arrived at the final island of your journey! Unfortunately, it’s very foggy out, so you won’t be able to see it in the distance like the other islands you've visited.</p><p>You’ll still be deciding which pirate you want to rob a ship like before. However, because of the fog, you also won’t be able to see the ship.</p><p>This means you do not have to remember the ships you rob on this island.</p><p>Unlike yesterday, you won't be visiting multiple islands today. You will stay on this island for the entire game. This game will last ~30 minutes.</p><p><b>[Press the space bar to continue]</b></p></div>","32","","","","","","","","","","","","","","","","","","","","","","","",""
"","explain_probe_1","10","18713764","0.0-10.0","""event"",""trial"",""time""
""focus"",""0"",""0""
""blur"",""0"",""0""
""focus"",""0"",""2285""
""fullscreenenter"",""0"",""2629""
""fullscreenexit"",""2"",""7895""
""blur"",""3"",""255832""
""focus"",""3"",""18618449""
""blur"",""3"",""18622358""
""focus"",""3"",""18633756""
""blur"",""6"",""18656738""
""focus"",""6"",""18667346""
","""event"",""trial"",""time""
""blur"",""0"",""0""
""blur"",""3"",""255832""
""blur"",""3"",""18622358""
""blur"",""6"",""18656738""
","""event"",""trial"",""time""
""focus"",""0"",""0""
""focus"",""0"",""2285""
""focus"",""3"",""18618449""
""focus"",""3"",""18633756""
""focus"",""6"",""18667346""
","""event"",""trial"",""time""
""fullscreenenter"",""0"",""2629""
","""event"",""trial"",""time""
""fullscreenexit"",""2"",""7895""
","null","run_exp/static/audio/clip_33_recognition_1.m4a","null","","","","","<div class='center'><p> Sometimes you’ll be shown a ship, and you will be asked if you saw this ship on a past island.</p><p> Here is an example of what you will see.</p><p><img src='run_exp/static/images/tutorial/example_recog_trial.png' height='500'></p></div>","","","","","","","","","","","","","","","","","","",""
"","html-keyboard-response","11","18715156","0.0-11.0","""event"",""trial"",""time""
""focus"",""0"",""0""
""blur"",""0"",""0""
""focus"",""0"",""2285""
""fullscreenenter"",""0"",""2629""
""fullscreenexit"",""2"",""7895""
""blur"",""3"",""255832""
""focus"",""3"",""18618449""
""blur"",""3"",""18622358""
""focus"",""3"",""18633756""
""blur"",""6"",""18656738""
""focus"",""6"",""18667346""
","""event"",""trial"",""time""
""blur"",""0"",""0""
""blur"",""3"",""255832""
""blur"",""3"",""18622358""
""blur"",""6"",""18656738""
","""event"",""trial"",""time""
""focus"",""0"",""0""
""focus"",""0"",""2285""
""focus"",""3"",""18618449""
""focus"",""3"",""18633756""
""focus"",""6"",""18667346""
","""event"",""trial"",""time""
""fullscreenenter"",""0"",""2629""
","""event"",""trial"",""time""
""fullscreenexit"",""2"",""7895""
","1392","<div class='center'><p> Sometimes you’ll be shown a ship, and you will be asked if you saw this ship on a past island.</p><p> Here is an example of what you will see.</p><p><img src='run_exp/static/images/tutorial/example_recog_trial.png' height='500'></p><p><b>[Press the space bar to continue]</b></p></div>","32","","","","","","","","","","","","","","","","","","","","","","","",""
"","explain_probe_2","12","18736852","0.0-12.0","""event"",""trial"",""time""
""focus"",""0"",""0""
""blur"",""0"",""0""
""focus"",""0"",""2285""
""fullscreenenter"",""0"",""2629""
""fullscreenexit"",""2"",""7895""
""blur"",""3"",""255832""
""focus"",""3"",""18618449""
""blur"",""3"",""18622358""
""focus"",""3"",""18633756""
""blur"",""6"",""18656738""
""focus"",""6"",""18667346""
","""event"",""trial"",""time""
""blur"",""0"",""0""
""blur"",""3"",""255832""
""blur"",""3"",""18622358""
""blur"",""6"",""18656738""
","""event"",""trial"",""time""
""focus"",""0"",""0""
""focus"",""0"",""2285""
""focus"",""3"",""18618449""
""focus"",""3"",""18633756""
""focus"",""6"",""18667346""
","""event"",""trial"",""time""
""fullscreenenter"",""0"",""2629""
","""event"",""trial"",""time""
""fullscreenexit"",""2"",""7895""
","null","run_exp/static/audio/clip_34_recognition_2.m4a","null","","","","","<div class='center'><p> You will press the 5, 6, 7, 8 keys on your keyboard to respond.</p><p>If you are sure you saw the ship, press <b>5</b> on your keyboard.</p><p> If you think you saw it before but aren't sure, then press <b>6</b>.</p><p> If you think you have <b>not</b> seen it before but aren't sure, then press <b>7</b>.</p><p> If you are sure you did <b>not</b> see the ship before, then press <b>8</b>.</p><p><img src='run_exp/static/images/tutorial/example_recog_trial.png' height='500'></p></div>","","","","","","","","","","","","","","","","","","",""
"","html-keyboard-response","13","18738337","0.0-13.0","""event"",""trial"",""time""
""focus"",""0"",""0""
""blur"",""0"",""0""
""focus"",""0"",""2285""
""fullscreenenter"",""0"",""2629""
""fullscreenexit"",""2"",""7895""
""blur"",""3"",""255832""
""focus"",""3"",""18618449""
""blur"",""3"",""18622358""
""focus"",""3"",""18633756""
""blur"",""6"",""18656738""
""focus"",""6"",""18667346""
","""event"",""trial"",""time""
""blur"",""0"",""0""
""blur"",""3"",""255832""
""blur"",""3"",""18622358""
""blur"",""6"",""18656738""
","""event"",""trial"",""time""
""focus"",""0"",""0""
""focus"",""0"",""2285""
""focus"",""3"",""18618449""
""focus"",""3"",""18633756""
""focus"",""6"",""18667346""
","""event"",""trial"",""time""
""fullscreenenter"",""0"",""2629""
","""event"",""trial"",""time""
""fullscreenexit"",""2"",""7895""
","1484","<div class='center'><p> You will press the 5, 6, 7, 8 keys on your keyboard to respond.</p><p>If you are sure you saw the ship, press <b>5</b> on your keyboard.</p><p> If you think you saw it before but aren't sure, then press <b>6</b>.</p><p> If you think you have <b>not</b> seen it before but aren't sure, then press <b>7</b>.</p><p> If you are sure you did <b>not</b> see the ship before, then press <b>8</b>.</p><p><img src='run_exp/static/images/tutorial/example_recog_trial.png' height='500'></p><p><b>[Press the space bar to continue]</b></p></div>","32","","","","","","","","","","","","","","","","","","","","","","","",""
"","explain_outcome","14","18755523","0.0-14.0","""event"",""trial"",""time""
""focus"",""0"",""0""
""blur"",""0"",""0""
""focus"",""0"",""2285""
""fullscreenenter"",""0"",""2629""
""fullscreenexit"",""2"",""7895""
""blur"",""3"",""255832""
""focus"",""3"",""18618449""
""blur"",""3"",""18622358""
""focus"",""3"",""18633756""
""blur"",""6"",""18656738""
""focus"",""6"",""18667346""
","""event"",""trial"",""time""
""blur"",""0"",""0""
""blur"",""3"",""255832""
""blur"",""3"",""18622358""
""blur"",""6"",""18656738""
","""event"",""trial"",""time""
""focus"",""0"",""0""
""focus"",""0"",""2285""
""focus"",""3"",""18618449""
""focus"",""3"",""18633756""
""focus"",""6"",""18667346""
","""event"",""trial"",""time""
""fullscreenenter"",""0"",""2629""
","""event"",""trial"",""time""
""fullscreenexit"",""2"",""7895""
","null","run_exp/static/audio/clip_35_recognition_3.m4a","null","","","","","<div class='center'><p> If you remember correctly, then you’ll get a gold coin like this: </p><p><img src='run_exp/static/images/tutorial/reward_small.png' height='200'></p><p>If you do not remember correctly, then you'll see a red x like this: </p><p><img src='run_exp/static/images/tutorial/reward_no.png' height='200'></p><p>Importantly, when you are shown a ship, take the time to remind yourself which island you saw it on. This will help you in the next part of the study.</p></div>","","","","","","","","","","","","","","","","","","",""
"","html-keyboard-response","15","18757049","0.0-15.0","""event"",""trial"",""time""
""focus"",""0"",""0""
""blur"",""0"",""0""
""focus"",""0"",""2285""
""fullscreenenter"",""0"",""2629""
""fullscreenexit"",""2"",""7895""
""blur"",""3"",""255832""
""focus"",""3"",""18618449""
""blur"",""3"",""18622358""
""focus"",""3"",""18633756""
""blur"",""6"",""18656738""
""focus"",""6"",""18667346""
","""event"",""trial"",""time""
""blur"",""0"",""0""
""blur"",""3"",""255832""
""blur"",""3"",""18622358""
""blur"",""6"",""18656738""
","""event"",""trial"",""time""
""focus"",""0"",""0""
""focus"",""0"",""2285""
""focus"",""3"",""18618449""
""focus"",""3"",""18633756""
""focus"",""6"",""18667346""
","""event"",""trial"",""time""
""fullscreenenter"",""0"",""2629""
","""event"",""trial"",""time""
""fullscreenexit"",""2"",""7895""
","1525","<div class='center'><p> If you remember correctly, then you’ll get a gold coin like this: </p><p><img src='run_exp/static/images/tutorial/reward_small.png' height='200'></p><p>If you do not remember correctly, then you'll see a red x like this: </p><p><img src='run_exp/static/images/tutorial/reward_no.png' height='200'></p><p>Importantly, when you are shown a ship, take the time to remind yourself which island you saw it on. This will help you in the next part of the study.</p><p><b>[Press the space bar to continue]</b></p></div>","32","","","","","","","","","","","","","","","","","","","","","","","",""
"","begin_test_phase","16","18772843","0.0-16.0","""event"",""trial"",""time""
""focus"",""0"",""0""
""blur"",""0"",""0""
""focus"",""0"",""2285""
""fullscreenenter"",""0"",""2629""
""fullscreenexit"",""2"",""7895""
""blur"",""3"",""255832""
""focus"",""3"",""18618449""
""blur"",""3"",""18622358""
""focus"",""3"",""18633756""
""blur"",""6"",""18656738""
""focus"",""6"",""18667346""
","""event"",""trial"",""time""
""blur"",""0"",""0""
""blur"",""3"",""255832""
""blur"",""3"",""18622358""
""blur"",""6"",""18656738""
","""event"",""trial"",""time""
""focus"",""0"",""0""
""focus"",""0"",""2285""
""focus"",""3"",""18618449""
""focus"",""3"",""18633756""
""focus"",""6"",""18667346""
","""event"",""trial"",""time""
""fullscreenenter"",""0"",""2629""
","""event"",""trial"",""time""
""fullscreenexit"",""2"",""7895""
","null","run_exp/static/audio/clip_36_begin_final.m4a","null","","","","","<div class='center'><p>Let's go over the important points again. Your job is to: </p><p>1. Pick the pirate who is best at robbing ships and will bring you back gold coins. </p><p>2. Correctly remember whether or not you saw a ship before. If you did see the ship before, remind yourself on which island you saw it. </p></div>","","","","","","","","","","","","","","","","","","",""
"","html-keyboard-response","17","18773892","0.0-17.0","""event"",""trial"",""time""
""focus"",""0"",""0""
""blur"",""0"",""0""
""focus"",""0"",""2285""
""fullscreenenter"",""0"",""2629""
""fullscreenexit"",""2"",""7895""
""blur"",""3"",""255832""
""focus"",""3"",""18618449""
""blur"",""3"",""18622358""
""focus"",""3"",""18633756""
""blur"",""6"",""18656738""
""focus"",""6"",""18667346""
","""event"",""trial"",""time""
""blur"",""0"",""0""
""blur"",""3"",""255832""
""blur"",""3"",""18622358""
""blur"",""6"",""18656738""
","""event"",""trial"",""time""
""focus"",""0"",""0""
""focus"",""0"",""2285""
""focus"",""3"",""18618449""
""focus"",""3"",""18633756""
""focus"",""6"",""18667346""
","""event"",""trial"",""time""
""fullscreenenter"",""0"",""2629""
","""event"",""trial"",""time""
""fullscreenexit"",""2"",""7895""
","1027","<div class='center'><p>Let's go over the important points again. Your job is to: </p><p>1. Pick the pirate who is best at robbing ships and will bring you back gold coins. </p><p>2. Correctly remember whether or not you saw a ship before. If you did see the ship before, remind yourself on which island you saw it. </p><p><b>[Press the space bar to continue]</b></p></div>","32","","","","","","","","","","","","","","","","","","","","","","","",""
"","do_welcome","18","18777910","0.0-18.0","""event"",""trial"",""time""
""focus"",""0"",""0""
""blur"",""0"",""0""
""focus"",""0"",""2285""
""fullscreenenter"",""0"",""2629""
""fullscreenexit"",""2"",""7895""
""blur"",""3"",""255832""
""focus"",""3"",""18618449""
""blur"",""3"",""18622358""
""focus"",""3"",""18633756""
""blur"",""6"",""18656738""
""focus"",""6"",""18667346""
","""event"",""trial"",""time""
""blur"",""0"",""0""
""blur"",""3"",""255832""
""blur"",""3"",""18622358""
""blur"",""6"",""18656738""
","""event"",""trial"",""time""
""focus"",""0"",""0""
""focus"",""0"",""2285""
""focus"",""3"",""18618449""
""focus"",""3"",""18633756""
""focus"",""6"",""18667346""
","""event"",""trial"",""time""
""fullscreenenter"",""0"",""2629""
","""event"",""trial"",""time""
""fullscreenexit"",""2"",""7895""
","null","","","","","","","","null","","","","","","","","","","","","","","","","","",""
"","do_trial","19","18781720","0.0-19.0-0.0","""event"",""trial"",""time""
""focus"",""0"",""0""
""blur"",""0"",""0""
""focus"",""0"",""2285""
""fullscreenenter"",""0"",""2629""
""fullscreenexit"",""2"",""7895""
""blur"",""3"",""255832""
""focus"",""3"",""18618449""
""blur"",""3"",""18622358""
""focus"",""3"",""18633756""
""blur"",""6"",""18656738""
""focus"",""6"",""18667346""
","""event"",""trial"",""time""
""blur"",""0"",""0""
""blur"",""3"",""255832""
""blur"",""3"",""18622358""
""blur"",""6"",""18656738""
","""event"",""trial"",""time""
""focus"",""0"",""0""
""focus"",""0"",""2285""
""focus"",""3"",""18618449""
""focus"",""3"",""18633756""
""focus"",""6"",""18667346""
","""event"",""trial"",""time""
""fullscreenenter"",""0"",""2629""
","""event"",""trial"",""time""
""fullscreenexit"",""2"",""7895""
","1292","","","","","","","","49","0,1,0","6","blank","230","null","0.15807500576111658","0.578214238847218","0.3227255462125414","0","","","","","","","","",""
"","html-keyboard-response","20","18782726","0.0-19.0-1.0","""event"",""trial"",""time""
""focus"",""0"",""0""
""blur"",""0"",""0""
""focus"",""0"",""2285""
""fullscreenenter"",""0"",""2629""
""fullscreenexit"",""2"",""7895""
""blur"",""3"",""255832""
""focus"",""3"",""18618449""
""blur"",""3"",""18622358""
""focus"",""3"",""18633756""
""blur"",""6"",""18656738""
""focus"",""6"",""18667346""
","""event"",""trial"",""time""
""blur"",""0"",""0""
""blur"",""3"",""255832""
""blur"",""3"",""18622358""
""blur"",""6"",""18656738""
","""event"",""trial"",""time""
""focus"",""0"",""0""
""focus"",""0"",""2285""
""focus"",""3"",""18618449""
""focus"",""3"",""18633756""
""focus"",""6"",""18667346""
","""event"",""trial"",""time""
""fullscreenenter"",""0"",""2629""
","""event"",""trial"",""time""
""fullscreenexit"",""2"",""7895""
","null","<p></p>","null","","","","","","","","","","","","","","","","","","","","","","","",""
"","do_trial","21","18785937","0.0-20.0-0.0","""event"",""trial"",""time""
""focus"",""0"",""0""
""blur"",""0"",""0""
""focus"",""0"",""2285""
""fullscreenenter"",""0"",""2629""
""fullscreenexit"",""2"",""7895""
""blur"",""3"",""255832""
""focus"",""3"",""18618449""
""blur"",""3"",""18622358""
""focus"",""3"",""18633756""
""blur"",""6"",""18656738""
""focus"",""6"",""18667346""
","""event"",""trial"",""time""
""blur"",""0"",""0""
""blur"",""3"",""255832""
""blur"",""3"",""18622358""
""blur"",""6"",""18656738""
","""event"",""trial"",""time""
""focus"",""0"",""0""
""focus"",""0"",""2285""
""focus"",""3"",""18618449""
""focus"",""3"",""18633756""
""focus"",""6"",""18667346""
","""event"",""trial"",""time""
""fullscreenenter"",""0"",""2629""
","""event"",""trial"",""time""
""fullscreenexit"",""2"",""7895""
","690","","","","","","","","51","0,1,1","6","blank","231","null","0.08151582389145438","0.5315740680953511","0.298456800295486","1","","","","","","","","",""
"","html-keyboard-response","22","18786950","0.0-20.0-1.0","""event"",""trial"",""time""
""focus"",""0"",""0""
""blur"",""0"",""0""
""focus"",""0"",""2285""
""fullscreenenter"",""0"",""2629""
""fullscreenexit"",""2"",""7895""
""blur"",""3"",""255832""
""focus"",""3"",""18618449""
""blur"",""3"",""18622358""
""focus"",""3"",""18633756""
""blur"",""6"",""18656738""
""focus"",""6"",""18667346""
","""event"",""trial"",""time""
""blur"",""0"",""0""
""blur"",""3"",""255832""
""blur"",""3"",""18622358""
""blur"",""6"",""18656738""
","""event"",""trial"",""time""
""focus"",""0"",""0""
""focus"",""0"",""2285""
""focus"",""3"",""18618449""
""focus"",""3"",""18633756""
""focus"",""6"",""18667346""
","""event"",""trial"",""time""
""fullscreenenter"",""0"",""2629""
","""event"",""trial"",""time""
""fullscreenexit"",""2"",""7895""
","null","<p></p>","null","","","","","","","","","","","","","","","","","","","","","","","",""
"","do_trial","23","18789731","0.0-21.0-0.0","""event"",""trial"",""time""
""focus"",""0"",""0""
""blur"",""0"",""0""
""focus"",""0"",""2285""
""fullscreenenter"",""0"",""2629""
""fullscreenexit"",""2"",""7895""
""blur"",""3"",""255832""
""focus"",""3"",""18618449""
""blur"",""3"",""18622358""
""focus"",""3"",""18633756""
""blur"",""6"",""18656738""
""focus"",""6"",""18667346""
","""event"",""trial"",""time""
""blur"",""0"",""0""
""blur"",""3"",""255832""
""blur"",""3"",""18622358""
""blur"",""6"",""18656738""
","""event"",""trial"",""time""
""focus"",""0"",""0""
""focus"",""0"",""2285""
""focus"",""3"",""18618449""
""focus"",""3"",""18633756""
""focus"",""6"",""18667346""
","""event"",""trial"",""time""
""fullscreenenter"",""0"",""2629""
","""event"",""trial"",""time""
""fullscreenexit"",""2"",""7895""
","262","","","","","","","","51","0,0,0","6","blank","232","null","0.10079862580447277","0.6132725649771834","0.27508179070605837","0","","","","","","","","",""
"","html-keyboard-response","24","18790749","0.0-21.0-1.0","""event"",""trial"",""time""
""focus"",""0"",""0""
""blur"",""0"",""0""
""focus"",""0"",""2285""
""fullscreenenter"",""0"",""2629""
""fullscreenexit"",""2"",""7895""
""blur"",""3"",""255832""
""focus"",""3"",""18618449""
""blur"",""3"",""18622358""
""focus"",""3"",""18633756""
""blur"",""6"",""18656738""
""focus"",""6"",""18667346""
","""event"",""trial"",""time""
""blur"",""0"",""0""
""blur"",""3"",""255832""
""blur"",""3"",""18622358""
""blur"",""6"",""18656738""
","""event"",""trial"",""time""
""focus"",""0"",""0""
""focus"",""0"",""2285""
""focus"",""3"",""18618449""
""focus"",""3"",""18633756""
""focus"",""6"",""18667346""
","""event"",""trial"",""time""
""fullscreenenter"",""0"",""2629""
","""event"",""trial"",""time""
""fullscreenexit"",""2"",""7895""
","null","<p></p>","null","","","","","","","","","","","","","","","","","","","","","","","",""
"","do_trial","25","18793539","0.0-22.0-0.0","""event"",""trial"",""time""
""focus"",""0"",""0""
""blur"",""0"",""0""
""focus"",""0"",""2285""
""fullscreenenter"",""0"",""2629""
""fullscreenexit"",""2"",""7895""
""blur"",""3"",""255832""
""focus"",""3"",""18618449""
""blur"",""3"",""18622358""
""focus"",""3"",""18633756""
""blur"",""6"",""18656738""
""focus"",""6"",""18667346""
","""event"",""trial"",""time""
""blur"",""0"",""0""
""blur"",""3"",""255832""
""blur"",""3"",""18622358""
""blur"",""6"",""18656738""
","""event"",""trial"",""time""
""focus"",""0"",""0""
""focus"",""0"",""2285""
""focus"",""3"",""18618449""
""focus"",""3"",""18633756""
""focus"",""6"",""18667346""
","""event"",""trial"",""time""
""fullscreenenter"",""0"",""2629""
","""event"",""trial"",""time""
""fullscreenexit"",""2"",""7895""
","273","","","","","","","","51","0,0,0","6","blank","233","null","0.2590454809019944","0.5900765795037555","0.20536644020607828","0","","","","","","","","",""
"","html-keyboard-response","26","18794540","0.0-22.0-1.0","""event"",""trial"",""time""
""focus"",""0"",""0""
""blur"",""0"",""0""
""focus"",""0"",""2285""
""fullscreenenter"",""0"",""2629""
""fullscreenexit"",""2"",""7895""
""blur"",""3"",""255832""
""focus"",""3"",""18618449""
""blur"",""3"",""18622358""
""focus"",""3"",""18633756""
""blur"",""6"",""18656738""
""focus"",""6"",""18667346""
","""event"",""trial"",""time""
""blur"",""0"",""0""
""blur"",""3"",""255832""
""blur"",""3"",""18622358""
""blur"",""6"",""18656738""
","""event"",""trial"",""time""
""focus"",""0"",""0""
""focus"",""0"",""2285""
""focus"",""3"",""18618449""
""focus"",""3"",""18633756""
""focus"",""6"",""18667346""
","""event"",""trial"",""time""
""fullscreenenter"",""0"",""2629""
","""event"",""trial"",""time""
""fullscreenexit"",""2"",""7895""
","null","<p></p>","null","","","","","","","","","","","","","","","","","","","","","","","",""
"","do_trial","27","18797259","0.0-23.0-0.0","""event"",""trial"",""time""
""focus"",""0"",""0""
""blur"",""0"",""0""
""focus"",""0"",""2285""
""fullscreenenter"",""0"",""2629""
""fullscreenexit"",""2"",""7895""
""blur"",""3"",""255832""
""focus"",""3"",""18618449""
""blur"",""3"",""18622358""
""focus"",""3"",""18633756""
""blur"",""6"",""18656738""
""focus"",""6"",""18667346""
","""event"",""trial"",""time""
""blur"",""0"",""0""
""blur"",""3"",""255832""
""blur"",""3"",""18622358""
""blur"",""6"",""18656738""
","""event"",""trial"",""time""
""focus"",""0"",""0""
""focus"",""0"",""2285""
""focus"",""3"",""18618449""
""focus"",""3"",""18633756""
""focus"",""6"",""18667346""
","""event"",""trial"",""time""
""fullscreenenter"",""0"",""2629""
","""event"",""trial"",""time""
""fullscreenexit"",""2"",""7895""
","196","","","","","","","","50","0,1,0","6","blank","234","null","0.055121068934395244","0.6419353335974411","0.17511860440574645","1","","","","","","","","",""
"","html-keyboard-response","28","18798268","0.0-23.0-1.0","""event"",""trial"",""time""
""focus"",""0"",""0""
""blur"",""0"",""0""
""focus"",""0"",""2285""
""fullscreenenter"",""0"",""2629""
""fullscreenexit"",""2"",""7895""
""blur"",""3"",""255832""
""focus"",""3"",""18618449""
""blur"",""3"",""18622358""
""focus"",""3"",""18633756""
""blur"",""6"",""18656738""
""focus"",""6"",""18667346""
","""event"",""trial"",""time""
""blur"",""0"",""0""
""blur"",""3"",""255832""
""blur"",""3"",""18622358""
""blur"",""6"",""18656738""
","""event"",""trial"",""time""
""focus"",""0"",""0""
""focus"",""0"",""2285""
""focus"",""3"",""18618449""
""focus"",""3"",""18633756""
""focus"",""6"",""18667346""
","""event"",""trial"",""time""
""fullscreenenter"",""0"",""2629""
","""event"",""trial"",""time""
""fullscreenexit"",""2"",""7895""
","null","<p></p>","null","","","","","","","","","","","","","","","","","","","","","","","",""
"","do_trial","29","18801690","0.0-24.0-0.0","""event"",""trial"",""time""
""focus"",""0"",""0""
""blur"",""0"",""0""
""focus"",""0"",""2285""
""fullscreenenter"",""0"",""2629""
""fullscreenexit"",""2"",""7895""
""blur"",""3"",""255832""
""focus"",""3"",""18618449""
""blur"",""3"",""18622358""
""focus"",""3"",""18633756""
""blur"",""6"",""18656738""
""focus"",""6"",""18667346""
","""event"",""trial"",""time""
""blur"",""0"",""0""
""blur"",""3"",""255832""
""blur"",""3"",""18622358""
""blur"",""6"",""18656738""
","""event"",""trial"",""time""
""focus"",""0"",""0""
""focus"",""0"",""2285""
""focus"",""3"",""18618449""
""focus"",""3"",""18633756""
""focus"",""6"",""18667346""
","""event"",""trial"",""time""
""fullscreenenter"",""0"",""2629""
","""event"",""trial"",""time""
""fullscreenexit"",""2"",""7895""
","901","","","","","","","","50","0,0,0","6","blank","235","null","0.054483201853376954","0.6283852569683511","0.34715123777481266","0","","","","","","","","",""
"","html-keyboard-response","30","18802710","0.0-24.0-1.0","""event"",""trial"",""time""
""focus"",""0"",""0""
""blur"",""0"",""0""
""focus"",""0"",""2285""
""fullscreenenter"",""0"",""2629""
""fullscreenexit"",""2"",""7895""
""blur"",""3"",""255832""
""focus"",""3"",""18618449""
""blur"",""3"",""18622358""
""focus"",""3"",""18633756""
""blur"",""6"",""18656738""
""focus"",""6"",""18667346""
","""event"",""trial"",""time""
""blur"",""0"",""0""
""blur"",""3"",""255832""
""blur"",""3"",""18622358""
""blur"",""6"",""18656738""
","""event"",""trial"",""time""
""focus"",""0"",""0""
""focus"",""0"",""2285""
""focus"",""3"",""18618449""
""focus"",""3"",""18633756""
""focus"",""6"",""18667346""
","""event"",""trial"",""time""
""fullscreenenter"",""0"",""2629""
","""event"",""trial"",""time""
""fullscreenexit"",""2"",""7895""
","null","<p></p>","null","","","","","","","","","","","","","","","","","","","","","","","",""
"","do_trial","31","18805560","0.0-25.0-0.0","""event"",""trial"",""time""
""focus"",""0"",""0""
""blur"",""0"",""0""
""focus"",""0"",""2285""
""fullscreenenter"",""0"",""2629""
""fullscreenexit"",""2"",""7895""
""blur"",""3"",""255832""
""focus"",""3"",""18618449""
""blur"",""3"",""18622358""
""focus"",""3"",""18633756""
""blur"",""6"",""18656738""
""focus"",""6"",""18667346""
","""event"",""trial"",""time""
""blur"",""0"",""0""
""blur"",""3"",""255832""
""blur"",""3"",""18622358""
""blur"",""6"",""18656738""
","""event"",""trial"",""time""
""focus"",""0"",""0""
""focus"",""0"",""2285""
""focus"",""3"",""18618449""
""focus"",""3"",""18633756""
""focus"",""6"",""18667346""
","""event"",""trial"",""time""
""fullscreenenter"",""0"",""2629""
","""event"",""trial"",""time""
""fullscreenexit"",""2"",""7895""
","320","","","","","","","","49","0,0,0","6","blank","236","null","0.09356815833758227","0.5682336015897712","0.3280258661864134","0","","","","","","","","",""
"","html-keyboard-response","32","18806570","0.0-25.0-1.0","""event"",""trial"",""time""
""focus"",""0"",""0""
""blur"",""0"",""0""
""focus"",""0"",""2285""
""fullscreenenter"",""0"",""2629""
""fullscreenexit"",""2"",""7895""
""blur"",""3"",""255832""
""focus"",""3"",""18618449""
""blur"",""3"",""18622358""
""focus"",""3"",""18633756""
""blur"",""6"",""18656738""
""focus"",""6"",""18667346""
","""event"",""trial"",""time""
""blur"",""0"",""0""
""blur"",""3"",""255832""
""blur"",""3"",""18622358""
""blur"",""6"",""18656738""
","""event"",""trial"",""time""
""focus"",""0"",""0""
""focus"",""0"",""2285""
""focus"",""3"",""18618449""
""focus"",""3"",""18633756""
""focus"",""6"",""18667346""
","""event"",""trial"",""time""
""fullscreenenter"",""0"",""2629""
","""event"",""trial"",""time""
""fullscreenexit"",""2"",""7895""
","null","<p></p>","null","","","","","","","","","","","","","","","","","","","","","","","",""
"","do_trial","33","18809350","0.0-26.0-0.0","""event"",""trial"",""time""
""focus"",""0"",""0""
""blur"",""0"",""0""
""focus"",""0"",""2285""
""fullscreenenter"",""0"",""2629""
""fullscreenexit"",""2"",""7895""
""blur"",""3"",""255832""
""focus"",""3"",""18618449""
""blur"",""3"",""18622358""
""focus"",""3"",""18633756""
""blur"",""6"",""18656738""
""focus"",""6"",""18667346""
","""event"",""trial"",""time""
""blur"",""0"",""0""
""blur"",""3"",""255832""
""blur"",""3"",""18622358""
""blur"",""6"",""18656738""
","""event"",""trial"",""time""
""focus"",""0"",""0""
""focus"",""0"",""2285""
""focus"",""3"",""18618449""
""focus"",""3"",""18633756""
""focus"",""6"",""18667346""
","""event"",""trial"",""time""
""fullscreenenter"",""0"",""2629""
","""event"",""trial"",""time""
""fullscreenexit"",""2"",""7895""
","266","","","","","","","","51","1,1,1","6","blank","237","null","0.16899599582414443","0.7213291031168995","0.3638362851095133","1","","","","","","","","",""
"","html-keyboard-response","34","18810351","0.0-26.0-1.0","""event"",""trial"",""time""
""focus"",""0"",""0""
""blur"",""0"",""0""
""focus"",""0"",""2285""
""fullscreenenter"",""0"",""2629""
""fullscreenexit"",""2"",""7895""
""blur"",""3"",""255832""
""focus"",""3"",""18618449""
""blur"",""3"",""18622358""
""focus"",""3"",""18633756""
""blur"",""6"",""18656738""
""focus"",""6"",""18667346""
","""event"",""trial"",""time""
""blur"",""0"",""0""
""blur"",""3"",""255832""
""blur"",""3"",""18622358""
""blur"",""6"",""18656738""
","""event"",""trial"",""time""
""focus"",""0"",""0""
""focus"",""0"",""2285""
""focus"",""3"",""18618449""
""focus"",""3"",""18633756""
""focus"",""6"",""18667346""
","""event"",""trial"",""time""
""fullscreenenter"",""0"",""2629""
","""event"",""trial"",""time""
""fullscreenexit"",""2"",""7895""
","null","<p></p>","null","","","","","","","","","","","","","","","","","","","","","","","",""
"","do_trial","35","18813099","0.0-27.0-0.0","""event"",""trial"",""time""
""focus"",""0"",""0""
""blur"",""0"",""0""
""focus"",""0"",""2285""
""fullscreenenter"",""0"",""2629""
""fullscreenexit"",""2"",""7895""
""blur"",""3"",""255832""
""focus"",""3"",""18618449""
""blur"",""3"",""18622358""
""focus"",""3"",""18633756""
""blur"",""6"",""18656738""
""focus"",""6"",""18667346""
","""event"",""trial"",""time""
""blur"",""0"",""0""
""blur"",""3"",""255832""
""blur"",""3"",""18622358""
""blur"",""6"",""18656738""
","""event"",""trial"",""time""
""focus"",""0"",""0""
""focus"",""0"",""2285""
""focus"",""3"",""18618449""
""focus"",""3"",""18633756""
""focus"",""6"",""18667346""
","""event"",""trial"",""time""
""fullscreenenter"",""0"",""2629""
","""event"",""trial"",""time""
""fullscreenexit"",""2"",""7895""
","231","","","","","","","","51","0,0,0","6","blank","238","null","0.08489821517814441","0.6087503547308005","0.27899527043522065","0","","","","","","","","",""
"","html-keyboard-response","36","18814109","0.0-27.0-1.0","""event"",""trial"",""time""
""focus"",""0"",""0""
""blur"",""0"",""0""
""focus"",""0"",""2285""
""fullscreenenter"",""0"",""2629""
""fullscreenexit"",""2"",""7895""
""blur"",""3"",""255832""
""focus"",""3"",""18618449""
""blur"",""3"",""18622358""
""focus"",""3"",""18633756""
""blur"",""6"",""18656738""
""focus"",""6"",""18667346""
","""event"",""trial"",""time""
""blur"",""0"",""0""
""blur"",""3"",""255832""
""blur"",""3"",""18622358""
""blur"",""6"",""18656738""
","""event"",""trial"",""time""
""focus"",""0"",""0""
""focus"",""0"",""2285""
""focus"",""3"",""18618449""
""focus"",""3"",""18633756""
""focus"",""6"",""18667346""
","""event"",""trial"",""time""
""fullscreenenter"",""0"",""2629""
","""event"",""trial"",""time""
""fullscreenexit"",""2"",""7895""
","null","<p></p>","null","","","","","","","","","","","","","","","","","","","","","","","",""
"","do_trial","37","18817090","0.0-28.0-0.0","""event"",""trial"",""time""
""focus"",""0"",""0""
""blur"",""0"",""0""
""focus"",""0"",""2285""
""fullscreenenter"",""0"",""2629""
""fullscreenexit"",""2"",""7895""
""blur"",""3"",""255832""
""focus"",""3"",""18618449""
""blur"",""3"",""18622358""
""focus"",""3"",""18633756""
""blur"",""6"",""18656738""
""focus"",""6"",""18667346""
","""event"",""trial"",""time""
""blur"",""0"",""0""
""blur"",""3"",""255832""
""blur"",""3"",""18622358""
""blur"",""6"",""18656738""
","""event"",""trial"",""time""
""focus"",""0"",""0""
""focus"",""0"",""2285""
""focus"",""3"",""18618449""
""focus"",""3"",""18633756""
""focus"",""6"",""18667346""
","""event"",""trial"",""time""
""fullscreenenter"",""0"",""2629""
","""event"",""trial"",""time""
""fullscreenexit"",""2"",""7895""
","453","","","","","","","","49","0,0,0","6","blank","239","null","0.10361312840389536","0.6435268014604699","0.349621279056335","0","","","","","","","","",""
"","html-keyboard-response","38","18818110","0.0-28.0-1.0","""event"",""trial"",""time""
""focus"",""0"",""0""
""blur"",""0"",""0""
""focus"",""0"",""2285""
""fullscreenenter"",""0"",""2629""
""fullscreenexit"",""2"",""7895""
""blur"",""3"",""255832""
""focus"",""3"",""18618449""
""blur"",""3"",""18622358""
""focus"",""3"",""18633756""
""blur"",""6"",""18656738""
""focus"",""6"",""18667346""
","""event"",""trial"",""time""
""blur"",""0"",""0""
""blur"",""3"",""255832""
""blur"",""3"",""18622358""
""blur"",""6"",""18656738""
","""event"",""trial"",""time""
""focus"",""0"",""0""
""focus"",""0"",""2285""
""focus"",""3"",""18618449""
""focus"",""3"",""18633756""
""focus"",""6"",""18667346""
","""event"",""trial"",""time""
""fullscreenenter"",""0"",""2629""
","""event"",""trial"",""time""
""fullscreenexit"",""2"",""7895""
","null","<p></p>","null","","","","","","","","","","","","","","","","","","","","","","","",""
"","do_trial","39","18820840","0.0-29.0-0.0","""event"",""trial"",""time""
""focus"",""0"",""0""
""blur"",""0"",""0""
""focus"",""0"",""2285""
""fullscreenenter"",""0"",""2629""
""fullscreenexit"",""2"",""7895""
""blur"",""3"",""255832""
""focus"",""3"",""18618449""
""blur"",""3"",""18622358""
""focus"",""3"",""18633756""
""blur"",""6"",""18656738""
""focus"",""6"",""18667346""
","""event"",""trial"",""time""
""blur"",""0"",""0""
""blur"",""3"",""255832""
""blur"",""3"",""18622358""
""blur"",""6"",""18656738""
","""event"",""trial"",""time""
""focus"",""0"",""0""
""focus"",""0"",""2285""
""focus"",""3"",""18618449""
""focus"",""3"",""18633756""
""focus"",""6"",""18667346""
","""event"",""trial"",""time""
""fullscreenenter"",""0"",""2629""
","""event"",""trial"",""time""
""fullscreenexit"",""2"",""7895""
","210","","","","","","","","51","0,1,0","6","blank","240","null","0.05332310335823306","0.7660715005395109","0.27864959364507064","0","","","","","","","","",""
"","html-keyboard-response","40","18821843","0.0-29.0-1.0","""event"",""trial"",""time""
""focus"",""0"",""0""
""blur"",""0"",""0""
""focus"",""0"",""2285""
""fullscreenenter"",""0"",""2629""
""fullscreenexit"",""2"",""7895""
""blur"",""3"",""255832""
""focus"",""3"",""18618449""
""blur"",""3"",""18622358""
""focus"",""3"",""18633756""
""blur"",""6"",""18656738""
""focus"",""6"",""18667346""
","""event"",""trial"",""time""
""blur"",""0"",""0""
""blur"",""3"",""255832""
""blur"",""3"",""18622358""
""blur"",""6"",""18656738""
","""event"",""trial"",""time""
""focus"",""0"",""0""
""focus"",""0"",""2285""
""focus"",""3"",""18618449""
""focus"",""3"",""18633756""
""focus"",""6"",""18667346""
","""event"",""trial"",""time""
""fullscreenenter"",""0"",""2629""
","""event"",""trial"",""time""
""fullscreenexit"",""2"",""7895""
","null","<p></p>","null","","","","","","","","","","","","","","","","","","","","","","","",""
"","do_trial","41","18824590","0.0-30.0-0.0","""event"",""trial"",""time""
""focus"",""0"",""0""
""blur"",""0"",""0""
""focus"",""0"",""2285""
""fullscreenenter"",""0"",""2629""
""fullscreenexit"",""2"",""7895""
""blur"",""3"",""255832""
""focus"",""3"",""18618449""
""blur"",""3"",""18622358""
""focus"",""3"",""18633756""
""blur"",""6"",""18656738""
""focus"",""6"",""18667346""
","""event"",""trial"",""time""
""blur"",""0"",""0""
""blur"",""3"",""255832""
""blur"",""3"",""18622358""
""blur"",""6"",""18656738""
","""event"",""trial"",""time""
""focus"",""0"",""0""
""focus"",""0"",""2285""
""focus"",""3"",""18618449""
""focus"",""3"",""18633756""
""focus"",""6"",""18667346""
","""event"",""trial"",""time""
""fullscreenenter"",""0"",""2629""
","""event"",""trial"",""time""
""fullscreenexit"",""2"",""7895""
","232","","","","","","","","50","0,1,0","6","blank","241","null","0.1645002844869572","0.7024668631954308","0.3147250943719647","1","","","","","","","","",""
"","html-keyboard-response","42","18825599","0.0-30.0-1.0","""event"",""trial"",""time""
""focus"",""0"",""0""
""blur"",""0"",""0""
""focus"",""0"",""2285""
""fullscreenenter"",""0"",""2629""
""fullscreenexit"",""2"",""7895""
""blur"",""3"",""255832""
""focus"",""3"",""18618449""
""blur"",""3"",""18622358""
""focus"",""3"",""18633756""
""blur"",""6"",""18656738""
""focus"",""6"",""18667346""
","""event"",""trial"",""time""
""blur"",""0"",""0""
""blur"",""3"",""255832""
""blur"",""3"",""18622358""
""blur"",""6"",""18656738""
","""event"",""trial"",""time""
""focus"",""0"",""0""
""focus"",""0"",""2285""
""focus"",""3"",""18618449""
""focus"",""3"",""18633756""
""focus"",""6"",""18667346""
","""event"",""trial"",""time""
""fullscreenenter"",""0"",""2629""
","""event"",""trial"",""time""
""fullscreenexit"",""2"",""7895""
","null","<p></p>","null","","","","","","","","","","","","","","","","","","","","","","","",""
"","do_trial","43","18828119","0.0-31.0-0.0","""event"",""trial"",""time""
""focus"",""0"",""0""
""blur"",""0"",""0""
""focus"",""0"",""2285""
""fullscreenenter"",""0"",""2629""
""fullscreenexit"",""2"",""7895""
""blur"",""3"",""255832""
""focus"",""3"",""18618449""
""blur"",""3"",""18622358""
""focus"",""3"",""18633756""
""blur"",""6"",""18656738""
""focus"",""6"",""18667346""
","""event"",""trial"",""time""
""blur"",""0"",""0""
""blur"",""3"",""255832""
""blur"",""3"",""18622358""
""blur"",""6"",""18656738""
","""event"",""trial"",""time""
""focus"",""0"",""0""
""focus"",""0"",""2285""
""focus"",""3"",""18618449""
""focus"",""3"",""18633756""
""focus"",""6"",""18667346""
","""event"",""trial"",""time""
""fullscreenenter"",""0"",""2629""
","""event"",""trial"",""time""
""fullscreenexit"",""2"",""7895""
","0","","","","","","","","50","0,0,1","6","blank","242","null","0.1519144385414835","0.533583364396445","0.3921065662964994","0","","","","","","","","",""
"","html-keyboard-response","44","18829134","0.0-31.0-1.0","""event"",""trial"",""time""
""focus"",""0"",""0""
""blur"",""0"",""0""
""focus"",""0"",""2285""
""fullscreenenter"",""0"",""2629""
""fullscreenexit"",""2"",""7895""
""blur"",""3"",""255832""
""focus"",""3"",""18618449""
""blur"",""3"",""18622358""
""focus"",""3"",""18633756""
""blur"",""6"",""18656738""
""focus"",""6"",""18667346""
","""event"",""trial"",""time""
""blur"",""0"",""0""
""blur"",""3"",""255832""
""blur"",""3"",""18622358""
""blur"",""6"",""18656738""
","""event"",""trial"",""time""
""focus"",""0"",""0""
""focus"",""0"",""2285""
""focus"",""3"",""18618449""
""focus"",""3"",""18633756""
""focus"",""6"",""18667346""
","""event"",""trial"",""time""
""fullscreenenter"",""0"",""2629""
","""event"",""trial"",""time""
""fullscreenexit"",""2"",""7895""
","null","<p></p>","null","","","","","","","","","","","","","","","","","","","","","","","",""
"","do_recog","45","18832970","0.0-32.0-0.0","""event"",""trial"",""time""
""focus"",""0"",""0""
""blur"",""0"",""0""
""focus"",""0"",""2285""
""fullscreenenter"",""0"",""2629""
""fullscreenexit"",""2"",""7895""
""blur"",""3"",""255832""
""focus"",""3"",""18618449""
""blur"",""3"",""18622358""
""focus"",""3"",""18633756""
""blur"",""6"",""18656738""
""focus"",""6"",""18667346""
","""event"",""trial"",""time""
""blur"",""0"",""0""
""blur"",""3"",""255832""
""blur"",""3"",""18622358""
""blur"",""6"",""18656738""
","""event"",""trial"",""time""
""focus"",""0"",""0""
""focus"",""0"",""2285""
""focus"",""3"",""18618449""
""focus"",""3"",""18633756""
""focus"",""6"",""18667346""
","""event"",""trial"",""time""
""fullscreenenter"",""0"",""2629""
","""event"",""trial"",""time""
""fullscreenexit"",""2"",""7895""
","2334","","","","","","","","53","","","","243","probe-21","","","","","1","[object Object]","151","3","1","","","",""
"","html-keyboard-response","46","18833974","0.0-32.0-1.0","""event"",""trial"",""time""
""focus"",""0"",""0""
""blur"",""0"",""0""
""focus"",""0"",""2285""
""fullscreenenter"",""0"",""2629""
""fullscreenexit"",""2"",""7895""
""blur"",""3"",""255832""
""focus"",""3"",""18618449""
""blur"",""3"",""18622358""
""focus"",""3"",""18633756""
""blur"",""6"",""18656738""
""focus"",""6"",""18667346""
","""event"",""trial"",""time""
""blur"",""0"",""0""
""blur"",""3"",""255832""
""blur"",""3"",""18622358""
""blur"",""6"",""18656738""
","""event"",""trial"",""time""
""focus"",""0"",""0""
""focus"",""0"",""2285""
""focus"",""3"",""18618449""
""focus"",""3"",""18633756""
""focus"",""6"",""18667346""
","""event"",""trial"",""time""
""fullscreenenter"",""0"",""2629""
","""event"",""trial"",""time""
""fullscreenexit"",""2"",""7895""
","null","<p></p>","null","","","","","","","","","","","","","","","","","","","","","","","",""
"","do_trial","47","18837540","0.0-33.0-0.0","""event"",""trial"",""time""
""focus"",""0"",""0""
""blur"",""0"",""0""
""focus"",""0"",""2285""
""fullscreenenter"",""0"",""2629""
""fullscreenexit"",""2"",""7895""
""blur"",""3"",""255832""
""focus"",""3"",""18618449""
""blur"",""3"",""18622358""
""focus"",""3"",""18633756""
""blur"",""6"",""18656738""
""focus"",""6"",""18667346""
","""event"",""trial"",""time""
""blur"",""0"",""0""
""blur"",""3"",""255832""
""blur"",""3"",""18622358""
""blur"",""6"",""18656738""
","""event"",""trial"",""time""
""focus"",""0"",""0""
""focus"",""0"",""2285""
""focus"",""3"",""18618449""
""focus"",""3"",""18633756""
""focus"",""6"",""18667346""
","""event"",""trial"",""time""
""fullscreenenter"",""0"",""2629""
","""event"",""trial"",""time""
""fullscreenexit"",""2"",""7895""
","1050","","","","","","","","50","0,1,0","6","blank","244","null","0.09566616577810398","0.5510322091266583","0.5410605090718125","1","","","","","","","","",""
"","html-keyboard-response","48","18838554","0.0-33.0-1.0","""event"",""trial"",""time""
""focus"",""0"",""0""
""blur"",""0"",""0""
""focus"",""0"",""2285""
""fullscreenenter"",""0"",""2629""
""fullscreenexit"",""2"",""7895""
""blur"",""3"",""255832""
""focus"",""3"",""18618449""
""blur"",""3"",""18622358""
""focus"",""3"",""18633756""
""blur"",""6"",""18656738""
""focus"",""6"",""18667346""
","""event"",""trial"",""time""
""blur"",""0"",""0""
""blur"",""3"",""255832""
""blur"",""3"",""18622358""
""blur"",""6"",""18656738""
","""event"",""trial"",""time""
""focus"",""0"",""0""
""focus"",""0"",""2285""
""focus"",""3"",""18618449""
""focus"",""3"",""18633756""
""focus"",""6"",""18667346""
","""event"",""trial"",""time""
""fullscreenenter"",""0"",""2629""
","""event"",""trial"",""time""
""fullscreenexit"",""2"",""7895""
","null","<p></p>","null","","","","","","","","","","","","","","","","","","","","","","","",""
"","do_recog","49","18842890","0.0-34.0-0.0","""event"",""trial"",""time""
""focus"",""0"",""0""
""blur"",""0"",""0""
""focus"",""0"",""2285""
""fullscreenenter"",""0"",""2629""
""fullscreenexit"",""2"",""7895""
""blur"",""3"",""255832""
""focus"",""3"",""18618449""
""blur"",""3"",""18622358""
""focus"",""3"",""18633756""
""blur"",""6"",""18656738""
""focus"",""6"",""18667346""
","""event"",""trial"",""time""
""blur"",""0"",""0""
""blur"",""3"",""255832""
""blur"",""3"",""18622358""
""blur"",""6"",""18656738""
","""event"",""trial"",""time""
""focus"",""0"",""0""
""focus"",""0"",""2285""
""focus"",""3"",""18618449""
""focus"",""3"",""18633756""
""focus"",""6"",""18667346""
","""event"",""trial"",""time""
""fullscreenenter"",""0"",""2629""
","""event"",""trial"",""time""
""fullscreenexit"",""2"",""7895""
","2826","","","","","","","","53","","","","245","probe-15","","","","","1","[object Object]","114","2","1","","","",""
"","html-keyboard-response","50","18843903","0.0-34.0-1.0","""event"",""trial"",""time""
""focus"",""0"",""0""
""blur"",""0"",""0""
""focus"",""0"",""2285""
""fullscreenenter"",""0"",""2629""
""fullscreenexit"",""2"",""7895""
""blur"",""3"",""255832""
""focus"",""3"",""18618449""
""blur"",""3"",""18622358""
""focus"",""3"",""18633756""
""blur"",""6"",""18656738""
""focus"",""6"",""18667346""
","""event"",""trial"",""time""
""blur"",""0"",""0""
""blur"",""3"",""255832""
""blur"",""3"",""18622358""
""blur"",""6"",""18656738""
","""event"",""trial"",""time""
""focus"",""0"",""0""
""focus"",""0"",""2285""
""focus"",""3"",""18618449""
""focus"",""3"",""18633756""
""focus"",""6"",""18667346""
","""event"",""trial"",""time""
""fullscreenenter"",""0"",""2629""
","""event"",""trial"",""time""
""fullscreenexit"",""2"",""7895""
","null","<p></p>","null","","","","","","","","","","","","","","","","","","","","","","","",""
"","do_trial","51","18847819","0.0-35.0-0.0","""event"",""trial"",""time""
""focus"",""0"",""0""
""blur"",""0"",""0""
""focus"",""0"",""2285""
""fullscreenenter"",""0"",""2629""
""fullscreenexit"",""2"",""7895""
""blur"",""3"",""255832""
""focus"",""3"",""18618449""
""blur"",""3"",""18622358""
""focus"",""3"",""18633756""
""blur"",""6"",""18656738""
""focus"",""6"",""18667346""
","""event"",""trial"",""time""
""blur"",""0"",""0""
""blur"",""3"",""255832""
""blur"",""3"",""18622358""
""blur"",""6"",""18656738""
","""event"",""trial"",""time""
""focus"",""0"",""0""
""focus"",""0"",""2285""
""focus"",""3"",""18618449""
""focus"",""3"",""18633756""
""focus"",""6"",""18667346""
","""event"",""trial"",""time""
""fullscreenenter"",""0"",""2629""
","""event"",""trial"",""time""
""fullscreenexit"",""2"",""7895""
","1388","","","","","","","","49","0,1,0","6","blank","246","null","0.10606483019528268","0.4078763300533842","0.5622092304706362","0","","","","","","","","",""
"","html-keyboard-response","52","18848834","0.0-35.0-1.0","""event"",""trial"",""time""
""focus"",""0"",""0""
""blur"",""0"",""0""
""focus"",""0"",""2285""
""fullscreenenter"",""0"",""2629""
""fullscreenexit"",""2"",""7895""
""blur"",""3"",""255832""
""focus"",""3"",""18618449""
""blur"",""3"",""18622358""
""focus"",""3"",""18633756""
""blur"",""6"",""18656738""
""focus"",""6"",""18667346""
","""event"",""trial"",""time""
""blur"",""0"",""0""
""blur"",""3"",""255832""
""blur"",""3"",""18622358""
""blur"",""6"",""18656738""
","""event"",""trial"",""time""
""focus"",""0"",""0""
""focus"",""0"",""2285""
""focus"",""3"",""18618449""
""focus"",""3"",""18633756""
""focus"",""6"",""18667346""
","""event"",""trial"",""time""
""fullscreenenter"",""0"",""2629""
","""event"",""trial"",""time""
""fullscreenexit"",""2"",""7895""
","null","<p></p>","null","","","","","","","","","","","","","","","","","","","","","","","",""
"","do_recog","53","18851420","0.0-36.0-0.0","""event"",""trial"",""time""
""focus"",""0"",""0""
""blur"",""0"",""0""
""focus"",""0"",""2285""
""fullscreenenter"",""0"",""2629""
""fullscreenexit"",""2"",""7895""
""blur"",""3"",""255832""
""focus"",""3"",""18618449""
""blur"",""3"",""18622358""
""focus"",""3"",""18633756""
""blur"",""6"",""18656738""
""focus"",""6"",""18667346""
","""event"",""trial"",""time""
""blur"",""0"",""0""
""blur"",""3"",""255832""
""blur"",""3"",""18622358""
""blur"",""6"",""18656738""
","""event"",""trial"",""time""
""focus"",""0"",""0""
""focus"",""0"",""2285""
""focus"",""3"",""18618449""
""focus"",""3"",""18633756""
""focus"",""6"",""18667346""
","""event"",""trial"",""time""
""fullscreenenter"",""0"",""2629""
","""event"",""trial"",""time""
""fullscreenexit"",""2"",""7895""
","1077","","","","","","","","53","","","","247","probe-144","","","","","1","[object Object]","116","2","1","","","",""
"","html-keyboard-response","54","18852430","0.0-36.0-1.0","""event"",""trial"",""time""
""focus"",""0"",""0""
""blur"",""0"",""0""
""focus"",""0"",""2285""
""fullscreenenter"",""0"",""2629""
""fullscreenexit"",""2"",""7895""
""blur"",""3"",""255832""
""focus"",""3"",""18618449""
""blur"",""3"",""18622358""
""focus"",""3"",""18633756""
""blur"",""6"",""18656738""
""focus"",""6"",""18667346""
","""event"",""trial"",""time""
""blur"",""0"",""0""
""blur"",""3"",""255832""
""blur"",""3"",""18622358""
""blur"",""6"",""18656738""
","""event"",""trial"",""time""
""focus"",""0"",""0""
""focus"",""0"",""2285""
""focus"",""3"",""18618449""
""focus"",""3"",""18633756""
""focus"",""6"",""18667346""
","""event"",""trial"",""time""
""fullscreenenter"",""0"",""2629""
","""event"",""trial"",""time""
""fullscreenexit"",""2"",""7895""
","null","<p></p>","null","","","","","","","","","","","","","","","","","","","","","","","",""
"","do_trial","55","18855250","0.0-37.0-0.0","""event"",""trial"",""time""
""focus"",""0"",""0""
""blur"",""0"",""0""
""focus"",""0"",""2285""
""fullscreenenter"",""0"",""2629""
""fullscreenexit"",""2"",""7895""
""blur"",""3"",""255832""
""focus"",""3"",""18618449""
""blur"",""3"",""18622358""
""focus"",""3"",""18633756""
""blur"",""6"",""18656738""
""focus"",""6"",""18667346""
","""event"",""trial"",""time""
""blur"",""0"",""0""
""blur"",""3"",""255832""
""blur"",""3"",""18622358""
""blur"",""6"",""18656738""
","""event"",""trial"",""time""
""focus"",""0"",""0""
""focus"",""0"",""2285""
""focus"",""3"",""18618449""
""focus"",""3"",""18633756""
""focus"",""6"",""18667346""
","""event"",""trial"",""time""
""fullscreenenter"",""0"",""2629""
","""event"",""trial"",""time""
""fullscreenexit"",""2"",""7895""
","310","","","","","","","","51","0,1,0","6","blank","248","null","0.2140490574862164","0.38329707267915725","0.5301391643637292","0","","","","","","","","",""
"","html-keyboard-response","56","18856269","0.0-37.0-1.0","""event"",""trial"",""time""
""focus"",""0"",""0""
""blur"",""0"",""0""
""focus"",""0"",""2285""
""fullscreenenter"",""0"",""2629""
""fullscreenexit"",""2"",""7895""
""blur"",""3"",""255832""
""focus"",""3"",""18618449""
""blur"",""3"",""18622358""
""focus"",""3"",""18633756""
""blur"",""6"",""18656738""
""focus"",""6"",""18667346""
","""event"",""trial"",""time""
""blur"",""0"",""0""
""blur"",""3"",""255832""
""blur"",""3"",""18622358""
""blur"",""6"",""18656738""
","""event"",""trial"",""time""
""focus"",""0"",""0""
""focus"",""0"",""2285""
""focus"",""3"",""18618449""
""focus"",""3"",""18633756""
""focus"",""6"",""18667346""
","""event"",""trial"",""time""
""fullscreenenter"",""0"",""2629""
","""event"",""trial"",""time""
""fullscreenexit"",""2"",""7895""
","null","<p></p>","null","","","","","","","","","","","","","","","","","","","","","","","",""
"","do_trial","57","18859094","0.0-38.0-0.0","""event"",""trial"",""time""
""focus"",""0"",""0""
""blur"",""0"",""0""
""focus"",""0"",""2285""
""fullscreenenter"",""0"",""2629""
""fullscreenexit"",""2"",""7895""
""blur"",""3"",""255832""
""focus"",""3"",""18618449""
""blur"",""3"",""18622358""
""focus"",""3"",""18633756""
""blur"",""6"",""18656738""
""focus"",""6"",""18667346""
","""event"",""trial"",""time""
""blur"",""0"",""0""
""blur"",""3"",""255832""
""blur"",""3"",""18622358""
""blur"",""6"",""18656738""
","""event"",""trial"",""time""
""focus"",""0"",""0""
""focus"",""0"",""2285""
""focus"",""3"",""18618449""
""focus"",""3"",""18633756""
""focus"",""6"",""18667346""
","""event"",""trial"",""time""
""fullscreenenter"",""0"",""2629""
","""event"",""trial"",""time""
""fullscreenexit"",""2"",""7895""
","310","","","","","","","","50","0,0,0","6","blank","249","null","0.1015219897195897","0.34401648466594326","0.5356618011835812","0","","","","","","","","",""
"","html-keyboard-response","58","18860110","0.0-38.0-1.0","""event"",""trial"",""time""
""focus"",""0"",""0""
""blur"",""0"",""0""
""focus"",""0"",""2285""
""fullscreenenter"",""0"",""2629""
""fullscreenexit"",""2"",""7895""
""blur"",""3"",""255832""
""focus"",""3"",""18618449""
""blur"",""3"",""18622358""
""focus"",""3"",""18633756""
""blur"",""6"",""18656738""
""focus"",""6"",""18667346""
","""event"",""trial"",""time""
""blur"",""0"",""0""
""blur"",""3"",""255832""
""blur"",""3"",""18622358""
""blur"",""6"",""18656738""
","""event"",""trial"",""time""
""focus"",""0"",""0""
""focus"",""0"",""2285""
""focus"",""3"",""18618449""
""focus"",""3"",""18633756""
""focus"",""6"",""18667346""
","""event"",""trial"",""time""
""fullscreenenter"",""0"",""2629""
","""event"",""trial"",""time""
""fullscreenexit"",""2"",""7895""
","null","<p></p>","null","","","","","","","","","","","","","","","","","","","","","","","",""
"","do_recog","59","18863714","0.0-39.0-0.0","""event"",""trial"",""time""
""focus"",""0"",""0""
""blur"",""0"",""0""
""focus"",""0"",""2285""
""fullscreenenter"",""0"",""2629""
""fullscreenexit"",""2"",""7895""
""blur"",""3"",""255832""
""focus"",""3"",""18618449""
""blur"",""3"",""18622358""
""focus"",""3"",""18633756""
""blur"",""6"",""18656738""
""focus"",""6"",""18667346""
","""event"",""trial"",""time""
""blur"",""0"",""0""
""blur"",""3"",""255832""
""blur"",""3"",""18622358""
""blur"",""6"",""18656738""
","""event"",""trial"",""time""
""focus"",""0"",""0""
""focus"",""0"",""2285""
""focus"",""3"",""18618449""
""focus"",""3"",""18633756""
""focus"",""6"",""18667346""
","""event"",""trial"",""time""
""fullscreenenter"",""0"",""2629""
","""event"",""trial"",""time""
""fullscreenexit"",""2"",""7895""
","2097","","","","","","","","54","","","","250","probe-172","","","","","1","[object Object]","197","4","1","","","",""
"","html-keyboard-response","60","18864720","0.0-39.0-1.0","""event"",""trial"",""time""
""focus"",""0"",""0""
""blur"",""0"",""0""
""focus"",""0"",""2285""
""fullscreenenter"",""0"",""2629""
""fullscreenexit"",""2"",""7895""
""blur"",""3"",""255832""
""focus"",""3"",""18618449""
""blur"",""3"",""18622358""
""focus"",""3"",""18633756""
""blur"",""6"",""18656738""
""focus"",""6"",""18667346""
","""event"",""trial"",""time""
""blur"",""0"",""0""
""blur"",""3"",""255832""
""blur"",""3"",""18622358""
""blur"",""6"",""18656738""
","""event"",""trial"",""time""
""focus"",""0"",""0""
""focus"",""0"",""2285""
""focus"",""3"",""18618449""
""focus"",""3"",""18633756""
""focus"",""6"",""18667346""
","""event"",""trial"",""time""
""fullscreenenter"",""0"",""2629""
","""event"",""trial"",""time""
""fullscreenexit"",""2"",""7895""
","null","<p></p>","null","","","","","","","","","","","","","","","","","","","","","","","",""
"","do_trial","61","18867650","0.0-40.0-0.0","""event"",""trial"",""time""
""focus"",""0"",""0""
""blur"",""0"",""0""
""focus"",""0"",""2285""
""fullscreenenter"",""0"",""2629""
""fullscreenexit"",""2"",""7895""
""blur"",""3"",""255832""
""focus"",""3"",""18618449""
""blur"",""3"",""18622358""
""focus"",""3"",""18633756""
""blur"",""6"",""18656738""
""focus"",""6"",""18667346""
","""event"",""trial"",""time""
""blur"",""0"",""0""
""blur"",""3"",""255832""
""blur"",""3"",""18622358""
""blur"",""6"",""18656738""
","""event"",""trial"",""time""
""focus"",""0"",""0""
""focus"",""0"",""2285""
""focus"",""3"",""18618449""
""focus"",""3"",""18633756""
""focus"",""6"",""18667346""
","""event"",""trial"",""time""
""fullscreenenter"",""0"",""2629""
","""event"",""trial"",""time""
""fullscreenexit"",""2"",""7895""
","401","","","","","","","","51","0,0,0","6","blank","251","null","0.1539655701447774","0.21486236121150348","0.5106478910533585","0","","","","","","","","",""
"","html-keyboard-response","62","18868654","0.0-40.0-1.0","""event"",""trial"",""time""
""focus"",""0"",""0""
""blur"",""0"",""0""
""focus"",""0"",""2285""
""fullscreenenter"",""0"",""2629""
""fullscreenexit"",""2"",""7895""
""blur"",""3"",""255832""
""focus"",""3"",""18618449""
""blur"",""3"",""18622358""
""focus"",""3"",""18633756""
""blur"",""6"",""18656738""
""focus"",""6"",""18667346""
","""event"",""trial"",""time""
""blur"",""0"",""0""
""blur"",""3"",""255832""
""blur"",""3"",""18622358""
""blur"",""6"",""18656738""
","""event"",""trial"",""time""
""focus"",""0"",""0""
""focus"",""0"",""2285""
""focus"",""3"",""18618449""
""focus"",""3"",""18633756""
""focus"",""6"",""18667346""
","""event"",""trial"",""time""
""fullscreenenter"",""0"",""2629""
","""event"",""trial"",""time""
""fullscreenexit"",""2"",""7895""
","null","<p></p>","null","","","","","","","","","","","","","","","","","","","","","","","",""
"","do_recog","63","18871577","0.0-41.0-0.0","""event"",""trial"",""time""
""focus"",""0"",""0""
""blur"",""0"",""0""
""focus"",""0"",""2285""
""fullscreenenter"",""0"",""2629""
""fullscreenexit"",""2"",""7895""
""blur"",""3"",""255832""
""focus"",""3"",""18618449""
""blur"",""3"",""18622358""
""focus"",""3"",""18633756""
""blur"",""6"",""18656738""
""focus"",""6"",""18667346""
","""event"",""trial"",""time""
""blur"",""0"",""0""
""blur"",""3"",""255832""
""blur"",""3"",""18622358""
""blur"",""6"",""18656738""
","""event"",""trial"",""time""
""focus"",""0"",""0""
""focus"",""0"",""2285""
""focus"",""3"",""18618449""
""focus"",""3"",""18633756""
""focus"",""6"",""18667346""
","""event"",""trial"",""time""
""fullscreenenter"",""0"",""2629""
","""event"",""trial"",""time""
""fullscreenexit"",""2"",""7895""
","1409","","","","","","","","54","","","","252","probe-231","","","","","0","[object Object]","null","null","0","","","",""
"","html-keyboard-response","64","18872590","0.0-41.0-1.0","""event"",""trial"",""time""
""focus"",""0"",""0""
""blur"",""0"",""0""
""focus"",""0"",""2285""
""fullscreenenter"",""0"",""2629""
""fullscreenexit"",""2"",""7895""
""blur"",""3"",""255832""
""focus"",""3"",""18618449""
""blur"",""3"",""18622358""
""focus"",""3"",""18633756""
""blur"",""6"",""18656738""
""focus"",""6"",""18667346""
","""event"",""trial"",""time""
""blur"",""0"",""0""
""blur"",""3"",""255832""
""blur"",""3"",""18622358""
""blur"",""6"",""18656738""
","""event"",""trial"",""time""
""focus"",""0"",""0""
""focus"",""0"",""2285""
""focus"",""3"",""18618449""
""focus"",""3"",""18633756""
""focus"",""6"",""18667346""
","""event"",""trial"",""time""
""fullscreenenter"",""0"",""2629""
","""event"",""trial"",""time""
""fullscreenexit"",""2"",""7895""
","null","<p></p>","null","","","","","","","","","","","","","","","","","","","","","","","",""
"","do_trial","65","18875380","0.0-42.0-0.0","""event"",""trial"",""time""
""focus"",""0"",""0""
""blur"",""0"",""0""
""focus"",""0"",""2285""
""fullscreenenter"",""0"",""2629""
""fullscreenexit"",""2"",""7895""
""blur"",""3"",""255832""
""focus"",""3"",""18618449""
""blur"",""3"",""18622358""
""focus"",""3"",""18633756""
""blur"",""6"",""18656738""
""focus"",""6"",""18667346""
","""event"",""trial"",""time""
""blur"",""0"",""0""
""blur"",""3"",""255832""
""blur"",""3"",""18622358""
""blur"",""6"",""18656738""
","""event"",""trial"",""time""
""focus"",""0"",""0""
""focus"",""0"",""2285""
""focus"",""3"",""18618449""
""focus"",""3"",""18633756""
""focus"",""6"",""18667346""
","""event"",""trial"",""time""
""fullscreenenter"",""0"",""2629""
","""event"",""trial"",""time""
""fullscreenexit"",""2"",""7895""
","277","","","","","","","","49","0,0,0","6","blank","253","null","0.12787325939095495","0.4075644739366571","0.5319833639167199","0","","","","","","","","",""
"","html-keyboard-response","66","18876400","0.0-42.0-1.0","""event"",""trial"",""time""
""focus"",""0"",""0""
""blur"",""0"",""0""
""focus"",""0"",""2285""
""fullscreenenter"",""0"",""2629""
""fullscreenexit"",""2"",""7895""
""blur"",""3"",""255832""
""focus"",""3"",""18618449""
""blur"",""3"",""18622358""
""focus"",""3"",""18633756""
""blur"",""6"",""18656738""
""focus"",""6"",""18667346""
","""event"",""trial"",""time""
""blur"",""0"",""0""
""blur"",""3"",""255832""
""blur"",""3"",""18622358""
""blur"",""6"",""18656738""
","""event"",""trial"",""time""
""focus"",""0"",""0""
""focus"",""0"",""2285""
""focus"",""3"",""18618449""
""focus"",""3"",""18633756""
""focus"",""6"",""18667346""
","""event"",""trial"",""time""
""fullscreenenter"",""0"",""2629""
","""event"",""trial"",""time""
""fullscreenexit"",""2"",""7895""
","null","<p></p>","null","","","","","","","","","","","","","","","","","","","","","","","",""
"","do_recog","67","18879620","0.0-43.0-0.0","""event"",""trial"",""time""
""focus"",""0"",""0""
""blur"",""0"",""0""
""focus"",""0"",""2285""
""fullscreenenter"",""0"",""2629""
""fullscreenexit"",""2"",""7895""
""blur"",""3"",""255832""
""focus"",""3"",""18618449""
""blur"",""3"",""18622358""
""focus"",""3"",""18633756""
""blur"",""6"",""18656738""
""focus"",""6"",""18667346""
","""event"",""trial"",""time""
""blur"",""0"",""0""
""blur"",""3"",""255832""
""blur"",""3"",""18622358""
""blur"",""6"",""18656738""
","""event"",""trial"",""time""
""focus"",""0"",""0""
""focus"",""0"",""2285""
""focus"",""3"",""18618449""
""focus"",""3"",""18633756""
""focus"",""6"",""18667346""
","""event"",""trial"",""time""
""fullscreenenter"",""0"",""2629""
","""event"",""trial"",""time""
""fullscreenexit"",""2"",""7895""
","1701","","","","","","","","53","","","","254","probe-225","","","","","1","[object Object]","157","3","1","","","",""
"","html-keyboard-response","68","18880629","0.0-43.0-1.0","""event"",""trial"",""time""
""focus"",""0"",""0""
""blur"",""0"",""0""
""focus"",""0"",""2285""
""fullscreenenter"",""0"",""2629""
""fullscreenexit"",""2"",""7895""
""blur"",""3"",""255832""
""focus"",""3"",""18618449""
""blur"",""3"",""18622358""
""focus"",""3"",""18633756""
""blur"",""6"",""18656738""
""focus"",""6"",""18667346""
","""event"",""trial"",""time""
""blur"",""0"",""0""
""blur"",""3"",""255832""
""blur"",""3"",""18622358""
""blur"",""6"",""18656738""
","""event"",""trial"",""time""
""focus"",""0"",""0""
""focus"",""0"",""2285""
""focus"",""3"",""18618449""
""focus"",""3"",""18633756""
""focus"",""6"",""18667346""
","""event"",""trial"",""time""
""fullscreenenter"",""0"",""2629""
","""event"",""trial"",""time""
""fullscreenexit"",""2"",""7895""
","null","<p></p>","null","","","","","","","","","","","","","","","","","","","","","","","",""
"","do_trial","69","18883907","0.0-44.0-0.0","""event"",""trial"",""time""
""focus"",""0"",""0""
""blur"",""0"",""0""
""focus"",""0"",""2285""
""fullscreenenter"",""0"",""2629""
""fullscreenexit"",""2"",""7895""
""blur"",""3"",""255832""
""focus"",""3"",""18618449""
""blur"",""3"",""18622358""
""focus"",""3"",""18633756""
""blur"",""6"",""18656738""
""focus"",""6"",""18667346""
","""event"",""trial"",""time""
""blur"",""0"",""0""
""blur"",""3"",""255832""
""blur"",""3"",""18622358""
""blur"",""6"",""18656738""
","""event"",""trial"",""time""
""focus"",""0"",""0""
""focus"",""0"",""2285""
""focus"",""3"",""18618449""
""focus"",""3"",""18633756""
""focus"",""6"",""18667346""
","""event"",""trial"",""time""
""fullscreenenter"",""0"",""2629""
","""event"",""trial"",""time""
""fullscreenexit"",""2"",""7895""
","754","","","","","","","","51","0,0,0","6","blank","255","null","0.20222528392028008","0.36668736038072314","0.6191326257894422","0","","","","","","","","",""
"","html-keyboard-response","70","18884919","0.0-44.0-1.0","""event"",""trial"",""time""
""focus"",""0"",""0""
""blur"",""0"",""0""
""focus"",""0"",""2285""
""fullscreenenter"",""0"",""2629""
""fullscreenexit"",""2"",""7895""
""blur"",""3"",""255832""
""focus"",""3"",""18618449""
""blur"",""3"",""18622358""
""focus"",""3"",""18633756""
""blur"",""6"",""18656738""
""focus"",""6"",""18667346""
","""event"",""trial"",""time""
""blur"",""0"",""0""
""blur"",""3"",""255832""
""blur"",""3"",""18622358""
""blur"",""6"",""18656738""
","""event"",""trial"",""time""
""focus"",""0"",""0""
""focus"",""0"",""2285""
""focus"",""3"",""18618449""
""focus"",""3"",""18633756""
""focus"",""6"",""18667346""
","""event"",""trial"",""time""
""fullscreenenter"",""0"",""2629""
","""event"",""trial"",""time""
""fullscreenexit"",""2"",""7895""
","null","<p></p>","null","","","","","","","","","","","","","","","","","","","","","","","",""
"","do_trial","71","18887780","0.0-45.0-0.0","""event"",""trial"",""time""
""focus"",""0"",""0""
""blur"",""0"",""0""
""focus"",""0"",""2285""
""fullscreenenter"",""0"",""2629""
""fullscreenexit"",""2"",""7895""
""blur"",""3"",""255832""
""focus"",""3"",""18618449""
""blur"",""3"",""18622358""
""focus"",""3"",""18633756""
""blur"",""6"",""18656738""
""focus"",""6"",""18667346""
","""event"",""trial"",""time""
""blur"",""0"",""0""
""blur"",""3"",""255832""
""blur"",""3"",""18622358""
""blur"",""6"",""18656738""
","""event"",""trial"",""time""
""focus"",""0"",""0""
""focus"",""0"",""2285""
""focus"",""3"",""18618449""
""focus"",""3"",""18633756""
""focus"",""6"",""18667346""
","""event"",""trial"",""time""
""fullscreenenter"",""0"",""2629""
","""event"",""trial"",""time""
""fullscreenexit"",""2"",""7895""
","344","","","","","","","","49","0,0,1","6","blank","256","null","0.19930203393225626","0.3440969109539762","0.5708375638405964","0","","","","","","","","",""
"","html-keyboard-response","72","18888794","0.0-45.0-1.0","""event"",""trial"",""time""
""focus"",""0"",""0""
""blur"",""0"",""0""
""focus"",""0"",""2285""
""fullscreenenter"",""0"",""2629""
""fullscreenexit"",""2"",""7895""
""blur"",""3"",""255832""
""focus"",""3"",""18618449""
""blur"",""3"",""18622358""
""focus"",""3"",""18633756""
""blur"",""6"",""18656738""
""focus"",""6"",""18667346""
","""event"",""trial"",""time""
""blur"",""0"",""0""
""blur"",""3"",""255832""
""blur"",""3"",""18622358""
""blur"",""6"",""18656738""
","""event"",""trial"",""time""
""focus"",""0"",""0""
""focus"",""0"",""2285""
""focus"",""3"",""18618449""
""focus"",""3"",""18633756""
""focus"",""6"",""18667346""
","""event"",""trial"",""time""
""fullscreenenter"",""0"",""2629""
","""event"",""trial"",""time""
""fullscreenexit"",""2"",""7895""
","null","<p></p>","null","","","","","","","","","","","","","","","","","","","","","","","",""
"","do_trial","73","18891530","0.0-46.0-0.0","""event"",""trial"",""time""
""focus"",""0"",""0""
""blur"",""0"",""0""
""focus"",""0"",""2285""
""fullscreenenter"",""0"",""2629""
""fullscreenexit"",""2"",""7895""
""blur"",""3"",""255832""
""focus"",""3"",""18618449""
""blur"",""3"",""18622358""
""focus"",""3"",""18633756""
""blur"",""6"",""18656738""
""focus"",""6"",""18667346""
","""event"",""trial"",""time""
""blur"",""0"",""0""
""blur"",""3"",""255832""
""blur"",""3"",""18622358""
""blur"",""6"",""18656738""
","""event"",""trial"",""time""
""focus"",""0"",""0""
""focus"",""0"",""2285""
""focus"",""3"",""18618449""
""focus"",""3"",""18633756""
""focus"",""6"",""18667346""
","""event"",""trial"",""time""
""fullscreenenter"",""0"",""2629""
","""event"",""trial"",""time""
""fullscreenexit"",""2"",""7895""
","214","","","","","","","","50","0,0,0","6","blank","257","null","0.0713687678393782","0.2273479616420206","0.5921486788084045","0","","","","","","","","",""
"","html-keyboard-response","74","18892540","0.0-46.0-1.0","""event"",""trial"",""time""
""focus"",""0"",""0""
""blur"",""0"",""0""
""focus"",""0"",""2285""
""fullscreenenter"",""0"",""2629""
""fullscreenexit"",""2"",""7895""
""blur"",""3"",""255832""
""focus"",""3"",""18618449""
""blur"",""3"",""18622358""
""focus"",""3"",""18633756""
""blur"",""6"",""18656738""
""focus"",""6"",""18667346""
","""event"",""trial"",""time""
""blur"",""0"",""0""
""blur"",""3"",""255832""
""blur"",""3"",""18622358""
""blur"",""6"",""18656738""
","""event"",""trial"",""time""
""focus"",""0"",""0""
""focus"",""0"",""2285""
""focus"",""3"",""18618449""
""focus"",""3"",""18633756""
""focus"",""6"",""18667346""
","""event"",""trial"",""time""
""fullscreenenter"",""0"",""2629""
","""event"",""trial"",""time""
""fullscreenexit"",""2"",""7895""
","null","<p></p>","null","","","","","","","","","","","","","","","","","","","","","","","",""
"","do_trial","75","18895299","0.0-47.0-0.0","""event"",""trial"",""time""
""focus"",""0"",""0""
""blur"",""0"",""0""
""focus"",""0"",""2285""
""fullscreenenter"",""0"",""2629""
""fullscreenexit"",""2"",""7895""
""blur"",""3"",""255832""
""focus"",""3"",""18618449""
""blur"",""3"",""18622358""
""focus"",""3"",""18633756""
""blur"",""6"",""18656738""
""focus"",""6"",""18667346""
","""event"",""trial"",""time""
""blur"",""0"",""0""
""blur"",""3"",""255832""
""blur"",""3"",""18622358""
""blur"",""6"",""18656738""
","""event"",""trial"",""time""
""focus"",""0"",""0""
""focus"",""0"",""2285""
""focus"",""3"",""18618449""
""focus"",""3"",""18633756""
""focus"",""6"",""18667346""
","""event"",""trial"",""time""
""fullscreenenter"",""0"",""2629""
","""event"",""trial"",""time""
""fullscreenexit"",""2"",""7895""
","241","","","","","","","","51","1,0,1","6","blank","258","null","0.0595368507669396","0.24953871278650647","0.6127814120810209","1","","","","","","","","",""
"","html-keyboard-response","76","18896311","0.0-47.0-1.0","""event"",""trial"",""time""
""focus"",""0"",""0""
""blur"",""0"",""0""
""focus"",""0"",""2285""
""fullscreenenter"",""0"",""2629""
""fullscreenexit"",""2"",""7895""
""blur"",""3"",""255832""
""focus"",""3"",""18618449""
""blur"",""3"",""18622358""
""focus"",""3"",""18633756""
""blur"",""6"",""18656738""
""focus"",""6"",""18667346""
","""event"",""trial"",""time""
""blur"",""0"",""0""
""blur"",""3"",""255832""
""blur"",""3"",""18622358""
""blur"",""6"",""18656738""
","""event"",""trial"",""time""
""focus"",""0"",""0""
""focus"",""0"",""2285""
""focus"",""3"",""18618449""
""focus"",""3"",""18633756""
""focus"",""6"",""18667346""
","""event"",""trial"",""time""
""fullscreenenter"",""0"",""2629""
","""event"",""trial"",""time""
""fullscreenexit"",""2"",""7895""
","null","<p></p>","null","","","","","","","","","","","","","","","","","","","","","","","",""
"","do_trial","77","18899579","0.0-48.0-0.0","""event"",""trial"",""time""
""focus"",""0"",""0""
""blur"",""0"",""0""
""focus"",""0"",""2285""
""fullscreenenter"",""0"",""2629""
""fullscreenexit"",""2"",""7895""
""blur"",""3"",""255832""
""focus"",""3"",""18618449""
""blur"",""3"",""18622358""
""focus"",""3"",""18633756""
""blur"",""6"",""18656738""
""focus"",""6"",""18667346""
","""event"",""trial"",""time""
""blur"",""0"",""0""
""blur"",""3"",""255832""
""blur"",""3"",""18622358""
""blur"",""6"",""18656738""
","""event"",""trial"",""time""
""focus"",""0"",""0""
""focus"",""0"",""2285""
""focus"",""3"",""18618449""
""focus"",""3"",""18633756""
""focus"",""6"",""18667346""
","""event"",""trial"",""time""
""fullscreenenter"",""0"",""2629""
","""event"",""trial"",""time""
""fullscreenexit"",""2"",""7895""
","752","","","","","","","","51","1,0,1","6","blank","259","null","0.15147317714373823","0.15093374388954078","0.5860503030501206","1","","","","","","","","",""
"","html-keyboard-response","78","18900597","0.0-48.0-1.0","""event"",""trial"",""time""
""focus"",""0"",""0""
""blur"",""0"",""0""
""focus"",""0"",""2285""
""fullscreenenter"",""0"",""2629""
""fullscreenexit"",""2"",""7895""
""blur"",""3"",""255832""
""focus"",""3"",""18618449""
""blur"",""3"",""18622358""
""focus"",""3"",""18633756""
""blur"",""6"",""18656738""
""focus"",""6"",""18667346""
","""event"",""trial"",""time""
""blur"",""0"",""0""
""blur"",""3"",""255832""
""blur"",""3"",""18622358""
""blur"",""6"",""18656738""
","""event"",""trial"",""time""
""focus"",""0"",""0""
""focus"",""0"",""2285""
""focus"",""3"",""18618449""
""focus"",""3"",""18633756""
""focus"",""6"",""18667346""
","""event"",""trial"",""time""
""fullscreenenter"",""0"",""2629""
","""event"",""trial"",""time""
""fullscreenexit"",""2"",""7895""
","null","<p></p>","null","","","","","","","","","","","","","","","","","","","","","","","",""
"","do_trial","79","18903524","0.0-49.0-0.0","""event"",""trial"",""time""
""focus"",""0"",""0""
""blur"",""0"",""0""
""focus"",""0"",""2285""
""fullscreenenter"",""0"",""2629""
""fullscreenexit"",""2"",""7895""
""blur"",""3"",""255832""
""focus"",""3"",""18618449""
""blur"",""3"",""18622358""
""focus"",""3"",""18633756""
""blur"",""6"",""18656738""
""focus"",""6"",""18667346""
","""event"",""trial"",""time""
""blur"",""0"",""0""
""blur"",""3"",""255832""
""blur"",""3"",""18622358""
""blur"",""6"",""18656738""
","""event"",""trial"",""time""
""focus"",""0"",""0""
""focus"",""0"",""2285""
""focus"",""3"",""18618449""
""focus"",""3"",""18633756""
""focus"",""6"",""18667346""
","""event"",""trial"",""time""
""fullscreenenter"",""0"",""2629""
","""event"",""trial"",""time""
""fullscreenexit"",""2"",""7895""
","402","","","","","","","","51","0,0,1","6","blank","260","null","0.0692401769658578","0.22300837850951905","0.601149633306787","1","","","","","","","","",""
"","html-keyboard-response","80","18904529","0.0-49.0-1.0","""event"",""trial"",""time""
""focus"",""0"",""0""
""blur"",""0"",""0""
""focus"",""0"",""2285""
""fullscreenenter"",""0"",""2629""
""fullscreenexit"",""2"",""7895""
""blur"",""3"",""255832""
""focus"",""3"",""18618449""
""blur"",""3"",""18622358""
""focus"",""3"",""18633756""
""blur"",""6"",""18656738""
""focus"",""6"",""18667346""
","""event"",""trial"",""time""
""blur"",""0"",""0""
""blur"",""3"",""255832""
""blur"",""3"",""18622358""
""blur"",""6"",""18656738""
","""event"",""trial"",""time""
""focus"",""0"",""0""
""focus"",""0"",""2285""
""focus"",""3"",""18618449""
""focus"",""3"",""18633756""
""focus"",""6"",""18667346""
","""event"",""trial"",""time""
""fullscreenenter"",""0"",""2629""
","""event"",""trial"",""time""
""fullscreenexit"",""2"",""7895""
","null","<p></p>","null","","","","","","","","","","","","","","","","","","","","","","","",""
"","do_recog","81","18907070","0.0-50.0-0.0","""event"",""trial"",""time""
""focus"",""0"",""0""
""blur"",""0"",""0""
""focus"",""0"",""2285""
""fullscreenenter"",""0"",""2629""
""fullscreenexit"",""2"",""7895""
""blur"",""3"",""255832""
""focus"",""3"",""18618449""
""blur"",""3"",""18622358""
""focus"",""3"",""18633756""
""blur"",""6"",""18656738""
""focus"",""6"",""18667346""
","""event"",""trial"",""time""
""blur"",""0"",""0""
""blur"",""3"",""255832""
""blur"",""3"",""18622358""
""blur"",""6"",""18656738""
","""event"",""trial"",""time""
""focus"",""0"",""0""
""focus"",""0"",""2285""
""focus"",""3"",""18618449""
""focus"",""3"",""18633756""
""focus"",""6"",""18667346""
","""event"",""trial"",""time""
""fullscreenenter"",""0"",""2629""
","""event"",""trial"",""time""
""fullscreenexit"",""2"",""7895""
","1024","","","","","","","","53","","","","261","probe-91","","","","","1","[object Object]","117","2","1","","","",""
"","html-keyboard-response","82","18908089","0.0-50.0-1.0","""event"",""trial"",""time""
""focus"",""0"",""0""
""blur"",""0"",""0""
""focus"",""0"",""2285""
""fullscreenenter"",""0"",""2629""
""fullscreenexit"",""2"",""7895""
""blur"",""3"",""255832""
""focus"",""3"",""18618449""
""blur"",""3"",""18622358""
""focus"",""3"",""18633756""
""blur"",""6"",""18656738""
""focus"",""6"",""18667346""
","""event"",""trial"",""time""
""blur"",""0"",""0""
""blur"",""3"",""255832""
""blur"",""3"",""18622358""
""blur"",""6"",""18656738""
","""event"",""trial"",""time""
""focus"",""0"",""0""
""focus"",""0"",""2285""
""focus"",""3"",""18618449""
""focus"",""3"",""18633756""
""focus"",""6"",""18667346""
","""event"",""trial"",""time""
""fullscreenenter"",""0"",""2629""
","""event"",""trial"",""time""
""fullscreenexit"",""2"",""7895""
","null","<p></p>","null","","","","","","","","","","","","","","","","","","","","","","","",""
"","do_trial","83","18910959","0.0-51.0-0.0","""event"",""trial"",""time""
""focus"",""0"",""0""
""blur"",""0"",""0""
""focus"",""0"",""2285""
""fullscreenenter"",""0"",""2629""
""fullscreenexit"",""2"",""7895""
""blur"",""3"",""255832""
""focus"",""3"",""18618449""
""blur"",""3"",""18622358""
""focus"",""3"",""18633756""
""blur"",""6"",""18656738""
""focus"",""6"",""18667346""
","""event"",""trial"",""time""
""blur"",""0"",""0""
""blur"",""3"",""255832""
""blur"",""3"",""18622358""
""blur"",""6"",""18656738""
","""event"",""trial"",""time""
""focus"",""0"",""0""
""focus"",""0"",""2285""
""focus"",""3"",""18618449""
""focus"",""3"",""18633756""
""focus"",""6"",""18667346""
","""event"",""trial"",""time""
""fullscreenenter"",""0"",""2629""
","""event"",""trial"",""time""
""fullscreenexit"",""2"",""7895""
","357","","","","","","","","51","0,0,1","6","blank","262","null","0.20635473406331237","0.4718966101106945","0.7649707270293974","1","","","","","","","","",""
"","html-keyboard-response","84","18911980","0.0-51.0-1.0","""event"",""trial"",""time""
""focus"",""0"",""0""
""blur"",""0"",""0""
""focus"",""0"",""2285""
""fullscreenenter"",""0"",""2629""
""fullscreenexit"",""2"",""7895""
""blur"",""3"",""255832""
""focus"",""3"",""18618449""
""blur"",""3"",""18622358""
""focus"",""3"",""18633756""
""blur"",""6"",""18656738""
""focus"",""6"",""18667346""
","""event"",""trial"",""time""
""blur"",""0"",""0""
""blur"",""3"",""255832""
""blur"",""3"",""18622358""
""blur"",""6"",""18656738""
","""event"",""trial"",""time""
""focus"",""0"",""0""
""focus"",""0"",""2285""
""focus"",""3"",""18618449""
""focus"",""3"",""18633756""
""focus"",""6"",""18667346""
","""event"",""trial"",""time""
""fullscreenenter"",""0"",""2629""
","""event"",""trial"",""time""
""fullscreenexit"",""2"",""7895""
","null","<p></p>","null","","","","","","","","","","","","","","","","","","","","","","","",""
"","do_trial","85","18914970","0.0-52.0-0.0","""event"",""trial"",""time""
""focus"",""0"",""0""
""blur"",""0"",""0""
""focus"",""0"",""2285""
""fullscreenenter"",""0"",""2629""
""fullscreenexit"",""2"",""7895""
""blur"",""3"",""255832""
""focus"",""3"",""18618449""
""blur"",""3"",""18622358""
""focus"",""3"",""18633756""
""blur"",""6"",""18656738""
""focus"",""6"",""18667346""
","""event"",""trial"",""time""
""blur"",""0"",""0""
""blur"",""3"",""255832""
""blur"",""3"",""18622358""
""blur"",""6"",""18656738""
","""event"",""trial"",""time""
""focus"",""0"",""0""
""focus"",""0"",""2285""
""focus"",""3"",""18618449""
""focus"",""3"",""18633756""
""focus"",""6"",""18667346""
","""event"",""trial"",""time""
""fullscreenenter"",""0"",""2629""
","""event"",""trial"",""time""
""fullscreenexit"",""2"",""7895""
","474","","","","","","","","51","0,1,1","6","blank","263","null","0.2502880820572387","0.32239301231541356","0.6266344156965059","1","","","","","","","","",""
"","html-keyboard-response","86","18915989","0.0-52.0-1.0","""event"",""trial"",""time""
""focus"",""0"",""0""
""blur"",""0"",""0""
""focus"",""0"",""2285""
""fullscreenenter"",""0"",""2629""
""fullscreenexit"",""2"",""7895""
""blur"",""3"",""255832""
""focus"",""3"",""18618449""
""blur"",""3"",""18622358""
""focus"",""3"",""18633756""
""blur"",""6"",""18656738""
""focus"",""6"",""18667346""
","""event"",""trial"",""time""
""blur"",""0"",""0""
""blur"",""3"",""255832""
""blur"",""3"",""18622358""
""blur"",""6"",""18656738""
","""event"",""trial"",""time""
""focus"",""0"",""0""
""focus"",""0"",""2285""
""focus"",""3"",""18618449""
""focus"",""3"",""18633756""
""focus"",""6"",""18667346""
","""event"",""trial"",""time""
""fullscreenenter"",""0"",""2629""
","""event"",""trial"",""time""
""fullscreenexit"",""2"",""7895""
","null","<p></p>","null","","","","","","","","","","","","","","","","","","","","","","","",""
"","do_trial","87","18918869","0.0-53.0-0.0","""event"",""trial"",""time""
""focus"",""0"",""0""
""blur"",""0"",""0""
""focus"",""0"",""2285""
""fullscreenenter"",""0"",""2629""
""fullscreenexit"",""2"",""7895""
""blur"",""3"",""255832""
""focus"",""3"",""18618449""
""blur"",""3"",""18622358""
""focus"",""3"",""18633756""
""blur"",""6"",""18656738""
""focus"",""6"",""18667346""
","""event"",""trial"",""time""
""blur"",""0"",""0""
""blur"",""3"",""255832""
""blur"",""3"",""18622358""
""blur"",""6"",""18656738""
","""event"",""trial"",""time""
""focus"",""0"",""0""
""focus"",""0"",""2285""
""focus"",""3"",""18618449""
""focus"",""3"",""18633756""
""focus"",""6"",""18667346""
","""event"",""trial"",""time""
""fullscreenenter"",""0"",""2629""
","""event"",""trial"",""time""
""fullscreenexit"",""2"",""7895""
","359","","","","","","","","51","0,0,1","6","blank","264","null","0.2827184464941859","0.15239833786","0.5201306192827153","1","","","","","","","","",""
"","html-keyboard-response","88","18919880","0.0-53.0-1.0","""event"",""trial"",""time""
""focus"",""0"",""0""
""blur"",""0"",""0""
""focus"",""0"",""2285""
""fullscreenenter"",""0"",""2629""
""fullscreenexit"",""2"",""7895""
""blur"",""3"",""255832""
""focus"",""3"",""18618449""
""blur"",""3"",""18622358""
""focus"",""3"",""18633756""
""blur"",""6"",""18656738""
""focus"",""6"",""18667346""
","""event"",""trial"",""time""
""blur"",""0"",""0""
""blur"",""3"",""255832""
""blur"",""3"",""18622358""
""blur"",""6"",""18656738""
","""event"",""trial"",""time""
""focus"",""0"",""0""
""focus"",""0"",""2285""
""focus"",""3"",""18618449""
""focus"",""3"",""18633756""
""focus"",""6"",""18667346""
","""event"",""trial"",""time""
""fullscreenenter"",""0"",""2629""
","""event"",""trial"",""time""
""fullscreenexit"",""2"",""7895""
","null","<p></p>","null","","","","","","","","","","","","","","","","","","","","","","","",""
"","do_trial","89","18922863","0.0-54.0-0.0","""event"",""trial"",""time""
""focus"",""0"",""0""
""blur"",""0"",""0""
""focus"",""0"",""2285""
""fullscreenenter"",""0"",""2629""
""fullscreenexit"",""2"",""7895""
""blur"",""3"",""255832""
""focus"",""3"",""18618449""
""blur"",""3"",""18622358""
""focus"",""3"",""18633756""
""blur"",""6"",""18656738""
""focus"",""6"",""18667346""
","""event"",""trial"",""time""
""blur"",""0"",""0""
""blur"",""3"",""255832""
""blur"",""3"",""18622358""
""blur"",""6"",""18656738""
","""event"",""trial"",""time""
""focus"",""0"",""0""
""focus"",""0"",""2285""
""focus"",""3"",""18618449""
""focus"",""3"",""18633756""
""focus"",""6"",""18667346""
","""event"",""trial"",""time""
""fullscreenenter"",""0"",""2629""
","""event"",""trial"",""time""
""fullscreenexit"",""2"",""7895""
","458","","","","","","","","51","1,0,0","6","blank","265","null","0.14149215702327908","0.28493374750030326","0.39540710208395213","0","","","","","","","","",""
"","html-keyboard-response","90","18923873","0.0-54.0-1.0","""event"",""trial"",""time""
""focus"",""0"",""0""
""blur"",""0"",""0""
""focus"",""0"",""2285""
""fullscreenenter"",""0"",""2629""
""fullscreenexit"",""2"",""7895""
""blur"",""3"",""255832""
""focus"",""3"",""18618449""
""blur"",""3"",""18622358""
""focus"",""3"",""18633756""
""blur"",""6"",""18656738""
""focus"",""6"",""18667346""
","""event"",""trial"",""time""
""blur"",""0"",""0""
""blur"",""3"",""255832""
""blur"",""3"",""18622358""
""blur"",""6"",""18656738""
","""event"",""trial"",""time""
""focus"",""0"",""0""
""focus"",""0"",""2285""
""focus"",""3"",""18618449""
""focus"",""3"",""18633756""
""focus"",""6"",""18667346""
","""event"",""trial"",""time""
""fullscreenenter"",""0"",""2629""
","""event"",""trial"",""time""
""fullscreenexit"",""2"",""7895""
","null","<p></p>","null","","","","","","","","","","","","","","","","","","","","","","","",""
"","do_recog","91","18927430","0.0-55.0-0.0","""event"",""trial"",""time""
""focus"",""0"",""0""
""blur"",""0"",""0""
""focus"",""0"",""2285""
""fullscreenenter"",""0"",""2629""
""fullscreenexit"",""2"",""7895""
""blur"",""3"",""255832""
""focus"",""3"",""18618449""
""blur"",""3"",""18622358""
""focus"",""3"",""18633756""
""blur"",""6"",""18656738""
""focus"",""6"",""18667346""
","""event"",""trial"",""time""
""blur"",""0"",""0""
""blur"",""3"",""255832""
""blur"",""3"",""18622358""
""blur"",""6"",""18656738""
","""event"",""trial"",""time""
""focus"",""0"",""0""
""focus"",""0"",""2285""
""focus"",""3"",""18618449""
""focus"",""3"",""18633756""
""focus"",""6"",""18667346""
","""event"",""trial"",""time""
""fullscreenenter"",""0"",""2629""
","""event"",""trial"",""time""
""fullscreenexit"",""2"",""7895""
","2040","","","","","","","","53","","","","266","probe-226","","","","","1","[object Object]","192","4","1","","","",""
"","html-keyboard-response","92","18928434","0.0-55.0-1.0","""event"",""trial"",""time""
""focus"",""0"",""0""
""blur"",""0"",""0""
""focus"",""0"",""2285""
""fullscreenenter"",""0"",""2629""
""fullscreenexit"",""2"",""7895""
""blur"",""3"",""255832""
""focus"",""3"",""18618449""
""blur"",""3"",""18622358""
""focus"",""3"",""18633756""
""blur"",""6"",""18656738""
""focus"",""6"",""18667346""
","""event"",""trial"",""time""
""blur"",""0"",""0""
""blur"",""3"",""255832""
""blur"",""3"",""18622358""
""blur"",""6"",""18656738""
","""event"",""trial"",""time""
""focus"",""0"",""0""
""focus"",""0"",""2285""
""focus"",""3"",""18618449""
""focus"",""3"",""18633756""
""focus"",""6"",""18667346""
","""event"",""trial"",""time""
""fullscreenenter"",""0"",""2629""
","""event"",""trial"",""time""
""fullscreenexit"",""2"",""7895""
","null","<p></p>","null","","","","","","","","","","","","","","","","","","","","","","","",""
"","do_trial","93","18931251","0.0-56.0-0.0","""event"",""trial"",""time""
""focus"",""0"",""0""
""blur"",""0"",""0""
""focus"",""0"",""2285""
""fullscreenenter"",""0"",""2629""
""fullscreenexit"",""2"",""7895""
""blur"",""3"",""255832""
""focus"",""3"",""18618449""
""blur"",""3"",""18622358""
""focus"",""3"",""18633756""
""blur"",""6"",""18656738""
""focus"",""6"",""18667346""
","""event"",""trial"",""time""
""blur"",""0"",""0""
""blur"",""3"",""255832""
""blur"",""3"",""18622358""
""blur"",""6"",""18656738""
","""event"",""trial"",""time""
""focus"",""0"",""0""
""focus"",""0"",""2285""
""focus"",""3"",""18618449""
""focus"",""3"",""18633756""
""focus"",""6"",""18667346""
","""event"",""trial"",""time""
""fullscreenenter"",""0"",""2629""
","""event"",""trial"",""time""
""fullscreenexit"",""2"",""7895""
","300","","","","","","","","50","0,0,1","6","blank","267","null","0.2823221403933544","0.33421909740528416","0.4193356631552805","0","","","","","","","","",""
"","html-keyboard-response","94","18932259","0.0-56.0-1.0","""event"",""trial"",""time""
""focus"",""0"",""0""
""blur"",""0"",""0""
""focus"",""0"",""2285""
""fullscreenenter"",""0"",""2629""
""fullscreenexit"",""2"",""7895""
""blur"",""3"",""255832""
""focus"",""3"",""18618449""
""blur"",""3"",""18622358""
""focus"",""3"",""18633756""
""blur"",""6"",""18656738""
""focus"",""6"",""18667346""
","""event"",""trial"",""time""
""blur"",""0"",""0""
""blur"",""3"",""255832""
""blur"",""3"",""18622358""
""blur"",""6"",""18656738""
","""event"",""trial"",""time""
""focus"",""0"",""0""
""focus"",""0"",""2285""
""focus"",""3"",""18618449""
""focus"",""3"",""18633756""
""focus"",""6"",""18667346""
","""event"",""trial"",""time""
""fullscreenenter"",""0"",""2629""
","""event"",""trial"",""time""
""fullscreenexit"",""2"",""7895""
","null","<p></p>","null","","","","","","","","","","","","","","","","","","","","","","","",""
"","do_recog","95","18935419","0.0-57.0-0.0","""event"",""trial"",""time""
""focus"",""0"",""0""
""blur"",""0"",""0""
""focus"",""0"",""2285""
""fullscreenenter"",""0"",""2629""
""fullscreenexit"",""2"",""7895""
""blur"",""3"",""255832""
""focus"",""3"",""18618449""
""blur"",""3"",""18622358""
""focus"",""3"",""18633756""
""blur"",""6"",""18656738""
""focus"",""6"",""18667346""
","""event"",""trial"",""time""
""blur"",""0"",""0""
""blur"",""3"",""255832""
""blur"",""3"",""18622358""
""blur"",""6"",""18656738""
","""event"",""trial"",""time""
""focus"",""0"",""0""
""focus"",""0"",""2285""
""focus"",""3"",""18618449""
""focus"",""3"",""18633756""
""focus"",""6"",""18667346""
","""event"",""trial"",""time""
""fullscreenenter"",""0"",""2629""
","""event"",""trial"",""time""
""fullscreenexit"",""2"",""7895""
","1646","","","","","","","","53","","","","268","probe-227","","","","","1","[object Object]","150","3","1","","","",""
"","html-keyboard-response","96","18936429","0.0-57.0-1.0","""event"",""trial"",""time""
""focus"",""0"",""0""
""blur"",""0"",""0""
""focus"",""0"",""2285""
""fullscreenenter"",""0"",""2629""
""fullscreenexit"",""2"",""7895""
""blur"",""3"",""255832""
""focus"",""3"",""18618449""
""blur"",""3"",""18622358""
""focus"",""3"",""18633756""
""blur"",""6"",""18656738""
""focus"",""6"",""18667346""
","""event"",""trial"",""time""
""blur"",""0"",""0""
""blur"",""3"",""255832""
""blur"",""3"",""18622358""
""blur"",""6"",""18656738""
","""event"",""trial"",""time""
""focus"",""0"",""0""
""focus"",""0"",""2285""
""focus"",""3"",""18618449""
""focus"",""3"",""18633756""