"success","trial_type","trial_index","time_elapsed","internal_node_id","interactions","blur_events","focus_events","fullscreenenter_events","fullscreenexit_events","rt","stimulus","key_press","subject_id","participant_id","age","gender","prompt","response","choice_outcomes","context_n","context_img_id","trial_n","probe_img_id","pR_red","pR_white","pR_black","outcome","is_valid","image_to_show","probed_trial","probed_context","correct","probe","probed_trial_n","probed_context_n","context_im"
"true","fullscreen","0","55053","0.0-0.0","""event"",""trial"",""time""
""fullscreenenter"",""0"",""54069""
","
","
","""event"",""trial"",""time""
""fullscreenenter"",""0"",""54069""
","
","","","","","","","","","","","","","","","","","","","","","","","","","","",""
"","pavlovia","1","55066","0.0-1.0","""event"",""trial"",""time""
""fullscreenenter"",""0"",""54069""
","
","
","""event"",""trial"",""time""
""fullscreenenter"",""0"",""54069""
","
","","","","","","","","","","","","","","","","","","","","","","","","","","",""
"","welc_back","2","65547","0.0-2.0","""event"",""trial"",""time""
""fullscreenenter"",""0"",""54069""
","
","
","""event"",""trial"",""time""
""fullscreenenter"",""0"",""54069""
","
","null","run_exp/static/audio/clip_29_welcome_back.m4a","null","461","22","9","Male","<div class='center'><p>Welcome to day 2!</p><p> Yesterday, you were the head captain of a pirate ship. You asked your fellow pirates to rob other ships of their gold across six different islands.</p></div>","","","","","","","","","","","","","","","","","","",""
"","html-keyboard-response","3","67868","0.0-3.0","""event"",""trial"",""time""
""fullscreenenter"",""0"",""54069""
","
","
","""event"",""trial"",""time""
""fullscreenenter"",""0"",""54069""
","
","2317.5999999996275","<div class='center'><p>Welcome to day 2!</p><p> Yesterday, you were the head captain of a pirate ship. You asked your fellow pirates to rob other ships of their gold across six different islands.</p><p><b>[Press the space bar to continue]</b></p></div>","32","","","","","","","","","","","","","","","","","","","","","","","",""
"","day_1_summary_goal","4","85064","0.0-4.0","""event"",""trial"",""time""
""fullscreenenter"",""0"",""54069""
","
","
","""event"",""trial"",""time""
""fullscreenenter"",""0"",""54069""
","
","null","run_exp/static/audio/clip_30_goal_of_game.m4a","null","","","","","<div class='center'><p>Today, like yesterday, you get to pick which pirate you want to rob the next ship.</p><p>If the pirate is successful in robbing a ship, you get gold coins that look like this: </p><p><img src='run_exp/static/images/tutorial/reward.png' height='150'></p><p> If they were not successful in robbing the ship, then you will get no gold coins and you'll see a big red x like this: </p><p><img src='run_exp/static/images/tutorial/reward_no.png' height='150'></p></div>","","","","","","","","","","","","","","","","","","",""
"","html-keyboard-response","5","86463","0.0-5.0","""event"",""trial"",""time""
""fullscreenenter"",""0"",""54069""
","
","
","""event"",""trial"",""time""
""fullscreenenter"",""0"",""54069""
","
","1396.9000000003725","<div class='center'><p>Today, like yesterday, you get to pick which pirate you want to rob the next ship.</p><p>If the pirate is successful in robbing a ship, you get gold coins that look like this: </p><p><img src='run_exp/static/images/tutorial/reward.png' height='150'></p><p> If they were not successful in robbing the ship, then you will get no gold coins and you'll see a big red x like this: </p><p><img src='run_exp/static/images/tutorial/reward_no.png' height='150'></p><p><b>[Press the space bar to continue]</b></p></div>","32","","","","","","","","","","","","","","","","","","","","","","","",""
"","day_1_summary_pick","6","101145","0.0-6.0","""event"",""trial"",""time""
""fullscreenenter"",""0"",""54069""
","
","
","""event"",""trial"",""time""
""fullscreenenter"",""0"",""54069""
","
","null","run_exp/static/audio/clip_31_how_to_pick_a_pirate.m4a","null","","","","","<div class='center'><p>Also, just like yesterday, you will use the 1,2,3 keys on your keyboard to pick a pirate. Press '1' to choose red beard, '2' to choose white beard, and '3' to choose black beard . You only have 3 seconds to pick a pirate, so please make a choice quickly!</p></div>","","","","","","","","","","","","","","","","","","",""
"","html-keyboard-response","7","101673","0.0-7.0","""event"",""trial"",""time""
""fullscreenenter"",""0"",""54069""
","
","
","""event"",""trial"",""time""
""fullscreenenter"",""0"",""54069""
","
","526.5","<div class='center'><p>Also, just like yesterday, you will use the 1,2,3 keys on your keyboard to pick a pirate. Press '1' to choose red beard, '2' to choose white beard, and '3' to choose black beard . You only have 3 seconds to pick a pirate, so please make a choice quickly!</p><p><b>[Press the space bar to continue]</b></p></div>","32","","","","","","","","","","","","","","","","","","","","","","","",""
"","test_phase_begin","8","132067","0.0-8.0","""event"",""trial"",""time""
""fullscreenenter"",""0"",""54069""
","
","
","""event"",""trial"",""time""
""fullscreenenter"",""0"",""54069""
","
","null","run_exp/static/audio/clip_32_final_place.m4a","null","","","","","<div class='center'><p>You’ve arrived at the final island of your journey! Unfortunately, it’s very foggy out, so you won’t be able to see it in the distance like the other islands you've visited.</p><p>You’ll still be deciding which pirate you want to rob a ship like before. However, because of the fog, you also won’t be able to see the ship.</p><p>This means you do not have to remember the ships you rob on this island.</p><p>Unlike yesterday, you won't be visiting multiple islands today. You will stay on this island for the entire game. This game will last ~30 minutes.</p></div>","","","","","","","","","","","","","","","","","","",""
"","html-keyboard-response","9","133309","0.0-9.0","""event"",""trial"",""time""
""fullscreenenter"",""0"",""54069""
","
","
","""event"",""trial"",""time""
""fullscreenenter"",""0"",""54069""
","
","1239.5","<div class='center'><p>You’ve arrived at the final island of your journey! Unfortunately, it’s very foggy out, so you won’t be able to see it in the distance like the other islands you've visited.</p><p>You’ll still be deciding which pirate you want to rob a ship like before. However, because of the fog, you also won’t be able to see the ship.</p><p>This means you do not have to remember the ships you rob on this island.</p><p>Unlike yesterday, you won't be visiting multiple islands today. You will stay on this island for the entire game. This game will last ~30 minutes.</p><p><b>[Press the space bar to continue]</b></p></div>","32","","","","","","","","","","","","","","","","","","","","","","","",""
"","explain_probe_1","10","141027","0.0-10.0","""event"",""trial"",""time""
""fullscreenenter"",""0"",""54069""
","
","
","""event"",""trial"",""time""
""fullscreenenter"",""0"",""54069""
","
","null","run_exp/static/audio/clip_33_recognition_1.m4a","null","","","","","<div class='center'><p> Sometimes you’ll be shown a ship, and you will be asked if you saw this ship on a past island.</p><p> Here is an example of what you will see.</p><p><img src='run_exp/static/images/tutorial/example_recog_trial.png' height='500'></p></div>","","","","","","","","","","","","","","","","","","",""
"","html-keyboard-response","11","144836","0.0-11.0","""event"",""trial"",""time""
""fullscreenenter"",""0"",""54069""
","
","
","""event"",""trial"",""time""
""fullscreenenter"",""0"",""54069""
","
","3807.300000000745","<div class='center'><p> Sometimes you’ll be shown a ship, and you will be asked if you saw this ship on a past island.</p><p> Here is an example of what you will see.</p><p><img src='run_exp/static/images/tutorial/example_recog_trial.png' height='500'></p><p><b>[Press the space bar to continue]</b></p></div>","32","","","","","","","","","","","","","","","","","","","","","","","",""
"","explain_probe_2","12","166547","0.0-12.0","""event"",""trial"",""time""
""fullscreenenter"",""0"",""54069""
","
","
","""event"",""trial"",""time""
""fullscreenenter"",""0"",""54069""
","
","null","run_exp/static/audio/clip_34_recognition_2.m4a","null","","","","","<div class='center'><p> You will press the 5, 6, 7, 8 keys on your keyboard to respond.</p><p>If you are sure you saw the ship, press <b>5</b> on your keyboard.</p><p> If you think you saw it before but aren't sure, then press <b>6</b>.</p><p> If you think you have <b>not</b> seen it before but aren't sure, then press <b>7</b>.</p><p> If you are sure you did <b>not</b> see the ship before, then press <b>8</b>.</p><p><img src='run_exp/static/images/tutorial/example_recog_trial.png' height='500'></p></div>","","","","","","","","","","","","","","","","","","",""
"","html-keyboard-response","13","168331","0.0-13.0","""event"",""trial"",""time""
""fullscreenenter"",""0"",""54069""
","
","
","""event"",""trial"",""time""
""fullscreenenter"",""0"",""54069""
","
","1783","<div class='center'><p> You will press the 5, 6, 7, 8 keys on your keyboard to respond.</p><p>If you are sure you saw the ship, press <b>5</b> on your keyboard.</p><p> If you think you saw it before but aren't sure, then press <b>6</b>.</p><p> If you think you have <b>not</b> seen it before but aren't sure, then press <b>7</b>.</p><p> If you are sure you did <b>not</b> see the ship before, then press <b>8</b>.</p><p><img src='run_exp/static/images/tutorial/example_recog_trial.png' height='500'></p><p><b>[Press the space bar to continue]</b></p></div>","32","","","","","","","","","","","","","","","","","","","","","","","",""
"","explain_outcome","14","185528","0.0-14.0","""event"",""trial"",""time""
""fullscreenenter"",""0"",""54069""
","
","
","""event"",""trial"",""time""
""fullscreenenter"",""0"",""54069""
","
","null","run_exp/static/audio/clip_35_recognition_3.m4a","null","","","","","<div class='center'><p> If you remember correctly, then you’ll get a gold coin like this: </p><p><img src='run_exp/static/images/tutorial/reward_small.png' height='200'></p><p>If you do not remember correctly, then you'll see a red x like this: </p><p><img src='run_exp/static/images/tutorial/reward_no.png' height='200'></p><p>Importantly, when you are shown a ship, take the time to remind yourself which island you saw it on. This will help you in the next part of the study.</p></div>","","","","","","","","","","","","","","","","","","",""
"","html-keyboard-response","15","187237","0.0-15.0","""event"",""trial"",""time""
""fullscreenenter"",""0"",""54069""
","
","
","""event"",""trial"",""time""
""fullscreenenter"",""0"",""54069""
","
","1706.5","<div class='center'><p> If you remember correctly, then you’ll get a gold coin like this: </p><p><img src='run_exp/static/images/tutorial/reward_small.png' height='200'></p><p>If you do not remember correctly, then you'll see a red x like this: </p><p><img src='run_exp/static/images/tutorial/reward_no.png' height='200'></p><p>Importantly, when you are shown a ship, take the time to remind yourself which island you saw it on. This will help you in the next part of the study.</p><p><b>[Press the space bar to continue]</b></p></div>","32","","","","","","","","","","","","","","","","","","","","","","","",""
"","begin_test_phase","16","203046","0.0-16.0","""event"",""trial"",""time""
""fullscreenenter"",""0"",""54069""
","
","
","""event"",""trial"",""time""
""fullscreenenter"",""0"",""54069""
","
","null","run_exp/static/audio/clip_36_begin_final.m4a","null","","","","","<div class='center'><p>Let's go over the important points again. Your job is to: </p><p>1. Pick the pirate who is best at robbing ships and will bring you back gold coins. </p><p>2. Correctly remember whether or not you saw a ship before. If you did see the ship before, remind yourself on which island you saw it. </p></div>","","","","","","","","","","","","","","","","","","",""
"","html-keyboard-response","17","204174","0.0-17.0","""event"",""trial"",""time""
""fullscreenenter"",""0"",""54069""
","
","
","""event"",""trial"",""time""
""fullscreenenter"",""0"",""54069""
","
","1071","<div class='center'><p>Let's go over the important points again. Your job is to: </p><p>1. Pick the pirate who is best at robbing ships and will bring you back gold coins. </p><p>2. Correctly remember whether or not you saw a ship before. If you did see the ship before, remind yourself on which island you saw it. </p><p><b>[Press the space bar to continue]</b></p></div>","32","","","","","","","","","","","","","","","","","","","","","","","",""
"","do_welcome","18","208195","0.0-18.0","""event"",""trial"",""time""
""fullscreenenter"",""0"",""54069""
","
","
","""event"",""trial"",""time""
""fullscreenenter"",""0"",""54069""
","
","null","","","","","","","","null","","","","","","","","","","","","","","","","","",""
"","do_trial","19","212145","0.0-19.0-0.0","""event"",""trial"",""time""
""fullscreenenter"",""0"",""54069""
","
","
","""event"",""trial"",""time""
""fullscreenenter"",""0"",""54069""
","
","1387.7000000001863","","","","","","","","49","0,0,1","6","blank","230","null","0.24157846199872773","0.32907840197940474","0.5725433946641093","0","","","","","","","","",""
"","html-keyboard-response","20","213157","0.0-19.0-1.0","""event"",""trial"",""time""
""fullscreenenter"",""0"",""54069""
","
","
","""event"",""trial"",""time""
""fullscreenenter"",""0"",""54069""
","
","null","<p></p>","null","","","","","","","","","","","","","","","","","","","","","","","",""
"","do_trial","21","216175","0.0-20.0-0.0","""event"",""trial"",""time""
""fullscreenenter"",""0"",""54069""
","
","
","""event"",""trial"",""time""
""fullscreenenter"",""0"",""54069""
","
","437.70000000018626","","","","","","","","49","0,0,1","6","blank","231","null","0.16444307218537024","0.2733653018137883","0.5804765066769726","0","","","","","","","","",""
"","html-keyboard-response","22","217185","0.0-20.0-1.0","""event"",""trial"",""time""
""fullscreenenter"",""0"",""54069""
","
","
","""event"",""trial"",""time""
""fullscreenenter"",""0"",""54069""
","
","null","<p></p>","null","","","","","","","","","","","","","","","","","","","","","","","",""
"","do_trial","23","220111","0.0-21.0-0.0","""event"",""trial"",""time""
""fullscreenenter"",""0"",""54069""
","
","
","""event"",""trial"",""time""
""fullscreenenter"",""0"",""54069""
","
","369.70000000018626","","","","","","","","49","1,0,1","6","blank","232","null","0.17330184280838715","0.3168987364157897","0.63370441975706","1","","","","","","","","",""
"","html-keyboard-response","24","221121","0.0-21.0-1.0","""event"",""trial"",""time""
""fullscreenenter"",""0"",""54069""
","
","
","""event"",""trial"",""time""
""fullscreenenter"",""0"",""54069""
","
","null","<p></p>","null","","","","","","","","","","","","","","","","","","","","","","","",""
"","do_trial","25","224743","0.0-22.0-0.0","""event"",""trial"",""time""
""fullscreenenter"",""0"",""54069""
","
","
","""event"",""trial"",""time""
""fullscreenenter"",""0"",""54069""
","
","1059.3999999994412","","","","","","","","49","0,1,1","6","blank","233","null","0.05668675995398596","0.22945024328338476","0.5915809157145111","0","","","","","","","","",""
"","html-keyboard-response","26","225761","0.0-22.0-1.0","""event"",""trial"",""time""
""fullscreenenter"",""0"",""54069""
","
","
","""event"",""trial"",""time""
""fullscreenenter"",""0"",""54069""
","
","null","<p></p>","null","","","","","","","","","","","","","","","","","","","","","","","",""
"","do_trial","27","228655","0.0-23.0-0.0","""event"",""trial"",""time""
""fullscreenenter"",""0"",""54069""
","
","
","""event"",""trial"",""time""
""fullscreenenter"",""0"",""54069""
","
","330.20000000018626","","","","","","","","50","1,1,1","6","blank","234","null","0.10328207357444597","0.15950999091710988","0.5824943805433268","1","","","","","","","","",""
"","html-keyboard-response","28","229666","0.0-23.0-1.0","""event"",""trial"",""time""
""fullscreenenter"",""0"",""54069""
","
","
","""event"",""trial"",""time""
""fullscreenenter"",""0"",""54069""
","
","null","<p></p>","null","","","","","","","","","","","","","","","","","","","","","","","",""
"","do_trial","29","232886","0.0-24.0-0.0","""event"",""trial"",""time""
""fullscreenenter"",""0"",""54069""
","
","
","""event"",""trial"",""time""
""fullscreenenter"",""0"",""54069""
","
","643.4000000003725","","","","","","","","49","0,0,1","6","blank","235","null","0.09567862102428741","0.2649432935305507","0.685252253518619","0","","","","","","","","",""
"","html-keyboard-response","30","233895","0.0-24.0-1.0","""event"",""trial"",""time""
""fullscreenenter"",""0"",""54069""
","
","
","""event"",""trial"",""time""
""fullscreenenter"",""0"",""54069""
","
","null","<p></p>","null","","","","","","","","","","","","","","","","","","","","","","","",""
"","do_trial","31","237062","0.0-25.0-0.0","""event"",""trial"",""time""
""fullscreenenter"",""0"",""54069""
","
","
","""event"",""trial"",""time""
""fullscreenenter"",""0"",""54069""
","
","583.5","","","","","","","","50","0,0,1","6","blank","236","null","0.1325423483417035","0.3079086616832289","0.7119109874181679","0","","","","","","","","",""
"","html-keyboard-response","32","238072","0.0-25.0-1.0","""event"",""trial"",""time""
""fullscreenenter"",""0"",""54069""
","
","
","""event"",""trial"",""time""
""fullscreenenter"",""0"",""54069""
","
","null","<p></p>","null","","","","","","","","","","","","","","","","","","","","","","","",""
"","do_trial","33","240964","0.0-26.0-0.0","""event"",""trial"",""time""
""fullscreenenter"",""0"",""54069""
","
","
","""event"",""trial"",""time""
""fullscreenenter"",""0"",""54069""
","
","324.40000000037253","","","","","","","","51","0,1,1","6","blank","237","null","0.07198640068415674","0.3175363363876302","0.7035264832476164","1","","","","","","","","",""
"","html-keyboard-response","34","241977","0.0-26.0-1.0","""event"",""trial"",""time""
""fullscreenenter"",""0"",""54069""
","
","
","""event"",""trial"",""time""
""fullscreenenter"",""0"",""54069""
","
","null","<p></p>","null","","","","","","","","","","","","","","","","","","","","","","","",""
"","do_trial","35","245204","0.0-27.0-0.0","""event"",""trial"",""time""
""fullscreenenter"",""0"",""54069""
","
","
","""event"",""trial"",""time""
""fullscreenenter"",""0"",""54069""
","
","658.5","","","","","","","","51","0,0,0","6","blank","238","null","0.08178956470237445","0.382676482933168","0.6478116049448219","0","","","","","","","","",""
"","html-keyboard-response","36","246215","0.0-27.0-1.0","""event"",""trial"",""time""
""fullscreenenter"",""0"",""54069""
","
","
","""event"",""trial"",""time""
""fullscreenenter"",""0"",""54069""
","
","null","<p></p>","null","","","","","","","","","","","","","","","","","","","","","","","",""
"","do_trial","37","249624","0.0-28.0-0.0","""event"",""trial"",""time""
""fullscreenenter"",""0"",""54069""
","
","
","""event"",""trial"",""time""
""fullscreenenter"",""0"",""54069""
","
","852.6000000005588","","","","","","","","50","0,1,1","6","blank","239","null","0.1326050974739075","0.30988813649029534","0.5486308243127479","1","","","","","","","","",""
"","html-keyboard-response","38","250634","0.0-28.0-1.0","""event"",""trial"",""time""
""fullscreenenter"",""0"",""54069""
","
","
","""event"",""trial"",""time""
""fullscreenenter"",""0"",""54069""
","
","null","<p></p>","null","","","","","","","","","","","","","","","","","","","","","","","",""
"","do_trial","39","253610","0.0-29.0-0.0","""event"",""trial"",""time""
""fullscreenenter"",""0"",""54069""
","
","
","""event"",""trial"",""time""
""fullscreenenter"",""0"",""54069""
","
","398.59999999962747","","","","","","","","49","1,0,0","6","blank","240","null","0.31201890279110284","0.17194607625744238","0.4391520354244382","1","","","","","","","","",""
"","html-keyboard-response","40","254615","0.0-29.0-1.0","""event"",""trial"",""time""
""fullscreenenter"",""0"",""54069""
","
","
","""event"",""trial"",""time""
""fullscreenenter"",""0"",""54069""
","
","null","<p></p>","null","","","","","","","","","","","","","","","","","","","","","","","",""
"","do_trial","41","257445","0.0-30.0-0.0","""event"",""trial"",""time""
""fullscreenenter"",""0"",""54069""
","
","
","""event"",""trial"",""time""
""fullscreenenter"",""0"",""54069""
","
","246.29999999981374","","","","","","","","51","0,0,0","6","blank","241","null","0.388229128137653","0.20160247367123976","0.5925199412659282","0","","","","","","","","",""
"","html-keyboard-response","42","258447","0.0-30.0-1.0","""event"",""trial"",""time""
""fullscreenenter"",""0"",""54069""
","
","
","""event"",""trial"",""time""
""fullscreenenter"",""0"",""54069""
","
","null","<p></p>","null","","","","","","","","","","","","","","","","","","","","","","","",""
"","do_trial","43","261363","0.0-31.0-0.0","""event"",""trial"",""time""
""fullscreenenter"",""0"",""54069""
","
","
","""event"",""trial"",""time""
""fullscreenenter"",""0"",""54069""
","
","352.6000000005588","","","","","","","","50","1,0,1","6","blank","242","null","0.5333329300395575","0.15954596481937236","0.4450525004517805","0","","","","","","","","",""
"","html-keyboard-response","44","262368","0.0-31.0-1.0","""event"",""trial"",""time""
""fullscreenenter"",""0"",""54069""
","
","
","""event"",""trial"",""time""
""fullscreenenter"",""0"",""54069""
","
","null","<p></p>","null","","","","","","","","","","","","","","","","","","","","","","","",""
"","do_trial","45","265018","0.0-32.0-0.0","""event"",""trial"",""time""
""fullscreenenter"",""0"",""54069""
","
","
","""event"",""trial"",""time""
""fullscreenenter"",""0"",""54069""
","
","81.5","","","","","","","","51","0,0,0","6","blank","243","null","0.5709893882271125","0.1369247187108138","0.36920323773380814","0","","","","","","","","",""
"","html-keyboard-response","46","266034","0.0-32.0-1.0","""event"",""trial"",""time""
""fullscreenenter"",""0"",""54069""
","
","
","""event"",""trial"",""time""
""fullscreenenter"",""0"",""54069""
","
","null","<p></p>","null","","","","","","","","","","","","","","","","","","","","","","","",""
"","do_trial","47","269023","0.0-33.0-0.0","""event"",""trial"",""time""
""fullscreenenter"",""0"",""54069""
","
","
","""event"",""trial"",""time""
""fullscreenenter"",""0"",""54069""
","
","412.19999999925494","","","","","","","","49","1,1,0","6","blank","244","null","0.4687605669198293","0.07299657337063442","0.3230312338488572","1","","","","","","","","",""
"","html-keyboard-response","48","270027","0.0-33.0-1.0","""event"",""trial"",""time""
""fullscreenenter"",""0"",""54069""
","
","
","""event"",""trial"",""time""
""fullscreenenter"",""0"",""54069""
","
","null","<p></p>","null","","","","","","","","","","","","","","","","","","","","","","","",""
"","do_trial","49","272869","0.0-34.0-0.0","""event"",""trial"",""time""
""fullscreenenter"",""0"",""54069""
","
","
","""event"",""trial"",""time""
""fullscreenenter"",""0"",""54069""
","
","272.70000000018626","","","","","","","","49","1,0,1","6","blank","245","null","0.5464570653246418","0.1019878751003016","0.31124404508020215","1","","","","","","","","",""
"","html-keyboard-response","50","273878","0.0-34.0-1.0","""event"",""trial"",""time""
""fullscreenenter"",""0"",""54069""
","
","
","""event"",""trial"",""time""
""fullscreenenter"",""0"",""54069""
","
","null","<p></p>","null","","","","","","","","","","","","","","","","","","","","","","","",""
"","do_recog","51","279900","0.0-35.0-0.0","""event"",""trial"",""time""
""fullscreenenter"",""0"",""54069""
","
","
","""event"",""trial"",""time""
""fullscreenenter"",""0"",""54069""
","
","null","","","","","","","","null","","","","246","probe-143","","","","","1","[object Object]","115","2","0","","","",""
"","html-keyboard-response","52","280912","0.0-35.0-1.0","""event"",""trial"",""time""
""fullscreenenter"",""0"",""54069""
","
","
","""event"",""trial"",""time""
""fullscreenenter"",""0"",""54069""
","
","null","<p></p>","null","","","","","","","","","","","","","","","","","","","","","","","",""
"","do_trial","53","284629","0.0-36.0-0.0","""event"",""trial"",""time""
""fullscreenenter"",""0"",""54069""
","
","
","""event"",""trial"",""time""
""fullscreenenter"",""0"",""54069""
","
","1135.9000000003725","","","","","","","","49","0,0,0","6","blank","247","null","0.431102162977203","0.2939154878471592","0.2977376497769181","0","","","","","","","","",""
"","html-keyboard-response","54","285640","0.0-36.0-1.0","""event"",""trial"",""time""
""fullscreenenter"",""0"",""54069""
","
","
","""event"",""trial"",""time""
""fullscreenenter"",""0"",""54069""
","
","null","<p></p>","null","","","","","","","","","","","","","","","","","","","","","","","",""
"","do_recog","55","289994","0.0-37.0-0.0","""event"",""trial"",""time""
""fullscreenenter"",""0"",""54069""
","
","
","""event"",""trial"",""time""
""fullscreenenter"",""0"",""54069""
","
","2831.899999999441","","","","","","","","56","","","","248","probe-189","","","","","1","[object Object]","31","0","0","","","",""
"","html-keyboard-response","56","290999","0.0-37.0-1.0","""event"",""trial"",""time""
""fullscreenenter"",""0"",""54069""
","
","
","""event"",""trial"",""time""
""fullscreenenter"",""0"",""54069""
","
","null","<p></p>","null","","","","","","","","","","","","","","","","","","","","","","","",""
"","do_trial","57","294964","0.0-38.0-0.0","""event"",""trial"",""time""
""fullscreenenter"",""0"",""54069""
","
","
","""event"",""trial"",""time""
""fullscreenenter"",""0"",""54069""
","
","1375.5","","","","","","","","49","0,0,1","6","blank","249","null","0.36491929614398727","0.15788653226049262","0.5246657695135629","0","","","","","","","","",""
"","html-keyboard-response","58","295971","0.0-38.0-1.0","""event"",""trial"",""time""
""fullscreenenter"",""0"",""54069""
","
","
","""event"",""trial"",""time""
""fullscreenenter"",""0"",""54069""
","
","null","<p></p>","null","","","","","","","","","","","","","","","","","","","","","","","",""
"","do_trial","59","299347","0.0-39.0-0.0","""event"",""trial"",""time""
""fullscreenenter"",""0"",""54069""
","
","
","""event"",""trial"",""time""
""fullscreenenter"",""0"",""54069""
","
","805.1000000005588","","","","","","","","50","0,1,0","6","blank","250","null","0.44726330307001827","0.20658413801591224","0.39335314400266164","1","","","","","","","","",""
"","html-keyboard-response","60","300352","0.0-39.0-1.0","""event"",""trial"",""time""
""fullscreenenter"",""0"",""54069""
","
","
","""event"",""trial"",""time""
""fullscreenenter"",""0"",""54069""
","
","null","<p></p>","null","","","","","","","","","","","","","","","","","","","","","","","",""
"","do_trial","61","303819","0.0-40.0-0.0","""event"",""trial"",""time""
""fullscreenenter"",""0"",""54069""
","
","
","""event"",""trial"",""time""
""fullscreenenter"",""0"",""54069""
","
","889.0999999996275","","","","","","","","49","1,0,1","6","blank","251","null","0.4993419825525773","0.1405867785413294","0.2863280435948398","1","","","","","","","","",""
"","html-keyboard-response","62","304823","0.0-40.0-1.0","""event"",""trial"",""time""
""fullscreenenter"",""0"",""54069""
","
","
","""event"",""trial"",""time""
""fullscreenenter"",""0"",""54069""
","
","null","<p></p>","null","","","","","","","","","","","","","","","","","","","","","","","",""
"","do_recog","63","308637","0.0-41.0-0.0","""event"",""trial"",""time""
""fullscreenenter"",""0"",""54069""
","
","
","""event"",""trial"",""time""
""fullscreenenter"",""0"",""54069""
","
","2291.100000000559","","","","","","","","53","","","","252","probe-60","","","","","1","[object Object]","195","4","1","","","",""
"","html-keyboard-response","64","309646","0.0-41.0-1.0","""event"",""trial"",""time""
""fullscreenenter"",""0"",""54069""
","
","
","""event"",""trial"",""time""
""fullscreenenter"",""0"",""54069""
","
","null","<p></p>","null","","","","","","","","","","","","","","","","","","","","","","","",""
"","do_trial","65","313614","0.0-42.0-0.0","""event"",""trial"",""time""
""fullscreenenter"",""0"",""54069""
","
","
","""event"",""trial"",""time""
""fullscreenenter"",""0"",""54069""
","
","1410.2000000001863","","","","","","","","49","0,0,0","6","blank","253","null","0.5458904344164717","0.1510720972939105","0.20568580819241966","0","","","","","","","","",""
"","html-keyboard-response","66","314621","0.0-42.0-1.0","""event"",""trial"",""time""
""fullscreenenter"",""0"",""54069""
","
","
","""event"",""trial"",""time""
""fullscreenenter"",""0"",""54069""
","
","null","<p></p>","null","","","","","","","","","","","","","","","","","","","","","","","",""
"","do_recog","67","318248","0.0-43.0-0.0","""event"",""trial"",""time""
""fullscreenenter"",""0"",""54069""
","
","
","""event"",""trial"",""time""
""fullscreenenter"",""0"",""54069""
","
","2102.9000000003725","","","","","","","","56","","","","254","probe-235","","","","","0","[object Object]","null","null","1","","","",""
"","html-keyboard-response","68","319252","0.0-43.0-1.0","""event"",""trial"",""time""
""fullscreenenter"",""0"",""54069""
","
","
","""event"",""trial"",""time""
""fullscreenenter"",""0"",""54069""
","
","null","<p></p>","null","","","","","","","","","","","","","","","","","","","","","","","",""
"","do_trial","69","323277","0.0-44.0-0.0","""event"",""trial"",""time""
""fullscreenenter"",""0"",""54069""
","
","
","""event"",""trial"",""time""
""fullscreenenter"",""0"",""54069""
","
","1462.2000000001863","","","","","","","","50","1,0,0","6","blank","255","null","0.6809232403216836","0.15131745398468707","0.3590048014863418","0","","","","","","","","",""
"","html-keyboard-response","70","324284","0.0-44.0-1.0","""event"",""trial"",""time""
""fullscreenenter"",""0"",""54069""
","
","
","""event"",""trial"",""time""
""fullscreenenter"",""0"",""54069""
","
","null","<p></p>","null","","","","","","","","","","","","","","","","","","","","","","","",""
"","do_trial","71","327226","0.0-45.0-0.0","""event"",""trial"",""time""
""fullscreenenter"",""0"",""54069""
","
","
","""event"",""trial"",""time""
""fullscreenenter"",""0"",""54069""
","
","371.70000000018626","","","","","","","","51","0,0,1","6","blank","256","null","0.7648109825022233","0.16831538316686298","0.38593993905369345","1","","","","","","","","",""
"","html-keyboard-response","72","328235","0.0-45.0-1.0","""event"",""trial"",""time""
""fullscreenenter"",""0"",""54069""
","
","
","""event"",""trial"",""time""
""fullscreenenter"",""0"",""54069""
","
","null","<p></p>","null","","","","","","","","","","","","","","","","","","","","","","","",""
"","do_recog","73","334265","0.0-46.0-0.0","""event"",""trial"",""time""
""fullscreenenter"",""0"",""54069""
","
","
","""event"",""trial"",""time""
""fullscreenenter"",""0"",""54069""
","
","null","","","","","","","","null","","","","257","probe-213","","","","","1","[object Object]","119","2","0","","","",""
"","html-keyboard-response","74","335270","0.0-46.0-1.0","""event"",""trial"",""time""
""fullscreenenter"",""0"",""54069""
","
","
","""event"",""trial"",""time""
""fullscreenenter"",""0"",""54069""
","
","null","<p></p>","null","","","","","","","","","","","","","","","","","","","","","","","",""
"","do_trial","75","338657","0.0-47.0-0.0","""event"",""trial"",""time""
""fullscreenenter"",""0"",""54069""
","
","
","""event"",""trial"",""time""
""fullscreenenter"",""0"",""54069""
","
","811.7999999998137","","","","","","","","49","1,0,0","6","blank","258","null","0.8231842175226669","0.08647074250386012","0.3532983630273664","1","","","","","","","","",""
"","html-keyboard-response","76","339662","0.0-47.0-1.0","""event"",""trial"",""time""
""fullscreenenter"",""0"",""54069""
","
","
","""event"",""trial"",""time""
""fullscreenenter"",""0"",""54069""
","
","null","<p></p>","null","","","","","","","","","","","","","","","","","","","","","","","",""
"","do_trial","77","342577","0.0-48.0-0.0","""event"",""trial"",""time""
""fullscreenenter"",""0"",""54069""
","
","
","""event"",""trial"",""time""
""fullscreenenter"",""0"",""54069""
","
","357.79999999981374","","","","","","","","50","1,1,1","6","blank","259","null","0.770287434697623","0.09716421430959271","0.4006861544585929","1","","","","","","","","",""
"","html-keyboard-response","78","343580","0.0-48.0-1.0","""event"",""trial"",""time""
""fullscreenenter"",""0"",""54069""
","
","
","""event"",""trial"",""time""
""fullscreenenter"",""0"",""54069""
","
","null","<p></p>","null","","","","","","","","","","","","","","","","","","","","","","","",""
"","do_trial","79","346618","0.0-49.0-0.0","""event"",""trial"",""time""
""fullscreenenter"",""0"",""54069""
","
","
","""event"",""trial"",""time""
""fullscreenenter"",""0"",""54069""
","
","476.59999999962747","","","","","","","","51","1,0,0","6","blank","260","null","0.7425964565496999","0.12493435249199415","0.3223130712769185","0","","","","","","","","",""
"","html-keyboard-response","80","347626","0.0-49.0-1.0","""event"",""trial"",""time""
""fullscreenenter"",""0"",""54069""
","
","
","""event"",""trial"",""time""
""fullscreenenter"",""0"",""54069""
","
","null","<p></p>","null","","","","","","","","","","","","","","","","","","","","","","","",""
"","do_recog","81","351161","0.0-50.0-0.0","""event"",""trial"",""time""
""fullscreenenter"",""0"",""54069""
","
","
","""event"",""trial"",""time""
""fullscreenenter"",""0"",""54069""
","
","2016.7999999998137","","","","","","","","53","","","","261","probe-85","","","","","1","[object Object]","30","0","1","","","",""
"","html-keyboard-response","82","352177","0.0-50.0-1.0","""event"",""trial"",""time""
""fullscreenenter"",""0"",""54069""
","
","
","""event"",""trial"",""time""
""fullscreenenter"",""0"",""54069""
","
","null","<p></p>","null","","","","","","","","","","","","","","","","","","","","","","","",""
"","do_trial","83","355716","0.0-51.0-0.0","""event"",""trial"",""time""
""fullscreenenter"",""0"",""54069""
","
","
","""event"",""trial"",""time""
""fullscreenenter"",""0"",""54069""
","
","977.7000000001863","","","","","","","","49","1,0,0","6","blank","262","null","0.6096559752284364","0.07695580976883841","0.2514512828281764","1","","","","","","","","",""
"","html-keyboard-response","84","356724","0.0-51.0-1.0","""event"",""trial"",""time""
""fullscreenenter"",""0"",""54069""
","
","
","""event"",""trial"",""time""
""fullscreenenter"",""0"",""54069""
","
","null","<p></p>","null","","","","","","","","","","","","","","","","","","","","","","","",""
"","do_trial","85","359927","0.0-52.0-0.0","""event"",""trial"",""time""
""fullscreenenter"",""0"",""54069""
","
","
","""event"",""trial"",""time""
""fullscreenenter"",""0"",""54069""
","
","642.4000000003725","","","","","","","","50","1,0,1","6","blank","263","null","0.6017118362490221","0.08115628796349789","0.414890507175566","0","","","","","","","","",""
"","html-keyboard-response","86","360932","0.0-52.0-1.0","""event"",""trial"",""time""
""fullscreenenter"",""0"",""54069""
","
","
","""event"",""trial"",""time""
""fullscreenenter"",""0"",""54069""
","
","null","<p></p>","null","","","","","","","","","","","","","","","","","","","","","","","",""
"","do_trial","87","363828","0.0-53.0-0.0","""event"",""trial"",""time""
""fullscreenenter"",""0"",""54069""
","
","
","""event"",""trial"",""time""
""fullscreenenter"",""0"",""54069""
","
","330","","","","","","","","49","1,0,1","6","blank","264","null","0.5838800188102075","0.11957831402413213","0.3556002620013847","1","","","","","","","","",""
"","html-keyboard-response","88","364833","0.0-53.0-1.0","""event"",""trial"",""time""
""fullscreenenter"",""0"",""54069""
","
","
","""event"",""trial"",""time""
""fullscreenenter"",""0"",""54069""
","
","null","<p></p>","null","","","","","","","","","","","","","","","","","","","","","","","",""
"","do_trial","89","368011","0.0-54.0-0.0","""event"",""trial"",""time""
""fullscreenenter"",""0"",""54069""
","
","
","""event"",""trial"",""time""
""fullscreenenter"",""0"",""54069""
","
","611.7000000001863","","","","","","","","51","1,0,1","6","blank","265","null","0.4589441178312721","0.054974939433668546","0.31860913862744256","1","","","","","","","","",""
"","html-keyboard-response","90","369021","0.0-54.0-1.0","""event"",""trial"",""time""
""fullscreenenter"",""0"",""54069""
","
","
","""event"",""trial"",""time""
""fullscreenenter"",""0"",""54069""
","
","null","<p></p>","null","","","","","","","","","","","","","","","","","","","","","","","",""
"","do_recog","91","372441","0.0-55.0-0.0","""event"",""trial"",""time""
""fullscreenenter"",""0"",""54069""
","
","
","""event"",""trial"",""time""
""fullscreenenter"",""0"",""54069""
","
","1905.7000000001863","","","","","","","","53","","","","266","probe-231","","","","","0","[object Object]","null","null","0","","","",""
"","html-keyboard-response","92","373452","0.0-55.0-1.0","""event"",""trial"",""time""
""fullscreenenter"",""0"",""54069""
","
","
","""event"",""trial"",""time""
""fullscreenenter"",""0"",""54069""
","
","null","<p></p>","null","","","","","","","","","","","","","","","","","","","","","","","",""
"","do_trial","93","376954","0.0-56.0-0.0","""event"",""trial"",""time""
""fullscreenenter"",""0"",""54069""
","
","
","""event"",""trial"",""time""
""fullscreenenter"",""0"",""54069""
","
","931","","","","","","","","49","1,0,0","6","blank","267","null","0.4390803289308146","0.12134334706572648","0.29256511271579283","1","","","","","","","","",""
"","html-keyboard-response","94","377966","0.0-56.0-1.0","""event"",""trial"",""time""
""fullscreenenter"",""0"",""54069""
","
","
","""event"",""trial"",""time""
""fullscreenenter"",""0"",""54069""
","
","null","<p></p>","null","","","","","","","","","","","","","","","","","","","","","","","",""
"","do_trial","95","380913","0.0-57.0-0.0","""event"",""trial"",""time""
""fullscreenenter"",""0"",""54069""
","
","
","""event"",""trial"",""time""
""fullscreenenter"",""0"",""54069""
","
","375.5","","","","","","","","51","1,0,0","6","blank","268","null","0.6776541431713947","0.1848371855918038","0.2521283819760513","0","","","","","","","","",""
"","html-keyboard-response","96","381924","0.0-57.0-1.0","""event"",""trial"",""time""
""fullscreenenter"",""0"",""54069""
","
","
","""event"",""trial"",""time""
""fullscreenenter"",""0"",""54069""
","
","null","<p></p>","null","","","","","","","","","","","","","","","","","","","","","","","",""
"","break","97","384965","0.0-58.0-0.0","""event"",""trial"",""time""
""fullscreenenter"",""0"",""54069""
","
","
","""event"",""trial"",""time""
""fullscreenenter"",""0"",""54069""
","
","3038","<div class='center'><p>Time to take a quick break! You have 2 minutes to rest, but you can move on sooner if you'd like.</p><p> Press the <b>space bar</b> to continue.</p></div>","32","","","","","","","","","","","","","","","","","","","","","","","",""
"","do_trial","98","388326","0.0-58.0-1.0","""event"",""trial"",""time""
""fullscreenenter"",""0"",""54069""
","
","
","""event"",""trial"",""time""
""fullscreenenter"",""0"",""54069""
","
","798.0999999996275","","","","","","","","49","1,0,1","6","blank","269","null","0.6184267156935095","0.0802494236298379","0.37208988551241406","1","","","","","","","","",""
"","html-keyboard-response","99","389329","0.0-58.0-2.0","""event"",""trial"",""time""
""fullscreenenter"",""0"",""54069""
","
","
","""event"",""trial"",""time""
""fullscreenenter"",""0"",""54069""
","
","null","<p></p>","null","","","","","","","","","","","","","","","","","","","","","","","",""
"","do_trial","100","392712","0.0-59.0-0.0","""event"",""trial"",""time""
""fullscreenenter"",""0"",""54069""
","
","
","""event"",""trial"",""time""
""fullscreenenter"",""0"",""54069""
","
","825.0999999996275","","","","","","","","49","0,0,0","6","blank","270","null","0.6714765912751725","0.09687671307248145","0.4282111486131208","0","","","","","","","","",""
"","html-keyboard-response","101","393720","0.0-59.0-1.0","""event"",""trial"",""time""
""fullscreenenter"",""0"",""54069""
","
","
","""event"",""trial"",""time""
""fullscreenenter"",""0"",""54069""
","
","null","<p></p>","null","","","","","","","","","","","","","","","","","","","","","","","",""
"","do_trial","102","396776","0.0-60.0-0.0","""event"",""trial"",""time""
""fullscreenenter"",""0"",""54069""
","
","
","""event"",""trial"",""time""
""fullscreenenter"",""0"",""54069""
","
","492.8999999994412","","","","","","","","51","1,0,1","6","blank","271","null","0.6078196906237896","0.126549434529133","0.4683599775035337","1","","","","","","","","",""
"","html-keyboard-response","103","397787","0.0-60.0-1.0","""event"",""trial"",""time""
""fullscreenenter"",""0"",""54069""
","
","
","""event"",""trial"",""time""
""fullscreenenter"",""0"",""54069""
","
","null","<p></p>","null","","","","","","","","","","","","","","","","","","","","","","","",""
"","do_trial","104","401291","0.0-61.0-0.0","""event"",""trial"",""time""
""fullscreenenter"",""0"",""54069""
","
","
","""event"",""trial"",""time""
""fullscreenenter"",""0"",""54069""
","
","927","","","","","","","","50","0,0,1","6","blank","272","null","0.6538701944702482","0.05217872988811626","0.37581040314393577","0","","","","","","","","",""
"","html-keyboard-response","105","402297","0.0-61.0-1.0","""event"",""trial"",""time""
""fullscreenenter"",""0"",""54069""
","
","
","""event"",""trial"",""time""
""fullscreenenter"",""0"",""54069""
","
","null","<p></p>","null","","","","","","","","","","","","","","","","","","","","","","","",""
"","do_recog","106","405735","0.0-62.0-0.0","""event"",""trial"",""time""
""fullscreenenter"",""0"",""54069""
","
","
","""event"",""trial"",""time""
""fullscreenenter"",""0"",""54069""
","
","1923.8999999994412","","","","","","","","56","","","","273","probe-18","","","","","1","[object Object]","197","4","0","","","",""
"","html-keyboard-response","107","406745","0.0-62.0-1.0","""event"",""trial"",""time""
""fullscreenenter"",""0"",""54069""
","
","
","""event"",""trial"",""time""
""fullscreenenter"",""0"",""54069""
","
","null","<p></p>","null","","","","","","","","","","","","","","","","","","","","","","","",""
"","do_trial","108","410082","0.0-63.0-0.0","""event"",""trial"",""time""
""fullscreenenter"",""0"",""54069""
","
","
","""event"",""trial"",""time""
""fullscreenenter"",""0"",""54069""
","
","772.5","","","","","","","","49","1,0,0","6","blank","274","null","0.5977016083758796","0.14564592811375773","0.13566225503001922","1","","","","","","","","",""
"","html-keyboard-response","109","411090","0.0-63.0-1.0","""event"",""trial"",""time""
""fullscreenenter"",""0"",""54069""
","
","
","""event"",""trial"",""time""
""fullscreenenter"",""0"",""54069""
","
","null","<p></p>","null","","","","","","","","","","","","","","","","","","","","","","","",""
"","do_trial","110","414310","0.0-64.0-0.0","""event"",""trial"",""time""
""fullscreenenter"",""0"",""54069""
","
","
","""event"",""trial"",""time""
""fullscreenenter"",""0"",""54069""
","
","658","","","","","","","","50","0,0,1","6","blank","275","null","0.5377000824891655","0.08723592688517623","0.20344758306151817","0","","","","","","","","",""
"","html-keyboard-response","111","415319","0.0-64.0-1.0","""event"",""trial"",""time""
""fullscreenenter"",""0"",""54069""
","
","
","""event"",""trial"",""time""
""fullscreenenter"",""0"",""54069""
","
","null","<p></p>","null","","","","","","","","","","","","","","","","","","","","","","","",""
"","do_trial","112","418211","0.0-65.0-0.0","""event"",""trial"",""time""
""fullscreenenter"",""0"",""54069""
","
","
","""event"",""trial"",""time""
""fullscreenenter"",""0"",""54069""
","
","317.29999999981374","","","","","","","","51","1,0,0","6","blank","276","null","0.5545745277659478","0.08369535438706516","0.15582814423917796","0","","","","","","","","",""
"","html-keyboard-response","113","419221","0.0-65.0-1.0","""event"",""trial"",""time""
""fullscreenenter"",""0"",""54069""
","
","
","""event"",""trial"",""time""
""fullscreenenter"",""0"",""54069""
","
","null","<p></p>","null","","","","","","","","","","","","","","","","","","","","","","","",""
"","do_recog","114","422382","0.0-66.0-0.0","""event"",""trial"",""time""
""fullscreenenter"",""0"",""54069""
","
","
","""event"",""trial"",""time""
""fullscreenenter"",""0"",""54069""
","
","1648.5999999996275","","","","","","","","56","","","","277","probe-220","","","","","1","[object Object]","75","1","0","","","",""
"","html-keyboard-response","115","423397","0.0-66.0-1.0","""event"",""trial"",""time""
""fullscreenenter"",""0"",""54069""
","
","
","""event"",""trial"",""time""
""fullscreenenter"",""0"",""54069""
","
","null","<p></p>","null","","","","","","","","","","","","","","","","","","","","","","","",""
"","do_trial","116","426621","0.0-67.0-0.0","""event"",""trial"",""time""
""fullscreenenter"",""0"",""54069""
","
","
","""event"",""trial"",""time""
""fullscreenenter"",""0"",""54069""
","
","645.3999999994412","","","","","","","","49","1,0,0","6","blank","278","null","0.6181184643677284","0.052716357688449005","0.10072989487927038","1","","","","","","","","",""
"","html-keyboard-response","117","427630","0.0-67.0-1.0","""event"",""trial"",""time""
""fullscreenenter"",""0"",""54069""
","
","
","""event"",""trial"",""time""
""fullscreenenter"",""0"",""54069""
","
","null","<p></p>","null","","","","","","","","","","","","","","","","","","","","","","","",""
"","do_trial","118","430509","0.0-68.0-0.0","""event"",""trial"",""time""
""fullscreenenter"",""0"",""54069""
","
","
","""event"",""trial"",""time""
""fullscreenenter"",""0"",""54069""
","
","313.79999999981374","","","","","","","","49","1,0,0","6","blank","279","null","0.446872665227384","0.16467663555639064","0.09376778239121508","1","","","","","","","","",""
"","html-keyboard-response","119","431529","0.0-68.0-1.0","""event"",""trial"",""time""
""fullscreenenter"",""0"",""54069""
","
","
","""event"",""trial"",""time""
""fullscreenenter"",""0"",""54069""
","
","null","<p></p>","null","","","","","","","","","","","","","","","","","","","","","","","",""
"","do_recog","120","434259","0.0-69.0-0.0","""event"",""trial"",""time""
""fullscreenenter"",""0"",""54069""
","
","
","""event"",""trial"",""time""
""fullscreenenter"",""0"",""54069""
","
","1203.5999999996275","","","","","","","","53","","","","280","probe-49","","","","","1","[object Object]","70","1","1","","","",""
"","html-keyboard-response","121","435269","0.0-69.0-1.0","""event"",""trial"",""time""
""fullscreenenter"",""0"",""54069""
","
","
","""event"",""trial"",""time""
""fullscreenenter"",""0"",""54069""
","
","null","<p></p>","null","","","","","","","","","","","","","","","","","","","","","","","",""
"","do_trial","122","438318","0.0-70.0-0.0","""event"",""trial"",""time""
""fullscreenenter"",""0"",""54069""
","
","
","""event"",""trial"",""time""
""fullscreenenter"",""0"",""54069""
","
","475.79999999981374","","","","","","","","49","1,1,0","6","blank","281","null","0.38264179771249196","0.22244934168148603","0.2998551714477328","1","","","","","","","","",""
"","html-keyboard-response","123","439320","0.0-70.0-1.0","""event"",""trial"",""time""
""fullscreenenter"",""0"",""54069""
","
","
","""event"",""trial"",""time""
""fullscreenenter"",""0"",""54069""
","
","null","<p></p>","null","","","","","","","","","","","","","","","","","","","","","","","",""
"","do_trial","124","442319","0.0-71.0-0.0","""event"",""trial"",""time""
""fullscreenenter"",""0"",""54069""
","
","
","""event"",""trial"",""time""
""fullscreenenter"",""0"",""54069""
","
","425.5","","","","","","","","49","1,0,0","6","blank","282","null","0.311802360201856","0.20320708122109518","0.41749922223226327","1","","","","","","","","",""
"","html-keyboard-response","125","443323","0.0-71.0-1.0","""event"",""trial"",""time""
""fullscreenenter"",""0"",""54069""
","
","
","""event"",""trial"",""time""
""fullscreenenter"",""0"",""54069""
","
","null","<p></p>","null","","","","","","","","","","","","","","","","","","","","","","","",""
"","do_trial","126","446205","0.0-72.0-0.0","""event"",""trial"",""time""
""fullscreenenter"",""0"",""54069""
","
","
","""event"",""trial"",""time""
""fullscreenenter"",""0"",""54069""
","
","324","","","","","","","","49","1,0,0","6","blank","283","null","0.3348930682043812","0.20516259475414153","0.41531119817458356","1","","","","","","","","",""
"","html-keyboard-response","127","447212","0.0-72.0-1.0","""event"",""trial"",""time""
""fullscreenenter"",""0"",""54069""
","
","
","""event"",""trial"",""time""
""fullscreenenter"",""0"",""54069""
","
","null","<p></p>","null","","","","","","","","","","","","","","","","","","","","","","","",""
"","do_trial","128","450139","0.0-73.0-0.0","""event"",""trial"",""time""
""fullscreenenter"",""0"",""54069""
","
","
","""event"",""trial"",""time""
""fullscreenenter"",""0"",""54069""
","
","341","","","","","","","","49","1,0,0","6","blank","284","null","0.4540101810492023","0.054069945937470186","0.46642751757859324","1","","","","","","","","",""
"","html-keyboard-response","129","451151","0.0-73.0-1.0","""event"",""trial"",""time""
""fullscreenenter"",""0"",""54069""
","
","
","""event"",""trial"",""time""
""fullscreenenter"",""0"",""54069""
","
","null","<p></p>","null","","","","","","","","","","","","","","","","","","","","","","","",""
"","do_recog","130","453875","0.0-74.0-0.0","""event"",""trial"",""time""
""fullscreenenter"",""0"",""54069""
","
","
","""event"",""trial"",""time""
""fullscreenenter"",""0"",""54069""
","
","1211.8999999994412","","","","","","","","53","","","","285","probe-107","","","","","1","[object Object]","77","1","1","","","",""
"","html-keyboard-response","131","454888","0.0-74.0-1.0","""event"",""trial"",""time""
""fullscreenenter"",""0"",""54069""
","
","
","""event"",""trial"",""time""
""fullscreenenter"",""0"",""54069""
","
","null","<p></p>","null","","","","","","","","","","","","","","","","","","","","","","","",""
"","do_trial","132","457795","0.0-75.0-0.0","""event"",""trial"",""time""
""fullscreenenter"",""0"",""54069""
","
","
","""event"",""trial"",""time""
""fullscreenenter"",""0"",""54069""
","
","339.70000000018626","","","","","","","","49","0,0,1","6","blank","286","null","0.4413891195253254","0.14845891605377426","0.37036386364164364","0","","","","","","","","",""
"","html-keyboard-response","133","458808","0.0-75.0-1.0","""event"",""trial"",""time""
""fullscreenenter"",""0"",""54069""
","
","
","""event"",""trial"",""time""
""fullscreenenter"",""0"",""54069""
","
","null","<p></p>","null","","","","","","","","","","","","","","","","","","","","","","","",""
"","do_trial","134","461759","0.0-76.0-0.0","""event"",""trial"",""time""
""fullscreenenter"",""0"",""54069""
","
","
","""event"",""trial"",""time""
""fullscreenenter"",""0"",""54069""
","
","369.5","","","","","","","","49","1,1,0","6","blank","287","null","0.4865760363720043","0.14018315987531682","0.3271954479380025","1","","","","","","","","",""
"","html-keyboard-response","135","462775","0.0-76.0-1.0","""event"",""trial"",""time""
""fullscreenenter"",""0"",""54069""
","
","
","""event"",""trial"",""time""
""fullscreenenter"",""0"",""54069""
","
","null","<p></p>","null","","","","","","","","","","","","","","","","","","","","","","","",""
"","do_trial","136","465745","0.0-77.0-0.0","""event"",""trial"",""time""
""fullscreenenter"",""0"",""54069""
","
","
","""event"",""trial"",""time""
""fullscreenenter"",""0"",""54069""
","
","398","","","","","","","","49","1,0,1","6","blank","288","null","0.6161770828640443","0.11160172223418714","0.19931361545253687","1","","","","","","","","",""
"","html-keyboard-response","137","466749","0.0-77.0-1.0","""event"",""trial"",""time""
""fullscreenenter"",""0"",""54069""
","
","
","""event"",""trial"",""time""
""fullscreenenter"",""0"",""54069""
","
","null","<p></p>","null","","","","","","","","","","","","","","","","","","","","","","","",""
"","do_trial","138","469675","0.0-78.0-0.0","""event"",""trial"",""time""
""fullscreenenter"",""0"",""54069""
","
","
","""event"",""trial"",""time""
""fullscreenenter"",""0"",""54069""
","
","362.70000000018626","","","","","","","","49","1,1,1","6","blank","289","null","0.6218755004628421","0.24841641329468062","0.39820095899664715","1","","","","","","","","",""
"","html-keyboard-response","139","470682","0.0-78.0-1.0","""event"",""trial"",""time""
""fullscreenenter"",""0"",""54069""
","
","
","""event"",""trial"",""time""
""fullscreenenter"",""0"",""54069""
","
","null","<p></p>","null","","","","","","","","","","","","","","","","","","","","","","","",""
"","do_trial","140","473602","0.0-79.0-0.0","""event"",""trial"",""time""
""fullscreenenter"",""0"",""54069""
","
","
","""event"",""trial"",""time""
""fullscreenenter"",""0"",""54069""
","
","362.5","","","","","","","","49","1,1,0","6","blank","290","null","0.5724036614498509","0.2111865593731321","0.39615417161244887","1","","","","","","","","",""
"","html-keyboard-response","141","474609","0.0-79.0-1.0","""event"",""trial"",""time""
""fullscreenenter"",""0"",""54069""
","
","
","""event"",""trial"",""time""
""fullscreenenter"",""0"",""54069""
","
","null","<p></p>","null","","","","","","","","","","","","","","","","","","","","","","","",""
"","do_trial","142","478170","0.0-80.0-0.0","""event"",""trial"",""time""
""fullscreenenter"",""0"",""54069""
","
","
","""event"",""trial"",""time""
""fullscreenenter"",""0"",""54069""
","
","980.2000000001863","","","","","","","","49","1,0,1","6","blank","291","null","0.5621057162867386","0.21309361437595492","0.33480658255481266","1","","","","","","","","",""
"","html-keyboard-response","143","479185","0.0-80.0-1.0","""event"",""trial"",""time""
""fullscreenenter"",""0"",""54069""
","
","
","""event"",""trial"",""time""
""fullscreenenter"",""0"",""54069""
","
","null","<p></p>","null","","","","","","","","","","","","","","","","","","","","","","","",""
"","do_recog","144","482330","0.0-81.0-0.0","""event"",""trial"",""time""
""fullscreenenter"",""0"",""54069""
","
","
","""event"",""trial"",""time""
""fullscreenenter"",""0"",""54069""
","
","1629.7999999998137","","","","","","","","53","","","","292","probe-191","","","","","1","[object Object]","157","3","1","","","",""
"","html-keyboard-response","145","483341","0.0-81.0-1.0","""event"",""trial"",""time""
""fullscreenenter"",""0"",""54069""
","
","
","""event"",""trial"",""time""
""fullscreenenter"",""0"",""54069""
","
","null","<p></p>","null","","","","","","","","","","","","","","","","","","","","","","","",""
"","do_trial","146","486483","0.0-82.0-0.0","""event"",""trial"",""time""
""fullscreenenter"",""0"",""54069""
","
","
","""event"",""trial"",""time""
""fullscreenenter"",""0"",""54069""
","
","569.8000000007451","","","","","","","","49","0,0,0","6","blank","293","null","0.5384911341372388","0.18643075761366298","0.3046819351344869","0","","","","","","","","",""
"","html-keyboard-response","147","487494","0.0-82.0-1.0","""event"",""trial"",""time""
""fullscreenenter"",""0"",""54069""
","
","
","""event"",""trial"",""time""
""fullscreenenter"",""0"",""54069""
","
","null","<p></p>","null","","","","","","","","","","","","","","","","","","","","","","","",""
"","do_recog","148","491065","0.0-83.0-0.0","""event"",""trial"",""time""
""fullscreenenter"",""0"",""54069""
","
","
","""event"",""trial"",""time""
""fullscreenenter"",""0"",""54069""
","
","2056.5999999996275","","","","","","","","53","","","","294","probe-25","","","","","1","[object Object]","199","4","1","","","",""
"","html-keyboard-response","149","492073","0.0-83.0-1.0","""event"",""trial"",""time""
""fullscreenenter"",""0"",""54069""
","
","
","""event"",""trial"",""time""
""fullscreenenter"",""0"",""54069""
","
","null","<p></p>","null","","","","","","","","","","","","","","","","","","","","","","","",""
"","do_trial","150","495327","0.0-84.0-0.0","""event"",""trial"",""time""
""fullscreenenter"",""0"",""54069""
","
","
","""event"",""trial"",""time""
""fullscreenenter"",""0"",""54069""
","
","669.2999999998137","","","","","","","","49","1,0,0","6","blank","295","null","0.26584415873981654","0.36624164119547736","0.10809470737717972","1","","","","","","","","",""
"","html-keyboard-response","151","496336","0.0-84.0-1.0","""event"",""trial"",""time""
""fullscreenenter"",""0"",""54069""
","
","
","""event"",""trial"",""time""
""fullscreenenter"",""0"",""54069""
","
","null","<p></p>","null","","","","","","","","","","","","","","","","","","","","","","","",""
"","do_trial","152","499348","0.0-85.0-0.0","""event"",""trial"",""time""
""fullscreenenter"",""0"",""54069""
","
","
","""event"",""trial"",""time""
""fullscreenenter"",""0"",""54069""
","
","440.29999999981374","","","","","","","","49","1,1,0","6","blank","296","null","0.4062438465726644","0.3398894452965838","0.06960556842910177","1","","","","","","","","",""
"","html-keyboard-response","153","500361","0.0-85.0-1.0","""event"",""trial"",""time""
""fullscreenenter"",""0"",""54069""
","
","
","""event"",""trial"",""time""
""fullscreenenter"",""0"",""54069""
","
","null","<p></p>","null","","","","","","","","","","","","","","","","","","","","","","","",""
"","do_trial","154","503626","0.0-86.0-0.0","""event"",""trial"",""time""
""fullscreenenter"",""0"",""54069""
","
","
","""event"",""trial"",""time""
""fullscreenenter"",""0"",""54069""
","
","690.7999999998137","","","","","","","","49","1,1,0","6","blank","297","null","0.4114636410110509","0.5612501590752126","0.09885511073473885","1","","","","","","","","",""
"","html-keyboard-response","155","504635","0.0-86.0-1.0","""event"",""trial"",""time""
""fullscreenenter"",""0"",""54069""
","
","
","""event"",""trial"",""time""
""fullscreenenter"",""0"",""54069""
","
","null","<p></p>","null","","","","","","","","","","","","","","","","","","","","","","","",""
"","do_trial","156","507653","0.0-87.0-0.0","""event"",""trial"",""time""
""fullscreenenter"",""0"",""54069""
","
","
","""event"",""trial"",""time""
""fullscreenenter"",""0"",""54069""
","
","452.8999999994412","","","","","","","","49","1,1,0","6","blank","298","null","0.3014125224441832","0.6556177722024993","0.23173259746098246","1","","","","","","","","",""
"","html-keyboard-response","157","508656","0.0-87.0-1.0","""event"",""trial"",""time""
""fullscreenenter"",""0"",""54069""
","
","
","""event"",""trial"",""time""
""fullscreenenter"",""0"",""54069""
","
","null","<p></p>","null","","","","","","","","","","","","","","","","","","","","","","","",""
"","do_trial","158","511627","0.0-88.0-0.0","""event"",""trial"",""time""
""fullscreenenter"",""0"",""54069""
","
","
","""event"",""trial"",""time""
""fullscreenenter"",""0"",""54069""
","
","409.79999999981374","","","","","","","","49","1,1,0","6","blank","299","null","0.21449210488800297","0.5781991605565482","0.1803007716715282","1","","","","","","","","",""
"","html-keyboard-response","159","512645","0.0-88.0-1.0","""event"",""trial"",""time""
""fullscreenenter"",""0"",""54069""
","
","
","""event"",""trial"",""time""
""fullscreenenter"",""0"",""54069""
","
","null","<p></p>","null","","","","","","","","","","","","","","","","","","","","","","","",""
"","do_trial","160","515688","0.0-89.0-0.0","""event"",""trial"",""time""
""fullscreenenter"",""0"",""54069""
","
","
","""event"",""trial"",""time""
""fullscreenenter"",""0"",""54069""
","
","485.59999999962747","","","","","","","","49","1,0,0","6","blank","300","null","0.27220737166688436","0.5664542241114952","0.23159972615033092","1","","","","","","","","",""
"","html-keyboard-response","161","516693","0.0-89.0-1.0","""event"",""trial"",""time""
""fullscreenenter"",""0"",""54069""
","
","
","""event"",""trial"",""time""
""fullscreenenter"",""0"",""54069""
","
","null","<p></p>","null","","","","","","","","","","","","","","","","","","","","","","","",""
"","do_recog","162","519598","0.0-90.0-0.0","""event"",""trial"",""time""
""fullscreenenter"",""0"",""54069""
","
","
","""event"",""trial"",""time""
""fullscreenenter"",""0"",""54069""
","
","1386.7000000001863","","","","","","","","53","","","","301","probe-27","","","","","1","[object Object]","191","4","1","","","",""
"","html-keyboard-response","163","520602","0.0-90.0-1.0","""event"",""trial"",""time""
""fullscreenenter"",""0"",""54069""
","
","
","""event"",""trial"",""time""
""fullscreenenter"",""0"",""54069""
","
","null","<p></p>","null","","","","","","","","","","","","","","","","","","","","","","","",""
"","do_trial","164","523859","0.0-91.0-0.0","""event"",""trial"",""time""
""fullscreenenter"",""0"",""54069""
","
","
","""event"",""trial"",""time""
""fullscreenenter"",""0"",""54069""
","
","693.8999999994412","","","","","","","","49","0,0,0","6","blank","302","null","0.234000773607207","0.4794440869388693","0.10472242490992674","0","","","","","","","","",""
"","html-keyboard-response","165","524861","0.0-91.0-1.0","""event"",""trial"",""time""
""fullscreenenter"",""0"",""54069""
","
","
","""event"",""trial"",""time""
""fullscreenenter"",""0"",""54069""
","
","null","<p></p>","null","","","","","","","","","","","","","","","","","","","","","","","",""
"","do_trial","166","527806","0.0-92.0-0.0","""event"",""trial"",""time""
""fullscreenenter"",""0"",""54069""
","
","
","""event"",""trial"",""time""
""fullscreenenter"",""0"",""54069""
","
","381.09999999962747","","","","","","","","49","1,0,0","6","blank","303","null","0.2818596662787543","0.47497606609718246","0.062038986602574425","1","","","","","","","","",""
"","html-keyboard-response","167","528810","0.0-92.0-1.0","""event"",""trial"",""time""
""fullscreenenter"",""0"",""54069""
","
","
","""event"",""trial"",""time""
""fullscreenenter"",""0"",""54069""
","
","null","<p></p>","null","","","","","","","","","","","","","","","","","","","","","","","",""
"","do_trial","168","531680","0.0-93.0-0.0","""event"",""trial"",""time""
""fullscreenenter"",""0"",""54069""
","
","
","""event"",""trial"",""time""
""fullscreenenter"",""0"",""54069""
","
","302.1000000005588","","","","","","","","49","0,0,0","6","blank","304","null","0.29597794515652537","0.4272677424848178","0.11275270472954084","0","","","","","","","","",""
"","html-keyboard-response","169","532686","0.0-93.0-1.0","""event"",""trial"",""time""
""fullscreenenter"",""0"",""54069""
","
","
","""event"",""trial"",""time""
""fullscreenenter"",""0"",""54069""
","
","null","<p></p>","null","","","","","","","","","","","","","","","","","","","","","","","",""
"","do_trial","170","535601","0.0-94.0-0.0","""event"",""trial"",""time""
""fullscreenenter"",""0"",""54069""
","
","
","""event"",""trial"",""time""
""fullscreenenter"",""0"",""54069""
","
","352.19999999925494","","","","","","","","49","0,1,0","6","blank","305","null","0.3228742826002244","0.5916720728524009","0.18221168815801225","0","","","","","","","","",""
"","html-keyboard-response","171","536616","0.0-94.0-1.0","""event"",""trial"",""time""
""fullscreenenter"",""0"",""54069""
","
","
","""event"",""trial"",""time""
""fullscreenenter"",""0"",""54069""
","
","null","<p></p>","null","","","","","","","","","","","","","","","","","","","","","","","",""
"","do_trial","172","539191","0.0-95.0-0.0","""event"",""trial"",""time""
""fullscreenenter"",""0"",""54069""
","
","
","""event"",""trial"",""time""
""fullscreenenter"",""0"",""54069""
","
","0.2999999998137355","","","","","","","","49","0,0,1","6","blank","306","null","0.3383515604624415","0.5606962155215419","0.14231435150533375","0","","","","","","","","",""
"","html-keyboard-response","173","540200","0.0-95.0-1.0","""event"",""trial"",""time""
""fullscreenenter"",""0"",""54069""
","
","
","""event"",""trial"",""time""
""fullscreenenter"",""0"",""54069""
","
","null","<p></p>","null","","","","","","","","","","","","","","","","","","","","","","","",""
"","do_trial","174","543128","0.0-96.0-0.0","""event"",""trial"",""time""
""fullscreenenter"",""0"",""54069""
","
","
","""event"",""trial"",""time""
""fullscreenenter"",""0"",""54069""
","
","359.5","","","","","","","","49","0,1,0","6","blank","307","null","0.36324001914174864","0.48900296443127916","0.06724152511814264","0","","","","","","","","",""
"","html-keyboard-response","175","544137","0.0-96.0-1.0","""event"",""trial"",""time""
""fullscreenenter"",""0"",""54069""
","
","
","""event"",""trial"",""time""
""fullscreenenter"",""0"",""54069""
","
","null","<p></p>","null","","","","","","","","","","","","","","","","","","","","","","","",""
"","do_trial","176","547097","0.0-97.0-0.0","""event"",""trial"",""time""
""fullscreenenter"",""0"",""54069""
","
","
","""event"",""trial"",""time""
""fullscreenenter"",""0"",""54069""
","
","391.70000000018626","","","","","","","","49","0,0,0","6","blank","308","null","0.36755351857096263","0.437402399373715","0.06089047659406289","0","","","","","","","","",""
"","html-keyboard-response","177","548115","0.0-97.0-1.0","""event"",""trial"",""time""
""fullscreenenter"",""0"",""54069""
","
","
","""event"",""trial"",""time""
""fullscreenenter"",""0"",""54069""
","
","null","<p></p>","null","","","","","","","","","","","","","","","","","","","","","","","",""
"","break","178","550240","0.0-98.0-0.0","""event"",""trial"",""time""
""fullscreenenter"",""0"",""54069""
","
","
","""event"",""trial"",""time""
""fullscreenenter"",""0"",""54069""
","
","2123.5999999996275","<div class='center'><p>Time to take a quick break! You have 2 minutes to rest, but you can move on sooner if you'd like.</p><p> Press the <b>space bar</b> to continue.</p></div>","32","","","","","","","","","","","","","","","","","","","","","","","",""
"","do_recog","179","553075","0.0-98.0-1.0","""event"",""trial"",""time""
""fullscreenenter"",""0"",""54069""
","
","
","""event"",""trial"",""time""
""fullscreenenter"",""0"",""54069""
","
","1334.6000000005588","","","","","","","","53","","","","309","probe-63","","","","","1","[object Object]","39","0","1","","","",""
"","html-keyboard-response","180","554084","0.0-98.0-2.0","""event"",""trial"",""time""
""fullscreenenter"",""0"",""54069""
","
","
","""event"",""trial"",""time""
""fullscreenenter"",""0"",""54069""
","
","null","<p></p>","null","","","","","","","","","","","","","","","","","","","","","","","",""
"","do_trial","181","557286","0.0-99.0-0.0","""event"",""trial"",""time""
""fullscreenenter"",""0"",""54069""
","
","
","""event"",""trial"",""time""
""fullscreenenter"",""0"",""54069""
","
","625.4000000003725","","","","","","","","49","1,1,0","6","blank","310","null","0.36015945594445137","0.45638390254365135","0.2477089419825648","1","","","","","","","","",""
"","html-keyboard-response","182","558294","0.0-99.0-1.0","""event"",""trial"",""time""
""fullscreenenter"",""0"",""54069""
","
","
","""event"",""trial"",""time""
""fullscreenenter"",""0"",""54069""
","
","null","<p></p>","null","","","","","","","","","","","","","","","","","","","","","","","",""
"","do_recog","183","561045","0.0-100.0-0.0","""event"",""trial"",""time""
""fullscreenenter"",""0"",""54069""
","
","
","""event"",""trial"",""time""
""fullscreenenter"",""0"",""54069""
","
","1228.5","","","","","","","","53","","","","311","probe-212","","","","","1","[object Object]","117","2","1","","","",""
"","html-keyboard-response","184","562048","0.0-100.0-1.0","""event"",""trial"",""time""
""fullscreenenter"",""0"",""54069""
","
","
","""event"",""trial"",""time""
""fullscreenenter"",""0"",""54069""
","
","null","<p></p>","null","","","","","","","","","","","","","","","","","","","","","","","",""
"","do_trial","185","565275","0.0-101.0-0.0","""event"",""trial"",""time""
""fullscreenenter"",""0"",""54069""
","
","
","""event"",""trial"",""time""
""fullscreenenter"",""0"",""54069""
","
","670.6999999992549","","","","","","","","49","0,1,1","6","blank","312","null","0.28736594410067756","0.47436489220479366","0.21999869039099312","0","","","","","","","","",""
"","html-keyboard-response","186","566287","0.0-101.0-1.0","""event"",""trial"",""time""
""fullscreenenter"",""0"",""54069""
","
","
","""event"",""trial"",""time""
""fullscreenenter"",""0"",""54069""
","
","null","<p></p>","null","","","","","","","","","","","","","","","","","","","","","","","",""
"","do_recog","187","569028","0.0-102.0-0.0","""event"",""trial"",""time""
""fullscreenenter"",""0"",""54069""
","
","
","""event"",""trial"",""time""
""fullscreenenter"",""0"",""54069""
","
","1225.5","","","","","","","","53","","","","313","probe-209","","","","","1","[object Object]","35","0","1","","","",""
"","html-keyboard-response","188","570032","0.0-102.0-1.0","""event"",""trial"",""time""
""fullscreenenter"",""0"",""54069""
","
","
","""event"",""trial"",""time""
""fullscreenenter"",""0"",""54069""
","
","null","<p></p>","null","","","","","","","","","","","","","","","","","","","","","","","",""
"","do_trial","189","573595","0.0-103.0-0.0","""event"",""trial"",""time""
""fullscreenenter"",""0"",""54069""
","
","
","""event"",""trial"",""time""
""fullscreenenter"",""0"",""54069""
","
","977.7000000001863","","","","","","","","50","1,1,1","6","blank","314","null","0.25798479634673743","0.5189237645935559","0.2738858174685911","1","","","","","","","","",""
"","html-keyboard-response","190","574606","0.0-103.0-1.0","""event"",""trial"",""time""
""fullscreenenter"",""0"",""54069""
","
","
","""event"",""trial"",""time""
""fullscreenenter"",""0"",""54069""
","
","null","<p></p>","null","","","","","","","","","","","","","","","","","","","","","","","",""
"","do_trial","191","578378","0.0-104.0-0.0","""event"",""trial"",""time""
""fullscreenenter"",""0"",""54069""
","
","
","""event"",""trial"",""time""
""fullscreenenter"",""0"",""54069""
","
","1191.8999999994412","","","","","","","","50","0,1,0","6","blank","315","null","0.36171377319312276","0.558788259978898","0.17370680396006757","1","","","","","","","","",""
"","html-keyboard-response","192","579390","0.0-104.0-1.0","""event"",""trial"",""time""
""fullscreenenter"",""0"",""54069""
","
","
","""event"",""trial"",""time""
""fullscreenenter"",""0"",""54069""
","
","null","<p></p>","null","","","","","","","","","","","","","","","","","","","","","","","",""
"","do_recog","193","582055","0.0-105.0-0.0","""event"",""trial"",""time""
""fullscreenenter"",""0"",""54069""
","
","
","""event"",""trial"",""time""
""fullscreenenter"",""0"",""54069""
","
","1146.0999999996275","","","","","","","","53","","","","316","probe-16","","","","","1","[object Object]","196","4","1","","","",""
"","html-keyboard-response","194","583058","0.0-105.0-1.0","""event"",""trial"",""time""
""fullscreenenter"",""0"",""54069""
","
","
","""event"",""trial"",""time""
""fullscreenenter"",""0"",""54069""
","
","null","<p></p>","null","","","","","","","","","","","","","","","","","","","","","","","",""
"","do_trial","195","586071","0.0-106.0-0.0","""event"",""trial"",""time""
""fullscreenenter"",""0"",""54069""
","
","
","""event"",""trial"",""time""
""fullscreenenter"",""0"",""54069""
","
","447.29999999981374","","","","","","","","50","0,1,0","6","blank","317","null","0.44967997283145655","0.39360031998294936","0.17318849226911695","1","","","","","","","","",""
"","html-keyboard-response","196","587074","0.0-106.0-1.0","""event"",""trial"",""time""
""fullscreenenter"",""0"",""54069""
","
","
","""event"",""trial"",""time""
""fullscreenenter"",""0"",""54069""
","
","null","<p></p>","null","","","","","","","","","","","","","","","","","","","","","","","",""
"","do_trial","197","589975","0.0-107.0-0.0","""event"",""trial"",""time""
""fullscreenenter"",""0"",""54069""
","
","
","""event"",""trial"",""time""
""fullscreenenter"",""0"",""54069""
","
","334.69999999925494","","","","","","","","50","1,0,1","6","blank","318","null","0.4516777077698224","0.5920450391353951","0.15169075598426326","0","","","","","","","","",""
"","html-keyboard-response","198","590981","0.0-107.0-1.0","""event"",""trial"",""time""
""fullscreenenter"",""0"",""54069""
","
","
","""event"",""trial"",""time""
""fullscreenenter"",""0"",""54069""
","
","null","<p></p>","null","","","","","","","","","","","","","","","","","","","","","","","",""
"","do_trial","199","593909","0.0-108.0-0.0","""event"",""trial"",""time""
""fullscreenenter"",""0"",""54069""
","
","
","""event"",""trial"",""time""
""fullscreenenter"",""0"",""54069""
","
","367.20000000018626","","","","","","","","50","0,0,0","6","blank","319","null","0.3440129245391661","0.49378962246379615","0.15008608537215556","0","","","","","","","","",""
"","html-keyboard-response","200","594918","0.0-108.0-1.0","""event"",""trial"",""time""
""fullscreenenter"",""0"",""54069""
","
","
","""event"",""trial"",""time""
""fullscreenenter"",""0"",""54069""
","
","null","<p></p>","null","","","","","","","","","","","","","","","","","","","","","","","",""
"","do_trial","201","598269","0.0-109.0-0.0","""event"",""trial"",""time""
""fullscreenenter"",""0"",""54069""
","
","
","""event"",""trial"",""time""
""fullscreenenter"",""0"",""54069""
","
","783.1000000005588","","","","","","","","51","1,0,0","6","blank","320","null","0.4117430953049357","0.5836995937558058","0.05621010936423791","0","","","","","","","","",""
"","html-keyboard-response","202","599277","0.0-109.0-1.0","""event"",""trial"",""time""
""fullscreenenter"",""0"",""54069""
","
","
","""event"",""trial"",""time""
""fullscreenenter"",""0"",""54069""
","
","null","<p></p>","null","","","","","","","","","","","","","","","","","","","","","","","",""
"","do_trial","203","602191","0.0-110.0-0.0","""event"",""trial"",""time""
""fullscreenenter"",""0"",""54069""
","
","
","""event"",""trial"",""time""
""fullscreenenter"",""0"",""54069""
","
","352.40000000037253","","","","","","","","50","0,0,0","6","blank","321","null","0.4173251696472254","0.5576436751252171","0.1126323532585962","0","","","","","","","","",""
"","html-keyboard-response","204","603198","0.0-110.0-1.0","""event"",""trial"",""time""
""fullscreenenter"",""0"",""54069""
","
","
","""event"",""trial"",""time""
""fullscreenenter"",""0"",""54069""
","
","null","<p></p>","null","","","","","","","","","","","","","","","","","","","","","","","",""
"","do_trial","205","606170","0.0-111.0-0.0","""event"",""trial"",""time""
""fullscreenenter"",""0"",""54069""
","
","
","""event"",""trial"",""time""
""fullscreenenter"",""0"",""54069""
","
","404.19999999925494","","","","","","","","49","0,0,0","6","blank","322","null","0.2611634240661034","0.6062098558707149","0.18529046977678942","0","","","","","","","","",""
"","html-keyboard-response","206","607175","0.0-111.0-1.0","""event"",""trial"",""time""
""fullscreenenter"",""0"",""54069""
","
","
","""event"",""trial"",""time""
""fullscreenenter"",""0"",""54069""
","
","null","<p></p>","null","","","","","","","","","","","","","","","","","","","","","","","",""
"","do_recog","207","609940","0.0-112.0-0.0","""event"",""trial"",""time""
""fullscreenenter"",""0"",""54069""
","
","
","""event"",""trial"",""time""
""fullscreenenter"",""0"",""54069""
","
","1249.4000000003725","","","","","","","","53","","","","323","probe-234","","","","","0","[object Object]","null","null","0","","","",""
"","html-keyboard-response","208","610952","0.0-112.0-1.0","""event"",""trial"",""time""
""fullscreenenter"",""0"",""54069""
","
","
","""event"",""trial"",""time""
""fullscreenenter"",""0"",""54069""
","
","null","<p></p>","null","","","","","","","","","","","","","","","","","","","","","","","",""
"","do_trial","209","614515","0.0-113.0-0.0","""event"",""trial"",""time""
""fullscreenenter"",""0"",""54069""
","
","
","""event"",""trial"",""time""
""fullscreenenter"",""0"",""54069""
","
","970.7999999998137","","","","","","","","50","0,1,0","6","blank","324","null","0.2650442290415682","0.6538959544953056","0.23665910508480534","1","","","","","","","","",""
"","html-keyboard-response","210","615522","0.0-113.0-1.0","""event"",""trial"",""time""
""fullscreenenter"",""0"",""54069""
","
","
","""event"",""trial"",""time""
""fullscreenenter"",""0"",""54069""
","
","null","<p></p>","null","","","","","","","","","","","","","","","","","","","","","","","",""
"","do_trial","211","618431","0.0-114.0-0.0","""event"",""trial"",""time""
""fullscreenenter"",""0"",""54069""
","
","
","""event"",""trial"",""time""
""fullscreenenter"",""0"",""54069""
","
","324.6000000005588","","","","","","","","49","0,1,0","6","blank","325","null","0.18323745967111768","0.6179605950256682","0.2627103168193996","0","","","","","","","","",""
"","html-keyboard-response","212","619440","0.0-114.0-1.0","""event"",""trial"",""time""
""fullscreenenter"",""0"",""54069""
","
","
","""event"",""trial"",""time""
""fullscreenenter"",""0"",""54069""
","
","null","<p></p>","null","","","","","","","","","","","","","","","","","","","","","","","",""
"","do_recog","213","622333","0.0-115.0-0.0","""event"",""trial"",""time""
""fullscreenenter"",""0"",""54069""
","
","
","""event"",""trial"",""time""
""fullscreenenter"",""0"",""54069""
","
","1370.8999999994412","","","","","","","","56","","","","326","probe-165","","","","","1","[object Object]","159","3","0","","","",""
"","html-keyboard-response","214","623340","0.0-115.0-1.0","""event"",""trial"",""time""
""fullscreenenter"",""0"",""54069""
","
","
","""event"",""trial"",""time""
""fullscreenenter"",""0"",""54069""
","
","null","<p></p>","null","","","","","","","","","","","","","","","","","","","","","","","",""
"","do_trial","215","626875","0.0-116.0-0.0","""event"",""trial"",""time""
""fullscreenenter"",""0"",""54069""
","
","
","""event"",""trial"",""time""
""fullscreenenter"",""0"",""54069""
","
","980.0999999996275","","","","","","","","50","0,1,0","6","blank","327","null","0.05535169906449646","0.7354980221157693","0.2615158149252345","1","","","","","","","","",""
"","html-keyboard-response","216","627884","0.0-116.0-1.0","""event"",""trial"",""time""
""fullscreenenter"",""0"",""54069""
","
","
","""event"",""trial"",""time""
""fullscreenenter"",""0"",""54069""
","
","null","<p></p>","null","","","","","","","","","","","","","","","","","","","","","","","",""
"","do_trial","217","630852","0.0-117.0-0.0","""event"",""trial"",""time""
""fullscreenenter"",""0"",""54069""
","
","
","""event"",""trial"",""time""
""fullscreenenter"",""0"",""54069""
","
","394.20000000018626","","","","","","","","50","0,1,0","6","blank","328","null","0.06167294172105825","0.7426123973175308","0.3247927055938059","1","","","","","","","","",""
"","html-keyboard-response","218","631857","0.0-117.0-1.0","""event"",""trial"",""time""
""fullscreenenter"",""0"",""54069""
","
","
","""event"",""trial"",""time""
""fullscreenenter"",""0"",""54069""
","
","null","<p></p>","null","","","","","","","","","","","","","","","","","","","","","","","",""
"","do_recog","219","634486","0.0-118.0-0.0","""event"",""trial"",""time""
""fullscreenenter"",""0"",""54069""
","
","
","""event"",""trial"",""time""
""fullscreenenter"",""0"",""54069""
","
","1115.300000000745","","","","","","","","53","","","","329","probe-163","","","","","1","[object Object]","38","0","1","","","",""
"","html-keyboard-response","220","635494","0.0-118.0-1.0","""event"",""trial"",""time""
""fullscreenenter"",""0"",""54069""
","
","
","""event"",""trial"",""time""
""fullscreenenter"",""0"",""54069""
","
","null","<p></p>","null","","","","","","","","","","","","","","","","","","","","","","","",""
"","do_trial","221","638697","0.0-119.0-0.0","""event"",""trial"",""time""
""fullscreenenter"",""0"",""54069""
","
","
","""event"",""trial"",""time""
""fullscreenenter"",""0"",""54069""
","
","640.2000000001863","","","","","","","","50","1,0,0","6","blank","330","null","0.14311385016646072","0.6910975627235507","0.24875260820174658","0","","","","","","","","",""
"","html-keyboard-response","222","639712","0.0-119.0-1.0","""event"",""trial"",""time""
""fullscreenenter"",""0"",""54069""
","
","
","""event"",""trial"",""time""
""fullscreenenter"",""0"",""54069""
","
","null","<p></p>","null","","","","","","","","","","","","","","","","","","","","","","","",""
"","do_trial","223","643085","0.0-120.0-0.0","""event"",""trial"",""time""
""fullscreenenter"",""0"",""54069""
","
","
","""event"",""trial"",""time""
""fullscreenenter"",""0"",""54069""
","
","807.7000000001863","","","","","","","","51","0,1,1","6","blank","331","null","0.31114538959562654","0.7051793468799293","0.16533607263148198","1","","","","","","","","",""
"","html-keyboard-response","224","644101","0.0-120.0-1.0","""event"",""trial"",""time""
""fullscreenenter"",""0"",""54069""
","
","
","""event"",""trial"",""time""
""fullscreenenter"",""0"",""54069""
","
","null","<p></p>","null","","","","","","","","","","","","","","","","","","","","","","","",""
"","do_trial","225","647200","0.0-121.0-0.0","""event"",""trial"",""time""
""fullscreenenter"",""0"",""54069""
","
","
","""event"",""trial"",""time""
""fullscreenenter"",""0"",""54069""
","
","535.5","","","","","","","","51","1,1,0","6","blank","332","null","0.34828492548950557","0.7399767026271521","0.11886534450875832","0","","","","","","","","",""
"","html-keyboard-response","226","648205","0.0-121.0-1.0","""event"",""trial"",""time""
""fullscreenenter"",""0"",""54069""
","
","
","""event"",""trial"",""time""
""fullscreenenter"",""0"",""54069""
","
","null","<p></p>","null","","","","","","","","","","","","","","","","","","","","","","","",""
"","do_trial","227","651200","0.0-122.0-0.0","""event"",""trial"",""time""
""fullscreenenter"",""0"",""54069""
","
","
","""event"",""trial"",""time""
""fullscreenenter"",""0"",""54069""
","
","427.5","","","","","","","","50","1,0,1","6","blank","333","null","0.26292347475477923","0.7062149395070675","0.20769920296979932","0","","","","","","","","",""
"","html-keyboard-response","228","652205","0.0-122.0-1.0","""event"",""trial"",""time""
""fullscreenenter"",""0"",""54069""
","
","
","""event"",""trial"",""time""
""fullscreenenter"",""0"",""54069""
","
","null","<p></p>","null","","","","","","","","","","","","","","","","","","","","","","","",""
"","do_trial","229","655376","0.0-123.0-0.0","""event"",""trial"",""time""
""fullscreenenter"",""0"",""54069""
","
","
","""event"",""trial"",""time""
""fullscreenenter"",""0"",""54069""
","
","587.5","","","","","","","","49","0,1,0","6","blank","334","null","0.36371765855735183","0.6847427885349149","0.1574998714528932","0","","","","","","","","",""
"","html-keyboard-response","230","656386","0.0-123.0-1.0","""event"",""trial"",""time""
""fullscreenenter"",""0"",""54069""
","
","
","""event"",""trial"",""time""
""fullscreenenter"",""0"",""54069""
","
","null","<p></p>","null","","","","","","","","","","","","","","","","","","","","","","","",""
"","do_recog","231","658922","0.0-124.0-0.0","""event"",""trial"",""time""
""fullscreenenter"",""0"",""54069""
","
","
","""event"",""trial"",""time""
""fullscreenenter"",""0"",""54069""
","
","1021.9000000003725","","","","","","","","53","","","","335","probe-37","","","","","1","[object Object]","112","2","1","","","",""
"","html-keyboard-response","232","659931","0.0-124.0-1.0","""event"",""trial"",""time""
""fullscreenenter"",""0"",""54069""
","
","
","""event"",""trial"",""time""
""fullscreenenter"",""0"",""54069""
","
","null","<p></p>","null","","","","","","","","","","","","","","","","","","","","","","","",""
"","do_trial","233","663401","0.0-125.0-0.0","""event"",""trial"",""time""
""fullscreenenter"",""0"",""54069""
","
","
","""event"",""trial"",""time""
""fullscreenenter"",""0"",""54069""
","
","909.5","","","","","","","","49","1,1,0","6","blank","336","null","0.3698007718069792","0.7823960831528396","0.23368801733578276","1","","","","","","","","",""
"","html-keyboard-response","234","664404","0.0-125.0-1.0","""event"",""trial"",""time""
""fullscreenenter"",""0"",""54069""
","
","
","""event"",""trial"",""time""
""fullscreenenter"",""0"",""54069""
","
","null","<p></p>","null","","","","","","","","","","","","","","","","","","","","","","","",""
"","do_recog","235","666895","0.0-126.0-0.0","""event"",""trial"",""time""
""fullscreenenter"",""0"",""54069""
","
","
","""event"",""trial"",""time""
""fullscreenenter"",""0"",""54069""
","
","974.5999999996275","","","","","","","","53","","","","337","probe-138","","","","","1","[object Object]","34","0","1","","","",""
"","html-keyboard-response","236","667903","0.0-126.0-1.0","""event"",""trial"",""time""
""fullscreenenter"",""0"",""54069""
","
","
","""event"",""trial"",""time""
""fullscreenenter"",""0"",""54069""
","
","null","<p></p>","null","","","","","","","","","","","","","","","","","","","","","","","",""
"","do_trial","237","670891","0.0-127.0-0.0","""event"",""trial"",""time""
""fullscreenenter"",""0"",""54069""
","
","
","""event"",""trial"",""time""
""fullscreenenter"",""0"",""54069""
","
","429.79999999981374","","","","","","","","49","1,1,0","6","blank","338","null","0.3173897311766076","0.7299900283147924","0.09482068125512505","1","","","","","","","","",""
"","html-keyboard-response","238","671899","0.0-127.0-1.0","""event"",""trial"",""time""
""fullscreenenter"",""0"",""54069""
","
","
","""event"",""trial"",""time""
""fullscreenenter"",""0"",""54069""
","
","null","<p></p>","null","","","","","","","","","","","","","","","","","","","","","","","",""
"","do_recog","239","674889","0.0-128.0-0.0","""event"",""trial"",""time""
""fullscreenenter"",""0"",""54069""
","
","
","""event"",""trial"",""time""
""fullscreenenter"",""0"",""54069""
","
","1477.2000000001863","","","","","","","","53","","","","339","probe-169","","","","","1","[object Object]","36","0","1","","","",""
"","html-keyboard-response","240","675903","0.0-128.0-1.0","""event"",""trial"",""time""
""fullscreenenter"",""0"",""54069""
","
","
","""event"",""trial"",""time""
""fullscreenenter"",""0"",""54069""
","
","null","<p></p>","null","","","","","","","","","","","","","","","","","","","","","","","",""
"","do_trial","241","678959","0.0-129.0-0.0","""event"",""trial"",""time""
""fullscreenenter"",""0"",""54069""
","
","
","""event"",""trial"",""time""
""fullscreenenter"",""0"",""54069""
","
","498.30000000074506","","","","","","","","49","1,1,1","6","blank","340","null","0.3728811628516317","0.6263602180090405","0.1245088212871425","1","","","","","","","","",""
"","html-keyboard-response","242","679965","0.0-129.0-1.0","""event"",""trial"",""time""
""fullscreenenter"",""0"",""54069""
","
","
","""event"",""trial"",""time""
""fullscreenenter"",""0"",""54069""
","
","null","<p></p>","null","","","","","","","","","","","","","","","","","","","","","","","",""
"","do_trial","243","683088","0.0-130.0-0.0","""event"",""trial"",""time""
""fullscreenenter"",""0"",""54069""
","
","
","""event"",""trial"",""time""
""fullscreenenter"",""0"",""54069""
","
","564.7000000001863","","","","","","","","49","0,0,0","6","blank","341","null","0.36116254089701844","0.5388707372774562","0.11600831294023735","0","","","","","","","","",""
"","html-keyboard-response","244","684099","0.0-130.0-1.0","""event"",""trial"",""time""
""fullscreenenter"",""0"",""54069""
","
","
","""event"",""trial"",""time""
""fullscreenenter"",""0"",""54069""
","
","null","<p></p>","null","","","","","","","","","","","","","","","","","","","","","","","",""
"","do_trial","245","687029","0.0-131.0-0.0","""event"",""trial"",""time""
""fullscreenenter"",""0"",""54069""
","
","
","""event"",""trial"",""time""
""fullscreenenter"",""0"",""54069""
","
","362.3999999994412","","","","","","","","49","1,0,0","6","blank","342","null","0.2846793053425068","0.673493295501933","0.10971041565636974","1","","","","","","","","",""
"","html-keyboard-response","246","688041","0.0-131.0-1.0","""event"",""trial"",""time""
""fullscreenenter"",""0"",""54069""
","
","
","""event"",""trial"",""time""
""fullscreenenter"",""0"",""54069""
","
","null","<p></p>","null","","","","","","","","","","","","","","","","","","","","","","","",""
"","do_trial","247","691036","0.0-132.0-0.0","""event"",""trial"",""time""
""fullscreenenter"",""0"",""54069""
","
","
","""event"",""trial"",""time""
""fullscreenenter"",""0"",""54069""
","
","419.79999999981374","","","","","","","","49","0,1,0","6","blank","343","null","0.4609666212394345","0.5319780115798058","0.09175406179210524","0","","","","","","","","",""
"","html-keyboard-response","248","692042","0.0-132.0-1.0","""event"",""trial"",""time""
""fullscreenenter"",""0"",""54069""
","
","
","""event"",""trial"",""time""
""fullscreenenter"",""0"",""54069""
","
","null","<p></p>","null","","","","","","","","","","","","","","","","","","","","","","","",""
"","do_recog","249","694542","0.0-133.0-0.0","""event"",""trial"",""time""
""fullscreenenter"",""0"",""54069""
","
","
","""event"",""trial"",""time""
""fullscreenenter"",""0"",""54069""
","
","984.3999999994412","","","","","","","","53","","","","344","probe-142","","","","","1","[object Object]","152","3","1","","","",""
"","html-keyboard-response","250","695547","0.0-133.0-1.0","""event"",""trial"",""time""
""fullscreenenter"",""0"",""54069""
","
","
","""event"",""trial"",""time""
""fullscreenenter"",""0"",""54069""
","
","null","<p></p>","null","","","","","","","","","","","","","","","","","","","","","","","",""
"","do_trial","251","698698","0.0-134.0-0.0","""event"",""trial"",""time""
""fullscreenenter"",""0"",""54069""
","
","
","""event"",""trial"",""time""
""fullscreenenter"",""0"",""54069""
","
","582","","","","","","","","49","0,0,0","6","blank","345","null","0.5306194325597403","0.43473774116531244","0.17089383504172692","0","","","","","","","","",""
"","html-keyboard-response","252","699706","0.0-134.0-1.0","""event"",""trial"",""time""
""fullscreenenter"",""0"",""54069""
","
","
","""event"",""trial"",""time""
""fullscreenenter"",""0"",""54069""
","
","null","<p></p>","null","","","","","","","","","","","","","","","","","","","","","","","",""
"","do_recog","253","702333","0.0-135.0-0.0","""event"",""trial"",""time""
""fullscreenenter"",""0"",""54069""
","
","
","""event"",""trial"",""time""
""fullscreenenter"",""0"",""54069""
","
","1110.3999999994412","","","","","","","","53","","","","346","probe-72","","","","","1","[object Object]","156","3","1","","","",""
"","html-keyboard-response","254","703352","0.0-135.0-1.0","""event"",""trial"",""time""
""fullscreenenter"",""0"",""54069""
","
","
","""event"",""trial"",""time""
""fullscreenenter"",""0"",""54069""
","
","null","<p></p>","null","","","","","","","","","","","","","","","","","","","","","","","",""
"","do_trial","255","706435","0.0-136.0-0.0","""event"",""trial"",""time""
""fullscreenenter"",""0"",""54069""
","
","
","""event"",""trial"",""time""
""fullscreenenter"",""0"",""54069""
","
","519","","","","","","","","49","0,1,0","6","blank","347","null","0.5763017900261466","0.41470983774139586","0.24626429238599226","0","","","","","","","","",""
"","html-keyboard-response","256","707451","0.0-136.0-1.0","""event"",""trial"",""time""
""fullscreenenter"",""0"",""54069""
","
","
","""event"",""trial"",""time""
""fullscreenenter"",""0"",""54069""
","
","null","<p></p>","null","","","","","","","","","","","","","","","","","","","","","","","",""
"","do_trial","257","710359","0.0-137.0-0.0","""event"",""trial"",""time""
""fullscreenenter"",""0"",""54069""
","
","
","""event"",""trial"",""time""
""fullscreenenter"",""0"",""54069""
","
","341.20000000018626","","","","","","","","49","0,0,0","6","blank","348","null","0.5619383714133924","0.2296609431384002","0.34711028058437593","0","","","","","","","","",""
"","html-keyboard-response","258","711370","0.0-137.0-1.0","""event"",""trial"",""time""
""fullscreenenter"",""0"",""54069""
","
","
","""event"",""trial"",""time""
""fullscreenenter"",""0"",""54069""
","
","null","<p></p>","null","","","","","","","","","","","","","","","","","","","","","","","",""
"","break","259","713213","0.0-138.0-0.0","""event"",""trial"",""time""
""fullscreenenter"",""0"",""54069""
","
","
","""event"",""trial"",""time""
""fullscreenenter"",""0"",""54069""
","
","1839.300000000745","<div class='center'><p>Time to take a quick break! You have 2 minutes to rest, but you can move on sooner if you'd like.</p><p> Press the <b>space bar</b> to continue.</p></div>","32","","","","","","","","","","","","","","","","","","","","","","","",""
"","do_trial","260","716514","0.0-138.0-1.0","""event"",""trial"",""time""
""fullscreenenter"",""0"",""54069""
","
","
","""event"",""trial"",""time""
""fullscreenenter"",""0"",""54069""
","
","728.1999999992549","","","","","","","","49","1,1,1","6","blank","349","null","0.6658397223587817","0.26934444699465926","0.4359633068115858","1","","","","","","","","",""
"","html-keyboard-response","261","717525","0.0-138.0-2.0","""event"",""trial"",""time""
""fullscreenenter"",""0"",""54069""
","
","
","""event"",""trial"",""time""
""fullscreenenter"",""0"",""54069""
","
","null","<p></p>","null","","","","","","","","","","","","","","","","","","","","","","","",""
"","do_trial","262","720425","0.0-139.0-0.0","""event"",""trial"",""time""
""fullscreenenter"",""0"",""54069""
","
","
","""event"",""trial"",""time""
""fullscreenenter"",""0"",""54069""
","
","340.20000000018626","","","","","","","","49","1,0,1","6","blank","350","null","0.8296468237508836","0.17088755576731413","0.42859328758005816","1","","","","","","","","",""
"","html-keyboard-response","263","721435","0.0-139.0-1.0","""event"",""trial"",""time""
""fullscreenenter"",""0"",""54069""
","
","
","""event"",""trial"",""time""
""fullscreenenter"",""0"",""54069""
","
","null","<p></p>","null","","","","","","","","","","","","","","","","","","","","","","","",""
"","do_recog","264","724154","0.0-140.0-0.0","""event"",""trial"",""time""
""fullscreenenter"",""0"",""54069""
","
","
","""event"",""trial"",""time""
""fullscreenenter"",""0"",""54069""
","
","1189.0999999996275","","","","","","","","53","","","","351","probe-14","","","","","1","[object Object]","154","3","1","","","",""
"","html-keyboard-response","265","725163","0.0-140.0-1.0","""event"",""trial"",""time""
""fullscreenenter"",""0"",""54069""
","
","
","""event"",""trial"",""time""
""fullscreenenter"",""0"",""54069""
","
","null","<p></p>","null","","","","","","","","","","","","","","","","","","","","","","","",""
"","do_trial","266","728745","0.0-141.0-0.0","""event"",""trial"",""time""
""fullscreenenter"",""0"",""54069""
","
","
","""event"",""trial"",""time""
""fullscreenenter"",""0"",""54069""
","
","1019.9000000003725","","","","","","","","49","0,0,0","6","blank","352","null","0.6643194914250995","0.08691662366335841","0.21150917180057863","0","","","","","","","","",""
"","html-keyboard-response","267","729749","0.0-141.0-1.0","""event"",""trial"",""time""
""fullscreenenter"",""0"",""54069""
","
","
","""event"",""trial"",""time""
""fullscreenenter"",""0"",""54069""
","
","null","<p></p>","null","","","","","","","","","","","","","","","","","","","","","","","",""
"","do_recog","268","733080","0.0-142.0-0.0","""event"",""trial"",""time""
""fullscreenenter"",""0"",""54069""
","
","
","""event"",""trial"",""time""
""fullscreenenter"",""0"",""54069""
","
","1813.7999999998137","","","","","","","","53","","","","353","probe-158","","","","","1","[object Object]","79","1","1","","","",""
"","html-keyboard-response","269","734085","0.0-142.0-1.0","""event"",""trial"",""time""
""fullscreenenter"",""0"",""54069""
","
","
","""event"",""trial"",""time""
""fullscreenenter"",""0"",""54069""
","
","null","<p></p>","null","","","","","","","","","","","","","","","","","","","","","","","",""
"","do_trial","270","737236","0.0-143.0-0.0","""event"",""trial"",""time""
""fullscreenenter"",""0"",""54069""
","
","
","""event"",""trial"",""time""
""fullscreenenter"",""0"",""54069""
","
","577.4000000003725","","","","","","","","49","1,0,0","6","blank","354","null","0.6455642646410756","0.14805047834621052","0.25061431406474194","1","","","","","","","","",""
"","html-keyboard-response","271","738244","0.0-143.0-1.0","""event"",""trial"",""time""
""fullscreenenter"",""0"",""54069""
","
","
","""event"",""trial"",""time""
""fullscreenenter"",""0"",""54069""
","
","null","<p></p>","null","","","","","","","","","","","","","","","","","","","","","","","",""
"","do_recog","272","740893","0.0-144.0-0.0","""event"",""trial"",""time""
""fullscreenenter"",""0"",""54069""
","
","
","""event"",""trial"",""time""
""fullscreenenter"",""0"",""54069""
","
","1129.300000000745","","","","","","","","53","","","","355","probe-66","","","","","1","[object Object]","155","3","1","","","",""
"","html-keyboard-response","273","741901","0.0-144.0-1.0","""event"",""trial"",""time""
""fullscreenenter"",""0"",""54069""
","
","
","""event"",""trial"",""time""
""fullscreenenter"",""0"",""54069""
","
","null","<p></p>","null","","","","","","","","","","","","","","","","","","","","","","","",""
"","do_trial","274","744924","0.0-145.0-0.0","""event"",""trial"",""time""
""fullscreenenter"",""0"",""54069""
","
","
","""event"",""trial"",""time""
""fullscreenenter"",""0"",""54069""
","
","467.90000000037253","","","","","","","","49","1,0,0","6","blank","356","null","0.5874507537680961","0.2142109738526256","0.18175583165025877","1","","","","","","","","",""
"","html-keyboard-response","275","745926","0.0-145.0-1.0","""event"",""trial"",""time""
""fullscreenenter"",""0"",""54069""
","
","
","""event"",""trial"",""time""
""fullscreenenter"",""0"",""54069""
","
","null","<p></p>","null","","","","","","","","","","","","","","","","","","","","","","","",""
