"success","trial_type","trial_index","time_elapsed","internal_node_id","interactions","blur_events","focus_events","fullscreenenter_events","fullscreenexit_events","rt","stimulus","key_press","subject_id","participant_id","age","gender","prompt","response","choice_outcomes","context_n","context_img_id","trial_n","probe_img_id","pR_red","pR_white","pR_black","outcome","is_valid","image_to_show","probed_trial","probed_context","correct","probe","probed_trial_n","probed_context_n","context_im"
"true","fullscreen","0","4035","0.0-0.0","""event"",""trial"",""time""
""fullscreenenter"",""0"",""3110""
","
","
","""event"",""trial"",""time""
""fullscreenenter"",""0"",""3110""
","
","","","","","","","","","","","","","","","","","","","","","","","","","","",""
"","pavlovia","1","4052","0.0-1.0","""event"",""trial"",""time""
""fullscreenenter"",""0"",""3110""
","
","
","""event"",""trial"",""time""
""fullscreenenter"",""0"",""3110""
","
","","","","","","","","","","","","","","","","","","","","","","","","","","",""
"","welc_back","2","13926","0.0-2.0","""event"",""trial"",""time""
""fullscreenenter"",""0"",""3110""
","
","
","""event"",""trial"",""time""
""fullscreenenter"",""0"",""3110""
","
","null","run_exp/static/audio/clip_29_welcome_back.m4a","null","1482","1539","25","Male","<div class='center'><p>Welcome to day 2!</p><p> Yesterday, you were the head captain of a pirate ship. You asked your fellow pirates to rob other ships of their gold across six different islands.</p></div>","","","","","","","","","","","","","","","","","","",""
"","html-keyboard-response","3","15942","0.0-3.0","""event"",""trial"",""time""
""fullscreenenter"",""0"",""3110""
""fullscreenexit"",""4"",""23801""
","
","
","""event"",""trial"",""time""
""fullscreenenter"",""0"",""3110""
","""event"",""trial"",""time""
""fullscreenexit"",""4"",""23801""
","2011.300000011921","<div class='center'><p>Welcome to day 2!</p><p> Yesterday, you were the head captain of a pirate ship. You asked your fellow pirates to rob other ships of their gold across six different islands.</p><p><b>[Press the space bar to continue]</b></p></div>","32","","","","","","","","","","","","","","","","","","","","","","","",""
"","day_1_summary_goal","4","33427","0.0-4.0","""event"",""trial"",""time""
""fullscreenenter"",""0"",""3110""
""fullscreenexit"",""4"",""23801""
","
","
","""event"",""trial"",""time""
""fullscreenenter"",""0"",""3110""
","""event"",""trial"",""time""
""fullscreenexit"",""4"",""23801""
","null","run_exp/static/audio/clip_30_goal_of_game.m4a","null","","","","","<div class='center'><p>Today, like yesterday, you get to pick which pirate you want to rob the next ship.</p><p>If the pirate is successful in robbing a ship, you get gold coins that look like this: </p><p><img src='run_exp/static/images/tutorial/reward.png' height='150'></p><p> If they were not successful in robbing the ship, then you will get no gold coins and you'll see a big red x like this: </p><p><img src='run_exp/static/images/tutorial/reward_no.png' height='150'></p></div>","","","","","","","","","","","","","","","","","","",""
"","html-keyboard-response","5","33789","0.0-5.0","""event"",""trial"",""time""
""fullscreenenter"",""0"",""3110""
""fullscreenexit"",""4"",""23801""
","
","
","""event"",""trial"",""time""
""fullscreenenter"",""0"",""3110""
","""event"",""trial"",""time""
""fullscreenexit"",""4"",""23801""
","357.09999999403954","<div class='center'><p>Today, like yesterday, you get to pick which pirate you want to rob the next ship.</p><p>If the pirate is successful in robbing a ship, you get gold coins that look like this: </p><p><img src='run_exp/static/images/tutorial/reward.png' height='150'></p><p> If they were not successful in robbing the ship, then you will get no gold coins and you'll see a big red x like this: </p><p><img src='run_exp/static/images/tutorial/reward_no.png' height='150'></p><p><b>[Press the space bar to continue]</b></p></div>","32","","","","","","","","","","","","","","","","","","","","","","","",""
"","day_1_summary_pick","6","48764","0.0-6.0","""event"",""trial"",""time""
""fullscreenenter"",""0"",""3110""
""fullscreenexit"",""4"",""23801""
","
","
","""event"",""trial"",""time""
""fullscreenenter"",""0"",""3110""
","""event"",""trial"",""time""
""fullscreenexit"",""4"",""23801""
","null","run_exp/static/audio/clip_31_how_to_pick_a_pirate.m4a","null","","","","","<div class='center'><p>Also, just like yesterday, you will use the 1,2,3 keys on your keyboard to pick a pirate. Press '1' to choose red beard, '2' to choose white beard, and '3' to choose black beard . You only have 3 seconds to pick a pirate, so please make a choice quickly!</p></div>","","","","","","","","","","","","","","","","","","",""
"","html-keyboard-response","7","49012","0.0-7.0","""event"",""trial"",""time""
""fullscreenenter"",""0"",""3110""
""fullscreenexit"",""4"",""23801""
","
","
","""event"",""trial"",""time""
""fullscreenenter"",""0"",""3110""
","""event"",""trial"",""time""
""fullscreenexit"",""4"",""23801""
","242","<div class='center'><p>Also, just like yesterday, you will use the 1,2,3 keys on your keyboard to pick a pirate. Press '1' to choose red beard, '2' to choose white beard, and '3' to choose black beard . You only have 3 seconds to pick a pirate, so please make a choice quickly!</p><p><b>[Press the space bar to continue]</b></p></div>","32","","","","","","","","","","","","","","","","","","","","","","","",""
"","test_phase_begin","8","79681","0.0-8.0","""event"",""trial"",""time""
""fullscreenenter"",""0"",""3110""
""fullscreenexit"",""4"",""23801""
","
","
","""event"",""trial"",""time""
""fullscreenenter"",""0"",""3110""
","""event"",""trial"",""time""
""fullscreenexit"",""4"",""23801""
","null","run_exp/static/audio/clip_32_final_place.m4a","null","","","","","<div class='center'><p>You’ve arrived at the final island of your journey! Unfortunately, it’s very foggy out, so you won’t be able to see it in the distance like the other islands you've visited.</p><p>You’ll still be deciding which pirate you want to rob a ship like before. However, because of the fog, you also won’t be able to see the ship.</p><p>This means you do not have to remember the ships you rob on this island.</p><p>Unlike yesterday, you won't be visiting multiple islands today. You will stay on this island for the entire game. This game will last ~30 minutes.</p></div>","","","","","","","","","","","","","","","","","","",""
"","html-keyboard-response","9","83064","0.0-9.0","""event"",""trial"",""time""
""fullscreenenter"",""0"",""3110""
""fullscreenexit"",""4"",""23801""
","
","
","""event"",""trial"",""time""
""fullscreenenter"",""0"",""3110""
","""event"",""trial"",""time""
""fullscreenexit"",""4"",""23801""
","3379.4000000059605","<div class='center'><p>You’ve arrived at the final island of your journey! Unfortunately, it’s very foggy out, so you won’t be able to see it in the distance like the other islands you've visited.</p><p>You’ll still be deciding which pirate you want to rob a ship like before. However, because of the fog, you also won’t be able to see the ship.</p><p>This means you do not have to remember the ships you rob on this island.</p><p>Unlike yesterday, you won't be visiting multiple islands today. You will stay on this island for the entire game. This game will last ~30 minutes.</p><p><b>[Press the space bar to continue]</b></p></div>","32","","","","","","","","","","","","","","","","","","","","","","","",""
"","explain_probe_1","10","91013","0.0-10.0","""event"",""trial"",""time""
""fullscreenenter"",""0"",""3110""
""fullscreenexit"",""4"",""23801""
","
","
","""event"",""trial"",""time""
""fullscreenenter"",""0"",""3110""
","""event"",""trial"",""time""
""fullscreenexit"",""4"",""23801""
","null","run_exp/static/audio/clip_33_recognition_1.m4a","null","","","","","<div class='center'><p> Sometimes you’ll be shown a ship, and you will be asked if you saw this ship on a past island.</p><p> Here is an example of what you will see.</p><p><img src='run_exp/static/images/tutorial/example_recog_trial.png' height='500'></p></div>","","","","","","","","","","","","","","","","","","",""
"","html-keyboard-response","11","105030","0.0-11.0","""event"",""trial"",""time""
""fullscreenenter"",""0"",""3110""
""fullscreenexit"",""4"",""23801""
","
","
","""event"",""trial"",""time""
""fullscreenenter"",""0"",""3110""
","""event"",""trial"",""time""
""fullscreenexit"",""4"",""23801""
","14003.40000000596","<div class='center'><p> Sometimes you’ll be shown a ship, and you will be asked if you saw this ship on a past island.</p><p> Here is an example of what you will see.</p><p><img src='run_exp/static/images/tutorial/example_recog_trial.png' height='500'></p><p><b>[Press the space bar to continue]</b></p></div>","32","","","","","","","","","","","","","","","","","","","","","","","",""
"","explain_probe_2","12","126801","0.0-12.0","""event"",""trial"",""time""
""fullscreenenter"",""0"",""3110""
""fullscreenexit"",""4"",""23801""
","
","
","""event"",""trial"",""time""
""fullscreenenter"",""0"",""3110""
","""event"",""trial"",""time""
""fullscreenexit"",""4"",""23801""
","null","run_exp/static/audio/clip_34_recognition_2.m4a","null","","","","","<div class='center'><p> You will press the 5, 6, 7, 8 keys on your keyboard to respond.</p><p>If you are sure you saw the ship, press <b>5</b> on your keyboard.</p><p> If you think you saw it before but aren't sure, then press <b>6</b>.</p><p> If you think you have <b>not</b> seen it before but aren't sure, then press <b>7</b>.</p><p> If you are sure you did <b>not</b> see the ship before, then press <b>8</b>.</p><p><img src='run_exp/static/images/tutorial/example_recog_trial.png' height='500'></p></div>","","","","","","","","","","","","","","","","","","",""
"","html-keyboard-response","13","127442","0.0-13.0","""event"",""trial"",""time""
""fullscreenenter"",""0"",""3110""
""fullscreenexit"",""4"",""23801""
","
","
","""event"",""trial"",""time""
""fullscreenenter"",""0"",""3110""
","""event"",""trial"",""time""
""fullscreenexit"",""4"",""23801""
","636.7000000178814","<div class='center'><p> You will press the 5, 6, 7, 8 keys on your keyboard to respond.</p><p>If you are sure you saw the ship, press <b>5</b> on your keyboard.</p><p> If you think you saw it before but aren't sure, then press <b>6</b>.</p><p> If you think you have <b>not</b> seen it before but aren't sure, then press <b>7</b>.</p><p> If you are sure you did <b>not</b> see the ship before, then press <b>8</b>.</p><p><img src='run_exp/static/images/tutorial/example_recog_trial.png' height='500'></p><p><b>[Press the space bar to continue]</b></p></div>","32","","","","","","","","","","","","","","","","","","","","","","","",""
"","explain_outcome","14","144910","0.0-14.0","""event"",""trial"",""time""
""fullscreenenter"",""0"",""3110""
""fullscreenexit"",""4"",""23801""
","
","
","""event"",""trial"",""time""
""fullscreenenter"",""0"",""3110""
","""event"",""trial"",""time""
""fullscreenexit"",""4"",""23801""
","null","run_exp/static/audio/clip_35_recognition_3.m4a","null","","","","","<div class='center'><p> If you remember correctly, then you’ll get a gold coin like this: </p><p><img src='run_exp/static/images/tutorial/reward_small.png' height='200'></p><p>If you do not remember correctly, then you'll see a red x like this: </p><p><img src='run_exp/static/images/tutorial/reward_no.png' height='200'></p><p>Importantly, when you are shown a ship, take the time to remind yourself which island you saw it on. This will help you in the next part of the study.</p></div>","","","","","","","","","","","","","","","","","","",""
"","html-keyboard-response","15","173997","0.0-15.0","""event"",""trial"",""time""
""fullscreenenter"",""0"",""3110""
""fullscreenexit"",""4"",""23801""
","
","
","""event"",""trial"",""time""
""fullscreenenter"",""0"",""3110""
","""event"",""trial"",""time""
""fullscreenexit"",""4"",""23801""
","29075.899999976158","<div class='center'><p> If you remember correctly, then you’ll get a gold coin like this: </p><p><img src='run_exp/static/images/tutorial/reward_small.png' height='200'></p><p>If you do not remember correctly, then you'll see a red x like this: </p><p><img src='run_exp/static/images/tutorial/reward_no.png' height='200'></p><p>Importantly, when you are shown a ship, take the time to remind yourself which island you saw it on. This will help you in the next part of the study.</p><p><b>[Press the space bar to continue]</b></p></div>","32","","","","","","","","","","","","","","","","","","","","","","","",""
"","begin_test_phase","16","190232","0.0-16.0","""event"",""trial"",""time""
""fullscreenenter"",""0"",""3110""
""fullscreenexit"",""4"",""23801""
","
","
","""event"",""trial"",""time""
""fullscreenenter"",""0"",""3110""
","""event"",""trial"",""time""
""fullscreenexit"",""4"",""23801""
","null","run_exp/static/audio/clip_36_begin_final.m4a","null","","","","","<div class='center'><p>Let's go over the important points again. Your job is to: </p><p>1. Pick the pirate who is best at robbing ships and will bring you back gold coins. </p><p>2. Correctly remember whether or not you saw a ship before. If you did see the ship before, remind yourself on which island you saw it. </p></div>","","","","","","","","","","","","","","","","","","",""
"","html-keyboard-response","17","192054","0.0-17.0","""event"",""trial"",""time""
""fullscreenenter"",""0"",""3110""
""fullscreenexit"",""4"",""23801""
","
","
","""event"",""trial"",""time""
""fullscreenenter"",""0"",""3110""
","""event"",""trial"",""time""
""fullscreenexit"",""4"",""23801""
","1575.9000000059605","<div class='center'><p>Let's go over the important points again. Your job is to: </p><p>1. Pick the pirate who is best at robbing ships and will bring you back gold coins. </p><p>2. Correctly remember whether or not you saw a ship before. If you did see the ship before, remind yourself on which island you saw it. </p><p><b>[Press the space bar to continue]</b></p></div>","32","","","","","","","","","","","","","","","","","","","","","","","",""
"","do_welcome","18","196084","0.0-18.0","""event"",""trial"",""time""
""fullscreenenter"",""0"",""3110""
""fullscreenexit"",""4"",""23801""
","
","
","""event"",""trial"",""time""
""fullscreenenter"",""0"",""3110""
","""event"",""trial"",""time""
""fullscreenexit"",""4"",""23801""
","null","","","","","","","","null","","","","","","","","","","","","","","","","","",""
"","do_trial","19","202185","0.0-19.0-0.0","""event"",""trial"",""time""
""fullscreenenter"",""0"",""3110""
""fullscreenexit"",""4"",""23801""
","
","
","""event"",""trial"",""time""
""fullscreenenter"",""0"",""3110""
","""event"",""trial"",""time""
""fullscreenexit"",""4"",""23801""
","null","","","","","","","","null","0,0,1","6","blank","230","null","0.5202037324210087","0.2574556026074096","0.22180376285620043","","","","","","","","","",""
"","html-keyboard-response","20","203195","0.0-19.0-1.0","""event"",""trial"",""time""
""fullscreenenter"",""0"",""3110""
""fullscreenexit"",""4"",""23801""
","
","
","""event"",""trial"",""time""
""fullscreenenter"",""0"",""3110""
","""event"",""trial"",""time""
""fullscreenexit"",""4"",""23801""
","null","<p></p>","null","","","","","","","","","","","","","","","","","","","","","","","",""
"","do_trial","21","206356","0.0-20.0-0.0","""event"",""trial"",""time""
""fullscreenenter"",""0"",""3110""
""fullscreenexit"",""4"",""23801""
","
","
","""event"",""trial"",""time""
""fullscreenenter"",""0"",""3110""
","""event"",""trial"",""time""
""fullscreenexit"",""4"",""23801""
","549.7000000178814","","","","","","","","50","1,1,0","6","blank","231","null","0.6696111984849819","0.15928565308504955","0.33283375715508484","1","","","","","","","","",""
"","html-keyboard-response","22","207359","0.0-20.0-1.0","""event"",""trial"",""time""
""fullscreenenter"",""0"",""3110""
""fullscreenexit"",""4"",""23801""
","
","
","""event"",""trial"",""time""
""fullscreenenter"",""0"",""3110""
","""event"",""trial"",""time""
""fullscreenexit"",""4"",""23801""
","null","<p></p>","null","","","","","","","","","","","","","","","","","","","","","","","",""
"","do_trial","23","210892","0.0-21.0-0.0","""event"",""trial"",""time""
""fullscreenenter"",""0"",""3110""
""fullscreenexit"",""4"",""23801""
","
","
","""event"",""trial"",""time""
""fullscreenenter"",""0"",""3110""
","""event"",""trial"",""time""
""fullscreenexit"",""4"",""23801""
","941.9000000059605","","","","","","","","51","1,0,0","6","blank","232","null","0.5685894916315847","0.09817846593452945","0.3955086398972764","0","","","","","","","","",""
"","html-keyboard-response","24","211896","0.0-21.0-1.0","""event"",""trial"",""time""
""fullscreenenter"",""0"",""3110""
""fullscreenexit"",""4"",""23801""
","
","
","""event"",""trial"",""time""
""fullscreenenter"",""0"",""3110""
","""event"",""trial"",""time""
""fullscreenexit"",""4"",""23801""
","null","<p></p>","null","","","","","","","","","","","","","","","","","","","","","","","",""
"","do_trial","25","214868","0.0-22.0-0.0","""event"",""trial"",""time""
""fullscreenenter"",""0"",""3110""
""fullscreenexit"",""4"",""23801""
","
","
","""event"",""trial"",""time""
""fullscreenenter"",""0"",""3110""
","""event"",""trial"",""time""
""fullscreenexit"",""4"",""23801""
","372.09999999403954","","","","","","","","49","1,0,0","6","blank","233","null","0.5354997893498227","0.24039039265634393","0.37046671475118237","1","","","","","","","","",""
"","html-keyboard-response","26","215872","0.0-22.0-1.0","""event"",""trial"",""time""
""fullscreenenter"",""0"",""3110""
""fullscreenexit"",""4"",""23801""
","
","
","""event"",""trial"",""time""
""fullscreenenter"",""0"",""3110""
","""event"",""trial"",""time""
""fullscreenexit"",""4"",""23801""
","null","<p></p>","null","","","","","","","","","","","","","","","","","","","","","","","",""
"","do_trial","27","218781","0.0-23.0-0.0","""event"",""trial"",""time""
""fullscreenenter"",""0"",""3110""
""fullscreenexit"",""4"",""23801""
","
","
","""event"",""trial"",""time""
""fullscreenenter"",""0"",""3110""
","""event"",""trial"",""time""
""fullscreenexit"",""4"",""23801""
","306.69999998807907","","","","","","","","51","0,1,0","6","blank","234","null","0.4601627857255566","0.15420965433104558","0.32847568140428046","0","","","","","","","","",""
"","html-keyboard-response","28","219785","0.0-23.0-1.0","""event"",""trial"",""time""
""fullscreenenter"",""0"",""3110""
""fullscreenexit"",""4"",""23801""
","
","
","""event"",""trial"",""time""
""fullscreenenter"",""0"",""3110""
","""event"",""trial"",""time""
""fullscreenexit"",""4"",""23801""
","null","<p></p>","null","","","","","","","","","","","","","","","","","","","","","","","",""
"","do_trial","29","223140","0.0-24.0-0.0","""event"",""trial"",""time""
""fullscreenenter"",""0"",""3110""
""fullscreenexit"",""4"",""23801""
","
","
","""event"",""trial"",""time""
""fullscreenenter"",""0"",""3110""
","""event"",""trial"",""time""
""fullscreenexit"",""4"",""23801""
","762","","","","","","","","50","0,0,0","6","blank","235","null","0.35157335274997403","0.0664182434285467","0.3243529280967291","0","","","","","","","","",""
"","html-keyboard-response","30","224143","0.0-24.0-1.0","""event"",""trial"",""time""
""fullscreenenter"",""0"",""3110""
""fullscreenexit"",""4"",""23801""
","
","
","""event"",""trial"",""time""
""fullscreenenter"",""0"",""3110""
","""event"",""trial"",""time""
""fullscreenexit"",""4"",""23801""
","null","<p></p>","null","","","","","","","","","","","","","","","","","","","","","","","",""
"","do_trial","31","227833","0.0-25.0-0.0","""event"",""trial"",""time""
""fullscreenenter"",""0"",""3110""
""fullscreenexit"",""4"",""23801""
","
","
","""event"",""trial"",""time""
""fullscreenenter"",""0"",""3110""
","""event"",""trial"",""time""
""fullscreenexit"",""4"",""23801""
","1097","","","","","","","","49","0,0,0","6","blank","236","null","0.4886924515623383","0.07441454458011806","0.5400603798239544","0","","","","","","","","",""
"","html-keyboard-response","32","228841","0.0-25.0-1.0","""event"",""trial"",""time""
""fullscreenenter"",""0"",""3110""
""fullscreenexit"",""4"",""23801""
","
","
","""event"",""trial"",""time""
""fullscreenenter"",""0"",""3110""
","""event"",""trial"",""time""
""fullscreenexit"",""4"",""23801""
","null","<p></p>","null","","","","","","","","","","","","","","","","","","","","","","","",""
"","do_trial","33","231911","0.0-26.0-0.0","""event"",""trial"",""time""
""fullscreenenter"",""0"",""3110""
""fullscreenexit"",""4"",""23801""
","
","
","""event"",""trial"",""time""
""fullscreenenter"",""0"",""3110""
","""event"",""trial"",""time""
""fullscreenexit"",""4"",""23801""
","474.40000000596046","","","","","","","","50","1,0,0","6","blank","237","null","0.60658125679095","0.09030179590596633","0.4393181285338662","0","","","","","","","","",""
"","html-keyboard-response","34","232914","0.0-26.0-1.0","""event"",""trial"",""time""
""fullscreenenter"",""0"",""3110""
""fullscreenexit"",""4"",""23801""
","
","
","""event"",""trial"",""time""
""fullscreenenter"",""0"",""3110""
","""event"",""trial"",""time""
""fullscreenexit"",""4"",""23801""
","null","<p></p>","null","","","","","","","","","","","","","","","","","","","","","","","",""
"","do_trial","35","235594","0.0-27.0-0.0","""event"",""trial"",""time""
""fullscreenenter"",""0"",""3110""
""fullscreenexit"",""4"",""23801""
","
","
","""event"",""trial"",""time""
""fullscreenenter"",""0"",""3110""
","""event"",""trial"",""time""
""fullscreenexit"",""4"",""23801""
","63.900000005960464","","","","","","","","49","0,0,0","6","blank","238","null","0.62256947088397","0.23553654682576253","0.2888141891736391","0","","","","","","","","",""
"","html-keyboard-response","36","236599","0.0-27.0-1.0","""event"",""trial"",""time""
""fullscreenenter"",""0"",""3110""
""fullscreenexit"",""4"",""23801""
","
","
","""event"",""trial"",""time""
""fullscreenenter"",""0"",""3110""
","""event"",""trial"",""time""
""fullscreenexit"",""4"",""23801""
","null","<p></p>","null","","","","","","","","","","","","","","","","","","","","","","","",""
"","do_trial","37","239218","0.0-28.0-0.0","""event"",""trial"",""time""
""fullscreenenter"",""0"",""3110""
""fullscreenexit"",""4"",""23801""
","
","
","""event"",""trial"",""time""
""fullscreenenter"",""0"",""3110""
","""event"",""trial"",""time""
""fullscreenexit"",""4"",""23801""
","0.4000000059604645","","","","","","","","49","1,0,0","6","blank","239","null","0.5812649465257266","0.293870614696137","0.337511926918096","1","","","","","","","","",""
"","html-keyboard-response","38","240224","0.0-28.0-1.0","""event"",""trial"",""time""
""fullscreenenter"",""0"",""3110""
""fullscreenexit"",""4"",""23801""
","
","
","""event"",""trial"",""time""
""fullscreenenter"",""0"",""3110""
","""event"",""trial"",""time""
""fullscreenexit"",""4"",""23801""
","null","<p></p>","null","","","","","","","","","","","","","","","","","","","","","","","",""
"","do_trial","39","243103","0.0-29.0-0.0","""event"",""trial"",""time""
""fullscreenenter"",""0"",""3110""
""fullscreenexit"",""4"",""23801""
","
","
","""event"",""trial"",""time""
""fullscreenenter"",""0"",""3110""
","""event"",""trial"",""time""
""fullscreenexit"",""4"",""23801""
","274.19999998807907","","","","","","","","50","0,0,0","6","blank","240","null","0.47274227316771666","0.2622758544950126","0.2668525025215096","0","","","","","","","","",""
"","html-keyboard-response","40","244107","0.0-29.0-1.0","""event"",""trial"",""time""
""fullscreenenter"",""0"",""3110""
""fullscreenexit"",""4"",""23801""
","
","
","""event"",""trial"",""time""
""fullscreenenter"",""0"",""3110""
","""event"",""trial"",""time""
""fullscreenexit"",""4"",""23801""
","null","<p></p>","null","","","","","","","","","","","","","","","","","","","","","","","",""
"","do_recog","41","250133","0.0-30.0-0.0","""event"",""trial"",""time""
""fullscreenenter"",""0"",""3110""
""fullscreenexit"",""4"",""23801""
","
","
","""event"",""trial"",""time""
""fullscreenenter"",""0"",""3110""
","""event"",""trial"",""time""
""fullscreenexit"",""4"",""23801""
","null","","","","","","","","null","","","","241","probe-247","","","","","0","[object Object]","null","null","0","","","",""
"","html-keyboard-response","42","251139","0.0-30.0-1.0","""event"",""trial"",""time""
""fullscreenenter"",""0"",""3110""
""fullscreenexit"",""4"",""23801""
","
","
","""event"",""trial"",""time""
""fullscreenenter"",""0"",""3110""
","""event"",""trial"",""time""
""fullscreenexit"",""4"",""23801""
","null","<p></p>","null","","","","","","","","","","","","","","","","","","","","","","","",""
"","do_trial","43","254612","0.0-31.0-0.0","""event"",""trial"",""time""
""fullscreenenter"",""0"",""3110""
""fullscreenexit"",""4"",""23801""
","
","
","""event"",""trial"",""time""
""fullscreenenter"",""0"",""3110""
","""event"",""trial"",""time""
""fullscreenexit"",""4"",""23801""
","884.8000000119209","","","","","","","","50","0,0,0","6","blank","242","null","0.47162105500767104","0.26265604285448196","0.3742089400021631","0","","","","","","","","",""
"","html-keyboard-response","44","255623","0.0-31.0-1.0","""event"",""trial"",""time""
""fullscreenenter"",""0"",""3110""
""fullscreenexit"",""4"",""23801""
","
","
","""event"",""trial"",""time""
""fullscreenenter"",""0"",""3110""
","""event"",""trial"",""time""
""fullscreenexit"",""4"",""23801""
","null","<p></p>","null","","","","","","","","","","","","","","","","","","","","","","","",""
"","do_trial","45","261718","0.0-32.0-0.0","""event"",""trial"",""time""
""fullscreenenter"",""0"",""3110""
""fullscreenexit"",""4"",""23801""
","
","
","""event"",""trial"",""time""
""fullscreenenter"",""0"",""3110""
","""event"",""trial"",""time""
""fullscreenexit"",""4"",""23801""
","null","","","","","","","","null","1,0,0","6","blank","243","null","0.19693473393471947","0.4557122752911188","0.27760658925012716","","","","","","","","","",""
"","html-keyboard-response","46","262722","0.0-32.0-1.0","""event"",""trial"",""time""
""fullscreenenter"",""0"",""3110""
""fullscreenexit"",""4"",""23801""
","
","
","""event"",""trial"",""time""
""fullscreenenter"",""0"",""3110""
","""event"",""trial"",""time""
""fullscreenexit"",""4"",""23801""
","null","<p></p>","null","","","","","","","","","","","","","","","","","","","","","","","",""
"","do_recog","47","268744","0.0-33.0-0.0","""event"",""trial"",""time""
""fullscreenenter"",""0"",""3110""
""fullscreenexit"",""4"",""23801""
","
","
","""event"",""trial"",""time""
""fullscreenenter"",""0"",""3110""
","""event"",""trial"",""time""
""fullscreenexit"",""4"",""23801""
","null","","","","","","","","null","","","","244","probe-100","","","","","1","[object Object]","72","1","0","","","",""
"","html-keyboard-response","48","269748","0.0-33.0-1.0","""event"",""trial"",""time""
""fullscreenenter"",""0"",""3110""
""fullscreenexit"",""4"",""23801""
","
","
","""event"",""trial"",""time""
""fullscreenenter"",""0"",""3110""
","""event"",""trial"",""time""
""fullscreenexit"",""4"",""23801""
","null","<p></p>","null","","","","","","","","","","","","","","","","","","","","","","","",""
"","do_trial","49","272347","0.0-34.0-0.0","""event"",""trial"",""time""
""fullscreenenter"",""0"",""3110""
""fullscreenexit"",""4"",""23801""
","
","
","""event"",""trial"",""time""
""fullscreenenter"",""0"",""3110""
","""event"",""trial"",""time""
""fullscreenexit"",""4"",""23801""
","0.7000000178813934","","","","","","","","49","1,1,0","6","blank","245","null","0.19943712109582534","0.3995457585731738","0.27099407091020594","1","","","","","","","","",""
"","html-keyboard-response","50","273351","0.0-34.0-1.0","""event"",""trial"",""time""
""fullscreenenter"",""0"",""3110""
""fullscreenexit"",""4"",""23801""
","
","
","""event"",""trial"",""time""
""fullscreenenter"",""0"",""3110""
","""event"",""trial"",""time""
""fullscreenexit"",""4"",""23801""
","null","<p></p>","null","","","","","","","","","","","","","","","","","","","","","","","",""
"","do_trial","51","276030","0.0-35.0-0.0","""event"",""trial"",""time""
""fullscreenenter"",""0"",""3110""
""fullscreenexit"",""4"",""23801""
","
","
","""event"",""trial"",""time""
""fullscreenenter"",""0"",""3110""
","""event"",""trial"",""time""
""fullscreenexit"",""4"",""23801""
","73.40000000596046","","","","","","","","49","0,1,0","6","blank","246","null","0.09491560200975467","0.47965649340729244","0.23301222824511938","0","","","","","","","","",""
"","html-keyboard-response","52","277033","0.0-35.0-1.0","""event"",""trial"",""time""
""fullscreenenter"",""0"",""3110""
""fullscreenexit"",""4"",""23801""
","
","
","""event"",""trial"",""time""
""fullscreenenter"",""0"",""3110""
","""event"",""trial"",""time""
""fullscreenexit"",""4"",""23801""
","null","<p></p>","null","","","","","","","","","","","","","","","","","","","","","","","",""
"","do_trial","53","279654","0.0-36.0-0.0","""event"",""trial"",""time""
""fullscreenenter"",""0"",""3110""
""fullscreenexit"",""4"",""23801""
","
","
","""event"",""trial"",""time""
""fullscreenenter"",""0"",""3110""
","""event"",""trial"",""time""
""fullscreenexit"",""4"",""23801""
","28.100000023841858","","","","","","","","51","0,0,0","6","blank","247","null","0.08461308962024738","0.39509571220047096","0.2935582674784275","0","","","","","","","","",""
"","html-keyboard-response","54","280658","0.0-36.0-1.0","""event"",""trial"",""time""
""fullscreenenter"",""0"",""3110""
""fullscreenexit"",""4"",""23801""
","
","
","""event"",""trial"",""time""
""fullscreenenter"",""0"",""3110""
","""event"",""trial"",""time""
""fullscreenexit"",""4"",""23801""
","null","<p></p>","null","","","","","","","","","","","","","","","","","","","","","","","",""
"","do_trial","55","283250","0.0-37.0-0.0","""event"",""trial"",""time""
""fullscreenenter"",""0"",""3110""
""fullscreenexit"",""4"",""23801""
","
","
","""event"",""trial"",""time""
""fullscreenenter"",""0"",""3110""
","""event"",""trial"",""time""
""fullscreenexit"",""4"",""23801""
","0.5999999940395355","","","","","","","","50","0,0,1","6","blank","248","null","0.20779093834581208","0.4253622329016145","0.3661307650899558","0","","","","","","","","",""
"","html-keyboard-response","56","284253","0.0-37.0-1.0","""event"",""trial"",""time""
""fullscreenenter"",""0"",""3110""
""fullscreenexit"",""4"",""23801""
","
","
","""event"",""trial"",""time""
""fullscreenenter"",""0"",""3110""
","""event"",""trial"",""time""
""fullscreenexit"",""4"",""23801""
","null","<p></p>","null","","","","","","","","","","","","","","","","","","","","","","","",""
"","do_recog","57","288006","0.0-38.0-0.0","""event"",""trial"",""time""
""fullscreenenter"",""0"",""3110""
""fullscreenexit"",""4"",""23801""
","
","
","""event"",""trial"",""time""
""fullscreenenter"",""0"",""3110""
","""event"",""trial"",""time""
""fullscreenexit"",""4"",""23801""
","2232.5","","","","","","","","53","","","","249","probe-74","","","","","1","[object Object]","33","0","1","","","",""
"","html-keyboard-response","58","289010","0.0-38.0-1.0","""event"",""trial"",""time""
""fullscreenenter"",""0"",""3110""
""fullscreenexit"",""4"",""23801""
","
","
","""event"",""trial"",""time""
""fullscreenenter"",""0"",""3110""
","""event"",""trial"",""time""
""fullscreenexit"",""4"",""23801""
","null","<p></p>","null","","","","","","","","","","","","","","","","","","","","","","","",""
"","do_trial","59","292288","0.0-39.0-0.0","""event"",""trial"",""time""
""fullscreenenter"",""0"",""3110""
""fullscreenexit"",""4"",""23801""
","
","
","""event"",""trial"",""time""
""fullscreenenter"",""0"",""3110""
","""event"",""trial"",""time""
""fullscreenexit"",""4"",""23801""
","677.9000000059605","","","","","","","","51","0,0,0","6","blank","250","null","0.0985351499747545","0.47050346609881916","0.387573296353237","0","","","","","","","","",""
"","html-keyboard-response","60","293295","0.0-39.0-1.0","""event"",""trial"",""time""
""fullscreenenter"",""0"",""3110""
""fullscreenexit"",""4"",""23801""
","
","
","""event"",""trial"",""time""
""fullscreenenter"",""0"",""3110""
","""event"",""trial"",""time""
""fullscreenexit"",""4"",""23801""
","null","<p></p>","null","","","","","","","","","","","","","","","","","","","","","","","",""
"","do_recog","61","297213","0.0-40.0-0.0","""event"",""trial"",""time""
""fullscreenenter"",""0"",""3110""
""fullscreenexit"",""4"",""23801""
","
","
","""event"",""trial"",""time""
""fullscreenenter"",""0"",""3110""
","""event"",""trial"",""time""
""fullscreenexit"",""4"",""23801""
","2397.800000011921","","","","","","","","54","","","","251","probe-132","","","","","1","[object Object]","110","2","1","","","",""
"","html-keyboard-response","62","298216","0.0-40.0-1.0","""event"",""trial"",""time""
""fullscreenenter"",""0"",""3110""
""fullscreenexit"",""4"",""23801""
","
","
","""event"",""trial"",""time""
""fullscreenenter"",""0"",""3110""
","""event"",""trial"",""time""
""fullscreenexit"",""4"",""23801""
","null","<p></p>","null","","","","","","","","","","","","","","","","","","","","","","","",""
"","do_trial","63","301198","0.0-41.0-0.0","""event"",""trial"",""time""
""fullscreenenter"",""0"",""3110""
""fullscreenexit"",""4"",""23801""
","
","
","""event"",""trial"",""time""
""fullscreenenter"",""0"",""3110""
","""event"",""trial"",""time""
""fullscreenexit"",""4"",""23801""
","385.5","","","","","","","","51","0,1,0","6","blank","252","null","0.07009619291769605","0.4622051875037851","0.21413212684024438","0","","","","","","","","",""
"","html-keyboard-response","64","302202","0.0-41.0-1.0","""event"",""trial"",""time""
""fullscreenenter"",""0"",""3110""
""fullscreenexit"",""4"",""23801""
","
","
","""event"",""trial"",""time""
""fullscreenenter"",""0"",""3110""
","""event"",""trial"",""time""
""fullscreenexit"",""4"",""23801""
","null","<p></p>","null","","","","","","","","","","","","","","","","","","","","","","","",""
"","do_recog","65","305789","0.0-42.0-0.0","""event"",""trial"",""time""
""fullscreenenter"",""0"",""3110""
""fullscreenexit"",""4"",""23801""
","
","
","""event"",""trial"",""time""
""fullscreenenter"",""0"",""3110""
","""event"",""trial"",""time""
""fullscreenexit"",""4"",""23801""
","2064.7000000178814","","","","","","","","54","","","","253","probe-240","","","","","0","[object Object]","null","null","0","","","",""
"","html-keyboard-response","66","306792","0.0-42.0-1.0","""event"",""trial"",""time""
""fullscreenenter"",""0"",""3110""
""fullscreenexit"",""4"",""23801""
","
","
","""event"",""trial"",""time""
""fullscreenenter"",""0"",""3110""
","""event"",""trial"",""time""
""fullscreenexit"",""4"",""23801""
","null","<p></p>","null","","","","","","","","","","","","","","","","","","","","","","","",""
"","do_trial","67","312094","0.0-43.0-0.0","""event"",""trial"",""time""
""fullscreenenter"",""0"",""3110""
""fullscreenexit"",""4"",""23801""
","
","
","""event"",""trial"",""time""
""fullscreenenter"",""0"",""3110""
","""event"",""trial"",""time""
""fullscreenexit"",""4"",""23801""
","2705.800000011921","","","","","","","","51","1,1,1","6","blank","254","null","0.1535695898275087","0.4765945916436386","0.36264154266354104","1","","","","","","","","",""
"","html-keyboard-response","68","313097","0.0-43.0-1.0","""event"",""trial"",""time""
""fullscreenenter"",""0"",""3110""
""fullscreenexit"",""4"",""23801""
","
","
","""event"",""trial"",""time""
""fullscreenenter"",""0"",""3110""
","""event"",""trial"",""time""
""fullscreenexit"",""4"",""23801""
","null","<p></p>","null","","","","","","","","","","","","","","","","","","","","","","","",""
"","do_recog","69","316525","0.0-44.0-0.0","""event"",""trial"",""time""
""fullscreenenter"",""0"",""3110""
""fullscreenexit"",""4"",""23801""
","
","
","""event"",""trial"",""time""
""fullscreenenter"",""0"",""3110""
","""event"",""trial"",""time""
""fullscreenexit"",""4"",""23801""
","1907","","","","","","","","55","","","","255","probe-192","","","","","1","[object Object]","198","4","0","","","",""
"","html-keyboard-response","70","317527","0.0-44.0-1.0","""event"",""trial"",""time""
""fullscreenenter"",""0"",""3110""
""fullscreenexit"",""4"",""23801""
","
","
","""event"",""trial"",""time""
""fullscreenenter"",""0"",""3110""
","""event"",""trial"",""time""
""fullscreenexit"",""4"",""23801""
","null","<p></p>","null","","","","","","","","","","","","","","","","","","","","","","","",""
"","do_trial","71","322820","0.0-45.0-0.0","""event"",""trial"",""time""
""fullscreenenter"",""0"",""3110""
""fullscreenexit"",""4"",""23801""
","
","
","""event"",""trial"",""time""
""fullscreenenter"",""0"",""3110""
","""event"",""trial"",""time""
""fullscreenexit"",""4"",""23801""
","2713.2000000178814","","","","","","","","51","0,1,0","6","blank","256","null","0.06955274940897424","0.4147923458417303","0.3069182480807156","0","","","","","","","","",""
"","html-keyboard-response","72","323824","0.0-45.0-1.0","""event"",""trial"",""time""
""fullscreenenter"",""0"",""3110""
""fullscreenexit"",""4"",""23801""
","
","
","""event"",""trial"",""time""
""fullscreenenter"",""0"",""3110""
","""event"",""trial"",""time""
""fullscreenexit"",""4"",""23801""
","null","<p></p>","null","","","","","","","","","","","","","","","","","","","","","","","",""
"","do_trial","73","326821","0.0-46.0-0.0","""event"",""trial"",""time""
""fullscreenenter"",""0"",""3110""
""fullscreenexit"",""4"",""23801""
","
","
","""event"",""trial"",""time""
""fullscreenenter"",""0"",""3110""
","""event"",""trial"",""time""
""fullscreenexit"",""4"",""23801""
","400.2000000178814","","","","","","","","51","0,1,0","6","blank","257","null","0.11328428130123178","0.5458758857617242","0.2563255193584525","0","","","","","","","","",""
"","html-keyboard-response","74","327824","0.0-46.0-1.0","""event"",""trial"",""time""
""fullscreenenter"",""0"",""3110""
""fullscreenexit"",""4"",""23801""
","
","
","""event"",""trial"",""time""
""fullscreenenter"",""0"",""3110""
","""event"",""trial"",""time""
""fullscreenexit"",""4"",""23801""
","null","<p></p>","null","","","","","","","","","","","","","","","","","","","","","","","",""
"","do_trial","75","331442","0.0-47.0-0.0","""event"",""trial"",""time""
""fullscreenenter"",""0"",""3110""
""fullscreenexit"",""4"",""23801""
","
","
","""event"",""trial"",""time""
""fullscreenenter"",""0"",""3110""
","""event"",""trial"",""time""
""fullscreenexit"",""4"",""23801""
","1027.199999988079","","","","","","","","51","0,1,1","6","blank","258","null","0.08078411423106271","0.6386664297553596","0.30855691994395523","1","","","","","","","","",""
"","html-keyboard-response","76","332445","0.0-47.0-1.0","""event"",""trial"",""time""
""fullscreenenter"",""0"",""3110""
""fullscreenexit"",""4"",""23801""
","
","
","""event"",""trial"",""time""
""fullscreenenter"",""0"",""3110""
","""event"",""trial"",""time""
""fullscreenexit"",""4"",""23801""
","null","<p></p>","null","","","","","","","","","","","","","","","","","","","","","","","",""
"","do_recog","77","336932","0.0-48.0-0.0","""event"",""trial"",""time""
""fullscreenenter"",""0"",""3110""
""fullscreenexit"",""4"",""23801""
","
","
","""event"",""trial"",""time""
""fullscreenenter"",""0"",""3110""
","""event"",""trial"",""time""
""fullscreenexit"",""4"",""23801""
","2960.0999999940395","","","","","","","","55","","","","259","probe-42","","","","","1","[object Object]","159","3","0","","","",""
"","html-keyboard-response","78","337937","0.0-48.0-1.0","""event"",""trial"",""time""
""fullscreenenter"",""0"",""3110""
""fullscreenexit"",""4"",""23801""
","
","
","""event"",""trial"",""time""
""fullscreenenter"",""0"",""3110""
","""event"",""trial"",""time""
""fullscreenexit"",""4"",""23801""
","null","<p></p>","null","","","","","","","","","","","","","","","","","","","","","","","",""
"","do_trial","79","344029","0.0-49.0-0.0","""event"",""trial"",""time""
""fullscreenenter"",""0"",""3110""
""fullscreenexit"",""4"",""23801""
","
","
","""event"",""trial"",""time""
""fullscreenenter"",""0"",""3110""
","""event"",""trial"",""time""
""fullscreenexit"",""4"",""23801""
","null","","","","","","","","null","0,1,0","6","blank","260","null","0.1000224665458956","0.6441622191116033","0.14540570699842517","","","","","","","","","",""
"","html-keyboard-response","80","345033","0.0-49.0-1.0","""event"",""trial"",""time""
""fullscreenenter"",""0"",""3110""
""fullscreenexit"",""4"",""23801""
","
","
","""event"",""trial"",""time""
""fullscreenenter"",""0"",""3110""
","""event"",""trial"",""time""
""fullscreenexit"",""4"",""23801""
","null","<p></p>","null","","","","","","","","","","","","","","","","","","","","","","","",""
"","do_trial","81","348686","0.0-50.0-0.0","""event"",""trial"",""time""
""fullscreenenter"",""0"",""3110""
""fullscreenexit"",""4"",""23801""
","
","
","""event"",""trial"",""time""
""fullscreenenter"",""0"",""3110""
","""event"",""trial"",""time""
""fullscreenexit"",""4"",""23801""
","1055.199999988079","","","","","","","","51","0,0,0","6","blank","261","null","0.09003735947244114","0.7090659867503534","0.28193105634615556","0","","","","","","","","",""
"","html-keyboard-response","82","349689","0.0-50.0-1.0","""event"",""trial"",""time""
""fullscreenenter"",""0"",""3110""
""fullscreenexit"",""4"",""23801""
","
","
","""event"",""trial"",""time""
""fullscreenenter"",""0"",""3110""
","""event"",""trial"",""time""
""fullscreenexit"",""4"",""23801""
","null","<p></p>","null","","","","","","","","","","","","","","","","","","","","","","","",""
"","do_trial","83","355792","0.0-51.0-0.0","""event"",""trial"",""time""
""fullscreenenter"",""0"",""3110""
""fullscreenexit"",""4"",""23801""
","
","
","""event"",""trial"",""time""
""fullscreenenter"",""0"",""3110""
","""event"",""trial"",""time""
""fullscreenexit"",""4"",""23801""
","null","","","","","","","","null","0,1,0","6","blank","262","null","0.06605179096480489","0.6088586752116529","0.2720285619141337","","","","","","","","","",""
"","html-keyboard-response","84","356796","0.0-51.0-1.0","""event"",""trial"",""time""
""fullscreenenter"",""0"",""3110""
""fullscreenexit"",""4"",""23801""
","
","
","""event"",""trial"",""time""
""fullscreenenter"",""0"",""3110""
","""event"",""trial"",""time""
""fullscreenexit"",""4"",""23801""
","null","<p></p>","null","","","","","","","","","","","","","","","","","","","","","","","",""
"","do_recog","85","360759","0.0-52.0-0.0","""event"",""trial"",""time""
""fullscreenenter"",""0"",""3110""
""fullscreenexit"",""4"",""23801""
","
","
","""event"",""trial"",""time""
""fullscreenenter"",""0"",""3110""
","""event"",""trial"",""time""
""fullscreenexit"",""4"",""23801""
","2440.9000000059605","","","","","","","","54","","","","263","probe-242","","","","","0","[object Object]","null","null","0","","","",""
"","html-keyboard-response","86","361762","0.0-52.0-1.0","""event"",""trial"",""time""
""fullscreenenter"",""0"",""3110""
""fullscreenexit"",""4"",""23801""
","
","
","""event"",""trial"",""time""
""fullscreenenter"",""0"",""3110""
","""event"",""trial"",""time""
""fullscreenexit"",""4"",""23801""
","null","<p></p>","null","","","","","","","","","","","","","","","","","","","","","","","",""
"","do_trial","87","367852","0.0-53.0-0.0","""event"",""trial"",""time""
""fullscreenenter"",""0"",""3110""
""fullscreenexit"",""4"",""23801""
","
","
","""event"",""trial"",""time""
""fullscreenenter"",""0"",""3110""
","""event"",""trial"",""time""
""fullscreenexit"",""4"",""23801""
","null","","","","","","","","null","1,0,0","6","blank","264","null","0.17874519507051223","0.6184161342789757","0.2681224957097917","","","","","","","","","",""
"","html-keyboard-response","88","368857","0.0-53.0-1.0","""event"",""trial"",""time""
""fullscreenenter"",""0"",""3110""
""fullscreenexit"",""4"",""23801""
","
","
","""event"",""trial"",""time""
""fullscreenenter"",""0"",""3110""
","""event"",""trial"",""time""
""fullscreenexit"",""4"",""23801""
","null","<p></p>","null","","","","","","","","","","","","","","","","","","","","","","","",""
"","do_trial","89","372183","0.0-54.0-0.0","""event"",""trial"",""time""
""fullscreenenter"",""0"",""3110""
""fullscreenexit"",""4"",""23801""
","
","
","""event"",""trial"",""time""
""fullscreenenter"",""0"",""3110""
","""event"",""trial"",""time""
""fullscreenexit"",""4"",""23801""
","741.5","","","","","","","","51","0,1,1","6","blank","265","null","0.16831618712848234","0.5012434831141991","0.36780358319160983","1","","","","","","","","",""
"","html-keyboard-response","90","373187","0.0-54.0-1.0","""event"",""trial"",""time""
""fullscreenenter"",""0"",""3110""
""fullscreenexit"",""4"",""23801""
","
","
","""event"",""trial"",""time""
""fullscreenenter"",""0"",""3110""
","""event"",""trial"",""time""
""fullscreenexit"",""4"",""23801""
","null","<p></p>","null","","","","","","","","","","","","","","","","","","","","","","","",""
"","do_trial","91","377213","0.0-55.0-0.0","""event"",""trial"",""time""
""fullscreenenter"",""0"",""3110""
""fullscreenexit"",""4"",""23801""
","
","
","""event"",""trial"",""time""
""fullscreenenter"",""0"",""3110""
","""event"",""trial"",""time""
""fullscreenexit"",""4"",""23801""
","1433.8999999761581","","","","","","","","51","1,1,1","6","blank","266","null","0.16985738833215738","0.6488983774995016","0.46089174884107514","1","","","","","","","","",""
"","html-keyboard-response","92","378216","0.0-55.0-1.0","""event"",""trial"",""time""
""fullscreenenter"",""0"",""3110""
""fullscreenexit"",""4"",""23801""
","
","
","""event"",""trial"",""time""
""fullscreenenter"",""0"",""3110""
","""event"",""trial"",""time""
""fullscreenexit"",""4"",""23801""
","null","<p></p>","null","","","","","","","","","","","","","","","","","","","","","","","",""
"","do_trial","93","381697","0.0-56.0-0.0","""event"",""trial"",""time""
""fullscreenenter"",""0"",""3110""
""fullscreenexit"",""4"",""23801""
","
","
","""event"",""trial"",""time""
""fullscreenenter"",""0"",""3110""
","""event"",""trial"",""time""
""fullscreenexit"",""4"",""23801""
","853.6999999880791","","","","","","","","51","0,1,0","6","blank","267","null","0.12034697575753515","0.5268573457234343","0.4345964781775786","0","","","","","","","","",""
"","html-keyboard-response","94","382703","0.0-56.0-1.0","""event"",""trial"",""time""
""fullscreenenter"",""0"",""3110""
""fullscreenexit"",""4"",""23801""
","
","
","""event"",""trial"",""time""
""fullscreenenter"",""0"",""3110""
","""event"",""trial"",""time""
""fullscreenexit"",""4"",""23801""
","null","<p></p>","null","","","","","","","","","","","","","","","","","","","","","","","",""
"","do_recog","95","385904","0.0-57.0-0.0","""event"",""trial"",""time""
""fullscreenenter"",""0"",""3110""
""fullscreenexit"",""4"",""23801""
","
","
","""event"",""trial"",""time""
""fullscreenenter"",""0"",""3110""
","""event"",""trial"",""time""
""fullscreenexit"",""4"",""23801""
","1691.5999999940395","","","","","","","","54","","","","268","probe-163","","","","","1","[object Object]","32","0","1","","","",""
"","html-keyboard-response","96","386908","0.0-57.0-1.0","""event"",""trial"",""time""
""fullscreenenter"",""0"",""3110""
""fullscreenexit"",""4"",""23801""
","
","
","""event"",""trial"",""time""
""fullscreenenter"",""0"",""3110""
","""event"",""trial"",""time""
""fullscreenexit"",""4"",""23801""
","null","<p></p>","null","","","","","","","","","","","","","","","","","","","","","","","",""
"","break","97","390249","0.0-58.0-0.0","""event"",""trial"",""time""
""fullscreenenter"",""0"",""3110""
""fullscreenexit"",""4"",""23801""
","
","
","""event"",""trial"",""time""
""fullscreenenter"",""0"",""3110""
","""event"",""trial"",""time""
""fullscreenexit"",""4"",""23801""
","3337.7000000178814","<div class='center'><p>Time to take a quick break! You have 2 minutes to rest, but you can move on sooner if you'd like.</p><p> Press the <b>space bar</b> to continue.</p></div>","32","","","","","","","","","","","","","","","","","","","","","","","",""
"","do_trial","98","394498","0.0-58.0-1.0","""event"",""trial"",""time""
""fullscreenenter"",""0"",""3110""
""fullscreenexit"",""4"",""23801""
","
","
","""event"",""trial"",""time""
""fullscreenenter"",""0"",""3110""
","""event"",""trial"",""time""
""fullscreenexit"",""4"",""23801""
","1662.8999999761581","","","","","","","","49","1,0,0","6","blank","269","null","0.16280491999601626","0.5950918119109009","0.353918640323092","1","","","","","","","","",""
"","html-keyboard-response","99","395501","0.0-58.0-2.0","""event"",""trial"",""time""
""fullscreenenter"",""0"",""3110""
""fullscreenexit"",""4"",""23801""
","
","
","""event"",""trial"",""time""
""fullscreenenter"",""0"",""3110""
","""event"",""trial"",""time""
""fullscreenexit"",""4"",""23801""
","null","<p></p>","null","","","","","","","","","","","","","","","","","","","","","","","",""
"","do_recog","100","399420","0.0-59.0-0.0","""event"",""trial"",""time""
""fullscreenenter"",""0"",""3110""
""fullscreenexit"",""4"",""23801""
","
","
","""event"",""trial"",""time""
""fullscreenenter"",""0"",""3110""
","""event"",""trial"",""time""
""fullscreenexit"",""4"",""23801""
","2398.2999999821186","","","","","","","","55","","","","270","probe-238","","","","","0","[object Object]","null","null","1","","","",""
"","html-keyboard-response","101","400423","0.0-59.0-1.0","""event"",""trial"",""time""
""fullscreenenter"",""0"",""3110""
""fullscreenexit"",""4"",""23801""
","
","
","""event"",""trial"",""time""
""fullscreenenter"",""0"",""3110""
","""event"",""trial"",""time""
""fullscreenexit"",""4"",""23801""
","null","<p></p>","null","","","","","","","","","","","","","","","","","","","","","","","",""
"","do_trial","102","404822","0.0-60.0-0.0","""event"",""trial"",""time""
""fullscreenenter"",""0"",""3110""
""fullscreenexit"",""4"",""23801""
","
","
","""event"",""trial"",""time""
""fullscreenenter"",""0"",""3110""
","""event"",""trial"",""time""
""fullscreenexit"",""4"",""23801""
","1806.7999999821186","","","","","","","","50","0,0,0","6","blank","271","null","0.14366250800112454","0.5167395000241468","0.24443891422344208","0","","","","","","","","",""
"","html-keyboard-response","103","405826","0.0-60.0-1.0","""event"",""trial"",""time""
""fullscreenenter"",""0"",""3110""
""fullscreenexit"",""4"",""23801""
","
","
","""event"",""trial"",""time""
""fullscreenenter"",""0"",""3110""
","""event"",""trial"",""time""
""fullscreenexit"",""4"",""23801""
","null","<p></p>","null","","","","","","","","","","","","","","","","","","","","","","","",""
"","do_recog","104","409877","0.0-61.0-0.0","""event"",""trial"",""time""
""fullscreenenter"",""0"",""3110""
""fullscreenexit"",""4"",""23801""
","
","
","""event"",""trial"",""time""
""fullscreenenter"",""0"",""3110""
","""event"",""trial"",""time""
""fullscreenexit"",""4"",""23801""
","2528","","","","","","","","56","","","","272","probe-231","","","","","0","[object Object]","null","null","1","","","",""
"","html-keyboard-response","105","410881","0.0-61.0-1.0","""event"",""trial"",""time""
""fullscreenenter"",""0"",""3110""
""fullscreenexit"",""4"",""23801""
","
","
","""event"",""trial"",""time""
""fullscreenenter"",""0"",""3110""
","""event"",""trial"",""time""
""fullscreenexit"",""4"",""23801""
","null","<p></p>","null","","","","","","","","","","","","","","","","","","","","","","","",""
"","do_trial","106","415345","0.0-62.0-0.0","""event"",""trial"",""time""
""fullscreenenter"",""0"",""3110""
""fullscreenexit"",""4"",""23801""
","
","
","""event"",""trial"",""time""
""fullscreenenter"",""0"",""3110""
","""event"",""trial"",""time""
""fullscreenexit"",""4"",""23801""
","1865","","","","","","","","49","0,1,0","6","blank","273","null","0.1899137025425859","0.4938961747395478","0.17992221141469436","0","","","","","","","","",""
"","html-keyboard-response","107","416349","0.0-62.0-1.0","""event"",""trial"",""time""
""fullscreenenter"",""0"",""3110""
""fullscreenexit"",""4"",""23801""
","
","
","""event"",""trial"",""time""
""fullscreenenter"",""0"",""3110""
","""event"",""trial"",""time""
""fullscreenexit"",""4"",""23801""
","null","<p></p>","null","","","","","","","","","","","","","","","","","","","","","","","",""
"","do_recog","108","420189","0.0-63.0-0.0","""event"",""trial"",""time""
""fullscreenenter"",""0"",""3110""
""fullscreenexit"",""4"",""23801""
","
","
","""event"",""trial"",""time""
""fullscreenenter"",""0"",""3110""
","""event"",""trial"",""time""
""fullscreenexit"",""4"",""23801""
","2318.2999999821186","","","","","","","","56","","","","274","probe-207","","","","","1","[object Object]","116","2","0","","","",""
"","html-keyboard-response","109","421193","0.0-63.0-1.0","""event"",""trial"",""time""
""fullscreenenter"",""0"",""3110""
""fullscreenexit"",""4"",""23801""
","
","
","""event"",""trial"",""time""
""fullscreenenter"",""0"",""3110""
","""event"",""trial"",""time""
""fullscreenexit"",""4"",""23801""
","null","<p></p>","null","","","","","","","","","","","","","","","","","","","","","","","",""
"","do_trial","110","425230","0.0-64.0-0.0","""event"",""trial"",""time""
""fullscreenenter"",""0"",""3110""
""fullscreenexit"",""4"",""23801""
","
","
","""event"",""trial"",""time""
""fullscreenenter"",""0"",""3110""
","""event"",""trial"",""time""
""fullscreenexit"",""4"",""23801""
","1439.5","","","","","","","","51","0,0,1","6","blank","275","null","0.17218781851523232","0.4920173651728078","0.2502639481205879","1","","","","","","","","",""
"","html-keyboard-response","111","426234","0.0-64.0-1.0","""event"",""trial"",""time""
""fullscreenenter"",""0"",""3110""
""fullscreenexit"",""4"",""23801""
","
","
","""event"",""trial"",""time""
""fullscreenenter"",""0"",""3110""
","""event"",""trial"",""time""
""fullscreenexit"",""4"",""23801""
","null","<p></p>","null","","","","","","","","","","","","","","","","","","","","","","","",""
"","do_recog","112","429663","0.0-65.0-0.0","""event"",""trial"",""time""
""fullscreenenter"",""0"",""3110""
""fullscreenexit"",""4"",""23801""
","
","
","""event"",""trial"",""time""
""fullscreenenter"",""0"",""3110""
","""event"",""trial"",""time""
""fullscreenexit"",""4"",""23801""
","1897.2000000178814","","","","","","","","55","","","","276","probe-182","","","","","1","[object Object]","35","0","0","","","",""
"","html-keyboard-response","113","430666","0.0-65.0-1.0","""event"",""trial"",""time""
""fullscreenenter"",""0"",""3110""
""fullscreenexit"",""4"",""23801""
","
","
","""event"",""trial"",""time""
""fullscreenenter"",""0"",""3110""
","""event"",""trial"",""time""
""fullscreenexit"",""4"",""23801""
","null","<p></p>","null","","","","","","","","","","","","","","","","","","","","","","","",""
"","do_trial","114","434458","0.0-66.0-0.0","""event"",""trial"",""time""
""fullscreenenter"",""0"",""3110""
""fullscreenexit"",""4"",""23801""
","
","
","""event"",""trial"",""time""
""fullscreenenter"",""0"",""3110""
","""event"",""trial"",""time""
""fullscreenexit"",""4"",""23801""
","1192.199999988079","","","","","","","","51","0,0,1","6","blank","277","null","0.20444152502142202","0.5599337729523669","0.2493842917008363","1","","","","","","","","",""
"","html-keyboard-response","115","435462","0.0-66.0-1.0","""event"",""trial"",""time""
""fullscreenenter"",""0"",""3110""
""fullscreenexit"",""4"",""23801""
","
","
","""event"",""trial"",""time""
""fullscreenenter"",""0"",""3110""
","""event"",""trial"",""time""
""fullscreenexit"",""4"",""23801""
","null","<p></p>","null","","","","","","","","","","","","","","","","","","","","","","","",""
"","do_trial","116","439098","0.0-67.0-0.0","""event"",""trial"",""time""
""fullscreenenter"",""0"",""3110""
""fullscreenexit"",""4"",""23801""
","
","
","""event"",""trial"",""time""
""fullscreenenter"",""0"",""3110""
","""event"",""trial"",""time""
""fullscreenexit"",""4"",""23801""
","1049.0999999940395","","","","","","","","50","0,0,0","6","blank","278","null","0.11280103823749078","0.6086082990773454","0.33415230757008213","0","","","","","","","","",""
"","html-keyboard-response","117","440101","0.0-67.0-1.0","""event"",""trial"",""time""
""fullscreenenter"",""0"",""3110""
""fullscreenexit"",""4"",""23801""
","
","
","""event"",""trial"",""time""
""fullscreenenter"",""0"",""3110""
","""event"",""trial"",""time""
""fullscreenexit"",""4"",""23801""
","null","<p></p>","null","","","","","","","","","","","","","","","","","","","","","","","",""
"","do_recog","118","443868","0.0-68.0-0.0","""event"",""trial"",""time""
""fullscreenenter"",""0"",""3110""
""fullscreenexit"",""4"",""23801""
","
","
","""event"",""trial"",""time""
""fullscreenenter"",""0"",""3110""
","""event"",""trial"",""time""
""fullscreenexit"",""4"",""23801""
","2257","","","","","","","","56","","","","279","probe-252","","","","","0","[object Object]","null","null","1","","","",""
"","html-keyboard-response","119","444871","0.0-68.0-1.0","""event"",""trial"",""time""
""fullscreenenter"",""0"",""3110""
""fullscreenexit"",""4"",""23801""
","
","
","""event"",""trial"",""time""
""fullscreenenter"",""0"",""3110""
","""event"",""trial"",""time""
""fullscreenexit"",""4"",""23801""
","null","<p></p>","null","","","","","","","","","","","","","","","","","","","","","","","",""
"","do_trial","120","448805","0.0-69.0-0.0","""event"",""trial"",""time""
""fullscreenenter"",""0"",""3110""
""fullscreenexit"",""4"",""23801""
","
","
","""event"",""trial"",""time""
""fullscreenenter"",""0"",""3110""
","""event"",""trial"",""time""
""fullscreenexit"",""4"",""23801""
","1342.699999988079","","","","","","","","49","0,1,0","6","blank","280","null","0.16315245540625917","0.7422174906290048","0.2536456107832636","0","","","","","","","","",""
"","html-keyboard-response","121","449809","0.0-69.0-1.0","""event"",""trial"",""time""
""fullscreenenter"",""0"",""3110""
""fullscreenexit"",""4"",""23801""
","
","
","""event"",""trial"",""time""
""fullscreenenter"",""0"",""3110""
","""event"",""trial"",""time""
""fullscreenexit"",""4"",""23801""
","null","<p></p>","null","","","","","","","","","","","","","","","","","","","","","","","",""
"","do_recog","122","453410","0.0-70.0-0.0","""event"",""trial"",""time""
""fullscreenenter"",""0"",""3110""
""fullscreenexit"",""4"",""23801""
","
","
","""event"",""trial"",""time""
""fullscreenenter"",""0"",""3110""
","""event"",""trial"",""time""
""fullscreenexit"",""4"",""23801""
","2080.5999999940395","","","","","","","","56","","","","281","probe-174","","","","","1","[object Object]","192","4","0","","","",""
"","html-keyboard-response","123","454415","0.0-70.0-1.0","""event"",""trial"",""time""
""fullscreenenter"",""0"",""3110""
""fullscreenexit"",""4"",""23801""
","
","
","""event"",""trial"",""time""
""fullscreenenter"",""0"",""3110""
","""event"",""trial"",""time""
""fullscreenexit"",""4"",""23801""
","null","<p></p>","null","","","","","","","","","","","","","","","","","","","","","","","",""
"","do_trial","124","458656","0.0-71.0-0.0","""event"",""trial"",""time""
""fullscreenenter"",""0"",""3110""
""fullscreenexit"",""4"",""23801""
","
","
","""event"",""trial"",""time""
""fullscreenenter"",""0"",""3110""
","""event"",""trial"",""time""
""fullscreenexit"",""4"",""23801""
","1636.2999999821186","","","","","","","","50","0,1,0","6","blank","282","null","0.3264210446076959","0.737245077512975","0.29377394105261795","1","","","","","","","","",""
"","html-keyboard-response","125","459659","0.0-71.0-1.0","""event"",""trial"",""time""
""fullscreenenter"",""0"",""3110""
""fullscreenexit"",""4"",""23801""
","
","
","""event"",""trial"",""time""
""fullscreenenter"",""0"",""3110""
","""event"",""trial"",""time""
""fullscreenexit"",""4"",""23801""
","null","<p></p>","null","","","","","","","","","","","","","","","","","","","","","","","",""
"","do_trial","126","464187","0.0-72.0-0.0","""event"",""trial"",""time""
""fullscreenenter"",""0"",""3110""
""fullscreenexit"",""4"",""23801""
","
","
","""event"",""trial"",""time""
""fullscreenenter"",""0"",""3110""
","""event"",""trial"",""time""
""fullscreenexit"",""4"",""23801""
","1927.800000011921","","","","","","","","50","0,0,1","6","blank","283","null","0.17775409089972083","0.7772728952596868","0.42495990090533287","0","","","","","","","","",""
"","html-keyboard-response","127","465190","0.0-72.0-1.0","""event"",""trial"",""time""
""fullscreenenter"",""0"",""3110""
""fullscreenexit"",""4"",""23801""
","
","
","""event"",""trial"",""time""
""fullscreenenter"",""0"",""3110""
","""event"",""trial"",""time""
""fullscreenexit"",""4"",""23801""
","null","<p></p>","null","","","","","","","","","","","","","","","","","","","","","","","",""
"","do_trial","128","469429","0.0-73.0-0.0","""event"",""trial"",""time""
""fullscreenenter"",""0"",""3110""
""fullscreenexit"",""4"",""23801""
","
","
","""event"",""trial"",""time""
""fullscreenenter"",""0"",""3110""
","""event"",""trial"",""time""
""fullscreenexit"",""4"",""23801""
","1639.0999999940395","","","","","","","","51","0,1,1","6","blank","284","null","0.09007674297003916","0.7327284115914742","0.4549652669703138","1","","","","","","","","",""
"","html-keyboard-response","129","470433","0.0-73.0-1.0","""event"",""trial"",""time""
""fullscreenenter"",""0"",""3110""
""fullscreenexit"",""4"",""23801""
","
","
","""event"",""trial"",""time""
""fullscreenenter"",""0"",""3110""
","""event"",""trial"",""time""
""fullscreenexit"",""4"",""23801""
","null","<p></p>","null","","","","","","","","","","","","","","","","","","","","","","","",""
"","do_trial","130","474680","0.0-74.0-0.0","""event"",""trial"",""time""
""fullscreenenter"",""0"",""3110""
""fullscreenexit"",""4"",""23801""
","
","
","""event"",""trial"",""time""
""fullscreenenter"",""0"",""3110""
","""event"",""trial"",""time""
""fullscreenexit"",""4"",""23801""
","1638.0999999940395","","","","","","","","50","0,1,1","6","blank","285","null","0.10854719921244588","0.7579610992442538","0.45052913021533786","1","","","","","","","","",""
"","html-keyboard-response","131","475683","0.0-74.0-1.0","""event"",""trial"",""time""
""fullscreenenter"",""0"",""3110""
""fullscreenexit"",""4"",""23801""
","
","
","""event"",""trial"",""time""
""fullscreenenter"",""0"",""3110""
","""event"",""trial"",""time""
""fullscreenexit"",""4"",""23801""
","null","<p></p>","null","","","","","","","","","","","","","","","","","","","","","","","",""
"","do_trial","132","479267","0.0-75.0-0.0","""event"",""trial"",""time""
""fullscreenenter"",""0"",""3110""
""fullscreenexit"",""4"",""23801""
","
","
","""event"",""trial"",""time""
""fullscreenenter"",""0"",""3110""
","""event"",""trial"",""time""
""fullscreenexit"",""4"",""23801""
","991.2000000178814","","","","","","","","49","0,1,1","6","blank","286","null","0.09349686244737909","0.7098853954538246","0.29332034309101496","0","","","","","","","","",""
"","html-keyboard-response","133","480270","0.0-75.0-1.0","""event"",""trial"",""time""
""fullscreenenter"",""0"",""3110""
""fullscreenexit"",""4"",""23801""
","
","
","""event"",""trial"",""time""
""fullscreenenter"",""0"",""3110""
","""event"",""trial"",""time""
""fullscreenexit"",""4"",""23801""
","null","<p></p>","null","","","","","","","","","","","","","","","","","","","","","","","",""
"","do_trial","134","486369","0.0-76.0-0.0","""event"",""trial"",""time""
""fullscreenenter"",""0"",""3110""
""fullscreenexit"",""4"",""23801""
","
","
","""event"",""trial"",""time""
""fullscreenenter"",""0"",""3110""
","""event"",""trial"",""time""
""fullscreenexit"",""4"",""23801""
","null","","","","","","","","null","0,0,1","6","blank","287","null","0.15667686689499596","0.47261946222597273","0.16973898875437968","","","","","","","","","",""
"","html-keyboard-response","135","487372","0.0-76.0-1.0","""event"",""trial"",""time""
""fullscreenenter"",""0"",""3110""
""fullscreenexit"",""4"",""23801""
","
","
","""event"",""trial"",""time""
""fullscreenenter"",""0"",""3110""
","""event"",""trial"",""time""
""fullscreenexit"",""4"",""23801""
","null","<p></p>","null","","","","","","","","","","","","","","","","","","","","","","","",""
"","do_trial","136","492790","0.0-77.0-0.0","""event"",""trial"",""time""
""fullscreenenter"",""0"",""3110""
""fullscreenexit"",""4"",""23801""
","
","
","""event"",""trial"",""time""
""fullscreenenter"",""0"",""3110""
","""event"",""trial"",""time""
""fullscreenexit"",""4"",""23801""
","2826.0999999940395","","","","","","","","51","0,1,1","6","blank","288","null","0.12394459955531263","0.4280582847194937","0.32804180602353944","1","","","","","","","","",""
"","html-keyboard-response","137","493793","0.0-77.0-1.0","""event"",""trial"",""time""
""fullscreenenter"",""0"",""3110""
""fullscreenexit"",""4"",""23801""
","
","
","""event"",""trial"",""time""
""fullscreenenter"",""0"",""3110""
","""event"",""trial"",""time""
""fullscreenexit"",""4"",""23801""
","null","<p></p>","null","","","","","","","","","","","","","","","","","","","","","","","",""
"","do_recog","138","497737","0.0-78.0-0.0","""event"",""trial"",""time""
""fullscreenenter"",""0"",""3110""
""fullscreenexit"",""4"",""23801""
","
","
","""event"",""trial"",""time""
""fullscreenenter"",""0"",""3110""
","""event"",""trial"",""time""
""fullscreenexit"",""4"",""23801""
","2434","","","","","","","","56","","","","289","probe-121","","","","","1","[object Object]","118","2","0","","","",""
"","html-keyboard-response","139","498742","0.0-78.0-1.0","""event"",""trial"",""time""
""fullscreenenter"",""0"",""3110""
""fullscreenexit"",""4"",""23801""
","
","
","""event"",""trial"",""time""
""fullscreenenter"",""0"",""3110""
","""event"",""trial"",""time""
""fullscreenexit"",""4"",""23801""
","null","<p></p>","null","","","","","","","","","","","","","","","","","","","","","","","",""
"","do_trial","140","504105","0.0-79.0-0.0","""event"",""trial"",""time""
""fullscreenenter"",""0"",""3110""
""fullscreenexit"",""4"",""23801""
","
","
","""event"",""trial"",""time""
""fullscreenenter"",""0"",""3110""
","""event"",""trial"",""time""
""fullscreenexit"",""4"",""23801""
","2757.5","","","","","","","","51","0,1,1","6","blank","290","null","0.08798944191334407","0.5145788293424224","0.3835246762547997","1","","","","","","","","",""
"","html-keyboard-response","141","505108","0.0-79.0-1.0","""event"",""trial"",""time""
""fullscreenenter"",""0"",""3110""
""fullscreenexit"",""4"",""23801""
","
","
","""event"",""trial"",""time""
""fullscreenenter"",""0"",""3110""
","""event"",""trial"",""time""
""fullscreenexit"",""4"",""23801""
","null","<p></p>","null","","","","","","","","","","","","","","","","","","","","","","","",""
"","do_recog","142","511131","0.0-80.0-0.0","""event"",""trial"",""time""
""fullscreenenter"",""0"",""3110""
""fullscreenexit"",""4"",""23801""
","
","
","""event"",""trial"",""time""
""fullscreenenter"",""0"",""3110""
","""event"",""trial"",""time""
""fullscreenexit"",""4"",""23801""
","null","","","","","","","","null","","","","291","probe-142","","","","","1","[object Object]","158","3","0","","","",""
"","html-keyboard-response","143","512136","0.0-80.0-1.0","""event"",""trial"",""time""
""fullscreenenter"",""0"",""3110""
""fullscreenexit"",""4"",""23801""
","
","
","""event"",""trial"",""time""
""fullscreenenter"",""0"",""3110""
","""event"",""trial"",""time""
""fullscreenexit"",""4"",""23801""
","null","<p></p>","null","","","","","","","","","","","","","","","","","","","","","","","",""
"","do_trial","144","517092","0.0-81.0-0.0","""event"",""trial"",""time""
""fullscreenenter"",""0"",""3110""
""fullscreenexit"",""4"",""23801""
","
","
","""event"",""trial"",""time""
""fullscreenenter"",""0"",""3110""
","""event"",""trial"",""time""
""fullscreenexit"",""4"",""23801""
","2356.699999988079","","","","","","","","51","0,1,0","6","blank","292","null","0.07066039719536854","0.5398755959766033","0.3295101368759753","0","","","","","","","","",""
"","html-keyboard-response","145","518095","0.0-81.0-1.0","""event"",""trial"",""time""
""fullscreenenter"",""0"",""3110""
""fullscreenexit"",""4"",""23801""
","
","
","""event"",""trial"",""time""
""fullscreenenter"",""0"",""3110""
","""event"",""trial"",""time""
""fullscreenexit"",""4"",""23801""
","null","<p></p>","null","","","","","","","","","","","","","","","","","","","","","","","",""
"","do_recog","146","521969","0.0-82.0-0.0","""event"",""trial"",""time""
""fullscreenenter"",""0"",""3110""
""fullscreenexit"",""4"",""23801""
","
","
","""event"",""trial"",""time""
""fullscreenenter"",""0"",""3110""
","""event"",""trial"",""time""
""fullscreenexit"",""4"",""23801""
","2352.699999988079","","","","","","","","56","","","","293","probe-184","","","","","1","[object Object]","191","4","0","","","",""
"","html-keyboard-response","147","522973","0.0-82.0-1.0","""event"",""trial"",""time""
""fullscreenenter"",""0"",""3110""
""fullscreenexit"",""4"",""23801""
","
","
","""event"",""trial"",""time""
""fullscreenenter"",""0"",""3110""
","""event"",""trial"",""time""
""fullscreenexit"",""4"",""23801""
","null","<p></p>","null","","","","","","","","","","","","","","","","","","","","","","","",""
"","do_trial","148","528131","0.0-83.0-0.0","""event"",""trial"",""time""
""fullscreenenter"",""0"",""3110""
""fullscreenexit"",""4"",""23801""
","
","
","""event"",""trial"",""time""
""fullscreenenter"",""0"",""3110""
","""event"",""trial"",""time""
""fullscreenexit"",""4"",""23801""
","2564.2999999821186","","","","","","","","51","0,1,0","6","blank","294","null","0.10813397343346447","0.678292949855904","0.2743945972557413","0","","","","","","","","",""
"","html-keyboard-response","149","529134","0.0-83.0-1.0","""event"",""trial"",""time""
""fullscreenenter"",""0"",""3110""
""fullscreenexit"",""4"",""23801""
","
","
","""event"",""trial"",""time""
""fullscreenenter"",""0"",""3110""
","""event"",""trial"",""time""
""fullscreenexit"",""4"",""23801""
","null","<p></p>","null","","","","","","","","","","","","","","","","","","","","","","","",""
"","do_trial","150","533903","0.0-84.0-0.0","""event"",""trial"",""time""
""fullscreenenter"",""0"",""3110""
""fullscreenexit"",""4"",""23801""
","
","
","""event"",""trial"",""time""
""fullscreenenter"",""0"",""3110""
","""event"",""trial"",""time""
""fullscreenexit"",""4"",""23801""
","2181.100000023842","","","","","","","","51","0,0,1","6","blank","295","null","0.12685755071151372","0.7785435212711005","0.20596801505601356","1","","","","","","","","",""
"","html-keyboard-response","151","534906","0.0-84.0-1.0","""event"",""trial"",""time""
""fullscreenenter"",""0"",""3110""
""fullscreenexit"",""4"",""23801""
","
","
","""event"",""trial"",""time""
""fullscreenenter"",""0"",""3110""
","""event"",""trial"",""time""
""fullscreenexit"",""4"",""23801""
","null","<p></p>","null","","","","","","","","","","","","","","","","","","","","","","","",""
"","do_recog","152","537524","0.0-85.0-0.0","""event"",""trial"",""time""
""fullscreenenter"",""0"",""3110""
""fullscreenexit"",""4"",""23801""
","
","
","""event"",""trial"",""time""
""fullscreenenter"",""0"",""3110""
","""event"",""trial"",""time""
""fullscreenexit"",""4"",""23801""
","1110.800000011921","","","","","","","","56","","","","296","probe-92","","","","","1","[object Object]","111","2","0","","","",""
"","html-keyboard-response","153","538528","0.0-85.0-1.0","""event"",""trial"",""time""
""fullscreenenter"",""0"",""3110""
""fullscreenexit"",""4"",""23801""
","
","
","""event"",""trial"",""time""
""fullscreenenter"",""0"",""3110""
","""event"",""trial"",""time""
""fullscreenexit"",""4"",""23801""
","null","<p></p>","null","","","","","","","","","","","","","","","","","","","","","","","",""
"","do_trial","154","543864","0.0-86.0-0.0","""event"",""trial"",""time""
""fullscreenenter"",""0"",""3110""
""fullscreenexit"",""4"",""23801""
","
","
","""event"",""trial"",""time""
""fullscreenenter"",""0"",""3110""
","""event"",""trial"",""time""
""fullscreenexit"",""4"",""23801""
","2719.800000011921","","","","","","","","51","0,1,0","6","blank","297","null","0.17640979419014077","0.6928511873467156","0.22886413481402365","0","","","","","","","","",""
"","html-keyboard-response","155","544866","0.0-86.0-1.0","""event"",""trial"",""time""
""fullscreenenter"",""0"",""3110""
""fullscreenexit"",""4"",""23801""
","
","
","""event"",""trial"",""time""
""fullscreenenter"",""0"",""3110""
","""event"",""trial"",""time""
""fullscreenexit"",""4"",""23801""
","null","<p></p>","null","","","","","","","","","","","","","","","","","","","","","","","",""
"","do_trial","156","548458","0.0-87.0-0.0","""event"",""trial"",""time""
""fullscreenenter"",""0"",""3110""
""fullscreenexit"",""4"",""23801""
","
","
","""event"",""trial"",""time""
""fullscreenenter"",""0"",""3110""
","""event"",""trial"",""time""
""fullscreenexit"",""4"",""23801""
","1001.0999999940395","","","","","","","","51","1,1,0","6","blank","298","null","0.0887227401260346","0.7587297743857776","0.26846475434812217","0","","","","","","","","",""
"","html-keyboard-response","157","549461","0.0-87.0-1.0","""event"",""trial"",""time""
""fullscreenenter"",""0"",""3110""
""fullscreenexit"",""4"",""23801""
","
","
","""event"",""trial"",""time""
""fullscreenenter"",""0"",""3110""
","""event"",""trial"",""time""
""fullscreenexit"",""4"",""23801""
","null","<p></p>","null","","","","","","","","","","","","","","","","","","","","","","","",""
"","do_trial","158","553394","0.0-88.0-0.0","""event"",""trial"",""time""
""fullscreenenter"",""0"",""3110""
""fullscreenexit"",""4"",""23801""
","
","
","""event"",""trial"",""time""
""fullscreenenter"",""0"",""3110""
","""event"",""trial"",""time""
""fullscreenexit"",""4"",""23801""
","1338.2999999821186","","","","","","","","50","0,0,0","6","blank","299","null","0.12521545955906746","0.7475502830311936","0.21444018718753813","0","","","","","","","","",""
"","html-keyboard-response","159","554397","0.0-88.0-1.0","""event"",""trial"",""time""
""fullscreenenter"",""0"",""3110""
""fullscreenexit"",""4"",""23801""
","
","
","""event"",""trial"",""time""
""fullscreenenter"",""0"",""3110""
","""event"",""trial"",""time""
""fullscreenexit"",""4"",""23801""
","null","<p></p>","null","","","","","","","","","","","","","","","","","","","","","","","",""
"","do_trial","160","557338","0.0-89.0-0.0","""event"",""trial"",""time""
""fullscreenenter"",""0"",""3110""
""fullscreenexit"",""4"",""23801""
","
","
","""event"",""trial"",""time""
""fullscreenenter"",""0"",""3110""
","""event"",""trial"",""time""
""fullscreenexit"",""4"",""23801""
","350.7999999821186","","","","","","","","51","0,0,0","6","blank","300","null","0.16722335126368787","0.6063546788948058","0.30312865850314646","0","","","","","","","","",""
"","html-keyboard-response","161","558342","0.0-89.0-1.0","""event"",""trial"",""time""
""fullscreenenter"",""0"",""3110""
""fullscreenexit"",""4"",""23801""
","
","
","""event"",""trial"",""time""
""fullscreenenter"",""0"",""3110""
","""event"",""trial"",""time""
""fullscreenexit"",""4"",""23801""
","null","<p></p>","null","","","","","","","","","","","","","","","","","","","","","","","",""
"","do_trial","162","563045","0.0-90.0-0.0","""event"",""trial"",""time""
""fullscreenenter"",""0"",""3110""
""fullscreenexit"",""4"",""23801""
","
","
","""event"",""trial"",""time""
""fullscreenenter"",""0"",""3110""
","""event"",""trial"",""time""
""fullscreenexit"",""4"",""23801""
","2114.4000000059605","","","","","","","","50","0,1,0","6","blank","301","null","0.19047131135679224","0.38887676690130757","0.3035334030316256","1","","","","","","","","",""
"","html-keyboard-response","163","564049","0.0-90.0-1.0","""event"",""trial"",""time""
""fullscreenenter"",""0"",""3110""
""fullscreenexit"",""4"",""23801""
","
","
","""event"",""trial"",""time""
""fullscreenenter"",""0"",""3110""
","""event"",""trial"",""time""
""fullscreenexit"",""4"",""23801""
","null","<p></p>","null","","","","","","","","","","","","","","","","","","","","","","","",""
"","do_trial","164","567150","0.0-91.0-0.0","""event"",""trial"",""time""
""fullscreenenter"",""0"",""3110""
""fullscreenexit"",""4"",""23801""
","
","
","""event"",""trial"",""time""
""fullscreenenter"",""0"",""3110""
","""event"",""trial"",""time""
""fullscreenexit"",""4"",""23801""
","507.69999998807907","","","","","","","","51","0,0,0","6","blank","302","null","0.15955292471095014","0.28943661684457217","0.48071017564613855","0","","","","","","","","",""
"","html-keyboard-response","165","568155","0.0-91.0-1.0","""event"",""trial"",""time""
""fullscreenenter"",""0"",""3110""
""fullscreenexit"",""4"",""23801""
","
","
","""event"",""trial"",""time""
""fullscreenenter"",""0"",""3110""
","""event"",""trial"",""time""
""fullscreenexit"",""4"",""23801""
","null","<p></p>","null","","","","","","","","","","","","","","","","","","","","","","","",""
"","do_trial","166","572284","0.0-92.0-0.0","""event"",""trial"",""time""
""fullscreenenter"",""0"",""3110""
""fullscreenexit"",""4"",""23801""
","
","
","""event"",""trial"",""time""
""fullscreenenter"",""0"",""3110""
","""event"",""trial"",""time""
""fullscreenexit"",""4"",""23801""
","1521.8999999761581","","","","","","","","51","0,0,1","6","blank","303","null","0.13796105955466803","0.3405696296528335","0.4543380061013629","1","","","","","","","","",""
"","html-keyboard-response","167","573288","0.0-92.0-1.0","""event"",""trial"",""time""
""fullscreenenter"",""0"",""3110""
""fullscreenexit"",""4"",""23801""
","
","
","""event"",""trial"",""time""
""fullscreenenter"",""0"",""3110""
","""event"",""trial"",""time""
""fullscreenexit"",""4"",""23801""
","null","<p></p>","null","","","","","","","","","","","","","","","","","","","","","","","",""
"","do_recog","168","577174","0.0-93.0-0.0","""event"",""trial"",""time""
""fullscreenenter"",""0"",""3110""
""fullscreenexit"",""4"",""23801""
","
","
","""event"",""trial"",""time""
""fullscreenenter"",""0"",""3110""
","""event"",""trial"",""time""
""fullscreenexit"",""4"",""23801""
","2363.600000023842","","","","","","","","54","","","","304","probe-199","","","","","1","[object Object]","153","3","1","","","",""
"","html-keyboard-response","169","578177","0.0-93.0-1.0","""event"",""trial"",""time""
""fullscreenenter"",""0"",""3110""
""fullscreenexit"",""4"",""23801""
","
","
","""event"",""trial"",""time""
""fullscreenenter"",""0"",""3110""
","""event"",""trial"",""time""
""fullscreenexit"",""4"",""23801""
","null","<p></p>","null","","","","","","","","","","","","","","","","","","","","","","","",""
"","do_trial","170","582427","0.0-94.0-0.0","""event"",""trial"",""time""
""fullscreenenter"",""0"",""3110""
""fullscreenexit"",""4"",""23801""
","
","
","""event"",""trial"",""time""
""fullscreenenter"",""0"",""3110""
","""event"",""trial"",""time""
""fullscreenexit"",""4"",""23801""
","1665.199999988079","","","","","","","","51","0,0,0","6","blank","305","null","0.2435503772029817","0.2081362662937221","0.468719232599949","0","","","","","","","","",""
"","html-keyboard-response","171","583430","0.0-94.0-1.0","""event"",""trial"",""time""
""fullscreenenter"",""0"",""3110""
""fullscreenexit"",""4"",""23801""
","
","
","""event"",""trial"",""time""
""fullscreenenter"",""0"",""3110""
","""event"",""trial"",""time""
""fullscreenexit"",""4"",""23801""
","null","<p></p>","null","","","","","","","","","","","","","","","","","","","","","","","",""
"","do_trial","172","587081","0.0-95.0-0.0","""event"",""trial"",""time""
""fullscreenenter"",""0"",""3110""
""fullscreenexit"",""4"",""23801""
","
","
","""event"",""trial"",""time""
""fullscreenenter"",""0"",""3110""
","""event"",""trial"",""time""
""fullscreenexit"",""4"",""23801""
","1063.3999999761581","","","","","","","","51","0,0,0","6","blank","306","null","0.1546285771665322","0.2296907271976929","0.4208336263292793","0","","","","","","","","",""
"","html-keyboard-response","173","588085","0.0-95.0-1.0","""event"",""trial"",""time""
""fullscreenenter"",""0"",""3110""
""fullscreenexit"",""4"",""23801""
","
","
","""event"",""trial"",""time""
""fullscreenenter"",""0"",""3110""
","""event"",""trial"",""time""
""fullscreenexit"",""4"",""23801""
","null","<p></p>","null","","","","","","","","","","","","","","","","","","","","","","","",""
"","do_trial","174","592575","0.0-96.0-0.0","""event"",""trial"",""time""
""fullscreenenter"",""0"",""3110""
""fullscreenexit"",""4"",""23801""
","
","
","""event"",""trial"",""time""
""fullscreenenter"",""0"",""3110""
","""event"",""trial"",""time""
""fullscreenexit"",""4"",""23801""
","1893.0999999940395","","","","","","","","50","0,0,0","6","blank","307","null","0.17048994538255743","0.23268407609622585","0.4831865521385007","0","","","","","","","","",""
"","html-keyboard-response","175","593579","0.0-96.0-1.0","""event"",""trial"",""time""
""fullscreenenter"",""0"",""3110""
""fullscreenexit"",""4"",""23801""
","
","
","""event"",""trial"",""time""
""fullscreenenter"",""0"",""3110""
","""event"",""trial"",""time""
""fullscreenexit"",""4"",""23801""
","null","<p></p>","null","","","","","","","","","","","","","","","","","","","","","","","",""
"","do_recog","176","597515","0.0-97.0-0.0","""event"",""trial"",""time""
""fullscreenenter"",""0"",""3110""
""fullscreenexit"",""4"",""23801""
","
","
","""event"",""trial"",""time""
""fullscreenenter"",""0"",""3110""
","""event"",""trial"",""time""
""fullscreenexit"",""4"",""23801""
","2418.800000011921","","","","","","","","56","","","","308","probe-59","","","","","1","[object Object]","119","2","0","","","",""
"","html-keyboard-response","177","598519","0.0-97.0-1.0","""event"",""trial"",""time""
""fullscreenenter"",""0"",""3110""
""fullscreenexit"",""4"",""23801""
","
","
","""event"",""trial"",""time""
""fullscreenenter"",""0"",""3110""
","""event"",""trial"",""time""
""fullscreenexit"",""4"",""23801""
","null","<p></p>","null","","","","","","","","","","","","","","","","","","","","","","","",""
"","break","178","613181","0.0-98.0-0.0","""event"",""trial"",""time""
""fullscreenenter"",""0"",""3110""
""fullscreenexit"",""4"",""23801""
","
","
","""event"",""trial"",""time""
""fullscreenenter"",""0"",""3110""
","""event"",""trial"",""time""
""fullscreenexit"",""4"",""23801""
","14658.5","<div class='center'><p>Time to take a quick break! You have 2 minutes to rest, but you can move on sooner if you'd like.</p><p> Press the <b>space bar</b> to continue.</p></div>","32","","","","","","","","","","","","","","","","","","","","","","","",""
"","do_trial","179","618661","0.0-98.0-1.0","""event"",""trial"",""time""
""fullscreenenter"",""0"",""3110""
""fullscreenexit"",""4"",""23801""
","
","
","""event"",""trial"",""time""
""fullscreenenter"",""0"",""3110""
","""event"",""trial"",""time""
""fullscreenexit"",""4"",""23801""
","2890.899999976158","","","","","","","","49","0,1,1","6","blank","309","null","0.24609755821723842","0.31852407146901546","0.43495573589240083","0","","","","","","","","",""
"","html-keyboard-response","180","619664","0.0-98.0-2.0","""event"",""trial"",""time""
""fullscreenenter"",""0"",""3110""
""fullscreenexit"",""4"",""23801""
","
","
","""event"",""trial"",""time""
""fullscreenenter"",""0"",""3110""
","""event"",""trial"",""time""
""fullscreenexit"",""4"",""23801""
","null","<p></p>","null","","","","","","","","","","","","","","","","","","","","","","","",""
"","do_recog","181","622937","0.0-99.0-0.0","""event"",""trial"",""time""
""fullscreenenter"",""0"",""3110""
""fullscreenexit"",""4"",""23801""
","
","
","""event"",""trial"",""time""
""fullscreenenter"",""0"",""3110""
","""event"",""trial"",""time""
""fullscreenexit"",""4"",""23801""
","1753.2999999821186","","","","","","","","55","","","","310","probe-29","","","","","1","[object Object]","71","1","0","","","",""
"","html-keyboard-response","182","623944","0.0-99.0-1.0","""event"",""trial"",""time""
""fullscreenenter"",""0"",""3110""
""fullscreenexit"",""4"",""23801""
","
","
","""event"",""trial"",""time""
""fullscreenenter"",""0"",""3110""
","""event"",""trial"",""time""
""fullscreenexit"",""4"",""23801""
","null","<p></p>","null","","","","","","","","","","","","","","","","","","","","","","","",""
"","do_trial","183","627704","0.0-100.0-0.0","""event"",""trial"",""time""
""fullscreenenter"",""0"",""3110""
""fullscreenexit"",""4"",""23801""
","
","
","""event"",""trial"",""time""
""fullscreenenter"",""0"",""3110""
","""event"",""trial"",""time""
""fullscreenexit"",""4"",""23801""
","1160.5","","","","","","","","50","0,0,1","6","blank","311","null","0.07341514499871049","0.32378005325878273","0.49806426769165985","0","","","","","","","","",""
"","html-keyboard-response","184","628708","0.0-100.0-1.0","""event"",""trial"",""time""
""fullscreenenter"",""0"",""3110""
""fullscreenexit"",""4"",""23801""
","
","
","""event"",""trial"",""time""
""fullscreenenter"",""0"",""3110""
","""event"",""trial"",""time""
""fullscreenexit"",""4"",""23801""
","null","<p></p>","null","","","","","","","","","","","","","","","","","","","","","","","",""
"","do_trial","185","632263","0.0-101.0-0.0","""event"",""trial"",""time""
""fullscreenenter"",""0"",""3110""
""fullscreenexit"",""4"",""23801""
","
","
","""event"",""trial"",""time""
""fullscreenenter"",""0"",""3110""
","""event"",""trial"",""time""
""fullscreenexit"",""4"",""23801""
","964","","","","","","","","51","0,0,0","6","blank","312","null","0.11525549661329011","0.38210568002971473","0.525161748593077","0","","","","","","","","",""
"","html-keyboard-response","186","633266","0.0-101.0-1.0","""event"",""trial"",""time""
""fullscreenenter"",""0"",""3110""
""fullscreenexit"",""4"",""23801""
","
","
","""event"",""trial"",""time""
""fullscreenenter"",""0"",""3110""
","""event"",""trial"",""time""
""fullscreenexit"",""4"",""23801""
","null","<p></p>","null","","","","","","","","","","","","","","","","","","","","","","","",""
"","do_trial","187","639345","0.0-102.0-0.0","""event"",""trial"",""time""
""fullscreenenter"",""0"",""3110""
""fullscreenexit"",""4"",""23801""
","
","
","""event"",""trial"",""time""
""fullscreenenter"",""0"",""3110""
","""event"",""trial"",""time""
""fullscreenexit"",""4"",""23801""
","null","","","","","","","","null","0,0,1","6","blank","313","null","0.14230354340778492","0.4050222289562956","0.5219817763438674","","","","","","","","","",""
"","html-keyboard-response","188","640348","0.0-102.0-1.0","""event"",""trial"",""time""
""fullscreenenter"",""0"",""3110""
""fullscreenexit"",""4"",""23801""
","
","
","""event"",""trial"",""time""
""fullscreenenter"",""0"",""3110""
","""event"",""trial"",""time""
""fullscreenexit"",""4"",""23801""
","null","<p></p>","null","","","","","","","","","","","","","","","","","","","","","","","",""
"","do_recog","189","644146","0.0-103.0-0.0","""event"",""trial"",""time""
""fullscreenenter"",""0"",""3110""
""fullscreenexit"",""4"",""23801""
","
","
","""event"",""trial"",""time""
""fullscreenenter"",""0"",""3110""
","""event"",""trial"",""time""
""fullscreenexit"",""4"",""23801""
","2275.4000000059605","","","","","","","","55","","","","314","probe-08","","","","","1","[object Object]","195","4","0","","","",""
"","html-keyboard-response","190","645148","0.0-103.0-1.0","""event"",""trial"",""time""
""fullscreenenter"",""0"",""3110""
""fullscreenexit"",""4"",""23801""
","
","
","""event"",""trial"",""time""
""fullscreenenter"",""0"",""3110""
","""event"",""trial"",""time""
""fullscreenexit"",""4"",""23801""
","null","<p></p>","null","","","","","","","","","","","","","","","","","","","","","","","",""
"","do_trial","191","649541","0.0-104.0-0.0","""event"",""trial"",""time""
""fullscreenenter"",""0"",""3110""
""fullscreenexit"",""4"",""23801""
","
","
","""event"",""trial"",""time""
""fullscreenenter"",""0"",""3110""
","""event"",""trial"",""time""
""fullscreenexit"",""4"",""23801""
","1810","","","","","","","","50","0,1,1","6","blank","315","null","0.16143576793602687","0.3303465731304277","0.47069851753889297","1","","","","","","","","",""
"","html-keyboard-response","192","650544","0.0-104.0-1.0","""event"",""trial"",""time""
""fullscreenenter"",""0"",""3110""
""fullscreenexit"",""4"",""23801""
","
","
","""event"",""trial"",""time""
""fullscreenenter"",""0"",""3110""
","""event"",""trial"",""time""
""fullscreenexit"",""4"",""23801""
","null","<p></p>","null","","","","","","","","","","","","","","","","","","","","","","","",""
"","do_trial","193","654130","0.0-105.0-0.0","""event"",""trial"",""time""
""fullscreenenter"",""0"",""3110""
""fullscreenexit"",""4"",""23801""
","
","
","""event"",""trial"",""time""
""fullscreenenter"",""0"",""3110""
","""event"",""trial"",""time""
""fullscreenexit"",""4"",""23801""
","996.0999999940395","","","","","","","","50","1,0,1","6","blank","316","null","0.161794150647417","0.32542759179212033","0.45896972662927693","0","","","","","","","","",""
"","html-keyboard-response","194","655133","0.0-105.0-1.0","""event"",""trial"",""time""
""fullscreenenter"",""0"",""3110""
""fullscreenexit"",""4"",""23801""
","
","
","""event"",""trial"",""time""
""fullscreenenter"",""0"",""3110""
","""event"",""trial"",""time""
""fullscreenexit"",""4"",""23801""
","null","<p></p>","null","","","","","","","","","","","","","","","","","","","","","","","",""
"","do_trial","195","658232","0.0-106.0-0.0","""event"",""trial"",""time""
""fullscreenenter"",""0"",""3110""
""fullscreenexit"",""4"",""23801""
","
","
","""event"",""trial"",""time""
""fullscreenenter"",""0"",""3110""
","""event"",""trial"",""time""
""fullscreenexit"",""4"",""23801""
","520.4000000059605","","","","","","","","51","0,1,1","6","blank","317","null","0.10898380643424943","0.24273708523674134","0.515199787855951","1","","","","","","","","",""
"","html-keyboard-response","196","659236","0.0-106.0-1.0","""event"",""trial"",""time""
""fullscreenenter"",""0"",""3110""
""fullscreenexit"",""4"",""23801""
","
","
","""event"",""trial"",""time""
""fullscreenenter"",""0"",""3110""
","""event"",""trial"",""time""
""fullscreenexit"",""4"",""23801""
","null","<p></p>","null","","","","","","","","","","","","","","","","","","","","","","","",""
"","do_recog","197","662261","0.0-107.0-0.0","""event"",""trial"",""time""
""fullscreenenter"",""0"",""3110""
""fullscreenexit"",""4"",""23801""
","
","
","""event"",""trial"",""time""
""fullscreenenter"",""0"",""3110""
","""event"",""trial"",""time""
""fullscreenexit"",""4"",""23801""
","1500.5","","","","","","","","55","","","","318","probe-183","","","","","1","[object Object]","154","3","0","","","",""
"","html-keyboard-response","198","663264","0.0-107.0-1.0","""event"",""trial"",""time""
""fullscreenenter"",""0"",""3110""
""fullscreenexit"",""4"",""23801""
","
","
","""event"",""trial"",""time""
""fullscreenenter"",""0"",""3110""
","""event"",""trial"",""time""
""fullscreenexit"",""4"",""23801""
","null","<p></p>","null","","","","","","","","","","","","","","","","","","","","","","","",""
"","do_trial","199","669362","0.0-108.0-0.0","""event"",""trial"",""time""
""fullscreenenter"",""0"",""3110""
""fullscreenexit"",""4"",""23801""
","
","
","""event"",""trial"",""time""
""fullscreenenter"",""0"",""3110""
","""event"",""trial"",""time""
""fullscreenexit"",""4"",""23801""
","null","","","","","","","","null","0,0,0","6","blank","319","null","0.06494865451124947","0.2906170983432943","0.5922875491409343","","","","","","","","","",""
"","html-keyboard-response","200","670365","0.0-108.0-1.0","""event"",""trial"",""time""
""fullscreenenter"",""0"",""3110""
""fullscreenexit"",""4"",""23801""
","
","
","""event"",""trial"",""time""
""fullscreenenter"",""0"",""3110""
","""event"",""trial"",""time""
""fullscreenexit"",""4"",""23801""
","null","<p></p>","null","","","","","","","","","","","","","","","","","","","","","","","",""
"","do_trial","201","673513","0.0-109.0-0.0","""event"",""trial"",""time""
""fullscreenenter"",""0"",""3110""
""fullscreenexit"",""4"",""23801""
","
","
","""event"",""trial"",""time""
""fullscreenenter"",""0"",""3110""
","""event"",""trial"",""time""
""fullscreenexit"",""4"",""23801""
","559.0999999940395","","","","","","","","50","0,0,1","6","blank","320","null","0.1371040712012689","0.2112682682209841","0.6322710148971559","0","","","","","","","","",""
"","html-keyboard-response","202","674516","0.0-109.0-1.0","""event"",""trial"",""time""
""fullscreenenter"",""0"",""3110""
""fullscreenexit"",""4"",""23801""
","
","
","""event"",""trial"",""time""
""fullscreenenter"",""0"",""3110""
","""event"",""trial"",""time""
""fullscreenexit"",""4"",""23801""
","null","<p></p>","null","","","","","","","","","","","","","","","","","","","","","","","",""
"","do_trial","203","677599","0.0-110.0-0.0","""event"",""trial"",""time""
""fullscreenenter"",""0"",""3110""
""fullscreenexit"",""4"",""23801""
","
","
","""event"",""trial"",""time""
""fullscreenenter"",""0"",""3110""
","""event"",""trial"",""time""
""fullscreenexit"",""4"",""23801""
","482.40000000596046","","","","","","","","50","0,0,1","6","blank","321","null","0.11701055882373732","0.2741787479570012","0.6333106124325586","0","","","","","","","","",""
"","html-keyboard-response","204","678603","0.0-110.0-1.0","""event"",""trial"",""time""
""fullscreenenter"",""0"",""3110""
""fullscreenexit"",""4"",""23801""
","
","
","""event"",""trial"",""time""
""fullscreenenter"",""0"",""3110""
","""event"",""trial"",""time""
""fullscreenexit"",""4"",""23801""
","null","<p></p>","null","","","","","","","","","","","","","","","","","","","","","","","",""
"","do_trial","205","681306","0.0-111.0-0.0","""event"",""trial"",""time""
""fullscreenenter"",""0"",""3110""
""fullscreenexit"",""4"",""23801""
","
","
","""event"",""trial"",""time""
""fullscreenenter"",""0"",""3110""
","""event"",""trial"",""time""
""fullscreenexit"",""4"",""23801""
","109.19999998807907","","","","","","","","49","0,1,1","6","blank","322","null","0.24157225472357488","0.3169440141755161","0.7330880454748484","0","","","","","","","","",""
"","html-keyboard-response","206","682310","0.0-111.0-1.0","""event"",""trial"",""time""
""fullscreenenter"",""0"",""3110""
""fullscreenexit"",""4"",""23801""
","
","
","""event"",""trial"",""time""
""fullscreenenter"",""0"",""3110""
","""event"",""trial"",""time""
""fullscreenexit"",""4"",""23801""
","null","<p></p>","null","","","","","","","","","","","","","","","","","","","","","","","",""
"","do_recog","207","686270","0.0-112.0-0.0","""event"",""trial"",""time""
""fullscreenenter"",""0"",""3110""
""fullscreenexit"",""4"",""23801""
","
","
","""event"",""trial"",""time""
""fullscreenenter"",""0"",""3110""
","""event"",""trial"",""time""
""fullscreenexit"",""4"",""23801""
","2437.699999988079","","","","","","","","54","","","","323","probe-190","","","","","1","[object Object]","75","1","1","","","",""
"","html-keyboard-response","208","687273","0.0-112.0-1.0","""event"",""trial"",""time""
""fullscreenenter"",""0"",""3110""
""fullscreenexit"",""4"",""23801""
","
","
","""event"",""trial"",""time""
""fullscreenenter"",""0"",""3110""
","""event"",""trial"",""time""
""fullscreenexit"",""4"",""23801""
","null","<p></p>","null","","","","","","","","","","","","","","","","","","","","","","","",""
"","do_trial","209","690426","0.0-113.0-0.0","""event"",""trial"",""time""
""fullscreenenter"",""0"",""3110""
""fullscreenexit"",""4"",""23801""
","
","
","""event"",""trial"",""time""
""fullscreenenter"",""0"",""3110""
","""event"",""trial"",""time""
""fullscreenexit"",""4"",""23801""
","577.9000000059605","","","","","","","","49","0,1,1","6","blank","324","null","0.34109907086206215","0.4198746533952392","0.792980037209623","0","","","","","","","","",""
"","html-keyboard-response","210","691431","0.0-113.0-1.0","""event"",""trial"",""time""
""fullscreenenter"",""0"",""3110""
""fullscreenexit"",""4"",""23801""
","
","
","""event"",""trial"",""time""
""fullscreenenter"",""0"",""3110""
","""event"",""trial"",""time""
""fullscreenexit"",""4"",""23801""
","null","<p></p>","null","","","","","","","","","","","","","","","","","","","","","","","",""
"","do_trial","211","694375","0.0-114.0-0.0","""event"",""trial"",""time""
""fullscreenenter"",""0"",""3110""
""fullscreenexit"",""4"",""23801""
","
","
","""event"",""trial"",""time""
""fullscreenenter"",""0"",""3110""
","""event"",""trial"",""time""
""fullscreenexit"",""4"",""23801""
","332.59999999403954","","","","","","","","50","0,0,0","6","blank","325","null","0.2076523609392224","0.3364430961855263","0.679249703448566","0","","","","","","","","",""
"","html-keyboard-response","212","695379","0.0-114.0-1.0","""event"",""trial"",""time""
""fullscreenenter"",""0"",""3110""
""fullscreenexit"",""4"",""23801""
","
","
","""event"",""trial"",""time""
""fullscreenenter"",""0"",""3110""
","""event"",""trial"",""time""
""fullscreenexit"",""4"",""23801""
","null","<p></p>","null","","","","","","","","","","","","","","","","","","","","","","","",""
"","do_trial","213","699136","0.0-115.0-0.0","""event"",""trial"",""time""
""fullscreenenter"",""0"",""3110""
""fullscreenexit"",""4"",""23801""
","
","
","""event"",""trial"",""time""
""fullscreenenter"",""0"",""3110""
","""event"",""trial"",""time""
""fullscreenexit"",""4"",""23801""
","1160.7000000178814","","","","","","","","51","0,1,1","6","blank","326","null","0.1871399977351927","0.13666340599716362","0.7054438195186131","1","","","","","","","","",""
"","html-keyboard-response","214","700142","0.0-115.0-1.0","""event"",""trial"",""time""
""fullscreenenter"",""0"",""3110""
""fullscreenexit"",""4"",""23801""
","
","
","""event"",""trial"",""time""
""fullscreenenter"",""0"",""3110""
","""event"",""trial"",""time""
""fullscreenexit"",""4"",""23801""
","null","<p></p>","null","","","","","","","","","","","","","","","","","","","","","","","",""
"","do_trial","215","703797","0.0-116.0-0.0","""event"",""trial"",""time""
""fullscreenenter"",""0"",""3110""
