"success","trial_type","trial_index","time_elapsed","internal_node_id","interactions","blur_events","focus_events","fullscreenenter_events","fullscreenexit_events","rt","stimulus","key_press","subject_id","participant_id","age","gender","prompt","response","choice_outcomes","context_n","context_img_id","trial_n","probe_img_id","pR_red","pR_white","pR_black","outcome","is_valid","image_to_show","probed_trial","probed_context","correct","probe","probed_trial_n","probed_context_n","context_im"
"true","fullscreen","0","2266","0.0-0.0","""event"",""trial"",""time""
""fullscreenenter"",""0"",""1292""
","
","
","""event"",""trial"",""time""
""fullscreenenter"",""0"",""1292""
","
","","","","","","","","","","","","","","","","","","","","","","","","","","",""
"","pavlovia","1","2272","0.0-1.0","""event"",""trial"",""time""
""fullscreenenter"",""0"",""1292""
","
","
","""event"",""trial"",""time""
""fullscreenenter"",""0"",""1292""
","
","","","","","","","","","","","","","","","","","","","","","","","","","","",""
"","welc_back","2","12089","0.0-2.0","""event"",""trial"",""time""
""fullscreenenter"",""0"",""1292""
","
","
","""event"",""trial"",""time""
""fullscreenenter"",""0"",""1292""
","
","null","run_exp/static/audio/clip_29_welcome_back.m4a","null","1312","225","19","Female","<div class='center'><p>Welcome to day 2!</p><p> Yesterday, you were the head captain of a pirate ship. You asked your fellow pirates to rob other ships of their gold across six different islands.</p></div>","","","","","","","","","","","","","","","","","","",""
"","html-keyboard-response","3","13106","0.0-3.0","""event"",""trial"",""time""
""fullscreenenter"",""0"",""1292""
","
","
","""event"",""trial"",""time""
""fullscreenenter"",""0"",""1292""
","
","1015","<div class='center'><p>Welcome to day 2!</p><p> Yesterday, you were the head captain of a pirate ship. You asked your fellow pirates to rob other ships of their gold across six different islands.</p><p><b>[Press the space bar to continue]</b></p></div>","32","","","","","","","","","","","","","","","","","","","","","","","",""
"","day_1_summary_goal","4","30315","0.0-4.0","""event"",""trial"",""time""
""fullscreenenter"",""0"",""1292""
","
","
","""event"",""trial"",""time""
""fullscreenenter"",""0"",""1292""
","
","null","run_exp/static/audio/clip_30_goal_of_game.m4a","null","","","","","<div class='center'><p>Today, like yesterday, you get to pick which pirate you want to rob the next ship.</p><p>If the pirate is successful in robbing a ship, you get gold coins that look like this: </p><p><img src='run_exp/static/images/tutorial/reward.png' height='150'></p><p> If they were not successful in robbing the ship, then you will get no gold coins and you'll see a big red x like this: </p><p><img src='run_exp/static/images/tutorial/reward_no.png' height='150'></p></div>","","","","","","","","","","","","","","","","","","",""
"","html-keyboard-response","5","30732","0.0-5.0","""event"",""trial"",""time""
""fullscreenenter"",""0"",""1292""
","
","
","""event"",""trial"",""time""
""fullscreenenter"",""0"",""1292""
","
","414.30000000074506","<div class='center'><p>Today, like yesterday, you get to pick which pirate you want to rob the next ship.</p><p>If the pirate is successful in robbing a ship, you get gold coins that look like this: </p><p><img src='run_exp/static/images/tutorial/reward.png' height='150'></p><p> If they were not successful in robbing the ship, then you will get no gold coins and you'll see a big red x like this: </p><p><img src='run_exp/static/images/tutorial/reward_no.png' height='150'></p><p><b>[Press the space bar to continue]</b></p></div>","32","","","","","","","","","","","","","","","","","","","","","","","",""
"","day_1_summary_pick","6","45431","0.0-6.0","""event"",""trial"",""time""
""fullscreenenter"",""0"",""1292""
","
","
","""event"",""trial"",""time""
""fullscreenenter"",""0"",""1292""
","
","null","run_exp/static/audio/clip_31_how_to_pick_a_pirate.m4a","null","","","","","<div class='center'><p>Also, just like yesterday, you will use the 1,2,3 keys on your keyboard to pick a pirate. Press '1' to choose red beard, '2' to choose white beard, and '3' to choose black beard . You only have 3 seconds to pick a pirate, so please make a choice quickly!</p></div>","","","","","","","","","","","","","","","","","","",""
"","html-keyboard-response","7","45893","0.0-7.0","""event"",""trial"",""time""
""fullscreenenter"",""0"",""1292""
","
","
","""event"",""trial"",""time""
""fullscreenenter"",""0"",""1292""
","
","460.09999999962747","<div class='center'><p>Also, just like yesterday, you will use the 1,2,3 keys on your keyboard to pick a pirate. Press '1' to choose red beard, '2' to choose white beard, and '3' to choose black beard . You only have 3 seconds to pick a pirate, so please make a choice quickly!</p><p><b>[Press the space bar to continue]</b></p></div>","32","","","","","","","","","","","","","","","","","","","","","","","",""
"","test_phase_begin","8","76291","0.0-8.0","""event"",""trial"",""time""
""fullscreenenter"",""0"",""1292""
","
","
","""event"",""trial"",""time""
""fullscreenenter"",""0"",""1292""
","
","null","run_exp/static/audio/clip_32_final_place.m4a","null","","","","","<div class='center'><p>You’ve arrived at the final island of your journey! Unfortunately, it’s very foggy out, so you won’t be able to see it in the distance like the other islands you've visited.</p><p>You’ll still be deciding which pirate you want to rob a ship like before. However, because of the fog, you also won’t be able to see the ship.</p><p>This means you do not have to remember the ships you rob on this island.</p><p>Unlike yesterday, you won't be visiting multiple islands today. You will stay on this island for the entire game. This game will last ~30 minutes.</p></div>","","","","","","","","","","","","","","","","","","",""
"","html-keyboard-response","9","76802","0.0-9.0","""event"",""trial"",""time""
""fullscreenenter"",""0"",""1292""
","
","
","""event"",""trial"",""time""
""fullscreenenter"",""0"",""1292""
","
","509.7999999988824","<div class='center'><p>You’ve arrived at the final island of your journey! Unfortunately, it’s very foggy out, so you won’t be able to see it in the distance like the other islands you've visited.</p><p>You’ll still be deciding which pirate you want to rob a ship like before. However, because of the fog, you also won’t be able to see the ship.</p><p>This means you do not have to remember the ships you rob on this island.</p><p>Unlike yesterday, you won't be visiting multiple islands today. You will stay on this island for the entire game. This game will last ~30 minutes.</p><p><b>[Press the space bar to continue]</b></p></div>","32","","","","","","","","","","","","","","","","","","","","","","","",""
"","explain_probe_1","10","84510","0.0-10.0","""event"",""trial"",""time""
""fullscreenenter"",""0"",""1292""
","
","
","""event"",""trial"",""time""
""fullscreenenter"",""0"",""1292""
","
","null","run_exp/static/audio/clip_33_recognition_1.m4a","null","","","","","<div class='center'><p> Sometimes you’ll be shown a ship, and you will be asked if you saw this ship on a past island.</p><p> Here is an example of what you will see.</p><p><img src='run_exp/static/images/tutorial/example_recog_trial.png' height='500'></p></div>","","","","","","","","","","","","","","","","","","",""
"","html-keyboard-response","11","84611","0.0-11.0","""event"",""trial"",""time""
""fullscreenenter"",""0"",""1292""
","
","
","""event"",""trial"",""time""
""fullscreenenter"",""0"",""1292""
","
","98.69999999925494","<div class='center'><p> Sometimes you’ll be shown a ship, and you will be asked if you saw this ship on a past island.</p><p> Here is an example of what you will see.</p><p><img src='run_exp/static/images/tutorial/example_recog_trial.png' height='500'></p><p><b>[Press the space bar to continue]</b></p></div>","32","","","","","","","","","","","","","","","","","","","","","","","",""
"","explain_probe_2","12","106314","0.0-12.0","""event"",""trial"",""time""
""fullscreenenter"",""0"",""1292""
","
","
","""event"",""trial"",""time""
""fullscreenenter"",""0"",""1292""
","
","null","run_exp/static/audio/clip_34_recognition_2.m4a","null","","","","","<div class='center'><p> You will press the 5, 6, 7, 8 keys on your keyboard to respond.</p><p>If you are sure you saw the ship, press <b>5</b> on your keyboard.</p><p> If you think you saw it before but aren't sure, then press <b>6</b>.</p><p> If you think you have <b>not</b> seen it before but aren't sure, then press <b>7</b>.</p><p> If you are sure you did <b>not</b> see the ship before, then press <b>8</b>.</p><p><img src='run_exp/static/images/tutorial/example_recog_trial.png' height='500'></p></div>","","","","","","","","","","","","","","","","","","",""
"","html-keyboard-response","13","107993","0.0-13.0","""event"",""trial"",""time""
""fullscreenenter"",""0"",""1292""
","
","
","""event"",""trial"",""time""
""fullscreenenter"",""0"",""1292""
","
","1677.4000000003725","<div class='center'><p> You will press the 5, 6, 7, 8 keys on your keyboard to respond.</p><p>If you are sure you saw the ship, press <b>5</b> on your keyboard.</p><p> If you think you saw it before but aren't sure, then press <b>6</b>.</p><p> If you think you have <b>not</b> seen it before but aren't sure, then press <b>7</b>.</p><p> If you are sure you did <b>not</b> see the ship before, then press <b>8</b>.</p><p><img src='run_exp/static/images/tutorial/example_recog_trial.png' height='500'></p><p><b>[Press the space bar to continue]</b></p></div>","32","","","","","","","","","","","","","","","","","","","","","","","",""
"","explain_outcome","14","125191","0.0-14.0","""event"",""trial"",""time""
""fullscreenenter"",""0"",""1292""
","
","
","""event"",""trial"",""time""
""fullscreenenter"",""0"",""1292""
","
","null","run_exp/static/audio/clip_35_recognition_3.m4a","null","","","","","<div class='center'><p> If you remember correctly, then you’ll get a gold coin like this: </p><p><img src='run_exp/static/images/tutorial/reward_small.png' height='200'></p><p>If you do not remember correctly, then you'll see a red x like this: </p><p><img src='run_exp/static/images/tutorial/reward_no.png' height='200'></p><p>Importantly, when you are shown a ship, take the time to remind yourself which island you saw it on. This will help you in the next part of the study.</p></div>","","","","","","","","","","","","","","","","","","",""
"","html-keyboard-response","15","125580","0.0-15.0","""event"",""trial"",""time""
""fullscreenenter"",""0"",""1292""
","
","
","""event"",""trial"",""time""
""fullscreenenter"",""0"",""1292""
","
","386.40000000037253","<div class='center'><p> If you remember correctly, then you’ll get a gold coin like this: </p><p><img src='run_exp/static/images/tutorial/reward_small.png' height='200'></p><p>If you do not remember correctly, then you'll see a red x like this: </p><p><img src='run_exp/static/images/tutorial/reward_no.png' height='200'></p><p>Importantly, when you are shown a ship, take the time to remind yourself which island you saw it on. This will help you in the next part of the study.</p><p><b>[Press the space bar to continue]</b></p></div>","32","","","","","","","","","","","","","","","","","","","","","","","",""
"","begin_test_phase","16","141399","0.0-16.0","""event"",""trial"",""time""
""fullscreenenter"",""0"",""1292""
","
","
","""event"",""trial"",""time""
""fullscreenenter"",""0"",""1292""
","
","null","run_exp/static/audio/clip_36_begin_final.m4a","null","","","","","<div class='center'><p>Let's go over the important points again. Your job is to: </p><p>1. Pick the pirate who is best at robbing ships and will bring you back gold coins. </p><p>2. Correctly remember whether or not you saw a ship before. If you did see the ship before, remind yourself on which island you saw it. </p></div>","","","","","","","","","","","","","","","","","","",""
"","html-keyboard-response","17","142069","0.0-17.0","""event"",""trial"",""time""
""fullscreenenter"",""0"",""1292""
","
","
","""event"",""trial"",""time""
""fullscreenenter"",""0"",""1292""
","
","638.6999999992549","<div class='center'><p>Let's go over the important points again. Your job is to: </p><p>1. Pick the pirate who is best at robbing ships and will bring you back gold coins. </p><p>2. Correctly remember whether or not you saw a ship before. If you did see the ship before, remind yourself on which island you saw it. </p><p><b>[Press the space bar to continue]</b></p></div>","32","","","","","","","","","","","","","","","","","","","","","","","",""
"","do_welcome","18","146082","0.0-18.0","""event"",""trial"",""time""
""fullscreenenter"",""0"",""1292""
","
","
","""event"",""trial"",""time""
""fullscreenenter"",""0"",""1292""
","
","null","","","","","","","","null","","","","","","","","","","","","","","","","","",""
"","do_trial","19","152144","0.0-19.0-0.0","""event"",""trial"",""time""
""fullscreenenter"",""0"",""1292""
","
","
","""event"",""trial"",""time""
""fullscreenenter"",""0"",""1292""
","
","null","","","","","","","","null","0,1,1","6","blank","230","null","0.31923183100913927","0.07528904680024226","0.5160559552541095","","","","","","","","","",""
"","html-keyboard-response","20","153148","0.0-19.0-1.0","""event"",""trial"",""time""
""fullscreenenter"",""0"",""1292""
","
","
","""event"",""trial"",""time""
""fullscreenenter"",""0"",""1292""
","
","null","<p></p>","null","","","","","","","","","","","","","","","","","","","","","","","",""
"","do_trial","21","156476","0.0-20.0-0.0","""event"",""trial"",""time""
""fullscreenenter"",""0"",""1292""
","
","
","""event"",""trial"",""time""
""fullscreenenter"",""0"",""1292""
","
","771.8999999985099","","","","","","","","49","0,0,1","6","blank","231","null","0.19496352541595158","0.11537663686775856","0.48309181241209354","0","","","","","","","","",""
"","html-keyboard-response","22","157483","0.0-20.0-1.0","""event"",""trial"",""time""
""fullscreenenter"",""0"",""1292""
","
","
","""event"",""trial"",""time""
""fullscreenenter"",""0"",""1292""
","
","null","<p></p>","null","","","","","","","","","","","","","","","","","","","","","","","",""
"","do_trial","23","161583","0.0-21.0-0.0","""event"",""trial"",""time""
""fullscreenenter"",""0"",""1292""
","
","
","""event"",""trial"",""time""
""fullscreenenter"",""0"",""1292""
","
","1537","","","","","","","","50","0,0,0","6","blank","232","null","0.27057417249397725","0.18205150010614496","0.6796653148672231","0","","","","","","","","",""
"","html-keyboard-response","24","162590","0.0-21.0-1.0","""event"",""trial"",""time""
""fullscreenenter"",""0"",""1292""
","
","
","""event"",""trial"",""time""
""fullscreenenter"",""0"",""1292""
","
","null","<p></p>","null","","","","","","","","","","","","","","","","","","","","","","","",""
"","do_trial","25","167061","0.0-22.0-0.0","""event"",""trial"",""time""
""fullscreenenter"",""0"",""1292""
","
","
","""event"",""trial"",""time""
""fullscreenenter"",""0"",""1292""
","
","1911.7000000011176","","","","","","","","49","0,0,1","6","blank","233","null","0.1221441388822836","0.10642720999813345","0.6925313370227658","0","","","","","","","","",""
"","html-keyboard-response","26","168069","0.0-22.0-1.0","""event"",""trial"",""time""
""fullscreenenter"",""0"",""1292""
","
","
","""event"",""trial"",""time""
""fullscreenenter"",""0"",""1292""
","
","null","<p></p>","null","","","","","","","","","","","","","","","","","","","","","","","",""
"","do_trial","27","171991","0.0-23.0-0.0","""event"",""trial"",""time""
""fullscreenenter"",""0"",""1292""
","
","
","""event"",""trial"",""time""
""fullscreenenter"",""0"",""1292""
","
","1367","","","","","","","","51","0,0,0","6","blank","234","null","0.15094381565216342","0.12720538860562397","0.5929058581305106","0","","","","","","","","",""
"","html-keyboard-response","28","172998","0.0-23.0-1.0","""event"",""trial"",""time""
""fullscreenenter"",""0"",""1292""
","
","
","""event"",""trial"",""time""
""fullscreenenter"",""0"",""1292""
","
","null","<p></p>","null","","","","","","","","","","","","","","","","","","","","","","","",""
"","do_trial","29","175959","0.0-24.0-0.0","""event"",""trial"",""time""
""fullscreenenter"",""0"",""1292""
","
","
","""event"",""trial"",""time""
""fullscreenenter"",""0"",""1292""
","
","401.2999999988824","","","","","","","","50","1,0,1","6","blank","235","null","0.1608997472419129","0.101949640356771","0.6024930547022234","0","","","","","","","","",""
"","html-keyboard-response","30","176966","0.0-24.0-1.0","""event"",""trial"",""time""
""fullscreenenter"",""0"",""1292""
","
","
","""event"",""trial"",""time""
""fullscreenenter"",""0"",""1292""
","
","null","<p></p>","null","","","","","","","","","","","","","","","","","","","","","","","",""
"","do_trial","31","179818","0.0-25.0-0.0","""event"",""trial"",""time""
""fullscreenenter"",""0"",""1292""
","
","
","""event"",""trial"",""time""
""fullscreenenter"",""0"",""1292""
","
","290.7999999988824","","","","","","","","49","0,0,0","6","blank","236","null","0.23139027010701596","0.055108945588418","0.4865745507506465","0","","","","","","","","",""
"","html-keyboard-response","32","180820","0.0-25.0-1.0","""event"",""trial"",""time""
""fullscreenenter"",""0"",""1292""
","
","
","""event"",""trial"",""time""
""fullscreenenter"",""0"",""1292""
","
","null","<p></p>","null","","","","","","","","","","","","","","","","","","","","","","","",""
"","do_trial","33","183664","0.0-26.0-0.0","""event"",""trial"",""time""
""fullscreenenter"",""0"",""1292""
","
","
","""event"",""trial"",""time""
""fullscreenenter"",""0"",""1292""
","
","294.90000000037253","","","","","","","","50","0,0,1","6","blank","237","null","0.06673332098547864","0.17898331574279566","0.3530169693432801","0","","","","","","","","",""
"","html-keyboard-response","34","184671","0.0-26.0-1.0","""event"",""trial"",""time""
""fullscreenenter"",""0"",""1292""
","
","
","""event"",""trial"",""time""
""fullscreenenter"",""0"",""1292""
","
","null","<p></p>","null","","","","","","","","","","","","","","","","","","","","","","","",""
"","do_trial","35","188054","0.0-27.0-0.0","""event"",""trial"",""time""
""fullscreenenter"",""0"",""1292""
","
","
","""event"",""trial"",""time""
""fullscreenenter"",""0"",""1292""
","
","827.8000000007451","","","","","","","","50","0,1,0","6","blank","238","null","0.20278355139509147","0.22382810750679777","0.2583874652277495","1","","","","","","","","",""
"","html-keyboard-response","36","189061","0.0-27.0-1.0","""event"",""trial"",""time""
""fullscreenenter"",""0"",""1292""
","
","
","""event"",""trial"",""time""
""fullscreenenter"",""0"",""1292""
","
","null","<p></p>","null","","","","","","","","","","","","","","","","","","","","","","","",""
"","do_trial","37","192189","0.0-28.0-0.0","""event"",""trial"",""time""
""fullscreenenter"",""0"",""1292""
","
","
","""event"",""trial"",""time""
""fullscreenenter"",""0"",""1292""
","
","571.1999999992549","","","","","","","","50","1,0,1","6","blank","239","null","0.2057633771849513","0.14539467293105182","0.3728381069198827","0","","","","","","","","",""
"","html-keyboard-response","38","193197","0.0-28.0-1.0","""event"",""trial"",""time""
""fullscreenenter"",""0"",""1292""
","
","
","""event"",""trial"",""time""
""fullscreenenter"",""0"",""1292""
","
","null","<p></p>","null","","","","","","","","","","","","","","","","","","","","","","","",""
"","do_trial","39","196100","0.0-29.0-0.0","""event"",""trial"",""time""
""fullscreenenter"",""0"",""1292""
","
","
","""event"",""trial"",""time""
""fullscreenenter"",""0"",""1292""
","
","349.80000000074506","","","","","","","","50","0,0,1","6","blank","240","null","0.07655902756943958","0.092221266398602","0.2993117061631594","0","","","","","","","","",""
"","html-keyboard-response","40","197103","0.0-29.0-1.0","""event"",""trial"",""time""
""fullscreenenter"",""0"",""1292""
","
","
","""event"",""trial"",""time""
""fullscreenenter"",""0"",""1292""
","
","null","<p></p>","null","","","","","","","","","","","","","","","","","","","","","","","",""
"","do_trial","41","199990","0.0-30.0-0.0","""event"",""trial"",""time""
""fullscreenenter"",""0"",""1292""
","
","
","""event"",""trial"",""time""
""fullscreenenter"",""0"",""1292""
","
","332","","","","","","","","50","0,0,0","6","blank","241","null","0.06377162861692057","0.16367175250338886","0.22136616469435383","0","","","","","","","","",""
"","html-keyboard-response","42","200996","0.0-30.0-1.0","""event"",""trial"",""time""
""fullscreenenter"",""0"",""1292""
","
","
","""event"",""trial"",""time""
""fullscreenenter"",""0"",""1292""
","
","null","<p></p>","null","","","","","","","","","","","","","","","","","","","","","","","",""
"","do_trial","43","204142","0.0-31.0-0.0","""event"",""trial"",""time""
""fullscreenenter"",""0"",""1292""
","
","
","""event"",""trial"",""time""
""fullscreenenter"",""0"",""1292""
","
","614.5","","","","","","","","50","0,1,1","6","blank","242","null","0.05235443328196968","0.3055267782285157","0.42160594155014736","1","","","","","","","","",""
"","html-keyboard-response","44","205149","0.0-31.0-1.0","""event"",""trial"",""time""
""fullscreenenter"",""0"",""1292""
","
","
","""event"",""trial"",""time""
""fullscreenenter"",""0"",""1292""
","
","null","<p></p>","null","","","","","","","","","","","","","","","","","","","","","","","",""
"","do_trial","45","208003","0.0-32.0-0.0","""event"",""trial"",""time""
""fullscreenenter"",""0"",""1292""
","
","
","""event"",""trial"",""time""
""fullscreenenter"",""0"",""1292""
","
","297.7999999988824","","","","","","","","50","0,0,0","6","blank","243","null","0.15719125181301938","0.40045984233505066","0.3512638262489092","0","","","","","","","","",""
"","html-keyboard-response","46","209010","0.0-32.0-1.0","""event"",""trial"",""time""
""fullscreenenter"",""0"",""1292""
","
","
","""event"",""trial"",""time""
""fullscreenenter"",""0"",""1292""
","
","null","<p></p>","null","","","","","","","","","","","","","","","","","","","","","","","",""
"","do_recog","47","215029","0.0-33.0-0.0","""event"",""trial"",""time""
""fullscreenenter"",""0"",""1292""
","
","
","""event"",""trial"",""time""
""fullscreenenter"",""0"",""1292""
","
","null","","","","","","","","null","","","","244","probe-216","","","","","1","[object Object]","33","0","0","","","",""
"","html-keyboard-response","48","216037","0.0-33.0-1.0","""event"",""trial"",""time""
""fullscreenenter"",""0"",""1292""
","
","
","""event"",""trial"",""time""
""fullscreenenter"",""0"",""1292""
","
","null","<p></p>","null","","","","","","","","","","","","","","","","","","","","","","","",""
"","do_trial","49","219557","0.0-34.0-0.0","""event"",""trial"",""time""
""fullscreenenter"",""0"",""1292""
","
","
","""event"",""trial"",""time""
""fullscreenenter"",""0"",""1292""
","
","963","","","","","","","","50","0,0,0","6","blank","245","null","0.16423896865840593","0.5573076771607638","0.4148850313883839","0","","","","","","","","",""
"","html-keyboard-response","50","220564","0.0-34.0-1.0","""event"",""trial"",""time""
""fullscreenenter"",""0"",""1292""
","
","
","""event"",""trial"",""time""
""fullscreenenter"",""0"",""1292""
","
","null","<p></p>","null","","","","","","","","","","","","","","","","","","","","","","","",""
"","do_trial","51","223911","0.0-35.0-0.0","""event"",""trial"",""time""
""fullscreenenter"",""0"",""1292""
","
","
","""event"",""trial"",""time""
""fullscreenenter"",""0"",""1292""
","
","790.7000000011176","","","","","","","","49","0,1,0","6","blank","246","null","0.14765877334973232","0.728324970162406","0.3813479450811804","0","","","","","","","","",""
"","html-keyboard-response","52","224918","0.0-35.0-1.0","""event"",""trial"",""time""
""fullscreenenter"",""0"",""1292""
","
","
","""event"",""trial"",""time""
""fullscreenenter"",""0"",""1292""
","
","null","<p></p>","null","","","","","","","","","","","","","","","","","","","","","","","",""
"","do_trial","53","228287","0.0-36.0-0.0","""event"",""trial"",""time""
""fullscreenenter"",""0"",""1292""
","
","
","""event"",""trial"",""time""
""fullscreenenter"",""0"",""1292""
","
","812.6000000014901","","","","","","","","51","0,1,0","6","blank","247","null","0.1447113153331361","0.5985796831271323","0.1901405114594234","0","","","","","","","","",""
"","html-keyboard-response","54","229294","0.0-36.0-1.0","""event"",""trial"",""time""
""fullscreenenter"",""0"",""1292""
","
","
","""event"",""trial"",""time""
""fullscreenenter"",""0"",""1292""
","
","null","<p></p>","null","","","","","","","","","","","","","","","","","","","","","","","",""
"","do_trial","55","232422","0.0-37.0-0.0","""event"",""trial"",""time""
""fullscreenenter"",""0"",""1292""
","
","
","""event"",""trial"",""time""
""fullscreenenter"",""0"",""1292""
","
","573.4000000003725","","","","","","","","49","0,1,0","6","blank","248","null","0.1568341967222015","0.5928656610045625","0.23125890371618638","0","","","","","","","","",""
"","html-keyboard-response","56","233427","0.0-37.0-1.0","""event"",""trial"",""time""
""fullscreenenter"",""0"",""1292""
","
","
","""event"",""trial"",""time""
""fullscreenenter"",""0"",""1292""
","
","null","<p></p>","null","","","","","","","","","","","","","","","","","","","","","","","",""
"","do_trial","57","236521","0.0-38.0-0.0","""event"",""trial"",""time""
""fullscreenenter"",""0"",""1292""
","
","
","""event"",""trial"",""time""
""fullscreenenter"",""0"",""1292""
","
","540.0999999996275","","","","","","","","50","0,1,0","6","blank","249","null","0.12433206113168661","0.566722677168601","0.26577828994802644","1","","","","","","","","",""
"","html-keyboard-response","58","237528","0.0-38.0-1.0","""event"",""trial"",""time""
""fullscreenenter"",""0"",""1292""
","
","
","""event"",""trial"",""time""
""fullscreenenter"",""0"",""1292""
","
","null","<p></p>","null","","","","","","","","","","","","","","","","","","","","","","","",""
"","do_trial","59","242191","0.0-39.0-0.0","""event"",""trial"",""time""
""fullscreenenter"",""0"",""1292""
","
","
","""event"",""trial"",""time""
""fullscreenenter"",""0"",""1292""
","
","2102","","","","","","","","50","0,1,1","6","blank","250","null","0.05175316424776882","0.5785154535444421","0.20664236190129726","1","","","","","","","","",""
"","html-keyboard-response","60","243199","0.0-39.0-1.0","""event"",""trial"",""time""
""fullscreenenter"",""0"",""1292""
","
","
","""event"",""trial"",""time""
""fullscreenenter"",""0"",""1292""
","
","null","<p></p>","null","","","","","","","","","","","","","","","","","","","","","","","",""
"","do_trial","61","246707","0.0-40.0-0.0","""event"",""trial"",""time""
""fullscreenenter"",""0"",""1292""
","
","
","""event"",""trial"",""time""
""fullscreenenter"",""0"",""1292""
","
","952.6999999992549","","","","","","","","50","0,1,0","6","blank","251","null","0.0815729745026694","0.5816609613523029","0.2662573205853504","1","","","","","","","","",""
"","html-keyboard-response","62","247711","0.0-40.0-1.0","""event"",""trial"",""time""
""fullscreenenter"",""0"",""1292""
","
","
","""event"",""trial"",""time""
""fullscreenenter"",""0"",""1292""
","
","null","<p></p>","null","","","","","","","","","","","","","","","","","","","","","","","",""
"","do_recog","63","253730","0.0-41.0-0.0","""event"",""trial"",""time""
""fullscreenenter"",""0"",""1292""
","
","
","""event"",""trial"",""time""
""fullscreenenter"",""0"",""1292""
","
","null","","","","","","","","null","","","","252","probe-246","","","","","0","[object Object]","null","null","0","","","",""
"","html-keyboard-response","64","254737","0.0-41.0-1.0","""event"",""trial"",""time""
""fullscreenenter"",""0"",""1292""
","
","
","""event"",""trial"",""time""
""fullscreenenter"",""0"",""1292""
","
","null","<p></p>","null","","","","","","","","","","","","","","","","","","","","","","","",""
"","do_trial","65","260801","0.0-42.0-0.0","""event"",""trial"",""time""
""fullscreenenter"",""0"",""1292""
","
","
","""event"",""trial"",""time""
""fullscreenenter"",""0"",""1292""
","
","null","","","","","","","","null","0,0,0","6","blank","253","null","0.19515126664632873","0.49500692128481305","0.2962384899943226","","","","","","","","","",""
"","html-keyboard-response","66","261803","0.0-42.0-1.0","""event"",""trial"",""time""
""fullscreenenter"",""0"",""1292""
","
","
","""event"",""trial"",""time""
""fullscreenenter"",""0"",""1292""
","
","null","<p></p>","null","","","","","","","","","","","","","","","","","","","","","","","",""
"","do_recog","67","265418","0.0-43.0-0.0","""event"",""trial"",""time""
""fullscreenenter"",""0"",""1292""
","
","
","""event"",""trial"",""time""
""fullscreenenter"",""0"",""1292""
","
","2102.300000000745","","","","","","","","55","","","","254","probe-234","","","","","0","[object Object]","null","null","1","","","",""
"","html-keyboard-response","68","266425","0.0-43.0-1.0","""event"",""trial"",""time""
""fullscreenenter"",""0"",""1292""
","
","
","""event"",""trial"",""time""
""fullscreenenter"",""0"",""1292""
","
","null","<p></p>","null","","","","","","","","","","","","","","","","","","","","","","","",""
"","do_trial","69","269976","0.0-44.0-0.0","""event"",""trial"",""time""
""fullscreenenter"",""0"",""1292""
","
","
","""event"",""trial"",""time""
""fullscreenenter"",""0"",""1292""
","
","985.3000000007451","","","","","","","","50","0,0,0","6","blank","255","null","0.18010441249591833","0.5870939980239289","0.37157584424157364","0","","","","","","","","",""
"","html-keyboard-response","70","270981","0.0-44.0-1.0","""event"",""trial"",""time""
""fullscreenenter"",""0"",""1292""
","
","
","""event"",""trial"",""time""
""fullscreenenter"",""0"",""1292""
","
","null","<p></p>","null","","","","","","","","","","","","","","","","","","","","","","","",""
"","do_recog","71","274280","0.0-45.0-0.0","""event"",""trial"",""time""
""fullscreenenter"",""0"",""1292""
","
","
","""event"",""trial"",""time""
""fullscreenenter"",""0"",""1292""
","
","1785.699999999255","","","","","","","","56","","","","256","probe-24","","","","","1","[object Object]","71","1","0","","","",""
"","html-keyboard-response","72","275287","0.0-45.0-1.0","""event"",""trial"",""time""
""fullscreenenter"",""0"",""1292""
","
","
","""event"",""trial"",""time""
""fullscreenenter"",""0"",""1292""
","
","null","<p></p>","null","","","","","","","","","","","","","","","","","","","","","","","",""
"","do_trial","73","278744","0.0-46.0-0.0","""event"",""trial"",""time""
""fullscreenenter"",""0"",""1292""
","
","
","""event"",""trial"",""time""
""fullscreenenter"",""0"",""1292""
","
","896.1999999992549","","","","","","","","50","0,1,1","6","blank","257","null","0.18471039655338448","0.4931158245349333","0.2763102485905146","1","","","","","","","","",""
"","html-keyboard-response","74","279750","0.0-46.0-1.0","""event"",""trial"",""time""
""fullscreenenter"",""0"",""1292""
","
","
","""event"",""trial"",""time""
""fullscreenenter"",""0"",""1292""
","
","null","<p></p>","null","","","","","","","","","","","","","","","","","","","","","","","",""
"","do_trial","75","282710","0.0-47.0-0.0","""event"",""trial"",""time""
""fullscreenenter"",""0"",""1292""
","
","
","""event"",""trial"",""time""
""fullscreenenter"",""0"",""1292""
","
","400.40000000037253","","","","","","","","49","0,1,0","6","blank","258","null","0.07448660302493969","0.47200407020780255","0.24970884140430044","0","","","","","","","","",""
"","html-keyboard-response","76","283717","0.0-47.0-1.0","""event"",""trial"",""time""
""fullscreenenter"",""0"",""1292""
","
","
","""event"",""trial"",""time""
""fullscreenenter"",""0"",""1292""
","
","null","<p></p>","null","","","","","","","","","","","","","","","","","","","","","","","",""
"","do_trial","77","286559","0.0-48.0-0.0","""event"",""trial"",""time""
""fullscreenenter"",""0"",""1292""
","
","
","""event"",""trial"",""time""
""fullscreenenter"",""0"",""1292""
","
","286.09999999962747","","","","","","","","51","0,0,1","6","blank","259","null","0.12318187121790003","0.4620630473293791","0.3714312154286434","1","","","","","","","","",""
"","html-keyboard-response","78","287566","0.0-48.0-1.0","""event"",""trial"",""time""
""fullscreenenter"",""0"",""1292""
","
","
","""event"",""trial"",""time""
""fullscreenenter"",""0"",""1292""
","
","null","<p></p>","null","","","","","","","","","","","","","","","","","","","","","","","",""
"","do_recog","79","290899","0.0-49.0-0.0","""event"",""trial"",""time""
""fullscreenenter"",""0"",""1292""
","
","
","""event"",""trial"",""time""
""fullscreenenter"",""0"",""1292""
","
","1819.300000000745","","","","","","","","54","","","","260","probe-90","","","","","1","[object Object]","198","4","1","","","",""
"","html-keyboard-response","80","291903","0.0-49.0-1.0","""event"",""trial"",""time""
""fullscreenenter"",""0"",""1292""
","
","
","""event"",""trial"",""time""
""fullscreenenter"",""0"",""1292""
","
","null","<p></p>","null","","","","","","","","","","","","","","","","","","","","","","","",""
"","do_trial","81","295258","0.0-50.0-0.0","""event"",""trial"",""time""
""fullscreenenter"",""0"",""1292""
","
","
","""event"",""trial"",""time""
""fullscreenenter"",""0"",""1292""
","
","827.5999999996275","","","","","","","","51","0,1,0","6","blank","261","null","0.217056892417898","0.4490901220229747","0.24139851450318994","0","","","","","","","","",""
"","html-keyboard-response","82","296265","0.0-50.0-1.0","""event"",""trial"",""time""
""fullscreenenter"",""0"",""1292""
","
","
","""event"",""trial"",""time""
""fullscreenenter"",""0"",""1292""
","
","null","<p></p>","null","","","","","","","","","","","","","","","","","","","","","","","",""
"","do_trial","83","299826","0.0-51.0-0.0","""event"",""trial"",""time""
""fullscreenenter"",""0"",""1292""
","
","
","""event"",""trial"",""time""
""fullscreenenter"",""0"",""1292""
","
","1001.5999999996275","","","","","","","","51","0,0,0","6","blank","262","null","0.2056039913747891","0.598355313879407","0.18631696539033854","0","","","","","","","","",""
"","html-keyboard-response","84","300833","0.0-51.0-1.0","""event"",""trial"",""time""
""fullscreenenter"",""0"",""1292""
","
","
","""event"",""trial"",""time""
""fullscreenenter"",""0"",""1292""
","
","null","<p></p>","null","","","","","","","","","","","","","","","","","","","","","","","",""
"","do_recog","85","304065","0.0-52.0-0.0","""event"",""trial"",""time""
""fullscreenenter"",""0"",""1292""
","
","
","""event"",""trial"",""time""
""fullscreenenter"",""0"",""1292""
","
","1718.5","","","","","","","","56","","","","263","probe-71","","","","","1","[object Object]","159","3","0","","","",""
"","html-keyboard-response","86","305070","0.0-52.0-1.0","""event"",""trial"",""time""
""fullscreenenter"",""0"",""1292""
","
","
","""event"",""trial"",""time""
""fullscreenenter"",""0"",""1292""
","
","null","<p></p>","null","","","","","","","","","","","","","","","","","","","","","","","",""
"","do_trial","87","307950","0.0-53.0-0.0","""event"",""trial"",""time""
""fullscreenenter"",""0"",""1292""
","
","
","""event"",""trial"",""time""
""fullscreenenter"",""0"",""1292""
","
","333.5","","","","","","","","50","0,1,0","6","blank","264","null","0.1986314232138873","0.605814541876985","0.2560074993940764","1","","","","","","","","",""
"","html-keyboard-response","88","308956","0.0-53.0-1.0","""event"",""trial"",""time""
""fullscreenenter"",""0"",""1292""
","
","
","""event"",""trial"",""time""
""fullscreenenter"",""0"",""1292""
","
","null","<p></p>","null","","","","","","","","","","","","","","","","","","","","","","","",""
"","do_trial","89","312186","0.0-54.0-0.0","""event"",""trial"",""time""
""fullscreenenter"",""0"",""1292""
","
","
","""event"",""trial"",""time""
""fullscreenenter"",""0"",""1292""
","
","682.4000000003725","","","","","","","","50","0,1,0","6","blank","265","null","0.09466024533530043","0.6429021249431571","0.2536999813440459","1","","","","","","","","",""
"","html-keyboard-response","90","313193","0.0-54.0-1.0","""event"",""trial"",""time""
""fullscreenenter"",""0"",""1292""
","
","
","""event"",""trial"",""time""
""fullscreenenter"",""0"",""1292""
","
","null","<p></p>","null","","","","","","","","","","","","","","","","","","","","","","","",""
"","do_recog","91","316141","0.0-55.0-0.0","""event"",""trial"",""time""
""fullscreenenter"",""0"",""1292""
","
","
","""event"",""trial"",""time""
""fullscreenenter"",""0"",""1292""
","
","1437.7000000011176","","","","","","","","54","","","","266","probe-48","","","","","1","[object Object]","155","3","1","","","",""
"","html-keyboard-response","92","317145","0.0-55.0-1.0","""event"",""trial"",""time""
""fullscreenenter"",""0"",""1292""
","
","
","""event"",""trial"",""time""
""fullscreenenter"",""0"",""1292""
","
","null","<p></p>","null","","","","","","","","","","","","","","","","","","","","","","","",""
"","do_trial","93","320117","0.0-56.0-0.0","""event"",""trial"",""time""
""fullscreenenter"",""0"",""1292""
","
","
","""event"",""trial"",""time""
""fullscreenenter"",""0"",""1292""
","
","425.40000000037253","","","","","","","","50","0,1,1","6","blank","267","null","0.06725629995475363","0.8243620459526088","0.24240270842161096","1","","","","","","","","",""
"","html-keyboard-response","94","321123","0.0-56.0-1.0","""event"",""trial"",""time""
""fullscreenenter"",""0"",""1292""
","
","
","""event"",""trial"",""time""
""fullscreenenter"",""0"",""1292""
","
","null","<p></p>","null","","","","","","","","","","","","","","","","","","","","","","","",""
"","do_recog","95","324272","0.0-57.0-0.0","""event"",""trial"",""time""
""fullscreenenter"",""0"",""1292""
","
","
","""event"",""trial"",""time""
""fullscreenenter"",""0"",""1292""
","
","1634.2000000011176","","","","","","","","55","","","","268","probe-44","","","","","1","[object Object]","38","0","0","","","",""
"","html-keyboard-response","96","325279","0.0-57.0-1.0","""event"",""trial"",""time""
""fullscreenenter"",""0"",""1292""
","
","
","""event"",""trial"",""time""
""fullscreenenter"",""0"",""1292""
","
","null","<p></p>","null","","","","","","","","","","","","","","","","","","","","","","","",""
"","break","97","327422","0.0-58.0-0.0","""event"",""trial"",""time""
""fullscreenenter"",""0"",""1292""
","
","
","""event"",""trial"",""time""
""fullscreenenter"",""0"",""1292""
","
","2141.5","<div class='center'><p>Time to take a quick break! You have 2 minutes to rest, but you can move on sooner if you'd like.</p><p> Press the <b>space bar</b> to continue.</p></div>","32","","","","","","","","","","","","","","","","","","","","","","","",""
"","do_trial","98","330807","0.0-58.0-1.0","""event"",""trial"",""time""
""fullscreenenter"",""0"",""1292""
","
","
","""event"",""trial"",""time""
""fullscreenenter"",""0"",""1292""
","
","831.8000000007451","","","","","","","","50","0,1,0","6","blank","269","null","0.07749027239321306","0.8125645176338638","0.2882829959978181","1","","","","","","","","",""
"","html-keyboard-response","99","331813","0.0-58.0-2.0","""event"",""trial"",""time""
""fullscreenenter"",""0"",""1292""
","
","
","""event"",""trial"",""time""
""fullscreenenter"",""0"",""1292""
","
","null","<p></p>","null","","","","","","","","","","","","","","","","","","","","","","","",""
"","do_trial","100","334722","0.0-59.0-0.0","""event"",""trial"",""time""
""fullscreenenter"",""0"",""1292""
","
","
","""event"",""trial"",""time""
""fullscreenenter"",""0"",""1292""
","
","352.3999999985099","","","","","","","","50","0,1,1","6","blank","270","null","0.11585880840640524","0.8765524286273915","0.20561952101325012","1","","","","","","","","",""
"","html-keyboard-response","101","335729","0.0-59.0-1.0","""event"",""trial"",""time""
""fullscreenenter"",""0"",""1292""
","
","
","""event"",""trial"",""time""
""fullscreenenter"",""0"",""1292""
","
","null","<p></p>","null","","","","","","","","","","","","","","","","","","","","","","","",""
"","do_recog","102","338885","0.0-60.0-0.0","""event"",""trial"",""time""
""fullscreenenter"",""0"",""1292""
","
","
","""event"",""trial"",""time""
""fullscreenenter"",""0"",""1292""
","
","1646","","","","","","","","55","","","","271","probe-207","","","","","1","[object Object]","197","4","0","","","",""
"","html-keyboard-response","103","339889","0.0-60.0-1.0","""event"",""trial"",""time""
""fullscreenenter"",""0"",""1292""
","
","
","""event"",""trial"",""time""
""fullscreenenter"",""0"",""1292""
","
","null","<p></p>","null","","","","","","","","","","","","","","","","","","","","","","","",""
"","do_trial","104","342823","0.0-61.0-0.0","""event"",""trial"",""time""
""fullscreenenter"",""0"",""1292""
","
","
","""event"",""trial"",""time""
""fullscreenenter"",""0"",""1292""
","
","380.8999999985099","","","","","","","","50","0,1,0","6","blank","272","null","0.2320532881955728","0.6396157424590321","0.24745116968403477","1","","","","","","","","",""
"","html-keyboard-response","105","343830","0.0-61.0-1.0","""event"",""trial"",""time""
""fullscreenenter"",""0"",""1292""
","
","
","""event"",""trial"",""time""
""fullscreenenter"",""0"",""1292""
","
","null","<p></p>","null","","","","","","","","","","","","","","","","","","","","","","","",""
"","do_recog","106","347389","0.0-62.0-0.0","""event"",""trial"",""time""
""fullscreenenter"",""0"",""1292""
","
","
","""event"",""trial"",""time""
""fullscreenenter"",""0"",""1292""
","
","2044.8999999985099","","","","","","","","54","","","","273","probe-252","","","","","0","[object Object]","null","null","0","","","",""
"","html-keyboard-response","107","348394","0.0-62.0-1.0","""event"",""trial"",""time""
""fullscreenenter"",""0"",""1292""
","
","
","""event"",""trial"",""time""
""fullscreenenter"",""0"",""1292""
","
","null","<p></p>","null","","","","","","","","","","","","","","","","","","","","","","","",""
"","do_trial","108","351450","0.0-63.0-0.0","""event"",""trial"",""time""
""fullscreenenter"",""0"",""1292""
","
","
","""event"",""trial"",""time""
""fullscreenenter"",""0"",""1292""
","
","501","","","","","","","","50","1,1,0","6","blank","274","null","0.1404713883372188","0.5105274784052599","0.2833253580246549","1","","","","","","","","",""
"","html-keyboard-response","109","352457","0.0-63.0-1.0","""event"",""trial"",""time""
""fullscreenenter"",""0"",""1292""
","
","
","""event"",""trial"",""time""
""fullscreenenter"",""0"",""1292""
","
","null","<p></p>","null","","","","","","","","","","","","","","","","","","","","","","","",""
"","do_recog","110","356716","0.0-64.0-0.0","""event"",""trial"",""time""
""fullscreenenter"",""0"",""1292""
","
","
","""event"",""trial"",""time""
""fullscreenenter"",""0"",""1292""
","
","2744.2000000011176","","","","","","","","53","","","","275","probe-102","","","","","1","[object Object]","35","0","1","","","",""
"","html-keyboard-response","111","357722","0.0-64.0-1.0","""event"",""trial"",""time""
""fullscreenenter"",""0"",""1292""
","
","
","""event"",""trial"",""time""
""fullscreenenter"",""0"",""1292""
","
","null","<p></p>","null","","","","","","","","","","","","","","","","","","","","","","","",""
"","do_trial","112","360831","0.0-65.0-0.0","""event"",""trial"",""time""
""fullscreenenter"",""0"",""1292""
","
","
","""event"",""trial"",""time""
""fullscreenenter"",""0"",""1292""
","
","550","","","","","","","","50","0,0,1","6","blank","276","null","0.14129361074115415","0.5961219985424596","0.330579218466856","0","","","","","","","","",""
"","html-keyboard-response","113","361835","0.0-65.0-1.0","""event"",""trial"",""time""
""fullscreenenter"",""0"",""1292""
","
","
","""event"",""trial"",""time""
""fullscreenenter"",""0"",""1292""
","
","null","<p></p>","null","","","","","","","","","","","","","","","","","","","","","","","",""
"","do_recog","114","365049","0.0-66.0-0.0","""event"",""trial"",""time""
""fullscreenenter"",""0"",""1292""
","
","
","""event"",""trial"",""time""
""fullscreenenter"",""0"",""1292""
","
","1702.6000000014901","","","","","","","","55","","","","277","probe-241","","","","","0","[object Object]","null","null","1","","","",""
"","html-keyboard-response","115","366054","0.0-66.0-1.0","""event"",""trial"",""time""
""fullscreenenter"",""0"",""1292""
","
","
","""event"",""trial"",""time""
""fullscreenenter"",""0"",""1292""
","
","null","<p></p>","null","","","","","","","","","","","","","","","","","","","","","","","",""
"","do_trial","116","369355","0.0-67.0-0.0","""event"",""trial"",""time""
""fullscreenenter"",""0"",""1292""
","
","
","""event"",""trial"",""time""
""fullscreenenter"",""0"",""1292""
","
","752.5999999996275","","","","","","","","50","0,1,1","6","blank","278","null","0.0842548236423362","0.5911539037874627","0.35393266013786323","1","","","","","","","","",""
"","html-keyboard-response","117","370361","0.0-67.0-1.0","""event"",""trial"",""time""
""fullscreenenter"",""0"",""1292""
","
","
","""event"",""trial"",""time""
""fullscreenenter"",""0"",""1292""
","
","null","<p></p>","null","","","","","","","","","","","","","","","","","","","","","","","",""
"","do_trial","118","373627","0.0-68.0-0.0","""event"",""trial"",""time""
""fullscreenenter"",""0"",""1292""
","
","
","""event"",""trial"",""time""
""fullscreenenter"",""0"",""1292""
","
","719.2000000011176","","","","","","","","50","0,1,0","6","blank","279","null","0.05060191316515025","0.6814397765960422","0.2792994572484217","1","","","","","","","","",""
"","html-keyboard-response","119","374633","0.0-68.0-1.0","""event"",""trial"",""time""
""fullscreenenter"",""0"",""1292""
","
","
","""event"",""trial"",""time""
""fullscreenenter"",""0"",""1292""
","
","null","<p></p>","null","","","","","","","","","","","","","","","","","","","","","","","",""
"","do_trial","120","377963","0.0-69.0-0.0","""event"",""trial"",""time""
""fullscreenenter"",""0"",""1292""
","
","
","""event"",""trial"",""time""
""fullscreenenter"",""0"",""1292""
","
","775.8999999985099","","","","","","","","50","0,1,0","6","blank","280","null","0.09690870244872997","0.5554439462610238","0.2271525046770961","1","","","","","","","","",""
"","html-keyboard-response","121","378965","0.0-69.0-1.0","""event"",""trial"",""time""
""fullscreenenter"",""0"",""1292""
","
","
","""event"",""trial"",""time""
""fullscreenenter"",""0"",""1292""
","
","null","<p></p>","null","","","","","","","","","","","","","","","","","","","","","","","",""
"","do_recog","122","381633","0.0-70.0-0.0","""event"",""trial"",""time""
""fullscreenenter"",""0"",""1292""
","
","
","""event"",""trial"",""time""
""fullscreenenter"",""0"",""1292""
","
","1155.199999999255","","","","","","","","55","","","","281","probe-171","","","","","1","[object Object]","156","3","0","","","",""
"","html-keyboard-response","123","382637","0.0-70.0-1.0","""event"",""trial"",""time""
""fullscreenenter"",""0"",""1292""
","
","
","""event"",""trial"",""time""
""fullscreenenter"",""0"",""1292""
","
","null","<p></p>","null","","","","","","","","","","","","","","","","","","","","","","","",""
"","do_trial","124","385825","0.0-71.0-0.0","""event"",""trial"",""time""
""fullscreenenter"",""0"",""1292""
","
","
","""event"",""trial"",""time""
""fullscreenenter"",""0"",""1292""
","
","636.9000000003725","","","","","","","","50","1,0,0","6","blank","282","null","0.16540256823601454","0.5361986254415303","0.32190304082880533","0","","","","","","","","",""
"","html-keyboard-response","125","386831","0.0-71.0-1.0","""event"",""trial"",""time""
""fullscreenenter"",""0"",""1292""
","
","
","""event"",""trial"",""time""
""fullscreenenter"",""0"",""1292""
","
","null","<p></p>","null","","","","","","","","","","","","","","","","","","","","","","","",""
"","do_recog","126","391143","0.0-72.0-0.0","""event"",""trial"",""time""
""fullscreenenter"",""0"",""1292""
","
","
","""event"",""trial"",""time""
""fullscreenenter"",""0"",""1292""
","
","2798.5","","","","","","","","55","","","","283","probe-03","","","","","1","[object Object]","152","3","0","","","",""
"","html-keyboard-response","127","392146","0.0-72.0-1.0","""event"",""trial"",""time""
""fullscreenenter"",""0"",""1292""
","
","
","""event"",""trial"",""time""
""fullscreenenter"",""0"",""1292""
","
","null","<p></p>","null","","","","","","","","","","","","","","","","","","","","","","","",""
"","do_trial","128","396606","0.0-73.0-0.0","""event"",""trial"",""time""
""fullscreenenter"",""0"",""1292""
","
","
","""event"",""trial"",""time""
""fullscreenenter"",""0"",""1292""
","
","1908.5","","","","","","","","51","0,1,0","6","blank","284","null","0.13016329236298818","0.590587498704164","0.2761225176394322","0","","","","","","","","",""
"","html-keyboard-response","129","397613","0.0-73.0-1.0","""event"",""trial"",""time""
""fullscreenenter"",""0"",""1292""
","
","
","""event"",""trial"",""time""
""fullscreenenter"",""0"",""1292""
","
","null","<p></p>","null","","","","","","","","","","","","","","","","","","","","","","","",""
"","do_trial","130","401169","0.0-74.0-0.0","""event"",""trial"",""time""
""fullscreenenter"",""0"",""1292""
","
","
","""event"",""trial"",""time""
""fullscreenenter"",""0"",""1292""
","
","1007.5999999996275","","","","","","","","50","1,1,1","6","blank","285","null","0.1328609119861647","0.8206288753062938","0.3367343887823379","1","","","","","","","","",""
"","html-keyboard-response","131","402175","0.0-74.0-1.0","""event"",""trial"",""time""
""fullscreenenter"",""0"",""1292""
","
","
","""event"",""trial"",""time""
""fullscreenenter"",""0"",""1292""
","
","null","<p></p>","null","","","","","","","","","","","","","","","","","","","","","","","",""
"","do_trial","132","405052","0.0-75.0-0.0","""event"",""trial"",""time""
""fullscreenenter"",""0"",""1292""
","
","
","""event"",""trial"",""time""
""fullscreenenter"",""0"",""1292""
","
","325.59999999962747","","","","","","","","50","1,0,0","6","blank","286","null","0.05762021788912331","0.7113150536267803","0.18154195240157114","0","","","","","","","","",""
"","html-keyboard-response","133","406055","0.0-75.0-1.0","""event"",""trial"",""time""
""fullscreenenter"",""0"",""1292""
","
","
","""event"",""trial"",""time""
""fullscreenenter"",""0"",""1292""
","
","null","<p></p>","null","","","","","","","","","","","","","","","","","","","","","","","",""
"","do_trial","134","408912","0.0-76.0-0.0","""event"",""trial"",""time""
""fullscreenenter"",""0"",""1292""
","
","
","""event"",""trial"",""time""
""fullscreenenter"",""0"",""1292""
","
","329.19999999925494","","","","","","","","50","0,1,0","6","blank","287","null","0.05909269803197595","0.5663850861725193","0.12728235525258835","1","","","","","","","","",""
"","html-keyboard-response","135","409918","0.0-76.0-1.0","""event"",""trial"",""time""
""fullscreenenter"",""0"",""1292""
","
","
","""event"",""trial"",""time""
""fullscreenenter"",""0"",""1292""
","
","null","<p></p>","null","","","","","","","","","","","","","","","","","","","","","","","",""
"","do_trial","136","412784","0.0-77.0-0.0","""event"",""trial"",""time""
""fullscreenenter"",""0"",""1292""
","
","
","""event"",""trial"",""time""
""fullscreenenter"",""0"",""1292""
","
","311.09999999962747","","","","","","","","50","0,0,0","6","blank","288","null","0.08105849136375805","0.5022321935266851","0.33104770231599345","0","","","","","","","","",""
"","html-keyboard-response","137","413791","0.0-77.0-1.0","""event"",""trial"",""time""
""fullscreenenter"",""0"",""1292""
","
","
","""event"",""trial"",""time""
""fullscreenenter"",""0"",""1292""
","
","null","<p></p>","null","","","","","","","","","","","","","","","","","","","","","","","",""
"","do_recog","138","416677","0.0-78.0-0.0","""event"",""trial"",""time""
""fullscreenenter"",""0"",""1292""
","
","
","""event"",""trial"",""time""
""fullscreenenter"",""0"",""1292""
","
","1373.0999999996275","","","","","","","","55","","","","289","probe-131","","","","","1","[object Object]","150","3","0","","","",""
"","html-keyboard-response","139","417681","0.0-78.0-1.0","""event"",""trial"",""time""
""fullscreenenter"",""0"",""1292""
","
","
","""event"",""trial"",""time""
""fullscreenenter"",""0"",""1292""
","
","null","<p></p>","null","","","","","","","","","","","","","","","","","","","","","","","",""
"","do_trial","140","420677","0.0-79.0-0.0","""event"",""trial"",""time""
""fullscreenenter"",""0"",""1292""
","
","
","""event"",""trial"",""time""
""fullscreenenter"",""0"",""1292""
","
","444.7999999988824","","","","","","","","50","0,0,0","6","blank","290","null","0.08156352163416379","0.530485130279543","0.3630506381471524","0","","","","","","","","",""
"","html-keyboard-response","141","421682","0.0-79.0-1.0","""event"",""trial"",""time""
""fullscreenenter"",""0"",""1292""
","
","
","""event"",""trial"",""time""
""fullscreenenter"",""0"",""1292""
","
","null","<p></p>","null","","","","","","","","","","","","","","","","","","","","","","","",""
"","do_trial","142","425351","0.0-80.0-0.0","""event"",""trial"",""time""
""fullscreenenter"",""0"",""1292""
","
","
","""event"",""trial"",""time""
""fullscreenenter"",""0"",""1292""
","
","1121.7000000011176","","","","","","","","50","0,1,1","6","blank","291","null","0.17556924818684766","0.5154754119725498","0.46942377420587134","1","","","","","","","","",""
"","html-keyboard-response","143","426358","0.0-80.0-1.0","""event"",""trial"",""time""
""fullscreenenter"",""0"",""1292""
","
","
","""event"",""trial"",""time""
""fullscreenenter"",""0"",""1292""
","
","null","<p></p>","null","","","","","","","","","","","","","","","","","","","","","","","",""
"","do_trial","144","429585","0.0-81.0-0.0","""event"",""trial"",""time""
""fullscreenenter"",""0"",""1292""
","
","
","""event"",""trial"",""time""
""fullscreenenter"",""0"",""1292""
","
","674.5","","","","","","","","50","1,0,1","6","blank","292","null","0.23645019369417283","0.5098568822271355","0.4650827020059501","0","","","","","","","","",""
"","html-keyboard-response","145","430592","0.0-81.0-1.0","""event"",""trial"",""time""
""fullscreenenter"",""0"",""1292""
","
","
","""event"",""trial"",""time""
""fullscreenenter"",""0"",""1292""
","
","null","<p></p>","null","","","","","","","","","","","","","","","","","","","","","","","",""
"","do_trial","146","433449","0.0-82.0-0.0","""event"",""trial"",""time""
""fullscreenenter"",""0"",""1292""
","
","
","""event"",""trial"",""time""
""fullscreenenter"",""0"",""1292""
","
","303","","","","","","","","50","0,0,1","6","blank","293","null","0.14196605023043152","0.4556906291867092","0.5053435408430655","0","","","","","","","","",""
"","html-keyboard-response","147","434451","0.0-82.0-1.0","""event"",""trial"",""time""
""fullscreenenter"",""0"",""1292""
","
","
","""event"",""trial"",""time""
""fullscreenenter"",""0"",""1292""
","
","null","<p></p>","null","","","","","","","","","","","","","","","","","","","","","","","",""
"","do_recog","148","437285","0.0-83.0-0.0","""event"",""trial"",""time""
""fullscreenenter"",""0"",""1292""
","
","
","""event"",""trial"",""time""
""fullscreenenter"",""0"",""1292""
","
","1321.1000000014901","","","","","","","","54","","","","294","probe-107","","","","","1","[object Object]","193","4","1","","","",""
"","html-keyboard-response","149","438292","0.0-83.0-1.0","""event"",""trial"",""time""
""fullscreenenter"",""0"",""1292""
","
","
","""event"",""trial"",""time""
""fullscreenenter"",""0"",""1292""
","
","null","<p></p>","null","","","","","","","","","","","","","","","","","","","","","","","",""
"","do_trial","150","441275","0.0-84.0-0.0","""event"",""trial"",""time""
""fullscreenenter"",""0"",""1292""
","
","
","""event"",""trial"",""time""
""fullscreenenter"",""0"",""1292""
","
","428","","","","","","","","49","0,1,0","6","blank","295","null","0.06095787420851497","0.5076142188484962","0.3928392670904991","0","","","","","","","","",""
"","html-keyboard-response","151","442282","0.0-84.0-1.0","""event"",""trial"",""time""
""fullscreenenter"",""0"",""1292""
","
","
","""event"",""trial"",""time""
""fullscreenenter"",""0"",""1292""
","
","null","<p></p>","null","","","","","","","","","","","","","","","","","","","","","","","",""
"","do_trial","152","445162","0.0-85.0-0.0","""event"",""trial"",""time""
""fullscreenenter"",""0"",""1292""
","
","
","""event"",""trial"",""time""
""fullscreenenter"",""0"",""1292""
","
","322.1000000014901","","","","","","","","49","0,0,0","6","blank","296","null","0.16081967164237082","0.42332358553389954","0.36062667350243116","0","","","","","","","","",""
"","html-keyboard-response","153","446166","0.0-85.0-1.0","""event"",""trial"",""time""
""fullscreenenter"",""0"",""1292""
","
","
","""event"",""trial"",""time""
""fullscreenenter"",""0"",""1292""
","
","null","<p></p>","null","","","","","","","","","","","","","","","","","","","","","","","",""
"","do_recog","154","449131","0.0-86.0-0.0","""event"",""trial"",""time""
""fullscreenenter"",""0"",""1292""
","
","
","""event"",""trial"",""time""
""fullscreenenter"",""0"",""1292""
","
","1449.7000000011176","","","","","","","","54","","","","297","probe-18","","","","","1","[object Object]","151","3","1","","","",""
"","html-keyboard-response","155","450133","0.0-86.0-1.0","""event"",""trial"",""time""
""fullscreenenter"",""0"",""1292""
","
","
","""event"",""trial"",""time""
""fullscreenenter"",""0"",""1292""
","
","null","<p></p>","null","","","","","","","","","","","","","","","","","","","","","","","",""
"","do_trial","156","453010","0.0-87.0-0.0","""event"",""trial"",""time""
""fullscreenenter"",""0"",""1292""
","
","
","""event"",""trial"",""time""
""fullscreenenter"",""0"",""1292""
","
","318.2999999988824","","","","","","","","51","0,0,1","6","blank","298","null","0.13858560621540802","0.40250444600198365","0.36460954901728393","1","","","","","","","","",""
"","html-keyboard-response","157","454015","0.0-87.0-1.0","""event"",""trial"",""time""
""fullscreenenter"",""0"",""1292""
","
","
","""event"",""trial"",""time""
""fullscreenenter"",""0"",""1292""
","
","null","<p></p>","null","","","","","","","","","","","","","","","","","","","","","","","",""
"","do_trial","158","456970","0.0-88.0-0.0","""event"",""trial"",""time""
""fullscreenenter"",""0"",""1292""
","
","
","""event"",""trial"",""time""
""fullscreenenter"",""0"",""1292""
","
","395.3999999985099","","","","","","","","51","0,1,0","6","blank","299","null","0.3800785567179566","0.4376154335083995","0.29557161330655174","0","","","","","","","","",""
"","html-keyboard-response","159","457978","0.0-88.0-1.0","""event"",""trial"",""time""
""fullscreenenter"",""0"",""1292""
","
","
","""event"",""trial"",""time""
""fullscreenenter"",""0"",""1292""
","
","null","<p></p>","null","","","","","","","","","","","","","","","","","","","","","","","",""
"","do_trial","160","460811","0.0-89.0-0.0","""event"",""trial"",""time""
""fullscreenenter"",""0"",""1292""
","
","
","""event"",""trial"",""time""
""fullscreenenter"",""0"",""1292""
","
","275.5","","","","","","","","51","1,1,0","6","blank","300","null","0.4269110685459336","0.38764874905155156","0.08548842297167415","0","","","","","","","","",""
"","html-keyboard-response","161","461818","0.0-89.0-1.0","""event"",""trial"",""time""
""fullscreenenter"",""0"",""1292""
","
","
","""event"",""trial"",""time""
""fullscreenenter"",""0"",""1292""
","
","null","<p></p>","null","","","","","","","","","","","","","","","","","","","","","","","",""
"","do_trial","162","464943","0.0-90.0-0.0","""event"",""trial"",""time""
""fullscreenenter"",""0"",""1292""
","
","
","""event"",""trial"",""time""
""fullscreenenter"",""0"",""1292""
","
","572.4000000003725","","","","","","","","51","0,0,0","6","blank","301","null","0.5165399491344353","0.32768649771642144","0.2789620366543323","0","","","","","","","","",""
"","html-keyboard-response","163","465950","0.0-90.0-1.0","""event"",""trial"",""time""
""fullscreenenter"",""0"",""1292""
","
","
","""event"",""trial"",""time""
""fullscreenenter"",""0"",""1292""
","
","null","<p></p>","null","","","","","","","","","","","","","","","","","","","","","","","",""
"","do_recog","164","468983","0.0-91.0-0.0","""event"",""trial"",""time""
""fullscreenenter"",""0"",""1292""
","
","
","""event"",""trial"",""time""
""fullscreenenter"",""0"",""1292""
","
","1523.2999999988824","","","","","","","","54","","","","302","probe-136","","","","","1","[object Object]","191","4","1","","","",""
"","html-keyboard-response","165","469988","0.0-91.0-1.0","""event"",""trial"",""time""
""fullscreenenter"",""0"",""1292""
","
","
","""event"",""trial"",""time""
""fullscreenenter"",""0"",""1292""
","
","null","<p></p>","null","","","","","","","","","","","","","","","","","","","","","","","",""
"","do_trial","166","474792","0.0-92.0-0.0","""event"",""trial"",""time""
""fullscreenenter"",""0"",""1292""
","
","
","""event"",""trial"",""time""
""fullscreenenter"",""0"",""1292""
","
","2245.2999999988824","","","","","","","","51","1,1,0","6","blank","303","null","0.48584680836490224","0.2652316624662457","0.32241221294291145","0","","","","","","","","",""
"","html-keyboard-response","167","475799","0.0-92.0-1.0","""event"",""trial"",""time""
""fullscreenenter"",""0"",""1292""
","
","
","""event"",""trial"",""time""
""fullscreenenter"",""0"",""1292""
","
","null","<p></p>","null","","","","","","","","","","","","","","","","","","","","","","","",""
"","do_trial","168","478744","0.0-93.0-0.0","""event"",""trial"",""time""
""fullscreenenter"",""0"",""1292""
","
","
","""event"",""trial"",""time""
""fullscreenenter"",""0"",""1292""
","
","385","","","","","","","","50","1,1,0","6","blank","304","null","0.5482309775972654","0.21150218673704987","0.28476542692653395","1","","","","","","","","",""
"","html-keyboard-response","169","479749","0.0-93.0-1.0","""event"",""trial"",""time""
""fullscreenenter"",""0"",""1292""
","
","
","""event"",""trial"",""time""
""fullscreenenter"",""0"",""1292""
","
","null","<p></p>","null","","","","","","","","","","","","","","","","","","","","","","","",""
"","do_trial","170","483115","0.0-94.0-0.0","""event"",""trial"",""time""
""fullscreenenter"",""0"",""1292""
","
","
","""event"",""trial"",""time""
""fullscreenenter"",""0"",""1292""
","
","803.2999999988824","","","","","","","","51","1,0,0","6","blank","305","null","0.609465483223331","0.20926221094479033","0.1230152217133873","0","","","","","","","","",""
"","html-keyboard-response","171","484121","0.0-94.0-1.0","""event"",""trial"",""time""
""fullscreenenter"",""0"",""1292""
","
","
","""event"",""trial"",""time""
""fullscreenenter"",""0"",""1292""
","
","null","<p></p>","null","","","","","","","","","","","","","","","","","","","","","","","",""
"","do_trial","172","487370","0.0-95.0-0.0","""event"",""trial"",""time""
""fullscreenenter"",""0"",""1292""
","
","
","""event"",""trial"",""time""
""fullscreenenter"",""0"",""1292""
","
","697","","","","","","","","51","1,0,0","6","blank","306","null","0.5229298690994526","0.2787379850454574","0.05842659541981147","0","","","","","","","","",""
"","html-keyboard-response","173","488376","0.0-95.0-1.0","""event"",""trial"",""time""
""fullscreenenter"",""0"",""1292""
","
","
","""event"",""trial"",""time""
""fullscreenenter"",""0"",""1292""
","
","null","<p></p>","null","","","","","","","","","","","","","","","","","","","","","","","",""
"","do_recog","174","491614","0.0-96.0-0.0","""event"",""trial"",""time""
""fullscreenenter"",""0"",""1292""
","
","
","""event"",""trial"",""time""
""fullscreenenter"",""0"",""1292""
","
","1723.5","","","","","","","","55","","","","307","probe-82","","","","","1","[object Object]","76","1","0","","","",""
"","html-keyboard-response","175","492620","0.0-96.0-1.0","""event"",""trial"",""time""
""fullscreenenter"",""0"",""1292""
","
","
","""event"",""trial"",""time""
""fullscreenenter"",""0"",""1292""
","
","null","<p></p>","null","","","","","","","","","","","","","","","","","","","","","","","",""
"","do_trial","176","496248","0.0-97.0-0.0","""event"",""trial"",""time""
""fullscreenenter"",""0"",""1292""
","
","
","""event"",""trial"",""time""
""fullscreenenter"",""0"",""1292""
","
","1072.800000000745","","","","","","","","51","1,0,0","6","blank","308","null","0.5522860395809774","0.25328864842692367","0.1373505881477411","0","","","","","","","","",""
"","html-keyboard-response","177","497255","0.0-97.0-1.0","""event"",""trial"",""time""
""fullscreenenter"",""0"",""1292""
","
","
","""event"",""trial"",""time""
""fullscreenenter"",""0"",""1292""
","
","null","<p></p>","null","","","","","","","","","","","","","","","","","","","","","","","",""
"","break","178","528612","0.0-98.0-0.0","""event"",""trial"",""time""
""fullscreenenter"",""0"",""1292""
","
","
","""event"",""trial"",""time""
""fullscreenenter"",""0"",""1292""
","
","31355.400000000373","<div class='center'><p>Time to take a quick break! You have 2 minutes to rest, but you can move on sooner if you'd like.</p><p> Press the <b>space bar</b> to continue.</p></div>","32","","","","","","","","","","","","","","","","","","","","","","","",""
"","do_trial","179","533128","0.0-98.0-1.0","""event"",""trial"",""time""
""fullscreenenter"",""0"",""1292""
","
","
","""event"",""trial"",""time""
""fullscreenenter"",""0"",""1292""
","
","1958.699999999255","","","","","","","","51","1,0,0","6","blank","309","null","0.6037884313708596","0.26198143481867514","0.09771780140471721","0","","","","","","","","",""
"","html-keyboard-response","180","534131","0.0-98.0-2.0","""event"",""trial"",""time""
""fullscreenenter"",""0"",""1292""
","
","
","""event"",""trial"",""time""
""fullscreenenter"",""0"",""1292""
","
","null","<p></p>","null","","","","","","","","","","","","","","","","","","","","","","","",""
"","do_trial","181","537130","0.0-99.0-0.0","""event"",""trial"",""time""
""fullscreenenter"",""0"",""1292""
","
","
","""event"",""trial"",""time""
""fullscreenenter"",""0"",""1292""
","
","446.2999999988824","","","","","","","","51","1,0,1","6","blank","310","null","0.6853792157276457","0.16897731296220186","0.1574766883508417","1","","","","","","","","",""
"","html-keyboard-response","182","538134","0.0-99.0-1.0","""event"",""trial"",""time""
""fullscreenenter"",""0"",""1292""
","
","
","""event"",""trial"",""time""
""fullscreenenter"",""0"",""1292""
","
","null","<p></p>","null","","","","","","","","","","","","","","","","","","","","","","","",""
"","do_trial","183","541129","0.0-100.0-0.0","""event"",""trial"",""time""
""fullscreenenter"",""0"",""1292""
","
","
","""event"",""trial"",""time""
""fullscreenenter"",""0"",""1292""
","
","438.2000000011176","","","","","","","","51","1,0,0","6","blank","311","null","0.5836245034353165","0.19020415189941264","0.2786432906560759","0","","","","","","","","",""
"","html-keyboard-response","184","542134","0.0-100.0-1.0","""event"",""trial"",""time""
""fullscreenenter"",""0"",""1292""
","
","
","""event"",""trial"",""time""
""fullscreenenter"",""0"",""1292""
","
","null","<p></p>","null","","","","","","","","","","","","","","","","","","","","","","","",""
"","do_recog","185","545047","0.0-101.0-0.0","""event"",""trial"",""time""
""fullscreenenter"",""0"",""1292""
","
","
","""event"",""trial"",""time""
""fullscreenenter"",""0"",""1292""
","
","1399.7999999988824","","","","","","","","54","","","","312","probe-189","","","","","1","[object Object]","31","0","1","","","",""
"","html-keyboard-response","186","546051","0.0-101.0-1.0","""event"",""trial"",""time""
""fullscreenenter"",""0"",""1292""
","
","
","""event"",""trial"",""time""
""fullscreenenter"",""0"",""1292""
","
","null","<p></p>","null","","","","","","","","","","","","","","","","","","","","","","","",""
"","do_trial","187","549325","0.0-102.0-0.0","""event"",""trial"",""time""
""fullscreenenter"",""0"",""1292""
","
","
","""event"",""trial"",""time""
""fullscreenenter"",""0"",""1292""
","
","718.2000000011176","","","","","","","","49","1,0,0","6","blank","313","null","0.812394911061633","0.327989040586803","0.2959592215205119","1","","","","","","","","",""
"","html-keyboard-response","188","550328","0.0-102.0-1.0","""event"",""trial"",""time""
""fullscreenenter"",""0"",""1292""
","
","
","""event"",""trial"",""time""
""fullscreenenter"",""0"",""1292""
","
","null","<p></p>","null","","","","","","","","","","","","","","","","","","","","","","","",""
"","do_trial","189","553228","0.0-103.0-0.0","""event"",""trial"",""time""
""fullscreenenter"",""0"",""1292""
","
","
","""event"",""trial"",""time""
""fullscreenenter"",""0"",""1292""
","
","349.19999999925494","","","","","","","","49","0,1,0","6","blank","314","null","0.66851371562874","0.19931441690559243","0.2511780416564347","0","","","","","","","","",""
"","html-keyboard-response","190","554235","0.0-103.0-1.0","""event"",""trial"",""time""
""fullscreenenter"",""0"",""1292""
","
","
","""event"",""trial"",""time""
""fullscreenenter"",""0"",""1292""
","
","null","<p></p>","null","","","","","","","","","","","","","","","","","","","","","","","",""
"","do_trial","191","557118","0.0-104.0-0.0","""event"",""trial"",""time""
""fullscreenenter"",""0"",""1292""
","
","
","""event"",""trial"",""time""
""fullscreenenter"",""0"",""1292""
","
","331.30000000074506","","","","","","","","49","1,0,1","6","blank","315","null","0.6813728311798439","0.35567004974968347","0.3615986967249657","1","","","","","","","","",""
"","html-keyboard-response","192","558125","0.0-104.0-1.0","""event"",""trial"",""time""
""fullscreenenter"",""0"",""1292""
","
","
","""event"",""trial"",""time""
""fullscreenenter"",""0"",""1292""
","
","null","<p></p>","null","","","","","","","","","","","","","","","","","","","","","","","",""
"","do_trial","193","561341","0.0-105.0-0.0","""event"",""trial"",""time""
""fullscreenenter"",""0"",""1292""
","
","
","""event"",""trial"",""time""
""fullscreenenter"",""0"",""1292""
","
","660.8000000007451","","","","","","","","49","0,1,0","6","blank","316","null","0.5691615413409657","0.3141816749722551","0.1774963486716082","0","","","","","","","","",""
"","html-keyboard-response","194","562344","0.0-105.0-1.0","""event"",""trial"",""time""
""fullscreenenter"",""0"",""1292""
","
","
","""event"",""trial"",""time""
""fullscreenenter"",""0"",""1292""
","
","null","<p></p>","null","","","","","","","","","","","","","","","","","","","","","","","",""
"","do_trial","195","565180","0.0-106.0-0.0","""event"",""trial"",""time""
""fullscreenenter"",""0"",""1292""
","
","
","""event"",""trial"",""time""
""fullscreenenter"",""0"",""1292""
","
","275","","","","","","","","49","1,0,0","6","blank","317","null","0.48840242154926744","0.1527169554108925","0.12284062918135143","1","","","","","","","","",""
"","html-keyboard-response","196","566183","0.0-106.0-1.0","""event"",""trial"",""time""
""fullscreenenter"",""0"",""1292""
","
","
","""event"",""trial"",""time""
""fullscreenenter"",""0"",""1292""
","
","null","<p></p>","null","","","","","","","","","","","","","","","","","","","","","","","",""
"","do_trial","197","569883","0.0-107.0-0.0","""event"",""trial"",""time""
""fullscreenenter"",""0"",""1292""
","
","
","""event"",""trial"",""time""
""fullscreenenter"",""0"",""1292""
","
","1142.800000000745","","","","","","","","49","1,1,0","6","blank","318","null","0.5032202978289648","0.24209699951897257","0.1356861293713008","1","","","","","","","","",""
"","html-keyboard-response","198","570890","0.0-107.0-1.0","""event"",""trial"",""time""
""fullscreenenter"",""0"",""1292""
","
","
","""event"",""trial"",""time""
""fullscreenenter"",""0"",""1292""
","
","null","<p></p>","null","","","","","","","","","","","","","","","","","","","","","","","",""
"","do_trial","199","574482","0.0-108.0-0.0","""event"",""trial"",""time""
""fullscreenenter"",""0"",""1292""
","
","
","""event"",""trial"",""time""
""fullscreenenter"",""0"",""1292""
","
","1040.800000000745","","","","","","","","49","1,1,0","6","blank","319","null","0.5336620485320485","0.3045469794511871","0.17871838127823075","1","","","","","","","","",""
"","html-keyboard-response","200","575489","0.0-108.0-1.0","""event"",""trial"",""time""
""fullscreenenter"",""0"",""1292""
","
","
","""event"",""trial"",""time""
""fullscreenenter"",""0"",""1292""
","
","null","<p></p>","null","","","","","","","","","","","","","","","","","","","","","","","",""
"","do_recog","201","579786","0.0-109.0-0.0","""event"",""trial"",""time""
""fullscreenenter"",""0"",""1292""
","
","
","""event"",""trial"",""time""
""fullscreenenter"",""0"",""1292""
","
","2784.9000000003725","","","","","","","","53","","","","320","probe-74","","","","","1","[object Object]","75","1","1","","","",""
"","html-keyboard-response","202","580792","0.0-109.0-1.0","""event"",""trial"",""time""
""fullscreenenter"",""0"",""1292""
","
","
","""event"",""trial"",""time""
""fullscreenenter"",""0"",""1292""
","
","null","<p></p>","null","","","","","","","","","","","","","","","","","","","","","","","",""
"","do_trial","203","584739","0.0-110.0-0.0","""event"",""trial"",""time""
""fullscreenenter"",""0"",""1292""
","
","
","""event"",""trial"",""time""
""fullscreenenter"",""0"",""1292""
","
","1398","","","","","","","","49","1,0,0","6","blank","321","null","0.5163233824861873","0.2044578669216549","0.17387922789464946","1","","","","","","","","",""
"","html-keyboard-response","204","585746","0.0-110.0-1.0","""event"",""trial"",""time""
""fullscreenenter"",""0"",""1292""
","
","
","""event"",""trial"",""time""
""fullscreenenter"",""0"",""1292""
","
","null","<p></p>","null","","","","","","","","","","","","","","","","","","","","","","","",""
"","do_trial","205","589931","0.0-111.0-0.0","""event"",""trial"",""time""
""fullscreenenter"",""0"",""1292""
","
","
","""event"",""trial"",""time""
""fullscreenenter"",""0"",""1292""
","
","1638.5","","","","","","","","49","1,0,0","6","blank","322","null","0.5890551869409614","0.1639651957583434","0.12094225174679808","1","","","","","","","","",""
"","html-keyboard-response","206","590938","0.0-111.0-1.0","""event"",""trial"",""time""
""fullscreenenter"",""0"",""1292""
","
","
","""event"",""trial"",""time""
""fullscreenenter"",""0"",""1292""
","
","null","<p></p>","null","","","","","","","","","","","","","","","","","","","","","","","",""
"","do_trial","207","594792","0.0-112.0-0.0","""event"",""trial"",""time""
""fullscreenenter"",""0"",""1292""
","
","
","""event"",""trial"",""time""
""fullscreenenter"",""0"",""1292""
","
","1297.5","","","","","","","","49","1,0,0","6","blank","323","null","0.5999978990239623","0.09921732445145386","0.14062408985788466","1","","","","","","","","",""
"","html-keyboard-response","208","595797","0.0-112.0-1.0","""event"",""trial"",""time""
""fullscreenenter"",""0"",""1292""
","
","
","""event"",""trial"",""time""
""fullscreenenter"",""0"",""1292""
","
","null","<p></p>","null","","","","","","","","","","","","","","","","","","","","","","","",""
"","do_trial","209","599518","0.0-113.0-0.0","""event"",""trial"",""time""
""fullscreenenter"",""0"",""1292""
","
","
","""event"",""trial"",""time""
""fullscreenenter"",""0"",""1292""
","
","1170.1000000014901","","","","","","","","49","1,1,0","6","blank","324","null","0.5008970602081982","0.1317681896971022","0.12605845917494923","1","","","","","","","","",""
"","html-keyboard-response","210","600520","0.0-113.0-1.0","""event"",""trial"",""time""
""fullscreenenter"",""0"",""1292""
","
","
","""event"",""trial"",""time""
""fullscreenenter"",""0"",""1292""
","
","null","<p></p>","null","","","","","","","","","","","","","","","","","","","","","","","",""
"","do_trial","211","604216","0.0-114.0-0.0","""event"",""trial"",""time""
""fullscreenenter"",""0"",""1292""
","
","
","""event"",""trial"",""time""
""fullscreenenter"",""0"",""1292""
","
","1140.699999999255","","","","","","","","49","0,0,0","6","blank","325","null","0.6399972245219482","0.2162578320174433","0.18112082997859089","0","","","","","","","","",""
"","html-keyboard-response","212","605223","0.0-114.0-1.0","""event"",""trial"",""time""
""fullscreenenter"",""0"",""1292""
","
","
","""event"",""trial"",""time""
""fullscreenenter"",""0"",""1292""
","
","null","<p></p>","null","","","","","","","","","","","","","","","","","","","","","","","",""
"","do_recog","213","608814","0.0-115.0-0.0","""event"",""trial"",""time""
""fullscreenenter"",""0"",""1292""
","
","
","""event"",""trial"",""time""
""fullscreenenter"",""0"",""1292""
","
","2078.2999999988824","","","","","","","","54","","","","326","probe-154","","","","","1","[object Object]","115","2","1","","","",""
"","html-keyboard-response","214","609821","0.0-115.0-1.0","""event"",""trial"",""time""
""fullscreenenter"",""0"",""1292""
","
","
","""event"",""trial"",""time""
""fullscreenenter"",""0"",""1292""
","
","null","<p></p>","null","","","","","","","","","","","","","","","","","","","","","","","",""
"","do_trial","215","613696","0.0-116.0-0.0","""event"",""trial"",""time""
""fullscreenenter"",""0"",""1292""
","
","
","""event"",""trial"",""time""
""fullscreenenter"",""0"",""1292""
","
","1321.5","","","","","","","","49","1,0,0","6","blank","327","null","0.7606157134022793","0.2227917098468348","0.08061862708057004","1","","","","","","","","",""
"","html-keyboard-response","216","614699","0.0-116.0-1.0","""event"",""trial"",""time""
""fullscreenenter"",""0"",""1292""
","
","
","""event"",""trial"",""time""
""fullscreenenter"",""0"",""1292""
","
","null","<p></p>","null","","","","","","","","","","","","","","","","","","","","","","","",""
"","do_trial","217","617609","0.0-117.0-0.0","""event"",""trial"",""time""
""fullscreenenter"",""0"",""1292""
","
","
","""event"",""trial"",""time""
""fullscreenenter"",""0"",""1292""
","
","359.7000000011176","","","","","","","","49","1,0,0","6","blank","328","null","0.7596044702000141","0.26341886007722204","0.06798455011933023","1","","","","","","","","",""
"","html-keyboard-response","218","618616","0.0-117.0-1.0","""event"",""trial"",""time""
""fullscreenenter"",""0"",""1292""
","
","
","""event"",""trial"",""time""
""fullscreenenter"",""0"",""1292""
","
","null","<p></p>","null","","","","","","","","","","","","","","","","","","","","","","","",""
"","do_trial","219","622412","0.0-118.0-0.0","""event"",""trial"",""time""
""fullscreenenter"",""0"",""1292""
","
","
","""event"",""trial"",""time""
""fullscreenenter"",""0"",""1292""
","
","1240","","","","","","","","49","1,1,1","6","blank","329","null","0.7518560158044107","0.18796919603217974","0.1491463460987903","1","","","","","","","","",""
"","html-keyboard-response","220","623419","0.0-118.0-1.0","""event"",""trial"",""time""
""fullscreenenter"",""0"",""1292""
","
","
","""event"",""trial"",""time""
""fullscreenenter"",""0"",""1292""
","
","null","<p></p>","null","","","","","","","","","","","","","","","","","","","","","","","",""
"","do_trial","221","627575","0.0-119.0-0.0","""event"",""trial"",""time""
""fullscreenenter"",""0"",""1292""
","
","
","""event"",""trial"",""time""
""fullscreenenter"",""0"",""1292""
","
","1599.6000000014901","","","","","","","","49","1,1,0","6","blank","330","null","0.5692905219584813","0.20710666841729328","0.08513472724246865","1","","","","","","","","",""
"","html-keyboard-response","222","628582","0.0-119.0-1.0","""event"",""trial"",""time""
""fullscreenenter"",""0"",""1292""
","
","
","""event"",""trial"",""time""
""fullscreenenter"",""0"",""1292""
","
","null","<p></p>","null","","","","","","","","","","","","","","","","","","","","","","","",""
"","do_trial","223","632404","0.0-120.0-0.0","""event"",""trial"",""time""
""fullscreenenter"",""0"",""1292""
","
","
","""event"",""trial"",""time""
""fullscreenenter"",""0"",""1292""
","
","1268.5","","","","","","","","49","0,0,0","6","blank","331","null","0.5160769575574479","0.12856811153593398","0.055374490130633246","0","","","","","","","","",""
"","html-keyboard-response","224","633407","0.0-120.0-1.0","""event"",""trial"",""time""
""fullscreenenter"",""0"",""1292""
","
","
","""event"",""trial"",""time""
""fullscreenenter"",""0"",""1292""
","
","null","<p></p>","null","","","","","","","","","","","","","","","","","","","","","","","",""
"","do_recog","225","636989","0.0-121.0-0.0","""event"",""trial"",""time""
""fullscreenenter"",""0"",""1292""
","
","
","""event"",""trial"",""time""
""fullscreenenter"",""0"",""1292""
","
","2069.7000000011176","","","","","","","","56","","","","332","probe-37","","","","","1","[object Object]","70","1","0","","","",""
"","html-keyboard-response","226","637993","0.0-121.0-1.0","""event"",""trial"",""time""
""fullscreenenter"",""0"",""1292""
","
","
","""event"",""trial"",""time""
""fullscreenenter"",""0"",""1292""
","
","null","<p></p>","null","","","","","","","","","","","","","","","","","","","","","","","",""
"","do_trial","227","641597","0.0-122.0-0.0","""event"",""trial"",""time""
""fullscreenenter"",""0"",""1292""
","
","
","""event"",""trial"",""time""
""fullscreenenter"",""0"",""1292""
","
","1055.7000000011176","","","","","","","","49","1,0,0","6","blank","333","null","0.6920644323544027","0.2558852954441275","0.09631179440002033","1","","","","","","","","",""
"","html-keyboard-response","228","642600","0.0-122.0-1.0","""event"",""trial"",""time""
""fullscreenenter"",""0"",""1292""
","
","
","""event"",""trial"",""time""
""fullscreenenter"",""0"",""1292""
","
","null","<p></p>","null","","","","","","","","","","","","","","","","","","","","","","","",""
"","do_trial","229","647348","0.0-123.0-0.0","""event"",""trial"",""time""
""fullscreenenter"",""0"",""1292""
","
","
","""event"",""trial"",""time""
""fullscreenenter"",""0"",""1292""
","
","2190","","","","","","","","49","1,0,1","6","blank","334","null","0.5777592439316573","0.3473877633155512","0.23882693752366174","1","","","","","","","","",""
"","html-keyboard-response","230","648355","0.0-123.0-1.0","""event"",""trial"",""time""
""fullscreenenter"",""0"",""1292""
","
","
","""event"",""trial"",""time""
""fullscreenenter"",""0"",""1292""
","
","null","<p></p>","null","","","","","","","","","","","","","","","","","","","","","","","",""
"","do_trial","231","652580","0.0-124.0-0.0","""event"",""trial"",""time""
""fullscreenenter"",""0"",""1292""
","
","
","""event"",""trial"",""time""
""fullscreenenter"",""0"",""1292""
","
","1671.9000000003725","","","","","","","","49","1,0,0","6","blank","335","null","0.5833745132410499","0.35247899617125794","0.20721015108215177","1","","","","","","","","",""
"","html-keyboard-response","232","653586","0.0-124.0-1.0","""event"",""trial"",""time""
""fullscreenenter"",""0"",""1292""
","
","
","""event"",""trial"",""time""
""fullscreenenter"",""0"",""1292""
","
","null","<p></p>","null","","","","","","","","","","","","","","","","","","","","","","","",""
"","do_trial","233","658744","0.0-125.0-0.0","""event"",""trial"",""time""
""fullscreenenter"",""0"",""1292""
","
","
","""event"",""trial"",""time""
""fullscreenenter"",""0"",""1292""
","
","2601.5","","","","","","","","49","1,0,0","6","blank","336","null","0.5839039132619838","0.36616743528142304","0.16657181430081822","1","","","","","","","","",""
"","html-keyboard-response","234","659751","0.0-125.0-1.0","""event"",""trial"",""time""
""fullscreenenter"",""0"",""1292""
","
","
","""event"",""trial"",""time""
""fullscreenenter"",""0"",""1292""
","
","null","<p></p>","null","","","","","","","","","","","","","","","","","","","","","","","",""
"","do_trial","235","663162","0.0-126.0-0.0","""event"",""trial"",""time""
""fullscreenenter"",""0"",""1292""
","
","
","""event"",""trial"",""time""
""fullscreenenter"",""0"",""1292""
","
","856.0999999996275","","","","","","","","49","1,0,0","6","blank","337","null","0.5235713394127464","0.27656114891779465","0.21917518599885633","1","","","","","","","","",""
"","html-keyboard-response","236","664168","0.0-126.0-1.0","""event"",""trial"",""time""
""fullscreenenter"",""0"",""1292""
","
","
","""event"",""trial"",""time""
""fullscreenenter"",""0"",""1292""
","
","null","<p></p>","null","","","","","","","","","","","","","","","","","","","","","","","",""
"","do_recog","237","667144","0.0-127.0-0.0","""event"",""trial"",""time""
""fullscreenenter"",""0"",""1292""
","
","
","""event"",""trial"",""time""
""fullscreenenter"",""0"",""1292""
","
","1466.4000000003725","","","","","","","","54","","","","338","probe-251","","","","","0","[object Object]","null","null","0","","","",""
"","html-keyboard-response","238","668151","0.0-127.0-1.0","""event"",""trial"",""time""
""fullscreenenter"",""0"",""1292""
","
","
","""event"",""trial"",""time""
""fullscreenenter"",""0"",""1292""
","
","null","<p></p>","null","","","","","","","","","","","","","","","","","","","","","","","",""
"","do_trial","239","671037","0.0-128.0-0.0","""event"",""trial"",""time""
""fullscreenenter"",""0"",""1292""
","
","
","""event"",""trial"",""time""
""fullscreenenter"",""0"",""1292""
","
","324.80000000074506","","","","","","","","49","0,0,0","6","blank","339","null","0.5686089051757479","0.3693289030399615","0.34167267384090827","0","","","","","","","","",""
"","html-keyboard-response","240","672042","0.0-128.0-1.0","""event"",""trial"",""time""
""fullscreenenter"",""0"",""1292""
","
","
","""event"",""trial"",""time""
""fullscreenenter"",""0"",""1292""
","
","null","<p></p>","null","","","","","","","","","","","","","","","","","","","","","","","",""
"","do_recog","241","675884","0.0-129.0-0.0","""event"",""trial"",""time""
""fullscreenenter"",""0"",""1292""
","
","
","""event"",""trial"",""time""
""fullscreenenter"",""0"",""1292""
","
","2327.7000000011176","","","","","","","","54","","","","340","probe-151","","","","","1","[object Object]","116","2","1","","","",""
"","html-keyboard-response","242","676891","0.0-129.0-1.0","""event"",""trial"",""time""
""fullscreenenter"",""0"",""1292""
","
","
","""event"",""trial"",""time""
""fullscreenenter"",""0"",""1292""
","
","null","<p></p>","null","","","","","","","","","","","","","","","","","","","","","","","",""
"","do_trial","243","679789","0.0-130.0-0.0","""event"",""trial"",""time""
""fullscreenenter"",""0"",""1292""
","
","
","""event"",""trial"",""time""
""fullscreenenter"",""0"",""1292""
","
","331.5","","","","","","","","49","1,0,0","6","blank","341","null","0.6323067411512358","0.3227175321030697","0.16104187358621047","1","","","","","","","","",""
"","html-keyboard-response","244","680796","0.0-130.0-1.0","""event"",""trial"",""time""
""fullscreenenter"",""0"",""1292""
","
","
","""event"",""trial"",""time""
""fullscreenenter"",""0"",""1292""
","
","null","<p></p>","null","","","","","","","","","","","","","","","","","","","","","","","",""
"","do_trial","245","685280","0.0-131.0-0.0","""event"",""trial"",""time""
""fullscreenenter"",""0"",""1292""
","
","
","""event"",""trial"",""time""
""fullscreenenter"",""0"",""1292""
","
","1934.199999999255","","","","","","","","49","1,0,0","6","blank","342","null","0.5780632970342429","0.2714761545760873","0.24306225937048312","1","","","","","","","","",""
"","html-keyboard-response","246","686287","0.0-131.0-1.0","""event"",""trial"",""time""
""fullscreenenter"",""0"",""1292""
","
","
","""event"",""trial"",""time""
""fullscreenenter"",""0"",""1292""
","
","null","<p></p>","null","","","","","","","","","","","","","","","","","","","","","","","",""
"","do_trial","247","689710","0.0-132.0-0.0","""event"",""trial"",""time""
""fullscreenenter"",""0"",""1292""
","
","
","""event"",""trial"",""time""
""fullscreenenter"",""0"",""1292""
","
","869.5999999996275","","","","","","","","49","0,0,1","6","blank","343","null","0.4768512885715569","0.24604542704443988","0.29730914657928426","0","","","","","","","","",""
"","html-keyboard-response","248","690715","0.0-132.0-1.0","""event"",""trial"",""time""
""fullscreenenter"",""0"",""1292""
","
","
","""event"",""trial"",""time""
""fullscreenenter"",""0"",""1292""
","
","null","<p></p>","null","","","","","","","","","","","","","","","","","","","","","","","",""
"","do_trial","249","693824","0.0-133.0-0.0","""event"",""trial"",""time""
""fullscreenenter"",""0"",""1292""
","
","
","""event"",""trial"",""time""
""fullscreenenter"",""0"",""1292""
","
","556.7999999988824","","","","","","","","49","1,0,0","6","blank","344","null","0.5629701433152776","0.22125705107624272","0.20334228372797059","1","","","","","","","","",""
"","html-keyboard-response","250","694829","0.0-133.0-1.0","""event"",""trial"",""time""
""fullscreenenter"",""0"",""1292""
","
","
","""event"",""trial"",""time""
""fullscreenenter"",""0"",""1292""
","
","null","<p></p>","null","","","","","","","","","","","","","","","","","","","","","","","",""
"","do_recog","251","697827","0.0-134.0-0.0","""event"",""trial"",""time""
""fullscreenenter"",""0"",""1292""
","
","
","""event"",""trial"",""time""
""fullscreenenter"",""0"",""1292""
","
","1484.8999999985099","","","","","","","","54","","","","345","probe-83","","","","","1","[object Object]","157","3","1","","","",""
"","html-keyboard-response","252","698834","0.0-134.0-1.0","""event"",""trial"",""time""
""fullscreenenter"",""0"",""1292""
","
","
","""event"",""trial"",""time""
""fullscreenenter"",""0"",""1292""
","
","null","<p></p>","null","","","","","","","","","","","","","","","","","","","","","","","",""
"","do_trial","253","702573","0.0-135.0-0.0","""event"",""trial"",""time""
""fullscreenenter"",""0"",""1292""
","
","
","""event"",""trial"",""time""
""fullscreenenter"",""0"",""1292""
","
","1180.5999999996275","","","","","","","","49","0,0,0","6","blank","346","null","0.5903030351795324","0.35516929409068765","0.15839999037088032","0","","","","","","","","",""
"","html-keyboard-response","254","703580","0.0-135.0-1.0","""event"",""trial"",""time""
""fullscreenenter"",""0"",""1292""
","
","
","""event"",""trial"",""time""
""fullscreenenter"",""0"",""1292""
","
","null","<p></p>","null","","","","","","","","","","","","","","","","","","","","","","","",""
"","do_trial","255","708292","0.0-136.0-0.0","""event"",""trial"",""time""
""fullscreenenter"",""0"",""1292""
","
","
","""event"",""trial"",""time""
""fullscreenenter"",""0"",""1292""
","
","2154.5","","","","","","","","49","1,0,1","6","blank","347","null","0.6508006558615859","0.3375704122421759","0.13956914660594374","1","","","","","","","","",""
"","html-keyboard-response","256","709299","0.0-136.0-1.0","""event"",""trial"",""time""
""fullscreenenter"",""0"",""1292""
","
","
","""event"",""trial"",""time""
""fullscreenenter"",""0"",""1292""
","
","null","<p></p>","null","","","","","","","","","","","","","","","","","","","","","","","",""
"","do_trial","257","713275","0.0-137.0-0.0","""event"",""trial"",""time""
""fullscreenenter"",""0"",""1292""
","
","
","""event"",""trial"",""time""
""fullscreenenter"",""0"",""1292""
","
","1420.1000000014901","","","","","","","","49","0,0,0","6","blank","348","null","0.3877881017255499","0.4865350817028136","0.24501345884503217","0","","","","","","","","",""
"","html-keyboard-response","258","714282","0.0-137.0-1.0","""event"",""trial"",""time""
""fullscreenenter"",""0"",""1292""
","
","
","""event"",""trial"",""time""
""fullscreenenter"",""0"",""1292""
","
","null","<p></p>","null","","","","","","","","","","","","","","","","","","","","","","","",""
"","break","259","716084","0.0-138.0-0.0","""event"",""trial"",""time""
""fullscreenenter"",""0"",""1292""
","
","
","""event"",""trial"",""time""
""fullscreenenter"",""0"",""1292""
","
","1799.199999999255","<div class='center'><p>Time to take a quick break! You have 2 minutes to rest, but you can move on sooner if you'd like.</p><p> Press the <b>space bar</b> to continue.</p></div>","32","","","","","","","","","","","","","","","","","","","","","","","",""
"","do_recog","260","719097","0.0-138.0-1.0","""event"",""trial"",""time""
""fullscreenenter"",""0"",""1292""
","
","
","""event"",""trial"",""time""
""fullscreenenter"",""0"",""1292""
","
","1506.5999999996275","","","","","","","","54","","","","349","probe-39","","","","","1","[object Object]","79","1","1","","","",""
"","html-keyboard-response","261","720104","0.0-138.0-2.0","""event"",""trial"",""time""
""fullscreenenter"",""0"",""1292""
","
","
","""event"",""trial"",""time""
""fullscreenenter"",""0"",""1292""
","
","null","<p></p>","null","","","","","","","","","","","","","","","","","","","","","","","",""
"","do_trial","262","723044","0.0-139.0-0.0","""event"",""trial"",""time""
""fullscreenenter"",""0"",""1292""
","
","
","""event"",""trial"",""time""
""fullscreenenter"",""0"",""1292""
","
","379.5","","","","","","","","49","1,0,0","6","blank","350","null","0.4098829944360348","0.4649025066070873","0.22270437787461256","1","","","","","","","","",""
"","html-keyboard-response","263","724051","0.0-139.0-1.0","""event"",""trial"",""time""
""fullscreenenter"",""0"",""1292""
","
","
","""event"",""trial"",""time""
""fullscreenenter"",""0"",""1292""
","
","null","<p></p>","null","","","","","","","","","","","","","","","","","","","","","","","",""
"","do_recog","264","726996","0.0-140.0-0.0","""event"",""trial"",""time""
""fullscreenenter"",""0"",""1292""
","
","
","""event"",""trial"",""time""
""fullscreenenter"",""0"",""1292""
","
","1436.5999999996275","","","","","","","","54","","","","351","probe-91","","","","","1","[object Object]","110","2","1","","","",""
"","html-keyboard-response","265","728002","0.0-140.0-1.0","""event"",""trial"",""time""
""fullscreenenter"",""0"",""1292""
","
","
","""event"",""trial"",""time""
""fullscreenenter"",""0"",""1292""
","
","null","<p></p>","null","","","","","","","","","","","","","","","","","","","","","","","",""
"","do_trial","266","730935","0.0-141.0-0.0","""event"",""trial"",""time""
""fullscreenenter"",""0"",""1292""
","
","
","""event"",""trial"",""time""
""fullscreenenter"",""0"",""1292""
","
","372.5","","","","","","","","49","0,0,0","6","blank","352","null","0.4183575751381043","0.5276011572901043","0.09239306876515484","0","","","","","","","","",""
"","html-keyboard-response","267","731942","0.0-141.0-1.0","""event"",""trial"",""time""
""fullscreenenter"",""0"",""1292""
","
","
","""event"",""trial"",""time""
""fullscreenenter"",""0"",""1292""
","
","null","<p></p>","null","","","","","","","","","","","","","","","","","","","","","","","",""
"","do_trial","268","735783","0.0-142.0-0.0","""event"",""trial"",""time""
""fullscreenenter"",""0"",""1292""
","
","
","""event"",""trial"",""time""
""fullscreenenter"",""0"",""1292""
","
","1289.7999999988824","","","","","","","","49","0,0,0","6","blank","353","null","0.3846584574414607","0.3605568914178876","0.23563079571697315","0","","","","","","","","",""
"","html-keyboard-response","269","736790","0.0-142.0-1.0","""event"",""trial"",""time""
""fullscreenenter"",""0"",""1292""
","
","
","""event"",""trial"",""time""
""fullscreenenter"",""0"",""1292""
","
","null","<p></p>","null","","","","","","","","","","","","","","","","","","","","","","","",""
"","do_trial","270","740340","0.0-143.0-0.0","""event"",""trial"",""time""
""fullscreenenter"",""0"",""1292""
","
","
","""event"",""trial"",""time""
""fullscreenenter"",""0"",""1292""
","
","989.5","","","","","","","","49","0,1,1","6","blank","354","null","0.32918971827606913","0.649032018619215","0.3884410976605763","0","","","","","","","","",""
"","html-keyboard-response","271","741347","0.0-143.0-1.0","""event"",""trial"",""time""
""fullscreenenter"",""0"",""1292""
","
","
","""event"",""trial"",""time""
""fullscreenenter"",""0"",""1292""
","
","null","<p></p>","null","","","","","","","","","","","","","","","","","","","","","","","",""
"","do_trial","272","744869","0.0-144.0-0.0","""event"",""trial"",""time""
""fullscreenenter"",""0"",""1292""
","
","
","""event"",""trial"",""time""
""fullscreenenter"",""0"",""1292""
","
","963.6999999992549","","","","","","","","49","1,0,0","6","blank","355","null","0.32294355890055665","0.5060466425133231","0.18527279736594707","1","","","","","","","","",""
"","html-keyboard-response","273","745876","0.0-144.0-1.0","""event"",""trial"",""time""
""fullscreenenter"",""0"",""1292""
","
","
","""event"",""trial"",""time""
""fullscreenenter"",""0"",""1292""
","
","null","<p></p>","null","","","","","","","","","","","","","","","","","","","","","","","",""
"","do_trial","274","750000","0.0-145.0-0.0","""event"",""trial"",""time""
""fullscreenenter"",""0"",""1292""
","
","
","""event"",""trial"",""time""
""fullscreenenter"",""0"",""1292""
","
","1577.199999999255","","","","","","","","49","0,0,0","6","blank","356","null","0.11725432153665086","0.4266903580560998","0.3375866752129329","0","","","","","","","","",""
"","html-keyboard-response","275","751008","0.0-145.0-1.0","""event"",""trial"",""time""
""fullscreenenter"",""0"",""1292""
","
","
","""event"",""trial"",""time""
""fullscreenenter"",""0"",""1292""
","
","null","<p></p>","null","","","","","","","","","","","","","","","","","","","","","","","",""
"","do_trial","276","754623","0.0-146.0-0.0","""event"",""trial"",""time""
""fullscreenenter"",""0"",""1292""
","
","
","""event"",""trial"",""time""
""fullscreenenter"",""0"",""1292""
","
","1058.9000000003725","","","","","","","","49","0,0,1","6","blank","357","null","0.2573718192288933","0.39139268389087767","0.3818730999199416","0","","","","","","","","",""
"","html-keyboard-response","277","755626","0.0-146.0-1.0","""event"",""trial"",""time""
""fullscreenenter"",""0"",""1292""
","
","
","""event"",""trial"",""time""
""fullscreenenter"",""0"",""1292""
","
