"success","trial_type","trial_index","time_elapsed","internal_node_id","interactions","blur_events","focus_events","fullscreenenter_events","fullscreenexit_events","rt","stimulus","key_press","subject_id","participant_id","age","gender","prompt","response","choice_outcomes","context_n","context_img_id","trial_n","probe_img_id","pR_red","pR_white","pR_black","outcome","is_valid","image_to_show","probed_trial","probed_context","correct","probe","probed_trial_n","probed_context_n","context_im"
"true","fullscreen","0","2996","0.0-0.0","""event"",""trial"",""time""
""fullscreenenter"",""0"",""2037""
","
","
","""event"",""trial"",""time""
""fullscreenenter"",""0"",""2037""
","
","","","","","","","","","","","","","","","","","","","","","","","","","","",""
"","pavlovia","1","3003","0.0-1.0","""event"",""trial"",""time""
""fullscreenenter"",""0"",""2037""
","
","
","""event"",""trial"",""time""
""fullscreenenter"",""0"",""2037""
","
","","","","","","","","","","","","","","","","","","","","","","","","","","",""
"","welc_back","2","12824","0.0-2.0","""event"",""trial"",""time""
""fullscreenenter"",""0"",""2037""
","
","
","""event"",""trial"",""time""
""fullscreenenter"",""0"",""2037""
","
","null","run_exp/static/audio/clip_29_welcome_back.m4a","null","413","894","21","Female","<div class='center'><p>Welcome to day 2!</p><p> Yesterday, you were the head captain of a pirate ship. You asked your fellow pirates to rob other ships of their gold across six different islands.</p></div>","","","","","","","","","","","","","","","","","","",""
"","html-keyboard-response","3","16173","0.0-3.0","""event"",""trial"",""time""
""fullscreenenter"",""0"",""2037""
","
","
","""event"",""trial"",""time""
""fullscreenenter"",""0"",""2037""
","
","3346.199999988079","<div class='center'><p>Welcome to day 2!</p><p> Yesterday, you were the head captain of a pirate ship. You asked your fellow pirates to rob other ships of their gold across six different islands.</p><p><b>[Press the space bar to continue]</b></p></div>","32","","","","","","","","","","","","","","","","","","","","","","","",""
"","day_1_summary_goal","4","33368","0.0-4.0","""event"",""trial"",""time""
""fullscreenenter"",""0"",""2037""
","
","
","""event"",""trial"",""time""
""fullscreenenter"",""0"",""2037""
","
","null","run_exp/static/audio/clip_30_goal_of_game.m4a","null","","","","","<div class='center'><p>Today, like yesterday, you get to pick which pirate you want to rob the next ship.</p><p>If the pirate is successful in robbing a ship, you get gold coins that look like this: </p><p><img src='run_exp/static/images/tutorial/reward.png' height='150'></p><p> If they were not successful in robbing the ship, then you will get no gold coins and you'll see a big red x like this: </p><p><img src='run_exp/static/images/tutorial/reward_no.png' height='150'></p></div>","","","","","","","","","","","","","","","","","","",""
"","html-keyboard-response","5","33787","0.0-5.0","""event"",""trial"",""time""
""fullscreenenter"",""0"",""2037""
","
","
","""event"",""trial"",""time""
""fullscreenenter"",""0"",""2037""
","
","416.69999998807907","<div class='center'><p>Today, like yesterday, you get to pick which pirate you want to rob the next ship.</p><p>If the pirate is successful in robbing a ship, you get gold coins that look like this: </p><p><img src='run_exp/static/images/tutorial/reward.png' height='150'></p><p> If they were not successful in robbing the ship, then you will get no gold coins and you'll see a big red x like this: </p><p><img src='run_exp/static/images/tutorial/reward_no.png' height='150'></p><p><b>[Press the space bar to continue]</b></p></div>","32","","","","","","","","","","","","","","","","","","","","","","","",""
"","day_1_summary_pick","6","48493","0.0-6.0","""event"",""trial"",""time""
""fullscreenenter"",""0"",""2037""
","
","
","""event"",""trial"",""time""
""fullscreenenter"",""0"",""2037""
","
","null","run_exp/static/audio/clip_31_how_to_pick_a_pirate.m4a","null","","","","","<div class='center'><p>Also, just like yesterday, you will use the 1,2,3 keys on your keyboard to pick a pirate. Press '1' to choose red beard, '2' to choose white beard, and '3' to choose black beard . You only have 3 seconds to pick a pirate, so please make a choice quickly!</p></div>","","","","","","","","","","","","","","","","","","",""
"","html-keyboard-response","7","48815","0.0-7.0","""event"",""trial"",""time""
""fullscreenenter"",""0"",""2037""
","
","
","""event"",""trial"",""time""
""fullscreenenter"",""0"",""2037""
","
","319.69999998807907","<div class='center'><p>Also, just like yesterday, you will use the 1,2,3 keys on your keyboard to pick a pirate. Press '1' to choose red beard, '2' to choose white beard, and '3' to choose black beard . You only have 3 seconds to pick a pirate, so please make a choice quickly!</p><p><b>[Press the space bar to continue]</b></p></div>","32","","","","","","","","","","","","","","","","","","","","","","","",""
"","test_phase_begin","8","79214","0.0-8.0","""event"",""trial"",""time""
""fullscreenenter"",""0"",""2037""
","
","
","""event"",""trial"",""time""
""fullscreenenter"",""0"",""2037""
","
","null","run_exp/static/audio/clip_32_final_place.m4a","null","","","","","<div class='center'><p>You’ve arrived at the final island of your journey! Unfortunately, it’s very foggy out, so you won’t be able to see it in the distance like the other islands you've visited.</p><p>You’ll still be deciding which pirate you want to rob a ship like before. However, because of the fog, you also won’t be able to see the ship.</p><p>This means you do not have to remember the ships you rob on this island.</p><p>Unlike yesterday, you won't be visiting multiple islands today. You will stay on this island for the entire game. This game will last ~30 minutes.</p></div>","","","","","","","","","","","","","","","","","","",""
"","html-keyboard-response","9","79585","0.0-9.0","""event"",""trial"",""time""
""fullscreenenter"",""0"",""2037""
","
","
","""event"",""trial"",""time""
""fullscreenenter"",""0"",""2037""
","
","368.80000001192093","<div class='center'><p>You’ve arrived at the final island of your journey! Unfortunately, it’s very foggy out, so you won’t be able to see it in the distance like the other islands you've visited.</p><p>You’ll still be deciding which pirate you want to rob a ship like before. However, because of the fog, you also won’t be able to see the ship.</p><p>This means you do not have to remember the ships you rob on this island.</p><p>Unlike yesterday, you won't be visiting multiple islands today. You will stay on this island for the entire game. This game will last ~30 minutes.</p><p><b>[Press the space bar to continue]</b></p></div>","32","","","","","","","","","","","","","","","","","","","","","","","",""
"","explain_probe_1","10","87278","0.0-10.0","""event"",""trial"",""time""
""fullscreenenter"",""0"",""2037""
","
","
","""event"",""trial"",""time""
""fullscreenenter"",""0"",""2037""
","
","null","run_exp/static/audio/clip_33_recognition_1.m4a","null","","","","","<div class='center'><p> Sometimes you’ll be shown a ship, and you will be asked if you saw this ship on a past island.</p><p> Here is an example of what you will see.</p><p><img src='run_exp/static/images/tutorial/example_recog_trial.png' height='500'></p></div>","","","","","","","","","","","","","","","","","","",""
"","html-keyboard-response","11","88711","0.0-11.0","""event"",""trial"",""time""
""fullscreenenter"",""0"",""2037""
","
","
","""event"",""trial"",""time""
""fullscreenenter"",""0"",""2037""
","
","1429.9000000357628","<div class='center'><p> Sometimes you’ll be shown a ship, and you will be asked if you saw this ship on a past island.</p><p> Here is an example of what you will see.</p><p><img src='run_exp/static/images/tutorial/example_recog_trial.png' height='500'></p><p><b>[Press the space bar to continue]</b></p></div>","32","","","","","","","","","","","","","","","","","","","","","","","",""
"","explain_probe_2","12","110425","0.0-12.0","""event"",""trial"",""time""
""fullscreenenter"",""0"",""2037""
","
","
","""event"",""trial"",""time""
""fullscreenenter"",""0"",""2037""
","
","null","run_exp/static/audio/clip_34_recognition_2.m4a","null","","","","","<div class='center'><p> You will press the 5, 6, 7, 8 keys on your keyboard to respond.</p><p>If you are sure you saw the ship, press <b>5</b> on your keyboard.</p><p> If you think you saw it before but aren't sure, then press <b>6</b>.</p><p> If you think you have <b>not</b> seen it before but aren't sure, then press <b>7</b>.</p><p> If you are sure you did <b>not</b> see the ship before, then press <b>8</b>.</p><p><img src='run_exp/static/images/tutorial/example_recog_trial.png' height='500'></p></div>","","","","","","","","","","","","","","","","","","",""
"","html-keyboard-response","13","110777","0.0-13.0","""event"",""trial"",""time""
""fullscreenenter"",""0"",""2037""
","
","
","""event"",""trial"",""time""
""fullscreenenter"",""0"",""2037""
","
","349.39999997615814","<div class='center'><p> You will press the 5, 6, 7, 8 keys on your keyboard to respond.</p><p>If you are sure you saw the ship, press <b>5</b> on your keyboard.</p><p> If you think you saw it before but aren't sure, then press <b>6</b>.</p><p> If you think you have <b>not</b> seen it before but aren't sure, then press <b>7</b>.</p><p> If you are sure you did <b>not</b> see the ship before, then press <b>8</b>.</p><p><img src='run_exp/static/images/tutorial/example_recog_trial.png' height='500'></p><p><b>[Press the space bar to continue]</b></p></div>","32","","","","","","","","","","","","","","","","","","","","","","","",""
"","explain_outcome","14","127962","0.0-14.0","""event"",""trial"",""time""
""fullscreenenter"",""0"",""2037""
","
","
","""event"",""trial"",""time""
""fullscreenenter"",""0"",""2037""
","
","null","run_exp/static/audio/clip_35_recognition_3.m4a","null","","","","","<div class='center'><p> If you remember correctly, then you’ll get a gold coin like this: </p><p><img src='run_exp/static/images/tutorial/reward_small.png' height='200'></p><p>If you do not remember correctly, then you'll see a red x like this: </p><p><img src='run_exp/static/images/tutorial/reward_no.png' height='200'></p><p>Importantly, when you are shown a ship, take the time to remind yourself which island you saw it on. This will help you in the next part of the study.</p></div>","","","","","","","","","","","","","","","","","","",""
"","html-keyboard-response","15","130774","0.0-15.0","""event"",""trial"",""time""
""fullscreenenter"",""0"",""2037""
","
","
","""event"",""trial"",""time""
""fullscreenenter"",""0"",""2037""
","
","2810.300000011921","<div class='center'><p> If you remember correctly, then you’ll get a gold coin like this: </p><p><img src='run_exp/static/images/tutorial/reward_small.png' height='200'></p><p>If you do not remember correctly, then you'll see a red x like this: </p><p><img src='run_exp/static/images/tutorial/reward_no.png' height='200'></p><p>Importantly, when you are shown a ship, take the time to remind yourself which island you saw it on. This will help you in the next part of the study.</p><p><b>[Press the space bar to continue]</b></p></div>","32","","","","","","","","","","","","","","","","","","","","","","","",""
"","begin_test_phase","16","146586","0.0-16.0","""event"",""trial"",""time""
""fullscreenenter"",""0"",""2037""
","
","
","""event"",""trial"",""time""
""fullscreenenter"",""0"",""2037""
","
","null","run_exp/static/audio/clip_36_begin_final.m4a","null","","","","","<div class='center'><p>Let's go over the important points again. Your job is to: </p><p>1. Pick the pirate who is best at robbing ships and will bring you back gold coins. </p><p>2. Correctly remember whether or not you saw a ship before. If you did see the ship before, remind yourself on which island you saw it. </p></div>","","","","","","","","","","","","","","","","","","",""
"","html-keyboard-response","17","148473","0.0-17.0","""event"",""trial"",""time""
""fullscreenenter"",""0"",""2037""
","
","
","""event"",""trial"",""time""
""fullscreenenter"",""0"",""2037""
","
","1849.9000000357628","<div class='center'><p>Let's go over the important points again. Your job is to: </p><p>1. Pick the pirate who is best at robbing ships and will bring you back gold coins. </p><p>2. Correctly remember whether or not you saw a ship before. If you did see the ship before, remind yourself on which island you saw it. </p><p><b>[Press the space bar to continue]</b></p></div>","32","","","","","","","","","","","","","","","","","","","","","","","",""
"","do_welcome","18","152485","0.0-18.0","""event"",""trial"",""time""
""fullscreenenter"",""0"",""2037""
","
","
","""event"",""trial"",""time""
""fullscreenenter"",""0"",""2037""
","
","null","","","","","","","","null","","","","","","","","","","","","","","","","","",""
"","do_trial","19","156106","0.0-19.0-0.0","""event"",""trial"",""time""
""fullscreenenter"",""0"",""2037""
","
","
","""event"",""trial"",""time""
""fullscreenenter"",""0"",""2037""
","
","1079.6000000238419","","","","","","","","49","1,0,0","6","blank","230","null","0.7235887337206748","0.15344436720529095","0.050748633340606836","1","","","","","","","","",""
"","html-keyboard-response","20","157110","0.0-19.0-1.0","""event"",""trial"",""time""
""fullscreenenter"",""0"",""2037""
","
","
","""event"",""trial"",""time""
""fullscreenenter"",""0"",""2037""
","
","null","<p></p>","null","","","","","","","","","","","","","","","","","","","","","","","",""
"","do_trial","21","160461","0.0-20.0-0.0","""event"",""trial"",""time""
""fullscreenenter"",""0"",""2037""
","
","
","""event"",""trial"",""time""
""fullscreenenter"",""0"",""2037""
","
","795.8000000119209","","","","","","","","50","0,0,0","6","blank","231","null","0.3850397387305883","0.09320857119812193","0.12301450052159336","0","","","","","","","","",""
"","html-keyboard-response","22","161468","0.0-20.0-1.0","""event"",""trial"",""time""
""fullscreenenter"",""0"",""2037""
","
","
","""event"",""trial"",""time""
""fullscreenenter"",""0"",""2037""
","
","null","<p></p>","null","","","","","","","","","","","","","","","","","","","","","","","",""
"","do_trial","23","164321","0.0-21.0-0.0","""event"",""trial"",""time""
""fullscreenenter"",""0"",""2037""
","
","
","""event"",""trial"",""time""
""fullscreenenter"",""0"",""2037""
","
","294.5","","","","","","","","51","1,0,0","6","blank","232","null","0.5854907945952157","0.10323858212909652","0.05274134708546522","0","","","","","","","","",""
"","html-keyboard-response","24","165325","0.0-21.0-1.0","""event"",""trial"",""time""
""fullscreenenter"",""0"",""2037""
","
","
","""event"",""trial"",""time""
""fullscreenenter"",""0"",""2037""
","
","null","<p></p>","null","","","","","","","","","","","","","","","","","","","","","","","",""
"","do_trial","25","168154","0.0-22.0-0.0","""event"",""trial"",""time""
""fullscreenenter"",""0"",""2037""
","
","
","""event"",""trial"",""time""
""fullscreenenter"",""0"",""2037""
","
","273.4000000357628","","","","","","","","49","1,1,0","6","blank","233","null","0.6644433040364659","0.16298243324397368","0.0676016892298634","1","","","","","","","","",""
"","html-keyboard-response","26","169161","0.0-22.0-1.0","""event"",""trial"",""time""
""fullscreenenter"",""0"",""2037""
","
","
","""event"",""trial"",""time""
""fullscreenenter"",""0"",""2037""
","
","null","<p></p>","null","","","","","","","","","","","","","","","","","","","","","","","",""
"","do_trial","27","172026","0.0-23.0-0.0","""event"",""trial"",""time""
""fullscreenenter"",""0"",""2037""
","
","
","""event"",""trial"",""time""
""fullscreenenter"",""0"",""2037""
","
","314.30000001192093","","","","","","","","49","1,0,0","6","blank","234","null","0.534814955025099","0.21699198485759577","0.2752570957035916","1","","","","","","","","",""
"","html-keyboard-response","28","173029","0.0-23.0-1.0","""event"",""trial"",""time""
""fullscreenenter"",""0"",""2037""
","
","
","""event"",""trial"",""time""
""fullscreenenter"",""0"",""2037""
","
","null","<p></p>","null","","","","","","","","","","","","","","","","","","","","","","","",""
"","do_trial","29","175895","0.0-24.0-0.0","""event"",""trial"",""time""
""fullscreenenter"",""0"",""2037""
","
","
","""event"",""trial"",""time""
""fullscreenenter"",""0"",""2037""
","
","308.5","","","","","","","","51","0,0,0","6","blank","235","null","0.506733610997437","0.2954885293465513","0.13979130299095782","0","","","","","","","","",""
"","html-keyboard-response","30","176897","0.0-24.0-1.0","""event"",""trial"",""time""
""fullscreenenter"",""0"",""2037""
","
","
","""event"",""trial"",""time""
""fullscreenenter"",""0"",""2037""
","
","null","<p></p>","null","","","","","","","","","","","","","","","","","","","","","","","",""
"","do_trial","31","179785","0.0-25.0-0.0","""event"",""trial"",""time""
""fullscreenenter"",""0"",""2037""
","
","
","""event"",""trial"",""time""
""fullscreenenter"",""0"",""2037""
","
","335.80000001192093","","","","","","","","49","0,0,0","6","blank","236","null","0.38210895989210825","0.17560065194146457","0.13011260222708196","0","","","","","","","","",""
"","html-keyboard-response","32","180790","0.0-25.0-1.0","""event"",""trial"",""time""
""fullscreenenter"",""0"",""2037""
","
","
","""event"",""trial"",""time""
""fullscreenenter"",""0"",""2037""
","
","null","<p></p>","null","","","","","","","","","","","","","","","","","","","","","","","",""
"","do_trial","33","183598","0.0-26.0-0.0","""event"",""trial"",""time""
""fullscreenenter"",""0"",""2037""
","
","
","""event"",""trial"",""time""
""fullscreenenter"",""0"",""2037""
","
","258.5","","","","","","","","49","0,0,0","6","blank","237","null","0.388702884077177","0.07735534436623523","0.07220254891024507","0","","","","","","","","",""
"","html-keyboard-response","34","184603","0.0-26.0-1.0","""event"",""trial"",""time""
""fullscreenenter"",""0"",""2037""
","
","
","""event"",""trial"",""time""
""fullscreenenter"",""0"",""2037""
","
","null","<p></p>","null","","","","","","","","","","","","","","","","","","","","","","","",""
"","do_trial","35","187426","0.0-27.0-0.0","""event"",""trial"",""time""
""fullscreenenter"",""0"",""2037""
","
","
","""event"",""trial"",""time""
""fullscreenenter"",""0"",""2037""
","
","269.5","","","","","","","","50","0,1,0","6","blank","238","null","0.31834985714021885","0.08453743236262466","0.07664748727217503","1","","","","","","","","",""
"","html-keyboard-response","36","188430","0.0-27.0-1.0","""event"",""trial"",""time""
""fullscreenenter"",""0"",""2037""
","
","
","""event"",""trial"",""time""
""fullscreenenter"",""0"",""2037""
","
","null","<p></p>","null","","","","","","","","","","","","","","","","","","","","","","","",""
"","do_trial","37","191243","0.0-28.0-0.0","""event"",""trial"",""time""
""fullscreenenter"",""0"",""2037""
","
","
","""event"",""trial"",""time""
""fullscreenenter"",""0"",""2037""
","
","255.5","","","","","","","","49","0,0,0","6","blank","239","null","0.49669594940124506","0.24898598166979","0.26419572295747346","0","","","","","","","","",""
"","html-keyboard-response","38","192247","0.0-28.0-1.0","""event"",""trial"",""time""
""fullscreenenter"",""0"",""2037""
","
","
","""event"",""trial"",""time""
""fullscreenenter"",""0"",""2037""
","
","null","<p></p>","null","","","","","","","","","","","","","","","","","","","","","","","",""
"","do_trial","39","195091","0.0-29.0-0.0","""event"",""trial"",""time""
""fullscreenenter"",""0"",""2037""
","
","
","""event"",""trial"",""time""
""fullscreenenter"",""0"",""2037""
","
","293.30000001192093","","","","","","","","51","1,0,1","6","blank","240","null","0.5430486444083173","0.15830599543156193","0.27451106075063414","1","","","","","","","","",""
"","html-keyboard-response","40","196095","0.0-29.0-1.0","""event"",""trial"",""time""
""fullscreenenter"",""0"",""2037""
","
","
","""event"",""trial"",""time""
""fullscreenenter"",""0"",""2037""
","
","null","<p></p>","null","","","","","","","","","","","","","","","","","","","","","","","",""
"","do_recog","41","202106","0.0-30.0-0.0","""event"",""trial"",""time""
""fullscreenenter"",""0"",""2037""
","
","
","""event"",""trial"",""time""
""fullscreenenter"",""0"",""2037""
","
","null","","","","","","","","null","","","","241","probe-167","","","","","1","[object Object]","37","0","0","","","",""
"","html-keyboard-response","42","203109","0.0-30.0-1.0","""event"",""trial"",""time""
""fullscreenenter"",""0"",""2037""
","
","
","""event"",""trial"",""time""
""fullscreenenter"",""0"",""2037""
","
","null","<p></p>","null","","","","","","","","","","","","","","","","","","","","","","","",""
"","do_trial","43","206442","0.0-31.0-0.0","""event"",""trial"",""time""
""fullscreenenter"",""0"",""2037""
","
","
","""event"",""trial"",""time""
""fullscreenenter"",""0"",""2037""
","
","780.3000000119209","","","","","","","","49","0,0,0","6","blank","242","null","0.5116741118645015","0.09805373797133289","0.25770505520521986","0","","","","","","","","",""
"","html-keyboard-response","44","207450","0.0-31.0-1.0","""event"",""trial"",""time""
""fullscreenenter"",""0"",""2037""
","
","
","""event"",""trial"",""time""
""fullscreenenter"",""0"",""2037""
","
","null","<p></p>","null","","","","","","","","","","","","","","","","","","","","","","","",""
"","do_trial","45","210357","0.0-32.0-0.0","""event"",""trial"",""time""
""fullscreenenter"",""0"",""2037""
","
","
","""event"",""trial"",""time""
""fullscreenenter"",""0"",""2037""
","
","352.39999997615814","","","","","","","","51","1,1,1","6","blank","243","null","0.5104046848059456","0.3376339597541806","0.44277876043888664","1","","","","","","","","",""
"","html-keyboard-response","46","211361","0.0-32.0-1.0","""event"",""trial"",""time""
""fullscreenenter"",""0"",""2037""
","
","
","""event"",""trial"",""time""
""fullscreenenter"",""0"",""2037""
","
","null","<p></p>","null","","","","","","","","","","","","","","","","","","","","","","","",""
"","do_trial","47","214170","0.0-33.0-0.0","""event"",""trial"",""time""
""fullscreenenter"",""0"",""2037""
","
","
","""event"",""trial"",""time""
""fullscreenenter"",""0"",""2037""
","
","254.69999998807907","","","","","","","","50","0,0,0","6","blank","244","null","0.30907570830090697","0.348334223072581","0.4459244491166938","0","","","","","","","","",""
"","html-keyboard-response","48","215176","0.0-33.0-1.0","""event"",""trial"",""time""
""fullscreenenter"",""0"",""2037""
","
","
","""event"",""trial"",""time""
""fullscreenenter"",""0"",""2037""
","
","null","<p></p>","null","","","","","","","","","","","","","","","","","","","","","","","",""
"","do_trial","49","218042","0.0-34.0-0.0","""event"",""trial"",""time""
""fullscreenenter"",""0"",""2037""
","
","
","""event"",""trial"",""time""
""fullscreenenter"",""0"",""2037""
","
","311.10000002384186","","","","","","","","49","1,1,1","6","blank","245","null","0.18990380400319112","0.22089948056615785","0.6452812337167868","1","","","","","","","","",""
"","html-keyboard-response","50","219045","0.0-34.0-1.0","""event"",""trial"",""time""
""fullscreenenter"",""0"",""2037""
","
","
","""event"",""trial"",""time""
""fullscreenenter"",""0"",""2037""
","
","null","<p></p>","null","","","","","","","","","","","","","","","","","","","","","","","",""
"","do_trial","51","222450","0.0-35.0-0.0","""event"",""trial"",""time""
""fullscreenenter"",""0"",""2037""
","
","
","""event"",""trial"",""time""
""fullscreenenter"",""0"",""2037""
","
","870.3999999761581","","","","","","","","49","0,1,1","6","blank","246","null","0.09664352425090267","0.1705009274972565","0.6676648523656858","0","","","","","","","","",""
"","html-keyboard-response","52","223454","0.0-35.0-1.0","""event"",""trial"",""time""
""fullscreenenter"",""0"",""2037""
","
","
","""event"",""trial"",""time""
""fullscreenenter"",""0"",""2037""
","
","null","<p></p>","null","","","","","","","","","","","","","","","","","","","","","","","",""
"","do_trial","53","226251","0.0-36.0-0.0","""event"",""trial"",""time""
""fullscreenenter"",""0"",""2037""
","
","
","""event"",""trial"",""time""
""fullscreenenter"",""0"",""2037""
","
","242.5999999642372","","","","","","","","51","0,1,1","6","blank","247","null","0.2952574289195536","0.12118058582998316","0.5375412568119579","1","","","","","","","","",""
"","html-keyboard-response","54","227256","0.0-36.0-1.0","""event"",""trial"",""time""
""fullscreenenter"",""0"",""2037""
","
","
","""event"",""trial"",""time""
""fullscreenenter"",""0"",""2037""
","
","null","<p></p>","null","","","","","","","","","","","","","","","","","","","","","","","",""
"","do_recog","55","229881","0.0-37.0-0.0","""event"",""trial"",""time""
""fullscreenenter"",""0"",""2037""
","
","
","""event"",""trial"",""time""
""fullscreenenter"",""0"",""2037""
","
","1111.7999999523163","","","","","","","","56","","","","248","probe-208","","","","","1","[object Object]","193","4","0","","","",""
"","html-keyboard-response","56","230885","0.0-37.0-1.0","""event"",""trial"",""time""
""fullscreenenter"",""0"",""2037""
","
","
","""event"",""trial"",""time""
""fullscreenenter"",""0"",""2037""
","
","null","<p></p>","null","","","","","","","","","","","","","","","","","","","","","","","",""
"","do_trial","57","233850","0.0-38.0-0.0","""event"",""trial"",""time""
""fullscreenenter"",""0"",""2037""
","
","
","""event"",""trial"",""time""
""fullscreenenter"",""0"",""2037""
","
","418","","","","","","","","49","0,0,1","6","blank","249","null","0.2686900258763363","0.060063008021103696","0.6571159954659881","0","","","","","","","","",""
"","html-keyboard-response","58","234855","0.0-38.0-1.0","""event"",""trial"",""time""
""fullscreenenter"",""0"",""2037""
","
","
","""event"",""trial"",""time""
""fullscreenenter"",""0"",""2037""
","
","null","<p></p>","null","","","","","","","","","","","","","","","","","","","","","","","",""
"","do_recog","59","238029","0.0-39.0-0.0","""event"",""trial"",""time""
""fullscreenenter"",""0"",""2037""
","
","
","""event"",""trial"",""time""
""fullscreenenter"",""0"",""2037""
","
","1660.8999999761581","","","","","","","","53","","","","250","probe-42","","","","","1","[object Object]","154","3","1","","","",""
"","html-keyboard-response","60","239032","0.0-39.0-1.0","""event"",""trial"",""time""
""fullscreenenter"",""0"",""2037""
","
","
","""event"",""trial"",""time""
""fullscreenenter"",""0"",""2037""
","
","null","<p></p>","null","","","","","","","","","","","","","","","","","","","","","","","",""
"","do_trial","61","242007","0.0-40.0-0.0","""event"",""trial"",""time""
""fullscreenenter"",""0"",""2037""
","
","
","""event"",""trial"",""time""
""fullscreenenter"",""0"",""2037""
","
","422.19999998807907","","","","","","","","50","1,0,1","6","blank","251","null","0.4890865518476251","0.06685214937367481","0.8424346098468831","0","","","","","","","","",""
"","html-keyboard-response","62","243012","0.0-40.0-1.0","""event"",""trial"",""time""
""fullscreenenter"",""0"",""2037""
","
","
","""event"",""trial"",""time""
""fullscreenenter"",""0"",""2037""
","
","null","<p></p>","null","","","","","","","","","","","","","","","","","","","","","","","",""
"","do_recog","63","245862","0.0-41.0-0.0","""event"",""trial"",""time""
""fullscreenenter"",""0"",""2037""
","
","
","""event"",""trial"",""time""
""fullscreenenter"",""0"",""2037""
","
","1335.2999999523163","","","","","","","","56","","","","252","probe-74","","","","","1","[object Object]","155","3","0","","","",""
"","html-keyboard-response","64","246864","0.0-41.0-1.0","""event"",""trial"",""time""
""fullscreenenter"",""0"",""2037""
","
","
","""event"",""trial"",""time""
""fullscreenenter"",""0"",""2037""
","
","null","<p></p>","null","","","","","","","","","","","","","","","","","","","","","","","",""
"","do_trial","65","249718","0.0-42.0-0.0","""event"",""trial"",""time""
""fullscreenenter"",""0"",""2037""
","
","
","""event"",""trial"",""time""
""fullscreenenter"",""0"",""2037""
","
","301.2000000476837","","","","","","","","49","0,1,1","6","blank","253","null","0.4067057995187829","0.1606433484008832","0.6160256087959336","0","","","","","","","","",""
"","html-keyboard-response","66","250722","0.0-42.0-1.0","""event"",""trial"",""time""
""fullscreenenter"",""0"",""2037""
","
","
","""event"",""trial"",""time""
""fullscreenenter"",""0"",""2037""
","
","null","<p></p>","null","","","","","","","","","","","","","","","","","","","","","","","",""
"","do_trial","67","253585","0.0-43.0-0.0","""event"",""trial"",""time""
""fullscreenenter"",""0"",""2037""
","
","
","""event"",""trial"",""time""
""fullscreenenter"",""0"",""2037""
","
","307.39999997615814","","","","","","","","50","0,0,0","6","blank","254","null","0.3522503259858483","0.05179089213156934","0.5061491733014583","0","","","","","","","","",""
"","html-keyboard-response","68","254593","0.0-43.0-1.0","""event"",""trial"",""time""
""fullscreenenter"",""0"",""2037""
","
","
","""event"",""trial"",""time""
""fullscreenenter"",""0"",""2037""
","
","null","<p></p>","null","","","","","","","","","","","","","","","","","","","","","","","",""
"","do_trial","69","257660","0.0-44.0-0.0","""event"",""trial"",""time""
""fullscreenenter"",""0"",""2037""
","
","
","""event"",""trial"",""time""
""fullscreenenter"",""0"",""2037""
","
","516.3000000119209","","","","","","","","49","1,0,1","6","blank","255","null","0.38695128208246493","0.10033173384043716","0.5907662339970177","1","","","","","","","","",""
"","html-keyboard-response","70","258664","0.0-44.0-1.0","""event"",""trial"",""time""
""fullscreenenter"",""0"",""2037""
","
","
","""event"",""trial"",""time""
""fullscreenenter"",""0"",""2037""
","
","null","<p></p>","null","","","","","","","","","","","","","","","","","","","","","","","",""
"","do_trial","71","261617","0.0-45.0-0.0","""event"",""trial"",""time""
""fullscreenenter"",""0"",""2037""
","
","
","""event"",""trial"",""time""
""fullscreenenter"",""0"",""2037""
","
","395.10000002384186","","","","","","","","51","0,1,0","6","blank","256","null","0.32279555899014367","0.055364804467237974","0.5248587908866784","0","","","","","","","","",""
"","html-keyboard-response","72","262624","0.0-45.0-1.0","""event"",""trial"",""time""
""fullscreenenter"",""0"",""2037""
","
","
","""event"",""trial"",""time""
""fullscreenenter"",""0"",""2037""
","
","null","<p></p>","null","","","","","","","","","","","","","","","","","","","","","","","",""
"","do_trial","73","265547","0.0-46.0-0.0","""event"",""trial"",""time""
""fullscreenenter"",""0"",""2037""
","
","
","""event"",""trial"",""time""
""fullscreenenter"",""0"",""2037""
","
","378.5","","","","","","","","49","0,0,1","6","blank","257","null","0.2674300353969561","0.10471031113539753","0.5625872908843215","0","","","","","","","","",""
"","html-keyboard-response","74","266554","0.0-46.0-1.0","""event"",""trial"",""time""
""fullscreenenter"",""0"",""2037""
","
","
","""event"",""trial"",""time""
""fullscreenenter"",""0"",""2037""
","
","null","<p></p>","null","","","","","","","","","","","","","","","","","","","","","","","",""
"","do_recog","75","269545","0.0-47.0-0.0","""event"",""trial"",""time""
""fullscreenenter"",""0"",""2037""
","
","
","""event"",""trial"",""time""
""fullscreenenter"",""0"",""2037""
","
","1478.1000000238419","","","","","","","","53","","","","258","probe-136","","","","","1","[object Object]","30","0","1","","","",""
"","html-keyboard-response","76","270550","0.0-47.0-1.0","""event"",""trial"",""time""
""fullscreenenter"",""0"",""2037""
","
","
","""event"",""trial"",""time""
""fullscreenenter"",""0"",""2037""
","
","null","<p></p>","null","","","","","","","","","","","","","","","","","","","","","","","",""
"","do_trial","77","273800","0.0-48.0-0.0","""event"",""trial"",""time""
""fullscreenenter"",""0"",""2037""
","
","
","""event"",""trial"",""time""
""fullscreenenter"",""0"",""2037""
","
","703.0999999642372","","","","","","","","49","0,0,1","6","blank","259","null","0.4288223543162008","0.06274813026362572","0.45533457514522385","0","","","","","","","","",""
"","html-keyboard-response","78","274802","0.0-48.0-1.0","""event"",""trial"",""time""
""fullscreenenter"",""0"",""2037""
","
","
","""event"",""trial"",""time""
""fullscreenenter"",""0"",""2037""
","
","null","<p></p>","null","","","","","","","","","","","","","","","","","","","","","","","",""
"","do_recog","79","277424","0.0-49.0-0.0","""event"",""trial"",""time""
""fullscreenenter"",""0"",""2037""
","
","
","""event"",""trial"",""time""
""fullscreenenter"",""0"",""2037""
","
","1109.3999999761581","","","","","","","","53","","","","260","probe-60","","","","","1","[object Object]","118","2","1","","","",""
"","html-keyboard-response","80","278428","0.0-49.0-1.0","""event"",""trial"",""time""
""fullscreenenter"",""0"",""2037""
","
","
","""event"",""trial"",""time""
""fullscreenenter"",""0"",""2037""
","
","null","<p></p>","null","","","","","","","","","","","","","","","","","","","","","","","",""
"","do_trial","81","281555","0.0-50.0-0.0","""event"",""trial"",""time""
""fullscreenenter"",""0"",""2037""
","
","
","""event"",""trial"",""time""
""fullscreenenter"",""0"",""2037""
","
","573.5","","","","","","","","50","0,0,0","6","blank","261","null","0.4555507344734795","0.15495319476847758","0.5123242966943603","0","","","","","","","","",""
"","html-keyboard-response","82","282560","0.0-50.0-1.0","""event"",""trial"",""time""
""fullscreenenter"",""0"",""2037""
","
","
","""event"",""trial"",""time""
""fullscreenenter"",""0"",""2037""
","
","null","<p></p>","null","","","","","","","","","","","","","","","","","","","","","","","",""
"","do_trial","83","285382","0.0-51.0-0.0","""event"",""trial"",""time""
""fullscreenenter"",""0"",""2037""
","
","
","""event"",""trial"",""time""
""fullscreenenter"",""0"",""2037""
","
","266","","","","","","","","49","0,0,0","6","blank","262","null","0.5279234411772294","0.09480218724524486","0.443388336264958","0","","","","","","","","",""
"","html-keyboard-response","84","286388","0.0-51.0-1.0","""event"",""trial"",""time""
""fullscreenenter"",""0"",""2037""
","
","
","""event"",""trial"",""time""
""fullscreenenter"",""0"",""2037""
","
","null","<p></p>","null","","","","","","","","","","","","","","","","","","","","","","","",""
"","do_trial","85","289443","0.0-52.0-0.0","""event"",""trial"",""time""
""fullscreenenter"",""0"",""2037""
","
","
","""event"",""trial"",""time""
""fullscreenenter"",""0"",""2037""
","
","504.0999999642372","","","","","","","","49","0,0,1","6","blank","263","null","0.5224287151800031","0.16020535089192492","0.5233637591709608","0","","","","","","","","",""
"","html-keyboard-response","86","290450","0.0-52.0-1.0","""event"",""trial"",""time""
""fullscreenenter"",""0"",""2037""
","
","
","""event"",""trial"",""time""
""fullscreenenter"",""0"",""2037""
","
","null","<p></p>","null","","","","","","","","","","","","","","","","","","","","","","","",""
"","do_recog","87","293159","0.0-53.0-0.0","""event"",""trial"",""time""
""fullscreenenter"",""0"",""2037""
","
","
","""event"",""trial"",""time""
""fullscreenenter"",""0"",""2037""
","
","1195.5","","","","","","","","56","","","","264","probe-34","","","","","1","[object Object]","119","2","0","","","",""
"","html-keyboard-response","88","294164","0.0-53.0-1.0","""event"",""trial"",""time""
""fullscreenenter"",""0"",""2037""
","
","
","""event"",""trial"",""time""
""fullscreenenter"",""0"",""2037""
","
","null","<p></p>","null","","","","","","","","","","","","","","","","","","","","","","","",""
"","do_trial","89","297040","0.0-54.0-0.0","""event"",""trial"",""time""
""fullscreenenter"",""0"",""2037""
","
","
","""event"",""trial"",""time""
""fullscreenenter"",""0"",""2037""
","
","323.89999997615814","","","","","","","","51","0,0,1","6","blank","265","null","0.39254735495652904","0.053916944633681914","0.7262842401514361","1","","","","","","","","",""
"","html-keyboard-response","90","298047","0.0-54.0-1.0","""event"",""trial"",""time""
""fullscreenenter"",""0"",""2037""
","
","
","""event"",""trial"",""time""
""fullscreenenter"",""0"",""2037""
","
","null","<p></p>","null","","","","","","","","","","","","","","","","","","","","","","","",""
"","do_trial","91","301228","0.0-55.0-0.0","""event"",""trial"",""time""
""fullscreenenter"",""0"",""2037""
","
","
","""event"",""trial"",""time""
""fullscreenenter"",""0"",""2037""
","
","625.9000000357628","","","","","","","","49","0,0,0","6","blank","266","null","0.328761100839447","0.07841047539426917","0.7173090419461201","0","","","","","","","","",""
"","html-keyboard-response","92","302231","0.0-55.0-1.0","""event"",""trial"",""time""
""fullscreenenter"",""0"",""2037""
","
","
","""event"",""trial"",""time""
""fullscreenenter"",""0"",""2037""
","
","null","<p></p>","null","","","","","","","","","","","","","","","","","","","","","","","",""
"","do_trial","93","305088","0.0-56.0-0.0","""event"",""trial"",""time""
""fullscreenenter"",""0"",""2037""
","
","
","""event"",""trial"",""time""
""fullscreenenter"",""0"",""2037""
","
","308.89999997615814","","","","","","","","50","1,1,1","6","blank","267","null","0.2777608992423168","0.19070078506928695","0.7187613232973402","1","","","","","","","","",""
"","html-keyboard-response","94","306092","0.0-56.0-1.0","""event"",""trial"",""time""
""fullscreenenter"",""0"",""2037""
","
","
","""event"",""trial"",""time""
""fullscreenenter"",""0"",""2037""
","
","null","<p></p>","null","","","","","","","","","","","","","","","","","","","","","","","",""
"","do_trial","95","309094","0.0-57.0-0.0","""event"",""trial"",""time""
""fullscreenenter"",""0"",""2037""
","
","
","""event"",""trial"",""time""
""fullscreenenter"",""0"",""2037""
","
","453","","","","","","","","49","1,1,1","6","blank","268","null","0.22126218620585328","0.28001537172390223","0.6584749544268373","1","","","","","","","","",""
"","html-keyboard-response","96","310100","0.0-57.0-1.0","""event"",""trial"",""time""
""fullscreenenter"",""0"",""2037""
","
","
","""event"",""trial"",""time""
""fullscreenenter"",""0"",""2037""
","
","null","<p></p>","null","","","","","","","","","","","","","","","","","","","","","","","",""
"","break","97","365303","0.0-58.0-0.0","""event"",""trial"",""time""
""fullscreenenter"",""0"",""2037""
","
","
","""event"",""trial"",""time""
""fullscreenenter"",""0"",""2037""
","
","55201.80000001192","<div class='center'><p>Time to take a quick break! You have 2 minutes to rest, but you can move on sooner if you'd like.</p><p> Press the <b>space bar</b> to continue.</p></div>","32","","","","","","","","","","","","","","","","","","","","","","","",""
"","do_trial","98","369203","0.0-58.0-1.0","""event"",""trial"",""time""
""fullscreenenter"",""0"",""2037""
","
","
","""event"",""trial"",""time""
""fullscreenenter"",""0"",""2037""
","
","1345.5999999642372","","","","","","","","49","0,1,0","6","blank","269","null","0.2583809850555226","0.1709044478566219","0.7104336494826866","0","","","","","","","","",""
"","html-keyboard-response","99","370210","0.0-58.0-2.0","""event"",""trial"",""time""
""fullscreenenter"",""0"",""2037""
","
","
","""event"",""trial"",""time""
""fullscreenenter"",""0"",""2037""
","
","null","<p></p>","null","","","","","","","","","","","","","","","","","","","","","","","",""
"","do_trial","100","373039","0.0-59.0-0.0","""event"",""trial"",""time""
""fullscreenenter"",""0"",""2037""
","
","
","""event"",""trial"",""time""
""fullscreenenter"",""0"",""2037""
","
","277.89999997615814","","","","","","","","49","1,0,0","6","blank","270","null","0.2546080298064701","0.08485687049185309","0.6123857475583437","1","","","","","","","","",""
"","html-keyboard-response","101","374042","0.0-59.0-1.0","""event"",""trial"",""time""
""fullscreenenter"",""0"",""2037""
","
","
","""event"",""trial"",""time""
""fullscreenenter"",""0"",""2037""
","
","null","<p></p>","null","","","","","","","","","","","","","","","","","","","","","","","",""
"","do_trial","102","377024","0.0-60.0-0.0","""event"",""trial"",""time""
""fullscreenenter"",""0"",""2037""
","
","
","""event"",""trial"",""time""
""fullscreenenter"",""0"",""2037""
","
","433","","","","","","","","51","0,1,0","6","blank","271","null","0.2159648122649279","0.1308632305720353","0.5874806946603621","0","","","","","","","","",""
"","html-keyboard-response","103","378030","0.0-60.0-1.0","""event"",""trial"",""time""
""fullscreenenter"",""0"",""2037""
","
","
","""event"",""trial"",""time""
""fullscreenenter"",""0"",""2037""
","
","null","<p></p>","null","","","","","","","","","","","","","","","","","","","","","","","",""
"","do_recog","104","380494","0.0-61.0-0.0","""event"",""trial"",""time""
""fullscreenenter"",""0"",""2037""
","
","
","""event"",""trial"",""time""
""fullscreenenter"",""0"",""2037""
","
","951.8000000119209","","","","","","","","53","","","","272","probe-181","","","","","1","[object Object]","74","1","1","","","",""
"","html-keyboard-response","105","381498","0.0-61.0-1.0","""event"",""trial"",""time""
""fullscreenenter"",""0"",""2037""
","
","
","""event"",""trial"",""time""
""fullscreenenter"",""0"",""2037""
","
","null","<p></p>","null","","","","","","","","","","","","","","","","","","","","","","","",""
"","do_trial","106","384422","0.0-62.0-0.0","""event"",""trial"",""time""
""fullscreenenter"",""0"",""2037""
","
","
","""event"",""trial"",""time""
""fullscreenenter"",""0"",""2037""
","
","372","","","","","","","","49","0,0,0","6","blank","273","null","0.2534974097720763","0.16194439307141173","0.6284656810920248","0","","","","","","","","",""
"","html-keyboard-response","107","385426","0.0-62.0-1.0","""event"",""trial"",""time""
""fullscreenenter"",""0"",""2037""
","
","
","""event"",""trial"",""time""
""fullscreenenter"",""0"",""2037""
","
","null","<p></p>","null","","","","","","","","","","","","","","","","","","","","","","","",""
"","do_recog","108","388394","0.0-63.0-0.0","""event"",""trial"",""time""
""fullscreenenter"",""0"",""2037""
","
","
","""event"",""trial"",""time""
""fullscreenenter"",""0"",""2037""
","
","1455","","","","","","","","53","","","","274","probe-122","","","","","1","[object Object]","76","1","1","","","",""
"","html-keyboard-response","109","389398","0.0-63.0-1.0","""event"",""trial"",""time""
""fullscreenenter"",""0"",""2037""
","
","
","""event"",""trial"",""time""
""fullscreenenter"",""0"",""2037""
","
","null","<p></p>","null","","","","","","","","","","","","","","","","","","","","","","","",""
"","do_trial","110","392347","0.0-64.0-0.0","""event"",""trial"",""time""
""fullscreenenter"",""0"",""2037""
","
","
","""event"",""trial"",""time""
""fullscreenenter"",""0"",""2037""
","
","407.60000002384186","","","","","","","","51","1,0,1","6","blank","275","null","0.38208398713552205","0.12373620330570057","0.5078579150893778","1","","","","","","","","",""
"","html-keyboard-response","111","393352","0.0-64.0-1.0","""event"",""trial"",""time""
""fullscreenenter"",""0"",""2037""
","
","
","""event"",""trial"",""time""
""fullscreenenter"",""0"",""2037""
","
","null","<p></p>","null","","","","","","","","","","","","","","","","","","","","","","","",""
"","do_trial","112","396357","0.0-65.0-0.0","""event"",""trial"",""time""
""fullscreenenter"",""0"",""2037""
","
","
","""event"",""trial"",""time""
""fullscreenenter"",""0"",""2037""
","
","447.19999998807907","","","","","","","","50","0,1,1","6","blank","276","null","0.45278989090642036","0.07793817893111818","0.5803273415149405","1","","","","","","","","",""
"","html-keyboard-response","113","397362","0.0-65.0-1.0","""event"",""trial"",""time""
""fullscreenenter"",""0"",""2037""
","
","
","""event"",""trial"",""time""
""fullscreenenter"",""0"",""2037""
","
","null","<p></p>","null","","","","","","","","","","","","","","","","","","","","","","","",""
"","do_trial","114","400231","0.0-66.0-0.0","""event"",""trial"",""time""
""fullscreenenter"",""0"",""2037""
","
","
","""event"",""trial"",""time""
""fullscreenenter"",""0"",""2037""
","
","314.7999999523163","","","","","","","","51","1,0,1","6","blank","277","null","0.1903122868306264","0.08077155008078953","0.6204370642658273","1","","","","","","","","",""
"","html-keyboard-response","115","401237","0.0-66.0-1.0","""event"",""trial"",""time""
""fullscreenenter"",""0"",""2037""
","
","
","""event"",""trial"",""time""
""fullscreenenter"",""0"",""2037""
","
","null","<p></p>","null","","","","","","","","","","","","","","","","","","","","","","","",""
"","do_trial","116","404219","0.0-67.0-0.0","""event"",""trial"",""time""
""fullscreenenter"",""0"",""2037""
","
","
","""event"",""trial"",""time""
""fullscreenenter"",""0"",""2037""
","
","429.5","","","","","","","","51","0,0,1","6","blank","278","null","0.3740474564601764","0.14767519374689633","0.6132880770553953","1","","","","","","","","",""
"","html-keyboard-response","117","405225","0.0-67.0-1.0","""event"",""trial"",""time""
""fullscreenenter"",""0"",""2037""
","
","
","""event"",""trial"",""time""
""fullscreenenter"",""0"",""2037""
","
","null","<p></p>","null","","","","","","","","","","","","","","","","","","","","","","","",""
"","do_recog","118","407907","0.0-68.0-0.0","""event"",""trial"",""time""
""fullscreenenter"",""0"",""2037""
","
","
","""event"",""trial"",""time""
""fullscreenenter"",""0"",""2037""
","
","1174.199999988079","","","","","","","","56","","","","279","probe-79","","","","","1","[object Object]","77","1","0","","","",""
"","html-keyboard-response","119","408909","0.0-68.0-1.0","""event"",""trial"",""time""
""fullscreenenter"",""0"",""2037""
","
","
","""event"",""trial"",""time""
""fullscreenenter"",""0"",""2037""
","
","null","<p></p>","null","","","","","","","","","","","","","","","","","","","","","","","",""
"","do_trial","120","412043","0.0-69.0-0.0","""event"",""trial"",""time""
""fullscreenenter"",""0"",""2037""
","
","
","""event"",""trial"",""time""
""fullscreenenter"",""0"",""2037""
","
","584.3999999761581","","","","","","","","49","0,0,1","6","blank","280","null","0.37147482488882816","0.12961436724811057","0.551231460289067","0","","","","","","","","",""
"","html-keyboard-response","121","413047","0.0-69.0-1.0","""event"",""trial"",""time""
""fullscreenenter"",""0"",""2037""
","
","
","""event"",""trial"",""time""
""fullscreenenter"",""0"",""2037""
","
","null","<p></p>","null","","","","","","","","","","","","","","","","","","","","","","","",""
"","do_trial","122","416149","0.0-70.0-0.0","""event"",""trial"",""time""
""fullscreenenter"",""0"",""2037""
","
","
","""event"",""trial"",""time""
""fullscreenenter"",""0"",""2037""
","
","547.8999999761581","","","","","","","","50","1,0,0","6","blank","281","null","0.33899812831907233","0.09763001543623567","0.5429858464892139","0","","","","","","","","",""
"","html-keyboard-response","123","417152","0.0-70.0-1.0","""event"",""trial"",""time""
""fullscreenenter"",""0"",""2037""
","
","
","""event"",""trial"",""time""
""fullscreenenter"",""0"",""2037""
","
","null","<p></p>","null","","","","","","","","","","","","","","","","","","","","","","","",""
"","do_recog","124","419639","0.0-71.0-0.0","""event"",""trial"",""time""
""fullscreenenter"",""0"",""2037""
","
","
","""event"",""trial"",""time""
""fullscreenenter"",""0"",""2037""
","
","977","","","","","","","","56","","","","282","probe-250","","","","","0","[object Object]","null","null","1","","","",""
"","html-keyboard-response","125","420646","0.0-71.0-1.0","""event"",""trial"",""time""
""fullscreenenter"",""0"",""2037""
","
","
","""event"",""trial"",""time""
""fullscreenenter"",""0"",""2037""
","
","null","<p></p>","null","","","","","","","","","","","","","","","","","","","","","","","",""
"","do_trial","126","423619","0.0-72.0-0.0","""event"",""trial"",""time""
""fullscreenenter"",""0"",""2037""
","
","
","""event"",""trial"",""time""
""fullscreenenter"",""0"",""2037""
","
","422.39999997615814","","","","","","","","49","1,0,0","6","blank","283","null","0.4233931995095741","0.13848309964053587","0.43678847648078617","1","","","","","","","","",""
"","html-keyboard-response","127","424623","0.0-72.0-1.0","""event"",""trial"",""time""
""fullscreenenter"",""0"",""2037""
","
","
","""event"",""trial"",""time""
""fullscreenenter"",""0"",""2037""
","
","null","<p></p>","null","","","","","","","","","","","","","","","","","","","","","","","",""
"","do_trial","128","427557","0.0-73.0-0.0","""event"",""trial"",""time""
""fullscreenenter"",""0"",""2037""
","
","
","""event"",""trial"",""time""
""fullscreenenter"",""0"",""2037""
","
","374.69999998807907","","","","","","","","51","1,0,0","6","blank","284","null","0.4182469255189373","0.15370153921858604","0.5500814053999007","0","","","","","","","","",""
"","html-keyboard-response","129","428562","0.0-73.0-1.0","""event"",""trial"",""time""
""fullscreenenter"",""0"",""2037""
","
","
","""event"",""trial"",""time""
""fullscreenenter"",""0"",""2037""
","
","null","<p></p>","null","","","","","","","","","","","","","","","","","","","","","","","",""
"","do_trial","130","431421","0.0-74.0-0.0","""event"",""trial"",""time""
""fullscreenenter"",""0"",""2037""
","
","
","""event"",""trial"",""time""
""fullscreenenter"",""0"",""2037""
","
","311.9000000357628","","","","","","","","51","0,0,1","6","blank","285","null","0.37310863193066934","0.17027242162507641","0.6655919705162251","1","","","","","","","","",""
"","html-keyboard-response","131","432425","0.0-74.0-1.0","""event"",""trial"",""time""
""fullscreenenter"",""0"",""2037""
","
","
","""event"",""trial"",""time""
""fullscreenenter"",""0"",""2037""
","
","null","<p></p>","null","","","","","","","","","","","","","","","","","","","","","","","",""
"","do_trial","132","435282","0.0-75.0-0.0","""event"",""trial"",""time""
""fullscreenenter"",""0"",""2037""
","
","
","""event"",""trial"",""time""
""fullscreenenter"",""0"",""2037""
","
","325.19999998807907","","","","","","","","49","0,0,0","6","blank","286","null","0.3607788761363537","0.05183093636839871","0.6981947868770079","0","","","","","","","","",""
"","html-keyboard-response","133","436289","0.0-75.0-1.0","""event"",""trial"",""time""
""fullscreenenter"",""0"",""2037""
","
","
","""event"",""trial"",""time""
""fullscreenenter"",""0"",""2037""
","
","null","<p></p>","null","","","","","","","","","","","","","","","","","","","","","","","",""
"","do_trial","134","439178","0.0-76.0-0.0","""event"",""trial"",""time""
""fullscreenenter"",""0"",""2037""
","
","
","""event"",""trial"",""time""
""fullscreenenter"",""0"",""2037""
","
","334.5999999642372","","","","","","","","51","0,0,0","6","blank","287","null","0.22903541902352723","0.05553972733192186","0.7246830571080664","0","","","","","","","","",""
"","html-keyboard-response","135","440185","0.0-76.0-1.0","""event"",""trial"",""time""
""fullscreenenter"",""0"",""2037""
","
","
","""event"",""trial"",""time""
""fullscreenenter"",""0"",""2037""
","
","null","<p></p>","null","","","","","","","","","","","","","","","","","","","","","","","",""
"","do_recog","136","442729","0.0-77.0-0.0","""event"",""trial"",""time""
""fullscreenenter"",""0"",""2037""
","
","
","""event"",""trial"",""time""
""fullscreenenter"",""0"",""2037""
","
","1032.5999999642372","","","","","","","","56","","","","288","probe-253","","","","","0","[object Object]","null","null","1","","","",""
"","html-keyboard-response","137","443736","0.0-77.0-1.0","""event"",""trial"",""time""
""fullscreenenter"",""0"",""2037""
","
","
","""event"",""trial"",""time""
""fullscreenenter"",""0"",""2037""
","
","null","<p></p>","null","","","","","","","","","","","","","","","","","","","","","","","",""
"","do_trial","138","446829","0.0-78.0-0.0","""event"",""trial"",""time""
""fullscreenenter"",""0"",""2037""
","
","
","""event"",""trial"",""time""
""fullscreenenter"",""0"",""2037""
","
","536.8999999761581","","","","","","","","51","0,0,1","6","blank","289","null","0.38943312126311425","0.05946985403787264","0.6406691919145829","1","","","","","","","","",""
"","html-keyboard-response","139","447836","0.0-78.0-1.0","""event"",""trial"",""time""
""fullscreenenter"",""0"",""2037""
","
","
","""event"",""trial"",""time""
""fullscreenenter"",""0"",""2037""
","
","null","<p></p>","null","","","","","","","","","","","","","","","","","","","","","","","",""
"","do_trial","140","450660","0.0-79.0-0.0","""event"",""trial"",""time""
""fullscreenenter"",""0"",""2037""
","
","
","""event"",""trial"",""time""
""fullscreenenter"",""0"",""2037""
","
","277.80000001192093","","","","","","","","49","0,0,1","6","blank","290","null","0.25041216066409894","0.07832349385969078","0.6457014816893363","0","","","","","","","","",""
"","html-keyboard-response","141","451663","0.0-79.0-1.0","""event"",""trial"",""time""
""fullscreenenter"",""0"",""2037""
","
","
","""event"",""trial"",""time""
""fullscreenenter"",""0"",""2037""
","
","null","<p></p>","null","","","","","","","","","","","","","","","","","","","","","","","",""
"","do_trial","142","454597","0.0-80.0-0.0","""event"",""trial"",""time""
""fullscreenenter"",""0"",""2037""
","
","
","""event"",""trial"",""time""
""fullscreenenter"",""0"",""2037""
","
","381.19999998807907","","","","","","","","50","1,0,0","6","blank","291","null","0.28047822407351497","0.1198967171744229","0.48806995086199856","0","","","","","","","","",""
"","html-keyboard-response","143","455600","0.0-80.0-1.0","""event"",""trial"",""time""
""fullscreenenter"",""0"",""2037""
","
","
","""event"",""trial"",""time""
""fullscreenenter"",""0"",""2037""
","
","null","<p></p>","null","","","","","","","","","","","","","","","","","","","","","","","",""
"","do_trial","144","458543","0.0-81.0-0.0","""event"",""trial"",""time""
""fullscreenenter"",""0"",""2037""
","
","
","""event"",""trial"",""time""
""fullscreenenter"",""0"",""2037""
","
","388.5","","","","","","","","51","0,0,1","6","blank","292","null","0.3659386952217582","0.14191059588319077","0.5480131385301253","1","","","","","","","","",""
"","html-keyboard-response","145","459551","0.0-81.0-1.0","""event"",""trial"",""time""
""fullscreenenter"",""0"",""2037""
","
","
","""event"",""trial"",""time""
""fullscreenenter"",""0"",""2037""
","
","null","<p></p>","null","","","","","","","","","","","","","","","","","","","","","","","",""
"","do_trial","146","462511","0.0-82.0-0.0","""event"",""trial"",""time""
""fullscreenenter"",""0"",""2037""
","
","
","""event"",""trial"",""time""
""fullscreenenter"",""0"",""2037""
","
","404.7000000476837","","","","","","","","49","0,0,0","6","blank","293","null","0.24546467468415223","0.09032142148522526","0.4350350868458375","0","","","","","","","","",""
"","html-keyboard-response","147","463513","0.0-82.0-1.0","""event"",""trial"",""time""
""fullscreenenter"",""0"",""2037""
","
","
","""event"",""trial"",""time""
""fullscreenenter"",""0"",""2037""
","
","null","<p></p>","null","","","","","","","","","","","","","","","","","","","","","","","",""
"","do_recog","148","466089","0.0-83.0-0.0","""event"",""trial"",""time""
""fullscreenenter"",""0"",""2037""
","
","
","""event"",""trial"",""time""
""fullscreenenter"",""0"",""2037""
","
","1066.3999999761581","","","","","","","","53","","","","294","probe-56","","","","","1","[object Object]","73","1","1","","","",""
"","html-keyboard-response","149","467096","0.0-83.0-1.0","""event"",""trial"",""time""
""fullscreenenter"",""0"",""2037""
","
","
","""event"",""trial"",""time""
""fullscreenenter"",""0"",""2037""
","
","null","<p></p>","null","","","","","","","","","","","","","","","","","","","","","","","",""
"","do_trial","150","470085","0.0-84.0-0.0","""event"",""trial"",""time""
""fullscreenenter"",""0"",""2037""
","
","
","""event"",""trial"",""time""
""fullscreenenter"",""0"",""2037""
","
","433.89999997615814","","","","","","","","51","0,0,1","6","blank","295","null","0.24240327362228747","0.2170247388895156","0.3034914031407367","1","","","","","","","","",""
"","html-keyboard-response","151","471091","0.0-84.0-1.0","""event"",""trial"",""time""
""fullscreenenter"",""0"",""2037""
","
","
","""event"",""trial"",""time""
""fullscreenenter"",""0"",""2037""
","
","null","<p></p>","null","","","","","","","","","","","","","","","","","","","","","","","",""
"","do_trial","152","473987","0.0-85.0-0.0","""event"",""trial"",""time""
""fullscreenenter"",""0"",""2037""
","
","
","""event"",""trial"",""time""
""fullscreenenter"",""0"",""2037""
","
","343.89999997615814","","","","","","","","51","0,0,1","6","blank","296","null","0.5484192968443588","0.38353354079158236","0.19257760421428557","1","","","","","","","","",""
"","html-keyboard-response","153","474989","0.0-85.0-1.0","""event"",""trial"",""time""
""fullscreenenter"",""0"",""2037""
","
","
","""event"",""trial"",""time""
""fullscreenenter"",""0"",""2037""
","
","null","<p></p>","null","","","","","","","","","","","","","","","","","","","","","","","",""
"","do_trial","154","477981","0.0-86.0-0.0","""event"",""trial"",""time""
""fullscreenenter"",""0"",""2037""
","
","
","""event"",""trial"",""time""
""fullscreenenter"",""0"",""2037""
","
","438.89999997615814","","","","","","","","51","1,0,0","6","blank","297","null","0.6616700888809824","0.2898193649373942","0.1263620169029271","0","","","","","","","","",""
"","html-keyboard-response","155","478985","0.0-86.0-1.0","""event"",""trial"",""time""
""fullscreenenter"",""0"",""2037""
","
","
","""event"",""trial"",""time""
""fullscreenenter"",""0"",""2037""
","
","null","<p></p>","null","","","","","","","","","","","","","","","","","","","","","","","",""
"","do_trial","156","481844","0.0-87.0-0.0","""event"",""trial"",""time""
""fullscreenenter"",""0"",""2037""
","
","
","""event"",""trial"",""time""
""fullscreenenter"",""0"",""2037""
","
","306.19999998807907","","","","","","","","50","0,1,0","6","blank","298","null","0.7454206306444086","0.5101699192091488","0.15855591931644944","1","","","","","","","","",""
"","html-keyboard-response","157","482849","0.0-87.0-1.0","""event"",""trial"",""time""
""fullscreenenter"",""0"",""2037""
","
","
","""event"",""trial"",""time""
""fullscreenenter"",""0"",""2037""
","
","null","<p></p>","null","","","","","","","","","","","","","","","","","","","","","","","",""
"","do_trial","158","485810","0.0-88.0-0.0","""event"",""trial"",""time""
""fullscreenenter"",""0"",""2037""
","
","
","""event"",""trial"",""time""
""fullscreenenter"",""0"",""2037""
","
","408","","","","","","","","49","1,0,0","6","blank","299","null","0.7062429404645573","0.3198398300814162","0.06805043027247909","1","","","","","","","","",""
"","html-keyboard-response","159","486813","0.0-88.0-1.0","""event"",""trial"",""time""
""fullscreenenter"",""0"",""2037""
","
","
","""event"",""trial"",""time""
""fullscreenenter"",""0"",""2037""
","
","null","<p></p>","null","","","","","","","","","","","","","","","","","","","","","","","",""
"","do_recog","160","489717","0.0-89.0-0.0","""event"",""trial"",""time""
""fullscreenenter"",""0"",""2037""
","
","
","""event"",""trial"",""time""
""fullscreenenter"",""0"",""2037""
","
","1392.800000011921","","","","","","","","53","","","","300","probe-68","","","","","1","[object Object]","38","0","1","","","",""
"","html-keyboard-response","161","490721","0.0-89.0-1.0","""event"",""trial"",""time""
""fullscreenenter"",""0"",""2037""
","
","
","""event"",""trial"",""time""
""fullscreenenter"",""0"",""2037""
","
","null","<p></p>","null","","","","","","","","","","","","","","","","","","","","","","","",""
"","do_trial","162","493782","0.0-90.0-0.0","""event"",""trial"",""time""
""fullscreenenter"",""0"",""2037""
","
","
","""event"",""trial"",""time""
""fullscreenenter"",""0"",""2037""
","
","511.5","","","","","","","","49","0,1,0","6","blank","301","null","0.5461494946994563","0.39919240401616124","0.07246013648572362","0","","","","","","","","",""
"","html-keyboard-response","163","494786","0.0-90.0-1.0","""event"",""trial"",""time""
""fullscreenenter"",""0"",""2037""
","
","
","""event"",""trial"",""time""
""fullscreenenter"",""0"",""2037""
","
","null","<p></p>","null","","","","","","","","","","","","","","","","","","","","","","","",""
"","do_trial","164","497581","0.0-91.0-0.0","""event"",""trial"",""time""
""fullscreenenter"",""0"",""2037""
","
","
","""event"",""trial"",""time""
""fullscreenenter"",""0"",""2037""
","
","243.69999998807907","","","","","","","","50","1,0,0","6","blank","302","null","0.6466630268673574","0.3420538571993017","0.07294324265031353","0","","","","","","","","",""
"","html-keyboard-response","165","498587","0.0-91.0-1.0","""event"",""trial"",""time""
""fullscreenenter"",""0"",""2037""
","
","
","""event"",""trial"",""time""
""fullscreenenter"",""0"",""2037""
","
","null","<p></p>","null","","","","","","","","","","","","","","","","","","","","","","","",""
"","do_trial","166","501333","0.0-92.0-0.0","""event"",""trial"",""time""
""fullscreenenter"",""0"",""2037""
","
","
","""event"",""trial"",""time""
""fullscreenenter"",""0"",""2037""
","
","189.5","","","","","","","","49","1,0,1","6","blank","303","null","0.6618832326295191","0.3523549870030345","0.24972658387803426","1","","","","","","","","",""
"","html-keyboard-response","167","502336","0.0-92.0-1.0","""event"",""trial"",""time""
""fullscreenenter"",""0"",""2037""
","
","
","""event"",""trial"",""time""
""fullscreenenter"",""0"",""2037""
","
","null","<p></p>","null","","","","","","","","","","","","","","","","","","","","","","","",""
"","do_trial","168","505257","0.0-93.0-0.0","""event"",""trial"",""time""
""fullscreenenter"",""0"",""2037""
","
","
","""event"",""trial"",""time""
""fullscreenenter"",""0"",""2037""
","
","366.5","","","","","","","","51","1,0,0","6","blank","304","null","0.6441000693003178","0.3598448287241003","0.14105083864605816","0","","","","","","","","",""
"","html-keyboard-response","169","506261","0.0-93.0-1.0","""event"",""trial"",""time""
""fullscreenenter"",""0"",""2037""
","
","
","""event"",""trial"",""time""
""fullscreenenter"",""0"",""2037""
","
","null","<p></p>","null","","","","","","","","","","","","","","","","","","","","","","","",""
"","do_trial","170","509045","0.0-94.0-0.0","""event"",""trial"",""time""
""fullscreenenter"",""0"",""2037""
","
","
","""event"",""trial"",""time""
""fullscreenenter"",""0"",""2037""
","
","232.19999998807907","","","","","","","","49","0,0,1","6","blank","305","null","0.5150702570439245","0.25780911720029825","0.2696581903605656","0","","","","","","","","",""
"","html-keyboard-response","171","510052","0.0-94.0-1.0","""event"",""trial"",""time""
""fullscreenenter"",""0"",""2037""
","
","
","""event"",""trial"",""time""
""fullscreenenter"",""0"",""2037""
","
","null","<p></p>","null","","","","","","","","","","","","","","","","","","","","","","","",""
"","do_recog","172","512783","0.0-95.0-0.0","""event"",""trial"",""time""
""fullscreenenter"",""0"",""2037""
","
","
","""event"",""trial"",""time""
""fullscreenenter"",""0"",""2037""
","
","1221.8999999761581","","","","","","","","56","","","","306","probe-108","","","","","1","[object Object]","115","2","0","","","",""
"","html-keyboard-response","173","513789","0.0-95.0-1.0","""event"",""trial"",""time""
""fullscreenenter"",""0"",""2037""
","
","
","""event"",""trial"",""time""
""fullscreenenter"",""0"",""2037""
","
","null","<p></p>","null","","","","","","","","","","","","","","","","","","","","","","","",""
"","do_trial","174","516773","0.0-96.0-0.0","""event"",""trial"",""time""
""fullscreenenter"",""0"",""2037""
","
","
","""event"",""trial"",""time""
""fullscreenenter"",""0"",""2037""
","
","432.89999997615814","","","","","","","","51","0,0,0","6","blank","307","null","0.4746632513649436","0.14937444054853244","0.1833334150081458","0","","","","","","","","",""
"","html-keyboard-response","175","517778","0.0-96.0-1.0","""event"",""trial"",""time""
""fullscreenenter"",""0"",""2037""
","
","
","""event"",""trial"",""time""
""fullscreenenter"",""0"",""2037""
","
","null","<p></p>","null","","","","","","","","","","","","","","","","","","","","","","","",""
"","do_trial","176","520636","0.0-97.0-0.0","""event"",""trial"",""time""
""fullscreenenter"",""0"",""2037""
","
","
","""event"",""trial"",""time""
""fullscreenenter"",""0"",""2037""
","
","304","","","","","","","","50","1,0,0","6","blank","308","null","0.5936966496462767","0.1316360371389325","0.12291999077770292","0","","","","","","","","",""
"","html-keyboard-response","177","521643","0.0-97.0-1.0","""event"",""trial"",""time""
""fullscreenenter"",""0"",""2037""
","
","
","""event"",""trial"",""time""
""fullscreenenter"",""0"",""2037""
","
","null","<p></p>","null","","","","","","","","","","","","","","","","","","","","","","","",""
"","break","178","641643","0.0-98.0-0.0","""event"",""trial"",""time""
""fullscreenenter"",""0"",""2037""
","
","
","""event"",""trial"",""time""
""fullscreenenter"",""0"",""2037""
","
","null","<div class='center'><p>Time to take a quick break! You have 2 minutes to rest, but you can move on sooner if you'd like.</p><p> Press the <b>space bar</b> to continue.</p></div>","null","","","","","","","","","","","","","","","","","","","","","","","",""
"","do_recog","179","645985","0.0-98.0-1.0","""event"",""trial"",""time""
""fullscreenenter"",""0"",""2037""
","
","
","""event"",""trial"",""time""
""fullscreenenter"",""0"",""2037""
","
","2829","","","","","","","","54","","","","309","probe-146","","","","","1","[object Object]","159","3","1","","","",""
"","html-keyboard-response","180","646988","0.0-98.0-2.0","""event"",""trial"",""time""
""fullscreenenter"",""0"",""2037""
","
","
","""event"",""trial"",""time""
""fullscreenenter"",""0"",""2037""
","
","null","<p></p>","null","","","","","","","","","","","","","","","","","","","","","","","",""
"","do_trial","181","650815","0.0-99.0-0.0","""event"",""trial"",""time""
""fullscreenenter"",""0"",""2037""
","
","
","""event"",""trial"",""time""
""fullscreenenter"",""0"",""2037""
","
","1285","","","","","","","","49","1,0,0","6","blank","310","null","0.5625205813560904","0.11600153723173913","0.140014846021119","1","","","","","","","","",""
"","html-keyboard-response","182","651822","0.0-99.0-1.0","""event"",""trial"",""time""
""fullscreenenter"",""0"",""2037""
","
","
","""event"",""trial"",""time""
""fullscreenenter"",""0"",""2037""
","
","null","<p></p>","null","","","","","","","","","","","","","","","","","","","","","","","",""
"","do_recog","183","654461","0.0-100.0-0.0","""event"",""trial"",""time""
""fullscreenenter"",""0"",""2037""
","
","
","""event"",""trial"",""time""
""fullscreenenter"",""0"",""2037""
","
","1125.3999999761581","","","","","","","","56","","","","311","probe-153","","","","","1","[object Object]","191","4","0","","","",""
"","html-keyboard-response","184","655463","0.0-100.0-1.0","""event"",""trial"",""time""
""fullscreenenter"",""0"",""2037""
","
","
","""event"",""trial"",""time""
""fullscreenenter"",""0"",""2037""
","
","null","<p></p>","null","","","","","","","","","","","","","","","","","","","","","","","",""
"","do_trial","185","658416","0.0-101.0-0.0","""event"",""trial"",""time""
""fullscreenenter"",""0"",""2037""
","
","
","""event"",""trial"",""time""
""fullscreenenter"",""0"",""2037""
","
","397.39999997615814","","","","","","","","49","1,0,0","6","blank","312","null","0.543519476995776","0.2138835118905151","0.19193405158355625","1","","","","","","","","",""
"","html-keyboard-response","186","659420","0.0-101.0-1.0","""event"",""trial"",""time""
""fullscreenenter"",""0"",""2037""
","
","
","""event"",""trial"",""time""
""fullscreenenter"",""0"",""2037""
","
","null","<p></p>","null","","","","","","","","","","","","","","","","","","","","","","","",""
"","do_trial","187","662286","0.0-102.0-0.0","""event"",""trial"",""time""
""fullscreenenter"",""0"",""2037""
","
","
","""event"",""trial"",""time""
""fullscreenenter"",""0"",""2037""
","
","311.9000000357628","","","","","","","","51","1,1,0","6","blank","313","null","0.6465554313430742","0.2614312097762573","0.09080033226357198","0","","","","","","","","",""
"","html-keyboard-response","188","663289","0.0-102.0-1.0","""event"",""trial"",""time""
""fullscreenenter"",""0"",""2037""
","
","
","""event"",""trial"",""time""
""fullscreenenter"",""0"",""2037""
","
","null","<p></p>","null","","","","","","","","","","","","","","","","","","","","","","","",""
"","do_trial","189","666386","0.0-103.0-0.0","""event"",""trial"",""time""
""fullscreenenter"",""0"",""2037""
","
","
","""event"",""trial"",""time""
""fullscreenenter"",""0"",""2037""
","
","540.7999999523163","","","","","","","","49","0,1,0","6","blank","314","null","0.6833824587062008","0.3495589017450755","0.09388188658973082","0","","","","","","","","",""
"","html-keyboard-response","190","667392","0.0-103.0-1.0","""event"",""trial"",""time""
""fullscreenenter"",""0"",""2037""
","
","
","""event"",""trial"",""time""
""fullscreenenter"",""0"",""2037""
","
","null","<p></p>","null","","","","","","","","","","","","","","","","","","","","","","","",""
"","do_trial","191","670202","0.0-104.0-0.0","""event"",""trial"",""time""
""fullscreenenter"",""0"",""2037""
","
","
","""event"",""trial"",""time""
""fullscreenenter"",""0"",""2037""
","
","255.5","","","","","","","","50","1,0,0","6","blank","315","null","0.5709581989317737","0.32230715798751974","0.05700332284045884","0","","","","","","","","",""
"","html-keyboard-response","192","671205","0.0-104.0-1.0","""event"",""trial"",""time""
""fullscreenenter"",""0"",""2037""
","
","
","""event"",""trial"",""time""
""fullscreenenter"",""0"",""2037""
","
","null","<p></p>","null","","","","","","","","","","","","","","","","","","","","","","","",""
"","do_recog","193","673939","0.0-105.0-0.0","""event"",""trial"",""time""
""fullscreenenter"",""0"",""2037""
","
","
","""event"",""trial"",""time""
""fullscreenenter"",""0"",""2037""
","
","1222.7999999523163","","","","","","","","53","","","","316","probe-114","","","","","1","[object Object]","194","4","1","","","",""
"","html-keyboard-response","194","674945","0.0-105.0-1.0","""event"",""trial"",""time""
""fullscreenenter"",""0"",""2037""
","
","
","""event"",""trial"",""time""
""fullscreenenter"",""0"",""2037""
","
","null","<p></p>","null","","","","","","","","","","","","","","","","","","","","","","","",""
"","do_trial","195","677918","0.0-106.0-0.0","""event"",""trial"",""time""
""fullscreenenter"",""0"",""2037""
","
","
","""event"",""trial"",""time""
""fullscreenenter"",""0"",""2037""
","
","422.30000001192093","","","","","","","","51","0,1,0","6","blank","317","null","0.4992216393108185","0.4651235593991288","0.11075146390321085","0","","","","","","","","",""
"","html-keyboard-response","196","678925","0.0-106.0-1.0","""event"",""trial"",""time""
""fullscreenenter"",""0"",""2037""
","
","
","""event"",""trial"",""time""
""fullscreenenter"",""0"",""2037""
","
","null","<p></p>","null","","","","","","","","","","","","","","","","","","","","","","","",""
"","do_trial","197","681946","0.0-107.0-0.0","""event"",""trial"",""time""
""fullscreenenter"",""0"",""2037""
","
","
","""event"",""trial"",""time""
""fullscreenenter"",""0"",""2037""
","
","464.89999997615814","","","","","","","","49","1,0,0","6","blank","318","null","0.5651537908711135","0.4957773546117197","0.1926231224694727","1","","","","","","","","",""
"","html-keyboard-response","198","682950","0.0-107.0-1.0","""event"",""trial"",""time""
""fullscreenenter"",""0"",""2037""
","
","
","""event"",""trial"",""time""
""fullscreenenter"",""0"",""2037""
","
","null","<p></p>","null","","","","","","","","","","","","","","","","","","","","","","","",""
"","do_trial","199","686415","0.0-108.0-0.0","""event"",""trial"",""time""
""fullscreenenter"",""0"",""2037""
","
","
","""event"",""trial"",""time""
""fullscreenenter"",""0"",""2037""
","
","915.8000000119209","","","","","","","","51","1,1,1","6","blank","319","null","0.48822871032672227","0.44681824521422253","0.1391945329102876","1","","","","","","","","",""
"","html-keyboard-response","200","687419","0.0-108.0-1.0","""event"",""trial"",""time""
""fullscreenenter"",""0"",""2037""
","
","
","""event"",""trial"",""time""
""fullscreenenter"",""0"",""2037""
","
","null","<p></p>","null","","","","","","","","","","","","","","","","","","","","","","","",""
"","do_trial","201","690440","0.0-109.0-0.0","""event"",""trial"",""time""
""fullscreenenter"",""0"",""2037""
","
","
","""event"",""trial"",""time""
""fullscreenenter"",""0"",""2037""
","
","467.10000002384186","","","","","","","","51","0,0,0","6","blank","320","null","0.4663667379842563","0.3553945253321403","0.11708518678649807","0","","","","","","","","",""
"","html-keyboard-response","202","691444","0.0-109.0-1.0","""event"",""trial"",""time""
""fullscreenenter"",""0"",""2037""
","
","
","""event"",""trial"",""time""
""fullscreenenter"",""0"",""2037""
","
","null","<p></p>","null","","","","","","","","","","","","","","","","","","","","","","","",""
"","do_recog","203","694075","0.0-110.0-0.0","""event"",""trial"",""time""
""fullscreenenter"",""0"",""2037""
","
","
","""event"",""trial"",""time""
""fullscreenenter"",""0"",""2037""
","
","1118.199999988079","","","","","","","","53","","","","321","probe-38","","","","","1","[object Object]","150","3","1","","","",""
"","html-keyboard-response","204","695080","0.0-110.0-1.0","""event"",""trial"",""time""
""fullscreenenter"",""0"",""2037""
","
","
","""event"",""trial"",""time""
""fullscreenenter"",""0"",""2037""
","
","null","<p></p>","null","","","","","","","","","","","","","","","","","","","","","","","",""
"","do_trial","205","698193","0.0-111.0-0.0","""event"",""trial"",""time""
""fullscreenenter"",""0"",""2037""
","
","
","""event"",""trial"",""time""
""fullscreenenter"",""0"",""2037""
","
","554.8999999761581","","","","","","","","49","1,0,0","6","blank","322","null","0.4982131376513428","0.23224205220529276","0.24052641069883307","1","","","","","","","","",""
"","html-keyboard-response","206","699195","0.0-111.0-1.0","""event"",""trial"",""time""
""fullscreenenter"",""0"",""2037""
","
","
","""event"",""trial"",""time""
""fullscreenenter"",""0"",""2037""
","
","null","<p></p>","null","","","","","","","","","","","","","","","","","","","","","","","",""
"","do_trial","207","702129","0.0-112.0-0.0","""event"",""trial"",""time""
""fullscreenenter"",""0"",""2037""
","
","
","""event"",""trial"",""time""
""fullscreenenter"",""0"",""2037""
","
","378.9000000357628","","","","","","","","49","1,0,0","6","blank","323","null","0.6697653228889514","0.3951515790916643","0.12669396132730576","1","","","","","","","","",""
"","html-keyboard-response","208","703132","0.0-112.0-1.0","""event"",""trial"",""time""
""fullscreenenter"",""0"",""2037""
","
","
","""event"",""trial"",""time""
""fullscreenenter"",""0"",""2037""
","
","null","<p></p>","null","","","","","","","","","","","","","","","","","","","","","","","",""
"","do_trial","209","706131","0.0-113.0-0.0","""event"",""trial"",""time""
""fullscreenenter"",""0"",""2037""
","
","
","""event"",""trial"",""time""
""fullscreenenter"",""0"",""2037""
","
","444.19999998807907","","","","","","","","49","0,0,0","6","blank","324","null","0.6907406857528836","0.2291289447746148","0.14650832980726958","0","","","","","","","","",""
"","html-keyboard-response","210","707137","0.0-113.0-1.0","""event"",""trial"",""time""
""fullscreenenter"",""0"",""2037""
","
","
","""event"",""trial"",""time""
""fullscreenenter"",""0"",""2037""
","
","null","<p></p>","null","","","","","","","","","","","","","","","","","","","","","","","",""
"","do_trial","211","710068","0.0-114.0-0.0","""event"",""trial"",""time""
""fullscreenenter"",""0"",""2037""
","
","
","""event"",""trial"",""time""
""fullscreenenter"",""0"",""2037""
","
","377.39999997615814","","","","","","","","51","0,1,0","6","blank","325","null","0.6057255207071882","0.1950476580703277","0.2886232867808319","0","","","","","","","","",""
"","html-keyboard-response","212","711073","0.0-114.0-1.0","""event"",""trial"",""time""
""fullscreenenter"",""0"",""2037""
","
","
","""event"",""trial"",""time""
""fullscreenenter"",""0"",""2037""
","
","null","<p></p>","null","","","","","","","","","","","","","","","","","","","","","","","",""
"","do_recog","213","713556","0.0-115.0-0.0","""event"",""trial"",""time""
""fullscreenenter"",""0"",""2037""
","
","
","""event"",""trial"",""time""
""fullscreenenter"",""0"",""2037""
","
","973.8000000119209","","","","","","","","56","","","","326","probe-235","","","","","0","[object Object]","null","null","1","","","",""
"","html-keyboard-response","214","714559","0.0-115.0-1.0","""event"",""trial"",""time""
""fullscreenenter"",""0"",""2037""
","
","
","""event"",""trial"",""time""
""fullscreenenter"",""0"",""2037""
","
","null","<p></p>","null","","","","","","","","","","","","","","","","","","","","","","","",""
"","do_trial","215","717722","0.0-116.0-0.0","""event"",""trial"",""time""
""fullscreenenter"",""0"",""2037""
","
","
","""event"",""trial"",""time""
""fullscreenenter"",""0"",""2037""
","
","610.3999999761581","","","","","","","","51","1,0,0","6","blank","327","null","0.5705003416238952","0.28284580098193934","0.0561396640469793","0","","","","","","","","",""
"","html-keyboard-response","216","718724","0.0-116.0-1.0","""event"",""trial"",""time""
""fullscreenenter"",""0"",""2037""
","
","
","""event"",""trial"",""time""
""fullscreenenter"",""0"",""2037""
","
","null","<p></p>","null","","","","","","","","","","","","","","","","","","","","","","","",""
"","do_recog","217","721438","0.0-117.0-0.0","""event"",""trial"",""time""
""fullscreenenter"",""0"",""2037""
","
","
","""event"",""trial"",""time""
""fullscreenenter"",""0"",""2037""
","
","1199.6000000238419","","","","","","","","53","","","","328","probe-231","","","","","0","[object Object]","null","null","0","","","",""
"","html-keyboard-response","218","722441","0.0-117.0-1.0","""event"",""trial"",""time""
""fullscreenenter"",""0"",""2037""
","
","
","""event"",""trial"",""time""
""fullscreenenter"",""0"",""2037""
","
","null","<p></p>","null","","","","","","","","","","","","","","","","","","","","","","","",""
"","do_trial","219","725997","0.0-118.0-0.0","""event"",""trial"",""time""
""fullscreenenter"",""0"",""2037""
","
","
","""event"",""trial"",""time""
""fullscreenenter"",""0"",""2037""
","
","1001.9000000357628","","","","","","","","49","1,0,0","6","blank","329","null","0.6737632186398185","0.3860021101759733","0.11508789043326026","1","","","","","","","","",""
"","html-keyboard-response","220","727002","0.0-118.0-1.0","""event"",""trial"",""time""
""fullscreenenter"",""0"",""2037""
","
","
","""event"",""trial"",""time""
""fullscreenenter"",""0"",""2037""
","
","null","<p></p>","null","","","","","","","","","","","","","","","","","","","","","","","",""
"","do_trial","221","729980","0.0-119.0-0.0","""event"",""trial"",""time""
""fullscreenenter"",""0"",""2037""
","
","
","""event"",""trial"",""time""
""fullscreenenter"",""0"",""2037""
","
","425.5","","","","","","","","49","1,0,0","6","blank","330","null","0.6280282492513514","0.32447975012054053","0.1415652511887663","1","","","","","","","","",""
"","html-keyboard-response","222","730983","0.0-119.0-1.0","""event"",""trial"",""time""
""fullscreenenter"",""0"",""2037""
","
","
","""event"",""trial"",""time""
""fullscreenenter"",""0"",""2037""
","
","null","<p></p>","null","","","","","","","","","","","","","","","","","","","","","","","",""
"","do_trial","223","733757","0.0-120.0-0.0","""event"",""trial"",""time""
""fullscreenenter"",""0"",""2037""
","
","
","""event"",""trial"",""time""
""fullscreenenter"",""0"",""2037""
","
","226.80000001192093","","","","","","","","50","0,1,0","6","blank","331","null","0.5222994037796272","0.3530367415348713","0.15017086054115839","1","","","","","","","","",""
"","html-keyboard-response","224","734761","0.0-120.0-1.0","""event"",""trial"",""time""
""fullscreenenter"",""0"",""2037""
","
","
","""event"",""trial"",""time""
""fullscreenenter"",""0"",""2037""
","
","null","<p></p>","null","","","","","","","","","","","","","","","","","","","","","","","",""
"","do_trial","225","737752","0.0-121.0-0.0","""event"",""trial"",""time""
""fullscreenenter"",""0"",""2037""
","
","
","""event"",""trial"",""time""
""fullscreenenter"",""0"",""2037""
","
","438.19999998807907","","","","","","","","49","0,0,0","6","blank","332","null","0.5686727458124793","0.2831175465974342","0.1878350111290363","0","","","","","","","","",""
"","html-keyboard-response","226","738756","0.0-121.0-1.0","""event"",""trial"",""time""
""fullscreenenter"",""0"",""2037""
","
","
","""event"",""trial"",""time""
""fullscreenenter"",""0"",""2037""
","
","null","<p></p>","null","","","","","","","","","","","","","","","","","","","","","","","",""
"","do_trial","227","741632","0.0-122.0-0.0","""event"",""trial"",""time""
""fullscreenenter"",""0"",""2037""
","
","
","""event"",""trial"",""time""
""fullscreenenter"",""0"",""2037""
","
","320.80000001192093","","","","","","","","49","1,1,0","6","blank","333","null","0.5180580532646056","0.37424860047434083","0.11935407967286925","1","","","","","","","","",""
"","html-keyboard-response","228","742636","0.0-122.0-1.0","""event"",""trial"",""time""
""fullscreenenter"",""0"",""2037""
","
","
","""event"",""trial"",""time""
""fullscreenenter"",""0"",""2037""
","
","null","<p></p>","null","","","","","","","","","","","","","","","","","","","","","","","",""
"","do_trial","229","745486","0.0-123.0-0.0","""event"",""trial"",""time""
""fullscreenenter"",""0"",""2037""
","
","
","""event"",""trial"",""time""
""fullscreenenter"",""0"",""2037""
","
","295.30000001192093","","","","","","","","51","0,1,0","6","blank","334","null","0.6557295695372247","0.4210213503760006","0.16512887124204265","0","","","","","","","","",""
"","html-keyboard-response","230","746489","0.0-123.0-1.0","""event"",""trial"",""time""
""fullscreenenter"",""0"",""2037""
","
","
","""event"",""trial"",""time""
""fullscreenenter"",""0"",""2037""
","
","null","<p></p>","null","","","","","","","","","","","","","","","","","","","","","","","",""
"","do_recog","231","749397","0.0-124.0-0.0","""event"",""trial"",""time""
""fullscreenenter"",""0"",""2037""
","
","
","""event"",""trial"",""time""
""fullscreenenter"",""0"",""2037""
","
","1395.0999999642372","","","","","","","","56","","","","335","probe-154","","","","","1","[object Object]","197","4","0","","","",""
"","html-keyboard-response","232","750404","0.0-124.0-1.0","""event"",""trial"",""time""
""fullscreenenter"",""0"",""2037""
","
","
","""event"",""trial"",""time""
""fullscreenenter"",""0"",""2037""
","
","null","<p></p>","null","","","","","","","","","","","","","","","","","","","","","","","",""
"","do_trial","233","753329","0.0-125.0-0.0","""event"",""trial"",""time""
""fullscreenenter"",""0"",""2037""
","
","
","""event"",""trial"",""time""
""fullscreenenter"",""0"",""2037""
","
","372.89999997615814","","","","","","","","49","1,1,0","6","blank","336","null","0.6867302085614656","0.4977667872825184","0.17897791818384057","1","","","","","","","","",""
"","html-keyboard-response","234","754333","0.0-125.0-1.0","""event"",""trial"",""time""
""fullscreenenter"",""0"",""2037""
","
","
","""event"",""trial"",""time""
""fullscreenenter"",""0"",""2037""
","
","null","<p></p>","null","","","","","","","","","","","","","","","","","","","","","","","",""
"","do_recog","235","756638","0.0-126.0-0.0","""event"",""trial"",""time""
""fullscreenenter"",""0"",""2037""
","
","
","""event"",""trial"",""time""
""fullscreenenter"",""0"",""2037""
","
","792.2000000476837","","","","","","","","56","","","","337","probe-227","","","","","1","[object Object]","31","0","0","","","",""
"","html-keyboard-response","236","757642","0.0-126.0-1.0","""event"",""trial"",""time""
""fullscreenenter"",""0"",""2037""
","
","
","""event"",""trial"",""time""
""fullscreenenter"",""0"",""2037""
","
","null","<p></p>","null","","","","","","","","","","","","","","","","","","","","","","","",""
"","do_trial","237","760772","0.0-127.0-0.0","""event"",""trial"",""time""
""fullscreenenter"",""0"",""2037""
","
","
","""event"",""trial"",""time""
""fullscreenenter"",""0"",""2037""
","
","577.5","","","","","","","","51","1,1,0","6","blank","338","null","0.7749899465948653","0.5893987698459329","0.09568370525598824","0","","","","","","","","",""
"","html-keyboard-response","238","761777","0.0-127.0-1.0","""event"",""trial"",""time""
""fullscreenenter"",""0"",""2037""
","
","
","""event"",""trial"",""time""
""fullscreenenter"",""0"",""2037""
","
","null","<p></p>","null","","","","","","","","","","","","","","","","","","","","","","","",""
"","do_recog","239","764443","0.0-128.0-0.0","""event"",""trial"",""time""
""fullscreenenter"",""0"",""2037""
","
","
","""event"",""trial"",""time""
""fullscreenenter"",""0"",""2037""
","
","1159.3999999761581","","","","","","","","53","","","","339","probe-201","","","","","1","[object Object]","78","1","1","","","",""
"","html-keyboard-response","240","765447","0.0-128.0-1.0","""event"",""trial"",""time""
""fullscreenenter"",""0"",""2037""
","
","
","""event"",""trial"",""time""
""fullscreenenter"",""0"",""2037""
","
","null","<p></p>","null","","","","","","","","","","","","","","","","","","","","","","","",""
"","do_trial","241","768554","0.0-129.0-0.0","""event"",""trial"",""time""
""fullscreenenter"",""0"",""2037""
","
","
","""event"",""trial"",""time""
""fullscreenenter"",""0"",""2037""
","
","559.5","","","","","","","","49","1,1,0","6","blank","340","null","0.6800334632033511","0.5307346749473976","0.07233562419980871","1","","","","","","","","",""
"","html-keyboard-response","242","769562","0.0-129.0-1.0","""event"",""trial"",""time""
""fullscreenenter"",""0"",""2037""
","
","
","""event"",""trial"",""time""
""fullscreenenter"",""0"",""2037""
","
","null","<p></p>","null","","","","","","","","","","","","","","","","","","","","","","","",""
"","do_trial","243","772536","0.0-130.0-0.0","""event"",""trial"",""time""
""fullscreenenter"",""0"",""2037""
","
","
","""event"",""trial"",""time""
""fullscreenenter"",""0"",""2037""
","
","421.30000001192093","","","","","","","","49","1,1,0","6","blank","341","null","0.7881401487578461","0.3930913138032026","0.09130808377547987","1","","","","","","","","",""
"","html-keyboard-response","244","773543","0.0-130.0-1.0","""event"",""trial"",""time""
""fullscreenenter"",""0"",""2037""
","
","
","""event"",""trial"",""time""
""fullscreenenter"",""0"",""2037""
","
","null","<p></p>","null","","","","","","","","","","","","","","","","","","","","","","","",""
"","do_trial","245","776506","0.0-131.0-0.0","""event"",""trial"",""time""
""fullscreenenter"",""0"",""2037""
","
","
","""event"",""trial"",""time""
""fullscreenenter"",""0"",""2037""
","
","412.30000001192093","","","","","","","","49","0,0,0","6","blank","342","null","0.6978928142268355","0.3997272300431556","0.2735171170966331","0","","","","","","","","",""
"","html-keyboard-response","246","777511","0.0-131.0-1.0","""event"",""trial"",""time""
""fullscreenenter"",""0"",""2037""
","
","
","""event"",""trial"",""time""
""fullscreenenter"",""0"",""2037""
","
","null","<p></p>","null","","","","","","","","","","","","","","","","","","","","","","","",""
"","do_recog","247","779850","0.0-132.0-0.0","""event"",""trial"",""time""
""fullscreenenter"",""0"",""2037""
","
","
","""event"",""trial"",""time""
""fullscreenenter"",""0"",""2037""
","
","829.6999999880791","","","","","","","","56","","","","343","probe-109","","","","","1","[object Object]","34","0","0","","","",""
"","html-keyboard-response","248","780853","0.0-132.0-1.0","""event"",""trial"",""time""
""fullscreenenter"",""0"",""2037""
","
","
","""event"",""trial"",""time""
""fullscreenenter"",""0"",""2037""
","
","null","<p></p>","null","","","","","","","","","","","","","","","","","","","","","","","",""
"","do_trial","249","783936","0.0-133.0-0.0","""event"",""trial"",""time""
""fullscreenenter"",""0"",""2037""
","
","
","""event"",""trial"",""time""
""fullscreenenter"",""0"",""2037""
","
","529.8000000119209","","","","","","","","49","0,0,1","6","blank","344","null","0.750848798226238","0.3435625975096811","0.3740914346438535","0","","","","","","","","",""
"","html-keyboard-response","250","784943","0.0-133.0-1.0","""event"",""trial"",""time""
""fullscreenenter"",""0"",""2037""
","
","
","""event"",""trial"",""time""
""fullscreenenter"",""0"",""2037""
","
","null","<p></p>","null","","","","","","","","","","","","","","","","","","","","","","","",""
"","do_trial","251","787874","0.0-134.0-0.0","""event"",""trial"",""time""
""fullscreenenter"",""0"",""2037""
","
","
","""event"",""trial"",""time""
""fullscreenenter"",""0"",""2037""
","
","377.80000001192093","","","","","","","","49","0,0,1","6","blank","345","null","0.5717598063292003","0.3884083966269566","0.39807025665906076","0","","","","","","","","",""
"","html-keyboard-response","252","788881","0.0-134.0-1.0","""event"",""trial"",""time""
""fullscreenenter"",""0"",""2037""
","
","
","""event"",""trial"",""time""
""fullscreenenter"",""0"",""2037""
","
","null","<p></p>","null","","","","","","","","","","","","","","","","","","","","","","","",""
"","do_trial","253","791803","0.0-135.0-0.0","""event"",""trial"",""time""
""fullscreenenter"",""0"",""2037""
","
","
","""event"",""trial"",""time""
""fullscreenenter"",""0"",""2037""
","
","376","","","","","","","","51","0,0,0","6","blank","346","null","0.4377189972158013","0.33098426432028105","0.5025303233609241","0","","","","","","","","",""
"","html-keyboard-response","254","792808","0.0-135.0-1.0","""event"",""trial"",""time""
""fullscreenenter"",""0"",""2037""
","
","
","""event"",""trial"",""time""
""fullscreenenter"",""0"",""2037""
","
","null","<p></p>","null","","","","","","","","","","","","","","","","","","","","","","","",""
"","do_trial","255","795658","0.0-136.0-0.0","""event"",""trial"",""time""
""fullscreenenter"",""0"",""2037""
","
","
","""event"",""trial"",""time""
""fullscreenenter"",""0"",""2037""
","
","307.19999998807907","","","","","","","","49","0,1,0","6","blank","347","null","0.3873951681996193","0.34085961225684247","0.5687668986502418","0","","","","","","","","",""
"","html-keyboard-response","256","796660","0.0-136.0-1.0","""event"",""trial"",""time""
""fullscreenenter"",""0"",""2037""
","
","
","""event"",""trial"",""time""
""fullscreenenter"",""0"",""2037""
","
","null","<p></p>","null","","","","","","","","","","","","","","","","","","","","","","","",""
"","do_recog","257","799002","0.0-137.0-0.0","""event"",""trial"",""time""
""fullscreenenter"",""0"",""2037""
","
","
","""event"",""trial"",""time""
""fullscreenenter"",""0"",""2037""
","
","836.3000000119209","","","","","","","","56","","","","348","probe-106","","","","","1","[object Object]","114","2","0","","","",""
"","html-keyboard-response","258","800008","0.0-137.0-1.0","""event"",""trial"",""time""
""fullscreenenter"",""0"",""2037""
","
","
","""event"",""trial"",""time""
""fullscreenenter"",""0"",""2037""
","
","null","<p></p>","null","","","","","","","","","","","","","","","","","","","","","","","",""
"","break","259","864667","0.0-138.0-0.0","""event"",""trial"",""time""
""fullscreenenter"",""0"",""2037""
","
","
","""event"",""trial"",""time""
""fullscreenenter"",""0"",""2037""
","
","64682.40000003576","<div class='center'><p>Time to take a quick break! You have 2 minutes to rest, but you can move on sooner if you'd like.</p><p> Press the <b>space bar</b> to continue.</p></div>","32","","","","","","","","","","","","","","","","","","","","","","","",""
"","do_trial","260","868017","0.0-138.0-1.0","""event"",""trial"",""time""
""fullscreenenter"",""0"",""2037""
","
","
","""event"",""trial"",""time""
""fullscreenenter"",""0"",""2037""
","
","798.9000000357628","","","","","","","","49","0,0,0","6","blank","349","null","0.4827552655573913","0.28531996427273215","0.5897576434699309","0","","","","","","","","",""
"","html-keyboard-response","261","869019","0.0-138.0-2.0","""event"",""trial"",""time""
""fullscreenenter"",""0"",""2037""
","
","
","""event"",""trial"",""time""
""fullscreenenter"",""0"",""2037""
","
","null","<p></p>","null","","","","","","","","","","","","","","","","","","","","","","","",""
"","do_trial","262","871897","0.0-139.0-0.0","""event"",""trial"",""time""
""fullscreenenter"",""0"",""2037""
","
","
","""event"",""trial"",""time""
""fullscreenenter"",""0"",""2037""
","
","323.9000000357628","","","","","","","","50","0,0,1","6","blank","350","null","0.3412593551968245","0.2609115222122828","0.5592753763635313","0","","","","","","","","",""
"","html-keyboard-response","263","872901","0.0-139.0-1.0","""event"",""trial"",""time""
""fullscreenenter"",""0"",""2037""
","
","
","""event"",""trial"",""time""
""fullscreenenter"",""0"",""2037""
","
","null","<p></p>","null","","","","","","","","","","","","","","","","","","","","","","","",""
"","do_recog","264","875594","0.0-140.0-0.0","""event"",""trial"",""time""
""fullscreenenter"",""0"",""2037""
","
","
","""event"",""trial"",""time""
""fullscreenenter"",""0"",""2037""
","
","1184.6000000238419","","","","","","","","53","","","","351","probe-178","","","","","1","[object Object]","199","4","1","","","",""
"","html-keyboard-response","265","876601","0.0-140.0-1.0","""event"",""trial"",""time""
""fullscreenenter"",""0"",""2037""
","
","
","""event"",""trial"",""time""
""fullscreenenter"",""0"",""2037""
","
","null","<p></p>","null","","","","","","","","","","","","","","","","","","","","","","","",""
"","do_trial","266","879601","0.0-141.0-0.0","""event"",""trial"",""time""
""fullscreenenter"",""0"",""2037""
","
","
","""event"",""trial"",""time""
""fullscreenenter"",""0"",""2037""
","
","443","","","","","","","","49","0,0,0","6","blank","352","null","0.16262907511298458","0.3103412202891836","0.46787426526632686","0","","","","","","","","",""
"","html-keyboard-response","267","880605","0.0-141.0-1.0","""event"",""trial"",""time""
""fullscreenenter"",""0"",""2037""
","
","
","""event"",""trial"",""time""
""fullscreenenter"",""0"",""2037""
","
","null","<p></p>","null","","","","","","","","","","","","","","","","","","","","","","","",""
"","do_trial","268","883551","0.0-142.0-0.0","""event"",""trial"",""time""
""fullscreenenter"",""0"",""2037""
","
","
","""event"",""trial"",""time""
""fullscreenenter"",""0"",""2037""
","
","397.0999999642372","","","","","","","","51","0,0,1","6","blank","353","null","0.08672491176477053","0.43921282013408935","0.4913698095424737","1","","","","","","","","",""
"","html-keyboard-response","269","884558","0.0-142.0-1.0","""event"",""trial"",""time""
""fullscreenenter"",""0"",""2037""
","
","
","""event"",""trial"",""time""
""fullscreenenter"",""0"",""2037""
","
","null","<p></p>","null","","","","","","","","","","","","","","","","","","","","","","","",""
"","do_trial","270","887488","0.0-143.0-0.0","""event"",""trial"",""time""
""fullscreenenter"",""0"",""2037""
","
","
","""event"",""trial"",""time""
""fullscreenenter"",""0"",""2037""
","
","371","","","","","","","","49","0,1,0","6","blank","354","null","0.1699729617074922","0.3400937094107442","0.4566818582762873","0","","","","","","","","",""
"","html-keyboard-response","271","888495","0.0-143.0-1.0","""event"",""trial"",""time""
""fullscreenenter"",""0"",""2037""
","
","
","""event"",""trial"",""time""
""fullscreenenter"",""0"",""2037""
","
","null","<p></p>","null","","","","","","","","","","","","","","","","","","","","","","","",""
"","do_trial","272","891411","0.0-144.0-0.0","""event"",""trial"",""time""
""fullscreenenter"",""0"",""2037""
","
","
","""event"",""trial"",""time""
""fullscreenenter"",""0"",""2037""
","
","366.0999999642372","","","","","","","","49","0,0,1","6","blank","355","null","0.17176410539531436","0.15352536038409445","0.5007295057072331","0","","","","","","","","",""
"","html-keyboard-response","273","892418","0.0-144.0-1.0","""event"",""trial"",""time""
""fullscreenenter"",""0"",""2037""
","
","
","""event"",""trial"",""time""
""fullscreenenter"",""0"",""2037""
","
","null","<p></p>","null","","","","","","","","","","","","","","","","","","","","","","","",""
"","do_recog","274","894912","0.0-145.0-0.0","""event"",""trial"",""time""
""fullscreenenter"",""0"",""2037""
","
","
","""event"",""trial"",""time""
""fullscreenenter"",""0"",""2037""
","
","981.1000000238419","","","","","","","","56","","","","356","probe-126","","","","","1","[object Object]","153","3","0","","","",""
"","html-keyboard-response","275","895917","0.0-145.0-1.0","""event"",""trial"",""time""
""fullscreenenter"",""0"",""2037""
","
","
","""event"",""trial"",""time""
""fullscreenenter"",""0"",""2037""
","
","null","<p></p>","null","","","","","","","","","","","","","","","","","","","","","","","",""
"","do_trial","276","899006","0.0-146.0-0.0","""event"",""trial"",""time""
""fullscreenenter"",""0"",""2037""
","
","
","""event"",""trial"",""time""
""fullscreenenter"",""0"",""2037""
","
","538","","","","","","","","49","0,0,1","6","blank","357","null","0.22798031320391268","0.2891224939542458","0.5472030488813143","0","","","","","","","","",""
"","html-keyboard-response","277","900009","0.0-146.0-1.0","""event"",""trial"",""time""
""fullscreenenter"",""0"",""2037""
","
","
","""event"",""trial"",""time""
""fullscreenenter"",""0"",""2037""
","
