"success","trial_type","trial_index","time_elapsed","internal_node_id","interactions","blur_events","focus_events","fullscreenenter_events","fullscreenexit_events","rt","stimulus","key_press","subject_id","participant_id","age","gender","prompt","response","choice_outcomes","context_n","context_img_id","trial_n","probe_img_id","pR_red","pR_white","pR_black","outcome","is_valid","image_to_show","probed_trial","probed_context","correct","probe","probed_trial_n","probed_context_n","context_im"
"true","fullscreen","0","2794","0.0-0.0","""event"",""trial"",""time""
""fullscreenenter"",""0"",""1878""
","
","
","""event"",""trial"",""time""
""fullscreenenter"",""0"",""1878""
","
","","","","","","","","","","","","","","","","","","","","","","","","","","",""
"","pavlovia","1","2805","0.0-1.0","""event"",""trial"",""time""
""fullscreenenter"",""0"",""1878""
","
","
","""event"",""trial"",""time""
""fullscreenenter"",""0"",""1878""
","
","","","","","","","","","","","","","","","","","","","","","","","","","","",""
"","welc_back","2","12972","0.0-2.0","""event"",""trial"",""time""
""fullscreenenter"",""0"",""1878""
","
","
","""event"",""trial"",""time""
""fullscreenenter"",""0"",""1878""
","
","null","run_exp/static/audio/clip_29_welcome_back.m4a","null","398","900","10","Female","<div class='center'><p>Welcome to day 2!</p><p> Yesterday, you were the head captain of a pirate ship. You asked your fellow pirates to rob other ships of their gold across six different islands.</p></div>","","","","","","","","","","","","","","","","","","",""
"","html-keyboard-response","3","13075","0.0-3.0","""event"",""trial"",""time""
""fullscreenenter"",""0"",""1878""
","
","
","""event"",""trial"",""time""
""fullscreenenter"",""0"",""1878""
","
","100.19999992847443","<div class='center'><p>Welcome to day 2!</p><p> Yesterday, you were the head captain of a pirate ship. You asked your fellow pirates to rob other ships of their gold across six different islands.</p><p><b>[Press the space bar to continue]</b></p></div>","32","","","","","","","","","","","","","","","","","","","","","","","",""
"","day_1_summary_goal","4","30289","0.0-4.0","""event"",""trial"",""time""
""fullscreenenter"",""0"",""1878""
","
","
","""event"",""trial"",""time""
""fullscreenenter"",""0"",""1878""
","
","null","run_exp/static/audio/clip_30_goal_of_game.m4a","null","","","","","<div class='center'><p>Today, like yesterday, you get to pick which pirate you want to rob the next ship.</p><p>If the pirate is successful in robbing a ship, you get gold coins that look like this: </p><p><img src='run_exp/static/images/tutorial/reward.png' height='150'></p><p> If they were not successful in robbing the ship, then you will get no gold coins and you'll see a big red x like this: </p><p><img src='run_exp/static/images/tutorial/reward_no.png' height='150'></p></div>","","","","","","","","","","","","","","","","","","",""
"","html-keyboard-response","5","30847","0.0-5.0","""event"",""trial"",""time""
""fullscreenenter"",""0"",""1878""
","
","
","""event"",""trial"",""time""
""fullscreenenter"",""0"",""1878""
","
","554.3999999761581","<div class='center'><p>Today, like yesterday, you get to pick which pirate you want to rob the next ship.</p><p>If the pirate is successful in robbing a ship, you get gold coins that look like this: </p><p><img src='run_exp/static/images/tutorial/reward.png' height='150'></p><p> If they were not successful in robbing the ship, then you will get no gold coins and you'll see a big red x like this: </p><p><img src='run_exp/static/images/tutorial/reward_no.png' height='150'></p><p><b>[Press the space bar to continue]</b></p></div>","32","","","","","","","","","","","","","","","","","","","","","","","",""
"","day_1_summary_pick","6","45569","0.0-6.0","""event"",""trial"",""time""
""fullscreenenter"",""0"",""1878""
","
","
","""event"",""trial"",""time""
""fullscreenenter"",""0"",""1878""
","
","null","run_exp/static/audio/clip_31_how_to_pick_a_pirate.m4a","null","","","","","<div class='center'><p>Also, just like yesterday, you will use the 1,2,3 keys on your keyboard to pick a pirate. Press '1' to choose red beard, '2' to choose white beard, and '3' to choose black beard . You only have 3 seconds to pick a pirate, so please make a choice quickly!</p></div>","","","","","","","","","","","","","","","","","","",""
"","html-keyboard-response","7","45666","0.0-7.0","""event"",""trial"",""time""
""fullscreenenter"",""0"",""1878""
","
","
","""event"",""trial"",""time""
""fullscreenenter"",""0"",""1878""
","
","94.39999997615814","<div class='center'><p>Also, just like yesterday, you will use the 1,2,3 keys on your keyboard to pick a pirate. Press '1' to choose red beard, '2' to choose white beard, and '3' to choose black beard . You only have 3 seconds to pick a pirate, so please make a choice quickly!</p><p><b>[Press the space bar to continue]</b></p></div>","32","","","","","","","","","","","","","","","","","","","","","","","",""
"","test_phase_begin","8","76089","0.0-8.0","""event"",""trial"",""time""
""fullscreenenter"",""0"",""1878""
","
","
","""event"",""trial"",""time""
""fullscreenenter"",""0"",""1878""
","
","null","run_exp/static/audio/clip_32_final_place.m4a","null","","","","","<div class='center'><p>You’ve arrived at the final island of your journey! Unfortunately, it’s very foggy out, so you won’t be able to see it in the distance like the other islands you've visited.</p><p>You’ll still be deciding which pirate you want to rob a ship like before. However, because of the fog, you also won’t be able to see the ship.</p><p>This means you do not have to remember the ships you rob on this island.</p><p>Unlike yesterday, you won't be visiting multiple islands today. You will stay on this island for the entire game. This game will last ~30 minutes.</p></div>","","","","","","","","","","","","","","","","","","",""
"","html-keyboard-response","9","76639","0.0-9.0","""event"",""trial"",""time""
""fullscreenenter"",""0"",""1878""
","
","
","""event"",""trial"",""time""
""fullscreenenter"",""0"",""1878""
","
","547.7999999523163","<div class='center'><p>You’ve arrived at the final island of your journey! Unfortunately, it’s very foggy out, so you won’t be able to see it in the distance like the other islands you've visited.</p><p>You’ll still be deciding which pirate you want to rob a ship like before. However, because of the fog, you also won’t be able to see the ship.</p><p>This means you do not have to remember the ships you rob on this island.</p><p>Unlike yesterday, you won't be visiting multiple islands today. You will stay on this island for the entire game. This game will last ~30 minutes.</p><p><b>[Press the space bar to continue]</b></p></div>","32","","","","","","","","","","","","","","","","","","","","","","","",""
"","explain_probe_1","10","84389","0.0-10.0","""event"",""trial"",""time""
""fullscreenenter"",""0"",""1878""
","
","
","""event"",""trial"",""time""
""fullscreenenter"",""0"",""1878""
","
","null","run_exp/static/audio/clip_33_recognition_1.m4a","null","","","","","<div class='center'><p> Sometimes you’ll be shown a ship, and you will be asked if you saw this ship on a past island.</p><p> Here is an example of what you will see.</p><p><img src='run_exp/static/images/tutorial/example_recog_trial.png' height='500'></p></div>","","","","","","","","","","","","","","","","","","",""
"","html-keyboard-response","11","90402","0.0-11.0","""event"",""trial"",""time""
""fullscreenenter"",""0"",""1878""
","
","
","""event"",""trial"",""time""
""fullscreenenter"",""0"",""1878""
","
","6010.899999976158","<div class='center'><p> Sometimes you’ll be shown a ship, and you will be asked if you saw this ship on a past island.</p><p> Here is an example of what you will see.</p><p><img src='run_exp/static/images/tutorial/example_recog_trial.png' height='500'></p><p><b>[Press the space bar to continue]</b></p></div>","32","","","","","","","","","","","","","","","","","","","","","","","",""
"","explain_probe_2","12","112168","0.0-12.0","""event"",""trial"",""time""
""fullscreenenter"",""0"",""1878""
","
","
","""event"",""trial"",""time""
""fullscreenenter"",""0"",""1878""
","
","null","run_exp/static/audio/clip_34_recognition_2.m4a","null","","","","","<div class='center'><p> You will press the 5, 6, 7, 8 keys on your keyboard to respond.</p><p>If you are sure you saw the ship, press <b>5</b> on your keyboard.</p><p> If you think you saw it before but aren't sure, then press <b>6</b>.</p><p> If you think you have <b>not</b> seen it before but aren't sure, then press <b>7</b>.</p><p> If you are sure you did <b>not</b> see the ship before, then press <b>8</b>.</p><p><img src='run_exp/static/images/tutorial/example_recog_trial.png' height='500'></p></div>","","","","","","","","","","","","","","","","","","",""
"","html-keyboard-response","13","113194","0.0-13.0","""event"",""trial"",""time""
""fullscreenenter"",""0"",""1878""
","
","
","""event"",""trial"",""time""
""fullscreenenter"",""0"",""1878""
","
","1023.0999999046326","<div class='center'><p> You will press the 5, 6, 7, 8 keys on your keyboard to respond.</p><p>If you are sure you saw the ship, press <b>5</b> on your keyboard.</p><p> If you think you saw it before but aren't sure, then press <b>6</b>.</p><p> If you think you have <b>not</b> seen it before but aren't sure, then press <b>7</b>.</p><p> If you are sure you did <b>not</b> see the ship before, then press <b>8</b>.</p><p><img src='run_exp/static/images/tutorial/example_recog_trial.png' height='500'></p><p><b>[Press the space bar to continue]</b></p></div>","32","","","","","","","","","","","","","","","","","","","","","","","",""
"","explain_outcome","14","130427","0.0-14.0","""event"",""trial"",""time""
""fullscreenenter"",""0"",""1878""
","
","
","""event"",""trial"",""time""
""fullscreenenter"",""0"",""1878""
","
","null","run_exp/static/audio/clip_35_recognition_3.m4a","null","","","","","<div class='center'><p> If you remember correctly, then you’ll get a gold coin like this: </p><p><img src='run_exp/static/images/tutorial/reward_small.png' height='200'></p><p>If you do not remember correctly, then you'll see a red x like this: </p><p><img src='run_exp/static/images/tutorial/reward_no.png' height='200'></p><p>Importantly, when you are shown a ship, take the time to remind yourself which island you saw it on. This will help you in the next part of the study.</p></div>","","","","","","","","","","","","","","","","","","",""
"","html-keyboard-response","15","130900","0.0-15.0","""event"",""trial"",""time""
""fullscreenenter"",""0"",""1878""
","
","
","""event"",""trial"",""time""
""fullscreenenter"",""0"",""1878""
","
","470.39999997615814","<div class='center'><p> If you remember correctly, then you’ll get a gold coin like this: </p><p><img src='run_exp/static/images/tutorial/reward_small.png' height='200'></p><p>If you do not remember correctly, then you'll see a red x like this: </p><p><img src='run_exp/static/images/tutorial/reward_no.png' height='200'></p><p>Importantly, when you are shown a ship, take the time to remind yourself which island you saw it on. This will help you in the next part of the study.</p><p><b>[Press the space bar to continue]</b></p></div>","32","","","","","","","","","","","","","","","","","","","","","","","",""
"","begin_test_phase","16","146748","0.0-16.0","""event"",""trial"",""time""
""fullscreenenter"",""0"",""1878""
","
","
","""event"",""trial"",""time""
""fullscreenenter"",""0"",""1878""
","
","null","run_exp/static/audio/clip_36_begin_final.m4a","null","","","","","<div class='center'><p>Let's go over the important points again. Your job is to: </p><p>1. Pick the pirate who is best at robbing ships and will bring you back gold coins. </p><p>2. Correctly remember whether or not you saw a ship before. If you did see the ship before, remind yourself on which island you saw it. </p></div>","","","","","","","","","","","","","","","","","","",""
"","html-keyboard-response","17","149817","0.0-17.0","""event"",""trial"",""time""
""fullscreenenter"",""0"",""1878""
","
","
","""event"",""trial"",""time""
""fullscreenenter"",""0"",""1878""
","
","2917.6999999284744","<div class='center'><p>Let's go over the important points again. Your job is to: </p><p>1. Pick the pirate who is best at robbing ships and will bring you back gold coins. </p><p>2. Correctly remember whether or not you saw a ship before. If you did see the ship before, remind yourself on which island you saw it. </p><p><b>[Press the space bar to continue]</b></p></div>","32","","","","","","","","","","","","","","","","","","","","","","","",""
"","do_welcome","18","153847","0.0-18.0","""event"",""trial"",""time""
""fullscreenenter"",""0"",""1878""
","
","
","""event"",""trial"",""time""
""fullscreenenter"",""0"",""1878""
","
","null","","","","","","","","null","","","","","","","","","","","","","","","","","",""
"","do_trial","19","159997","0.0-19.0-0.0","""event"",""trial"",""time""
""fullscreenenter"",""0"",""1878""
","
","
","""event"",""trial"",""time""
""fullscreenenter"",""0"",""1878""
","
","null","","","","","","","","null","0,1,0","6","blank","230","null","0.4119512929264839","0.5843445808258747","0.2582518896341761","","","","","","","","","",""
"","html-keyboard-response","20","161018","0.0-19.0-1.0","""event"",""trial"",""time""
""fullscreenenter"",""0"",""1878""
","
","
","""event"",""trial"",""time""
""fullscreenenter"",""0"",""1878""
","
","null","<p></p>","null","","","","","","","","","","","","","","","","","","","","","","","",""
"","do_trial","21","164301","0.0-20.0-0.0","""event"",""trial"",""time""
""fullscreenenter"",""0"",""1878""
","
","
","""event"",""trial"",""time""
""fullscreenenter"",""0"",""1878""
","
","653.8000000715256","","","","","","","","50","1,0,0","6","blank","231","null","0.39587232448634724","0.5906147231675553","0.07938417877224078","0","","","","","","","","",""
"","html-keyboard-response","22","165313","0.0-20.0-1.0","""event"",""trial"",""time""
""fullscreenenter"",""0"",""1878""
","
","
","""event"",""trial"",""time""
""fullscreenenter"",""0"",""1878""
","
","null","<p></p>","null","","","","","","","","","","","","","","","","","","","","","","","",""
"","do_trial","23","169158","0.0-21.0-0.0","""event"",""trial"",""time""
""fullscreenenter"",""0"",""1878""
","
","
","""event"",""trial"",""time""
""fullscreenenter"",""0"",""1878""
","
","1215.0999999046326","","","","","","","","51","0,0,0","6","blank","232","null","0.4264598384769958","0.5135003853203253","0.13137324600089104","0","","","","","","","","",""
"","html-keyboard-response","24","170177","0.0-21.0-1.0","""event"",""trial"",""time""
""fullscreenenter"",""0"",""1878""
","
","
","""event"",""trial"",""time""
""fullscreenenter"",""0"",""1878""
","
","null","<p></p>","null","","","","","","","","","","","","","","","","","","","","","","","",""
"","do_trial","25","172928","0.0-22.0-0.0","""event"",""trial"",""time""
""fullscreenenter"",""0"",""1878""
","
","
","""event"",""trial"",""time""
""fullscreenenter"",""0"",""1878""
","
","127.90000009536743","","","","","","","","49","0,0,0","6","blank","233","null","0.49827014596411906","0.38411802090564906","0.1290102015148184","0","","","","","","","","",""
"","html-keyboard-response","26","173945","0.0-22.0-1.0","""event"",""trial"",""time""
""fullscreenenter"",""0"",""1878""
","
","
","""event"",""trial"",""time""
""fullscreenenter"",""0"",""1878""
","
","null","<p></p>","null","","","","","","","","","","","","","","","","","","","","","","","",""
"","do_trial","27","177077","0.0-23.0-0.0","""event"",""trial"",""time""
""fullscreenenter"",""0"",""1878""
","
","
","""event"",""trial"",""time""
""fullscreenenter"",""0"",""1878""
","
","495.89999997615814","","","","","","","","50","0,1,0","6","blank","234","null","0.2678077988575508","0.36294308936833036","0.1496480618634013","1","","","","","","","","",""
"","html-keyboard-response","28","178096","0.0-23.0-1.0","""event"",""trial"",""time""
""fullscreenenter"",""0"",""1878""
","
","
","""event"",""trial"",""time""
""fullscreenenter"",""0"",""1878""
","
","null","<p></p>","null","","","","","","","","","","","","","","","","","","","","","","","",""
"","do_trial","29","181313","0.0-24.0-0.0","""event"",""trial"",""time""
""fullscreenenter"",""0"",""1878""
","
","
","""event"",""trial"",""time""
""fullscreenenter"",""0"",""1878""
","
","587.3999999761581","","","","","","","","50","1,0,1","6","blank","235","null","0.3276285270170219","0.28076072470893954","0.32397078082214587","0","","","","","","","","",""
"","html-keyboard-response","30","182331","0.0-24.0-1.0","""event"",""trial"",""time""
""fullscreenenter"",""0"",""1878""
","
","
","""event"",""trial"",""time""
""fullscreenenter"",""0"",""1878""
","
","null","<p></p>","null","","","","","","","","","","","","","","","","","","","","","","","",""
"","do_trial","31","185215","0.0-25.0-0.0","""event"",""trial"",""time""
""fullscreenenter"",""0"",""1878""
","
","
","""event"",""trial"",""time""
""fullscreenenter"",""0"",""1878""
","
","256.59999990463257","","","","","","","","49","1,1,0","6","blank","236","null","0.3681706570382585","0.3850272613580313","0.3192887854144843","1","","","","","","","","",""
"","html-keyboard-response","32","186238","0.0-25.0-1.0","""event"",""trial"",""time""
""fullscreenenter"",""0"",""1878""
","
","
","""event"",""trial"",""time""
""fullscreenenter"",""0"",""1878""
","
","null","<p></p>","null","","","","","","","","","","","","","","","","","","","","","","","",""
"","do_trial","33","189217","0.0-26.0-0.0","""event"",""trial"",""time""
""fullscreenenter"",""0"",""1878""
","
","
","""event"",""trial"",""time""
""fullscreenenter"",""0"",""1878""
","
","350.10000002384186","","","","","","","","51","1,0,0","6","blank","237","null","0.24968229137854614","0.39331556905605936","0.21086068164652796","0","","","","","","","","",""
"","html-keyboard-response","34","190233","0.0-26.0-1.0","""event"",""trial"",""time""
""fullscreenenter"",""0"",""1878""
","
","
","""event"",""trial"",""time""
""fullscreenenter"",""0"",""1878""
","
","null","<p></p>","null","","","","","","","","","","","","","","","","","","","","","","","",""
"","do_trial","35","193184","0.0-27.0-0.0","""event"",""trial"",""time""
""fullscreenenter"",""0"",""1878""
","
","
","""event"",""trial"",""time""
""fullscreenenter"",""0"",""1878""
","
","334.5","","","","","","","","49","0,1,0","6","blank","238","null","0.24147972874483695","0.42935526734942137","0.23250139765514213","0","","","","","","","","",""
"","html-keyboard-response","36","194195","0.0-27.0-1.0","""event"",""trial"",""time""
""fullscreenenter"",""0"",""1878""
","
","
","""event"",""trial"",""time""
""fullscreenenter"",""0"",""1878""
","
","null","<p></p>","null","","","","","","","","","","","","","","","","","","","","","","","",""
"","do_trial","37","196886","0.0-28.0-0.0","""event"",""trial"",""time""
""fullscreenenter"",""0"",""1878""
","
","
","""event"",""trial"",""time""
""fullscreenenter"",""0"",""1878""
","
","114.09999990463257","","","","","","","","49","0,0,1","6","blank","239","null","0.23741644926890032","0.4364936587371945","0.21103234379193742","0","","","","","","","","",""
"","html-keyboard-response","38","197911","0.0-28.0-1.0","""event"",""trial"",""time""
""fullscreenenter"",""0"",""1878""
","
","
","""event"",""trial"",""time""
""fullscreenenter"",""0"",""1878""
","
","null","<p></p>","null","","","","","","","","","","","","","","","","","","","","","","","",""
"","do_trial","39","200803","0.0-29.0-0.0","""event"",""trial"",""time""
""fullscreenenter"",""0"",""1878""
","
","
","""event"",""trial"",""time""
""fullscreenenter"",""0"",""1878""
","
","309.2000000476837","","","","","","","","50","0,0,0","6","blank","240","null","0.16285980987116475","0.4681445855022366","0.21738682605660808","0","","","","","","","","",""
"","html-keyboard-response","40","201818","0.0-29.0-1.0","""event"",""trial"",""time""
""fullscreenenter"",""0"",""1878""
","
","
","""event"",""trial"",""time""
""fullscreenenter"",""0"",""1878""
","
","null","<p></p>","null","","","","","","","","","","","","","","","","","","","","","","","",""
"","do_recog","41","207855","0.0-30.0-0.0","""event"",""trial"",""time""
""fullscreenenter"",""0"",""1878""
","
","
","""event"",""trial"",""time""
""fullscreenenter"",""0"",""1878""
","
","null","","","","","","","","null","","","","241","probe-14","","","","","1","[object Object]","70","1","0","","","",""
"","html-keyboard-response","42","208870","0.0-30.0-1.0","""event"",""trial"",""time""
""fullscreenenter"",""0"",""1878""
","
","
","""event"",""trial"",""time""
""fullscreenenter"",""0"",""1878""
","
","null","<p></p>","null","","","","","","","","","","","","","","","","","","","","","","","",""
"","do_trial","43","212891","0.0-31.0-0.0","""event"",""trial"",""time""
""fullscreenenter"",""0"",""1878""
","
","
","""event"",""trial"",""time""
""fullscreenenter"",""0"",""1878""
","
","1394.6000000238419","","","","","","","","51","0,0,0","6","blank","242","null","0.17137691406407593","0.507406147952134","0.287205023625111","0","","","","","","","","",""
"","html-keyboard-response","44","213906","0.0-31.0-1.0","""event"",""trial"",""time""
""fullscreenenter"",""0"",""1878""
","
","
","""event"",""trial"",""time""
""fullscreenenter"",""0"",""1878""
","
","null","<p></p>","null","","","","","","","","","","","","","","","","","","","","","","","",""
"","do_trial","45","216811","0.0-32.0-0.0","""event"",""trial"",""time""
""fullscreenenter"",""0"",""1878""
","
","
","""event"",""trial"",""time""
""fullscreenenter"",""0"",""1878""
","
","281.2000000476837","","","","","","","","50","1,0,0","6","blank","243","null","0.10481727311300476","0.48560973429564497","0.4234544309860405","0","","","","","","","","",""
"","html-keyboard-response","46","217824","0.0-32.0-1.0","""event"",""trial"",""time""
""fullscreenenter"",""0"",""1878""
","
","
","""event"",""trial"",""time""
""fullscreenenter"",""0"",""1878""
","
","null","<p></p>","null","","","","","","","","","","","","","","","","","","","","","","","",""
"","do_trial","47","220390","0.0-33.0-0.0","""event"",""trial"",""time""
""fullscreenenter"",""0"",""1878""
","
","
","""event"",""trial"",""time""
""fullscreenenter"",""0"",""1878""
","
","0.10000002384185791","","","","","","","","50","0,1,1","6","blank","244","null","0.15135430329889352","0.4054470891951101","0.46596261095271907","1","","","","","","","","",""
"","html-keyboard-response","48","221405","0.0-33.0-1.0","""event"",""trial"",""time""
""fullscreenenter"",""0"",""1878""
","
","
","""event"",""trial"",""time""
""fullscreenenter"",""0"",""1878""
","
","null","<p></p>","null","","","","","","","","","","","","","","","","","","","","","","","",""
"","do_trial","49","224000","0.0-34.0-0.0","""event"",""trial"",""time""
""fullscreenenter"",""0"",""1878""
","
","
","""event"",""trial"",""time""
""fullscreenenter"",""0"",""1878""
","
","27.600000023841858","","","","","","","","50","0,0,0","6","blank","245","null","0.10553866927425105","0.39181996784143225","0.42323655846198777","0","","","","","","","","",""
"","html-keyboard-response","50","225006","0.0-34.0-1.0","""event"",""trial"",""time""
""fullscreenenter"",""0"",""1878""
","
","
","""event"",""trial"",""time""
""fullscreenenter"",""0"",""1878""
","
","null","<p></p>","null","","","","","","","","","","","","","","","","","","","","","","","",""
"","do_recog","51","229359","0.0-35.0-0.0","""event"",""trial"",""time""
""fullscreenenter"",""0"",""1878""
","
","
","""event"",""trial"",""time""
""fullscreenenter"",""0"",""1878""
","
","2834.2999999523163","","","","","","","","56","","","","246","probe-127","","","","","1","[object Object]","195","4","0","","","",""
"","html-keyboard-response","52","230376","0.0-35.0-1.0","""event"",""trial"",""time""
""fullscreenenter"",""0"",""1878""
","
","
","""event"",""trial"",""time""
""fullscreenenter"",""0"",""1878""
","
","null","<p></p>","null","","","","","","","","","","","","","","","","","","","","","","","",""
"","do_trial","53","233870","0.0-36.0-0.0","""event"",""trial"",""time""
""fullscreenenter"",""0"",""1878""
","
","
","""event"",""trial"",""time""
""fullscreenenter"",""0"",""1878""
","
","924.3999999761581","","","","","","","","50","0,0,0","6","blank","247","null","0.06907808963948148","0.42248297900836185","0.5694019713591043","0","","","","","","","","",""
"","html-keyboard-response","54","234878","0.0-36.0-1.0","""event"",""trial"",""time""
""fullscreenenter"",""0"",""1878""
","
","
","""event"",""trial"",""time""
""fullscreenenter"",""0"",""1878""
","
","null","<p></p>","null","","","","","","","","","","","","","","","","","","","","","","","",""
"","do_trial","55","237765","0.0-37.0-0.0","""event"",""trial"",""time""
""fullscreenenter"",""0"",""1878""
","
","
","""event"",""trial"",""time""
""fullscreenenter"",""0"",""1878""
","
","261","","","","","","","","49","0,0,1","6","blank","248","null","0.1880294302191734","0.3177065077191217","0.6125608694017197","0","","","","","","","","",""
"","html-keyboard-response","56","238777","0.0-37.0-1.0","""event"",""trial"",""time""
""fullscreenenter"",""0"",""1878""
","
","
","""event"",""trial"",""time""
""fullscreenenter"",""0"",""1878""
","
","null","<p></p>","null","","","","","","","","","","","","","","","","","","","","","","","",""
"","do_trial","57","241695","0.0-38.0-0.0","""event"",""trial"",""time""
""fullscreenenter"",""0"",""1878""
","
","
","""event"",""trial"",""time""
""fullscreenenter"",""0"",""1878""
","
","286.5","","","","","","","","50","0,0,1","6","blank","249","null","0.24639292192741508","0.35895830308593335","0.6584580301935732","0","","","","","","","","",""
"","html-keyboard-response","58","242711","0.0-38.0-1.0","""event"",""trial"",""time""
""fullscreenenter"",""0"",""1878""
","
","
","""event"",""trial"",""time""
""fullscreenenter"",""0"",""1878""
","
","null","<p></p>","null","","","","","","","","","","","","","","","","","","","","","","","",""
"","do_trial","59","245598","0.0-39.0-0.0","""event"",""trial"",""time""
""fullscreenenter"",""0"",""1878""
","
","
","""event"",""trial"",""time""
""fullscreenenter"",""0"",""1878""
","
","250.20000004768372","","","","","","","","50","1,0,1","6","blank","250","null","0.09670954713170402","0.2952235716579469","0.5899265695976683","0","","","","","","","","",""
"","html-keyboard-response","60","246614","0.0-39.0-1.0","""event"",""trial"",""time""
""fullscreenenter"",""0"",""1878""
","
","
","""event"",""trial"",""time""
""fullscreenenter"",""0"",""1878""
","
","null","<p></p>","null","","","","","","","","","","","","","","","","","","","","","","","",""
"","do_trial","61","249481","0.0-40.0-0.0","""event"",""trial"",""time""
""fullscreenenter"",""0"",""1878""
","
","
","""event"",""trial"",""time""
""fullscreenenter"",""0"",""1878""
","
","304.3000000715256","","","","","","","","50","0,1,1","6","blank","251","null","0.06823540260825645","0.22108757532532053","0.6902275220913175","1","","","","","","","","",""
"","html-keyboard-response","62","250486","0.0-40.0-1.0","""event"",""trial"",""time""
""fullscreenenter"",""0"",""1878""
","
","
","""event"",""trial"",""time""
""fullscreenenter"",""0"",""1878""
","
","null","<p></p>","null","","","","","","","","","","","","","","","","","","","","","","","",""
"","do_recog","63","254805","0.0-41.0-0.0","""event"",""trial"",""time""
""fullscreenenter"",""0"",""1878""
","
","
","""event"",""trial"",""time""
""fullscreenenter"",""0"",""1878""
","
","2799.8000000715256","","","","","","","","56","","","","252","probe-07","","","","","1","[object Object]","72","1","0","","","",""
"","html-keyboard-response","64","255816","0.0-41.0-1.0","""event"",""trial"",""time""
""fullscreenenter"",""0"",""1878""
","
","
","""event"",""trial"",""time""
""fullscreenenter"",""0"",""1878""
","
","null","<p></p>","null","","","","","","","","","","","","","","","","","","","","","","","",""
"","do_trial","65","260634","0.0-42.0-0.0","""event"",""trial"",""time""
""fullscreenenter"",""0"",""1878""
","
","
","""event"",""trial"",""time""
""fullscreenenter"",""0"",""1878""
","
","2197.399999976158","","","","","","","","50","0,0,1","6","blank","253","null","0.0517031980488152","0.25894875678111423","0.6117771773415386","0","","","","","","","","",""
"","html-keyboard-response","66","261649","0.0-42.0-1.0","""event"",""trial"",""time""
""fullscreenenter"",""0"",""1878""
","
","
","""event"",""trial"",""time""
""fullscreenenter"",""0"",""1878""
","
","null","<p></p>","null","","","","","","","","","","","","","","","","","","","","","","","",""
"","do_recog","67","265736","0.0-43.0-0.0","""event"",""trial"",""time""
""fullscreenenter"",""0"",""1878""
","
","
","""event"",""trial"",""time""
""fullscreenenter"",""0"",""1878""
","
","2561.7999999523163","","","","","","","","53","","","","254","probe-203","","","","","1","[object Object]","158","3","1","","","",""
"","html-keyboard-response","68","266753","0.0-43.0-1.0","""event"",""trial"",""time""
""fullscreenenter"",""0"",""1878""
","
","
","""event"",""trial"",""time""
""fullscreenenter"",""0"",""1878""
","
","null","<p></p>","null","","","","","","","","","","","","","","","","","","","","","","","",""
"","do_trial","69","270711","0.0-44.0-0.0","""event"",""trial"",""time""
""fullscreenenter"",""0"",""1878""
","
","
","""event"",""trial"",""time""
""fullscreenenter"",""0"",""1878""
","
","1337.6999999284744","","","","","","","","50","0,0,1","6","blank","255","null","0.13069833589324645","0.21791488189126929","0.6330129372209674","0","","","","","","","","",""
"","html-keyboard-response","70","271716","0.0-44.0-1.0","""event"",""trial"",""time""
""fullscreenenter"",""0"",""1878""
","
","
","""event"",""trial"",""time""
""fullscreenenter"",""0"",""1878""
","
","null","<p></p>","null","","","","","","","","","","","","","","","","","","","","","","","",""
"","do_recog","71","277737","0.0-45.0-0.0","""event"",""trial"",""time""
""fullscreenenter"",""0"",""1878""
","
","
","""event"",""trial"",""time""
""fullscreenenter"",""0"",""1878""
","
","null","","","","","","","","null","","","","256","probe-44","","","","","1","[object Object]","38","0","0","","","",""
"","html-keyboard-response","72","278755","0.0-45.0-1.0","""event"",""trial"",""time""
""fullscreenenter"",""0"",""1878""
","
","
","""event"",""trial"",""time""
""fullscreenenter"",""0"",""1878""
","
","null","<p></p>","null","","","","","","","","","","","","","","","","","","","","","","","",""
"","do_trial","73","282470","0.0-46.0-0.0","""event"",""trial"",""time""
""fullscreenenter"",""0"",""1878""
","
","
","""event"",""trial"",""time""
""fullscreenenter"",""0"",""1878""
","
","1153.7000000476837","","","","","","","","50","0,0,0","6","blank","257","null","0.05342815390028912","0.23607186482383305","0.5997335958979546","0","","","","","","","","",""
"","html-keyboard-response","74","283474","0.0-46.0-1.0","""event"",""trial"",""time""
""fullscreenenter"",""0"",""1878""
","
","
","""event"",""trial"",""time""
""fullscreenenter"",""0"",""1878""
","
","null","<p></p>","null","","","","","","","","","","","","","","","","","","","","","","","",""
"","do_trial","75","286439","0.0-47.0-0.0","""event"",""trial"",""time""
""fullscreenenter"",""0"",""1878""
","
","
","""event"",""trial"",""time""
""fullscreenenter"",""0"",""1878""
","
","330.09999990463257","","","","","","","","50","0,0,0","6","blank","258","null","0.10064857320026765","0.3335539090741885","0.5632429866434252","0","","","","","","","","",""
"","html-keyboard-response","76","287456","0.0-47.0-1.0","""event"",""trial"",""time""
""fullscreenenter"",""0"",""1878""
","
","
","""event"",""trial"",""time""
""fullscreenenter"",""0"",""1878""
","
","null","<p></p>","null","","","","","","","","","","","","","","","","","","","","","","","",""
"","do_trial","77","290365","0.0-48.0-0.0","""event"",""trial"",""time""
""fullscreenenter"",""0"",""1878""
","
","
","""event"",""trial"",""time""
""fullscreenenter"",""0"",""1878""
","
","339.8000000715256","","","","","","","","50","1,0,0","6","blank","259","null","0.17180954120510591","0.37857012547265306","0.6035496320154168","0","","","","","","","","",""
"","html-keyboard-response","78","291373","0.0-48.0-1.0","""event"",""trial"",""time""
""fullscreenenter"",""0"",""1878""
","
","
","""event"",""trial"",""time""
""fullscreenenter"",""0"",""1878""
","
","null","<p></p>","null","","","","","","","","","","","","","","","","","","","","","","","",""
"","do_trial","79","294936","0.0-49.0-0.0","""event"",""trial"",""time""
""fullscreenenter"",""0"",""1878""
","
","
","""event"",""trial"",""time""
""fullscreenenter"",""0"",""1878""
","
","924.8999999761581","","","","","","","","50","1,0,0","6","blank","260","null","0.05935784481852657","0.2929628239545811","0.5718403887809541","0","","","","","","","","",""
"","html-keyboard-response","80","295942","0.0-49.0-1.0","""event"",""trial"",""time""
""fullscreenenter"",""0"",""1878""
","
","
","""event"",""trial"",""time""
""fullscreenenter"",""0"",""1878""
","
","null","<p></p>","null","","","","","","","","","","","","","","","","","","","","","","","",""
"","do_trial","81","299309","0.0-50.0-0.0","""event"",""trial"",""time""
""fullscreenenter"",""0"",""1878""
","
","
","""event"",""trial"",""time""
""fullscreenenter"",""0"",""1878""
","
","803","","","","","","","","50","1,0,1","6","blank","261","null","0.10023818908876868","0.1996834481963144","0.4644811958210477","0","","","","","","","","",""
"","html-keyboard-response","82","300325","0.0-50.0-1.0","""event"",""trial"",""time""
""fullscreenenter"",""0"",""1878""
","
","
","""event"",""trial"",""time""
""fullscreenenter"",""0"",""1878""
","
","null","<p></p>","null","","","","","","","","","","","","","","","","","","","","","","","",""
"","do_trial","83","304026","0.0-51.0-0.0","""event"",""trial"",""time""
""fullscreenenter"",""0"",""1878""
","
","
","""event"",""trial"",""time""
""fullscreenenter"",""0"",""1878""
","
","1114.1999999284744","","","","","","","","50","0,1,0","6","blank","262","null","0.14745822042644433","0.1943202239409847","0.5685330106345898","1","","","","","","","","",""
"","html-keyboard-response","84","305046","0.0-51.0-1.0","""event"",""trial"",""time""
""fullscreenenter"",""0"",""1878""
","
","
","""event"",""trial"",""time""
""fullscreenenter"",""0"",""1878""
","
","null","<p></p>","null","","","","","","","","","","","","","","","","","","","","","","","",""
"","do_recog","85","309479","0.0-52.0-0.0","""event"",""trial"",""time""
""fullscreenenter"",""0"",""1878""
","
","
","""event"",""trial"",""time""
""fullscreenenter"",""0"",""1878""
","
","2910.7000000476837","","","","","","","","53","","","","263","probe-108","","","","","1","[object Object]","150","3","1","","","",""
"","html-keyboard-response","86","310488","0.0-52.0-1.0","""event"",""trial"",""time""
""fullscreenenter"",""0"",""1878""
","
","
","""event"",""trial"",""time""
""fullscreenenter"",""0"",""1878""
","
","null","<p></p>","null","","","","","","","","","","","","","","","","","","","","","","","",""
"","do_trial","87","314030","0.0-53.0-0.0","""event"",""trial"",""time""
""fullscreenenter"",""0"",""1878""
","
","
","""event"",""trial"",""time""
""fullscreenenter"",""0"",""1878""
","
","971.9000000953674","","","","","","","","50","0,0,1","6","blank","264","null","0.0858022191162097","0.19670417369981258","0.5327732614562928","0","","","","","","","","",""
"","html-keyboard-response","88","315044","0.0-53.0-1.0","""event"",""trial"",""time""
""fullscreenenter"",""0"",""1878""
","
","
","""event"",""trial"",""time""
""fullscreenenter"",""0"",""1878""
","
","null","<p></p>","null","","","","","","","","","","","","","","","","","","","","","","","",""
"","do_recog","89","318930","0.0-54.0-0.0","""event"",""trial"",""time""
""fullscreenenter"",""0"",""1878""
","
","
","""event"",""trial"",""time""
""fullscreenenter"",""0"",""1878""
","
","2373.399999976158","","","","","","","","56","","","","265","probe-116","","","","","1","[object Object]","198","4","0","","","",""
"","html-keyboard-response","90","319949","0.0-54.0-1.0","""event"",""trial"",""time""
""fullscreenenter"",""0"",""1878""
","
","
","""event"",""trial"",""time""
""fullscreenenter"",""0"",""1878""
","
","null","<p></p>","null","","","","","","","","","","","","","","","","","","","","","","","",""
"","do_trial","91","324087","0.0-55.0-0.0","""event"",""trial"",""time""
""fullscreenenter"",""0"",""1878""
","
","
","""event"",""trial"",""time""
""fullscreenenter"",""0"",""1878""
","
","1572.3999999761581","","","","","","","","50","0,0,1","6","blank","266","null","0.06442621147318105","0.29040147478370243","0.5117881845175889","0","","","","","","","","",""
"","html-keyboard-response","92","325099","0.0-55.0-1.0","""event"",""trial"",""time""
""fullscreenenter"",""0"",""1878""
","
","
","""event"",""trial"",""time""
""fullscreenenter"",""0"",""1878""
","
","null","<p></p>","null","","","","","","","","","","","","","","","","","","","","","","","",""
"","do_trial","93","328005","0.0-56.0-0.0","""event"",""trial"",""time""
""fullscreenenter"",""0"",""1878""
","
","
","""event"",""trial"",""time""
""fullscreenenter"",""0"",""1878""
","
","291.7000000476837","","","","","","","","50","1,0,1","6","blank","267","null","0.2647429924540196","0.33763941798203545","0.44480032097784383","0","","","","","","","","",""
"","html-keyboard-response","94","329010","0.0-56.0-1.0","""event"",""trial"",""time""
""fullscreenenter"",""0"",""1878""
","
","
","""event"",""trial"",""time""
""fullscreenenter"",""0"",""1878""
","
","null","<p></p>","null","","","","","","","","","","","","","","","","","","","","","","","",""
"","do_trial","95","331704","0.0-57.0-0.0","""event"",""trial"",""time""
""fullscreenenter"",""0"",""1878""
","
","
","""event"",""trial"",""time""
""fullscreenenter"",""0"",""1878""
","
","44","","","","","","","","50","1,0,0","6","blank","268","null","0.12969827008689577","0.342441254349899","0.6241509081832376","0","","","","","","","","",""
"","html-keyboard-response","96","332722","0.0-57.0-1.0","""event"",""trial"",""time""
""fullscreenenter"",""0"",""1878""
","
","
","""event"",""trial"",""time""
""fullscreenenter"",""0"",""1878""
","
","null","<p></p>","null","","","","","","","","","","","","","","","","","","","","","","","",""
"","break","97","334238","0.0-58.0-0.0","""event"",""trial"",""time""
""fullscreenenter"",""0"",""1878""
","
","
","""event"",""trial"",""time""
""fullscreenenter"",""0"",""1878""
","
","1514","<div class='center'><p>Time to take a quick break! You have 2 minutes to rest, but you can move on sooner if you'd like.</p><p> Press the <b>space bar</b> to continue.</p></div>","32","","","","","","","","","","","","","","","","","","","","","","","",""
"","do_recog","98","338670","0.0-58.0-1.0","""event"",""trial"",""time""
""fullscreenenter"",""0"",""1878""
","
","
","""event"",""trial"",""time""
""fullscreenenter"",""0"",""1878""
","
","2913.3000000715256","","","","","","","","53","","","","269","probe-17","","","","","1","[object Object]","36","0","1","","","",""
"","html-keyboard-response","99","339685","0.0-58.0-2.0","""event"",""trial"",""time""
""fullscreenenter"",""0"",""1878""
","
","
","""event"",""trial"",""time""
""fullscreenenter"",""0"",""1878""
","
","null","<p></p>","null","","","","","","","","","","","","","","","","","","","","","","","",""
"","do_trial","100","343622","0.0-59.0-0.0","""event"",""trial"",""time""
""fullscreenenter"",""0"",""1878""
","
","
","""event"",""trial"",""time""
""fullscreenenter"",""0"",""1878""
","
","1318.6000000238419","","","","","","","","49","0,0,1","6","blank","270","null","0.11382015295551502","0.29065870006298644","0.5552925236793023","0","","","","","","","","",""
"","html-keyboard-response","101","344638","0.0-59.0-1.0","""event"",""trial"",""time""
""fullscreenenter"",""0"",""1878""
","
","
","""event"",""trial"",""time""
""fullscreenenter"",""0"",""1878""
","
","null","<p></p>","null","","","","","","","","","","","","","","","","","","","","","","","",""
"","do_trial","102","347838","0.0-60.0-0.0","""event"",""trial"",""time""
""fullscreenenter"",""0"",""1878""
","
","
","""event"",""trial"",""time""
""fullscreenenter"",""0"",""1878""
","
","628.5","","","","","","","","49","0,0,1","6","blank","271","null","0.09798126233198144","0.2307599703918875","0.4756115756579912","0","","","","","","","","",""
"","html-keyboard-response","103","348869","0.0-60.0-1.0","""event"",""trial"",""time""
""fullscreenenter"",""0"",""1878""
","
","
","""event"",""trial"",""time""
""fullscreenenter"",""0"",""1878""
","
","null","<p></p>","null","","","","","","","","","","","","","","","","","","","","","","","",""
"","do_trial","104","351788","0.0-61.0-0.0","""event"",""trial"",""time""
""fullscreenenter"",""0"",""1878""
","
","
","""event"",""trial"",""time""
""fullscreenenter"",""0"",""1878""
","
","291.10000002384186","","","","","","","","49","0,0,0","6","blank","272","null","0.10098439858441527","0.27961959471390324","0.6273372125450044","0","","","","","","","","",""
"","html-keyboard-response","105","352807","0.0-61.0-1.0","""event"",""trial"",""time""
""fullscreenenter"",""0"",""1878""
","
","
","""event"",""trial"",""time""
""fullscreenenter"",""0"",""1878""
","
","null","<p></p>","null","","","","","","","","","","","","","","","","","","","","","","","",""
"","do_recog","106","358840","0.0-62.0-0.0","""event"",""trial"",""time""
""fullscreenenter"",""0"",""1878""
","
","
","""event"",""trial"",""time""
""fullscreenenter"",""0"",""1878""
","
","null","","","","","","","","null","","","","273","probe-164","","","","","1","[object Object]","190","4","0","","","",""
"","html-keyboard-response","107","359859","0.0-62.0-1.0","""event"",""trial"",""time""
""fullscreenenter"",""0"",""1878""
","
","
","""event"",""trial"",""time""
""fullscreenenter"",""0"",""1878""
","
","null","<p></p>","null","","","","","","","","","","","","","","","","","","","","","","","",""
"","do_trial","108","362926","0.0-63.0-0.0","""event"",""trial"",""time""
""fullscreenenter"",""0"",""1878""
","
","
","""event"",""trial"",""time""
""fullscreenenter"",""0"",""1878""
","
","486.7000000476837","","","","","","","","49","0,1,1","6","blank","274","null","0.20404733336214517","0.28416782195472967","0.5647508405324061","0","","","","","","","","",""
"","html-keyboard-response","109","363942","0.0-63.0-1.0","""event"",""trial"",""time""
""fullscreenenter"",""0"",""1878""
","
","
","""event"",""trial"",""time""
""fullscreenenter"",""0"",""1878""
","
","null","<p></p>","null","","","","","","","","","","","","","","","","","","","","","","","",""
"","do_trial","110","367059","0.0-64.0-0.0","""event"",""trial"",""time""
""fullscreenenter"",""0"",""1878""
","
","
","""event"",""trial"",""time""
""fullscreenenter"",""0"",""1878""
","
","492.39999997615814","","","","","","","","49","0,0,0","6","blank","275","null","0.07089665347710153","0.12026438340401782","0.4969373336217457","0","","","","","","","","",""
"","html-keyboard-response","111","368077","0.0-64.0-1.0","""event"",""trial"",""time""
""fullscreenenter"",""0"",""1878""
","
","
","""event"",""trial"",""time""
""fullscreenenter"",""0"",""1878""
","
","null","<p></p>","null","","","","","","","","","","","","","","","","","","","","","","","",""
"","do_trial","112","372083","0.0-65.0-0.0","""event"",""trial"",""time""
""fullscreenenter"",""0"",""1878""
","
","
","""event"",""trial"",""time""
""fullscreenenter"",""0"",""1878""
","
","1368.6000000238419","","","","","","","","50","0,1,1","6","blank","276","null","0.06793862564479697","0.12305420933380709","0.41886506426594067","1","","","","","","","","",""
"","html-keyboard-response","113","373101","0.0-65.0-1.0","""event"",""trial"",""time""
""fullscreenenter"",""0"",""1878""
","
","
","""event"",""trial"",""time""
""fullscreenenter"",""0"",""1878""
","
","null","<p></p>","null","","","","","","","","","","","","","","","","","","","","","","","",""
"","do_trial","114","376211","0.0-66.0-0.0","""event"",""trial"",""time""
""fullscreenenter"",""0"",""1878""
","
","
","""event"",""trial"",""time""
""fullscreenenter"",""0"",""1878""
","
","487.89999997615814","","","","","","","","50","0,0,1","6","blank","277","null","0.08804338371806372","0.1722580878418775","0.5178991752974206","0","","","","","","","","",""
"","html-keyboard-response","115","377229","0.0-66.0-1.0","""event"",""trial"",""time""
""fullscreenenter"",""0"",""1878""
","
","
","""event"",""trial"",""time""
""fullscreenenter"",""0"",""1878""
","
","null","<p></p>","null","","","","","","","","","","","","","","","","","","","","","","","",""
"","do_trial","116","380579","0.0-67.0-0.0","""event"",""trial"",""time""
""fullscreenenter"",""0"",""1878""
","
","
","""event"",""trial"",""time""
""fullscreenenter"",""0"",""1878""
","
","713.2999999523163","","","","","","","","50","1,0,0","6","blank","278","null","0.1276320360524027","0.3641403186658701","0.5742431864936711","0","","","","","","","","",""
"","html-keyboard-response","117","381596","0.0-67.0-1.0","""event"",""trial"",""time""
""fullscreenenter"",""0"",""1878""
","
","
","""event"",""trial"",""time""
""fullscreenenter"",""0"",""1878""
","
","null","<p></p>","null","","","","","","","","","","","","","","","","","","","","","","","",""
"","do_trial","118","385030","0.0-68.0-0.0","""event"",""trial"",""time""
""fullscreenenter"",""0"",""1878""
","
","
","""event"",""trial"",""time""
""fullscreenenter"",""0"",""1878""
","
","809.3999999761581","","","","","","","","50","0,0,1","6","blank","279","null","0.21776078732793303","0.23924974958607734","0.5921640532198564","0","","","","","","","","",""
"","html-keyboard-response","119","386047","0.0-68.0-1.0","""event"",""trial"",""time""
""fullscreenenter"",""0"",""1878""
","
","
","""event"",""trial"",""time""
""fullscreenenter"",""0"",""1878""
","
","null","<p></p>","null","","","","","","","","","","","","","","","","","","","","","","","",""
"","do_trial","120","389160","0.0-69.0-0.0","""event"",""trial"",""time""
""fullscreenenter"",""0"",""1878""
","
","
","""event"",""trial"",""time""
""fullscreenenter"",""0"",""1878""
","
","472.60000002384186","","","","","","","","50","0,0,0","6","blank","280","null","0.13024484470802722","0.17876502187625717","0.6093525621890674","0","","","","","","","","",""
"","html-keyboard-response","121","390168","0.0-69.0-1.0","""event"",""trial"",""time""
""fullscreenenter"",""0"",""1878""
","
","
","""event"",""trial"",""time""
""fullscreenenter"",""0"",""1878""
","
","null","<p></p>","null","","","","","","","","","","","","","","","","","","","","","","","",""
"","do_recog","122","394368","0.0-70.0-0.0","""event"",""trial"",""time""
""fullscreenenter"",""0"",""1878""
","
","
","""event"",""trial"",""time""
""fullscreenenter"",""0"",""1878""
","
","2686.5999999046326","","","","","","","","53","","","","281","probe-72","","","","","1","[object Object]","35","0","1","","","",""
"","html-keyboard-response","123","395385","0.0-70.0-1.0","""event"",""trial"",""time""
""fullscreenenter"",""0"",""1878""
","
","
","""event"",""trial"",""time""
""fullscreenenter"",""0"",""1878""
","
","null","<p></p>","null","","","","","","","","","","","","","","","","","","","","","","","",""
"","do_trial","124","398884","0.0-71.0-0.0","""event"",""trial"",""time""
""fullscreenenter"",""0"",""1878""
","
","
","""event"",""trial"",""time""
""fullscreenenter"",""0"",""1878""
","
","932.3999999761581","","","","","","","","50","0,0,0","6","blank","282","null","0.08864551027316997","0.2539889750146177","0.47182410614361814","0","","","","","","","","",""
"","html-keyboard-response","125","399902","0.0-71.0-1.0","""event"",""trial"",""time""
""fullscreenenter"",""0"",""1878""
","
","
","""event"",""trial"",""time""
""fullscreenenter"",""0"",""1878""
","
","null","<p></p>","null","","","","","","","","","","","","","","","","","","","","","","","",""
"","do_trial","126","403319","0.0-72.0-0.0","""event"",""trial"",""time""
""fullscreenenter"",""0"",""1878""
","
","
","""event"",""trial"",""time""
""fullscreenenter"",""0"",""1878""
","
","782.7999999523163","","","","","","","","50","0,1,0","6","blank","283","null","0.12451117084631358","0.37806236097132817","0.4919779170672447","1","","","","","","","","",""
"","html-keyboard-response","127","404335","0.0-72.0-1.0","""event"",""trial"",""time""
""fullscreenenter"",""0"",""1878""
","
","
","""event"",""trial"",""time""
""fullscreenenter"",""0"",""1878""
","
","null","<p></p>","null","","","","","","","","","","","","","","","","","","","","","","","",""
"","do_trial","128","407358","0.0-73.0-0.0","""event"",""trial"",""time""
""fullscreenenter"",""0"",""1878""
","
","
","""event"",""trial"",""time""
""fullscreenenter"",""0"",""1878""
","
","401.7000000476837","","","","","","","","50","0,0,1","6","blank","284","null","0.16090792854344435","0.30556907095058317","0.5631919308187174","0","","","","","","","","",""
"","html-keyboard-response","129","408361","0.0-73.0-1.0","""event"",""trial"",""time""
""fullscreenenter"",""0"",""1878""
","
","
","""event"",""trial"",""time""
""fullscreenenter"",""0"",""1878""
","
","null","<p></p>","null","","","","","","","","","","","","","","","","","","","","","","","",""
"","do_trial","130","411338","0.0-74.0-0.0","""event"",""trial"",""time""
""fullscreenenter"",""0"",""1878""
","
","
","""event"",""trial"",""time""
""fullscreenenter"",""0"",""1878""
","
","350.59999990463257","","","","","","","","50","1,0,0","6","blank","285","null","0.18755968959910424","0.21897014610582133","0.436211944167969","0","","","","","","","","",""
"","html-keyboard-response","131","412342","0.0-74.0-1.0","""event"",""trial"",""time""
""fullscreenenter"",""0"",""1878""
","
","
","""event"",""trial"",""time""
""fullscreenenter"",""0"",""1878""
","
","null","<p></p>","null","","","","","","","","","","","","","","","","","","","","","","","",""
"","do_recog","132","416190","0.0-75.0-0.0","""event"",""trial"",""time""
""fullscreenenter"",""0"",""1878""
","
","
","""event"",""trial"",""time""
""fullscreenenter"",""0"",""1878""
","
","2332.7999999523163","","","","","","","","56","","","","286","probe-109","","","","","1","[object Object]","111","2","0","","","",""
"","html-keyboard-response","133","417205","0.0-75.0-1.0","""event"",""trial"",""time""
""fullscreenenter"",""0"",""1878""
","
","
","""event"",""trial"",""time""
""fullscreenenter"",""0"",""1878""
","
","null","<p></p>","null","","","","","","","","","","","","","","","","","","","","","","","",""
"","do_trial","134","421956","0.0-76.0-0.0","""event"",""trial"",""time""
""fullscreenenter"",""0"",""1878""
","
","
","""event"",""trial"",""time""
""fullscreenenter"",""0"",""1878""
","
","2166.4000000953674","","","","","","","","50","0,0,0","6","blank","287","null","0.07024796519038551","0.2676629627115175","0.472427356016953","0","","","","","","","","",""
"","html-keyboard-response","135","422973","0.0-76.0-1.0","""event"",""trial"",""time""
""fullscreenenter"",""0"",""1878""
","
","
","""event"",""trial"",""time""
""fullscreenenter"",""0"",""1878""
","
","null","<p></p>","null","","","","","","","","","","","","","","","","","","","","","","","",""
"","do_recog","136","426290","0.0-77.0-0.0","""event"",""trial"",""time""
""fullscreenenter"",""0"",""1878""
","
","
","""event"",""trial"",""time""
""fullscreenenter"",""0"",""1878""
","
","1793.1999999284744","","","","","","","","53","","","","288","probe-112","","","","","1","[object Object]","192","4","1","","","",""
"","html-keyboard-response","137","427293","0.0-77.0-1.0","""event"",""trial"",""time""
""fullscreenenter"",""0"",""1878""
","
","
","""event"",""trial"",""time""
""fullscreenenter"",""0"",""1878""
","
","null","<p></p>","null","","","","","","","","","","","","","","","","","","","","","","","",""
"","do_trial","138","430443","0.0-78.0-0.0","""event"",""trial"",""time""
""fullscreenenter"",""0"",""1878""
","
","
","""event"",""trial"",""time""
""fullscreenenter"",""0"",""1878""
","
","504.1999999284744","","","","","","","","50","0,0,1","6","blank","289","null","0.17558818036798354","0.21746588483469956","0.4288187102301713","0","","","","","","","","",""
"","html-keyboard-response","139","431450","0.0-78.0-1.0","""event"",""trial"",""time""
""fullscreenenter"",""0"",""1878""
","
","
","""event"",""trial"",""time""
""fullscreenenter"",""0"",""1878""
","
","null","<p></p>","null","","","","","","","","","","","","","","","","","","","","","","","",""
"","do_recog","140","434561","0.0-79.0-0.0","""event"",""trial"",""time""
""fullscreenenter"",""0"",""1878""
","
","
","""event"",""trial"",""time""
""fullscreenenter"",""0"",""1878""
","
","1583.2999999523163","","","","","","","","53","","","","290","probe-160","","","","","1","[object Object]","78","1","1","","","",""
"","html-keyboard-response","141","435564","0.0-79.0-1.0","""event"",""trial"",""time""
""fullscreenenter"",""0"",""1878""
","
","
","""event"",""trial"",""time""
""fullscreenenter"",""0"",""1878""
","
","null","<p></p>","null","","","","","","","","","","","","","","","","","","","","","","","",""
"","do_trial","142","438611","0.0-80.0-0.0","""event"",""trial"",""time""
""fullscreenenter"",""0"",""1878""
","
","
","""event"",""trial"",""time""
""fullscreenenter"",""0"",""1878""
","
","414.7999999523163","","","","","","","","50","0,0,0","6","blank","291","null","0.05946025561284984","0.3622513701775159","0.45614172179819745","0","","","","","","","","",""
"","html-keyboard-response","143","439626","0.0-80.0-1.0","""event"",""trial"",""time""
""fullscreenenter"",""0"",""1878""
","
","
","""event"",""trial"",""time""
""fullscreenenter"",""0"",""1878""
","
","null","<p></p>","null","","","","","","","","","","","","","","","","","","","","","","","",""
"","do_recog","144","442863","0.0-81.0-0.0","""event"",""trial"",""time""
""fullscreenenter"",""0"",""1878""
","
","
","""event"",""trial"",""time""
""fullscreenenter"",""0"",""1878""
","
","1720.3000000715256","","","","","","","","53","","","","292","probe-254","","","","","0","[object Object]","null","null","0","","","",""
"","html-keyboard-response","145","443879","0.0-81.0-1.0","""event"",""trial"",""time""
""fullscreenenter"",""0"",""1878""
","
","
","""event"",""trial"",""time""
""fullscreenenter"",""0"",""1878""
","
","null","<p></p>","null","","","","","","","","","","","","","","","","","","","","","","","",""
"","do_trial","146","447863","0.0-82.0-0.0","""event"",""trial"",""time""
""fullscreenenter"",""0"",""1878""
","
","
","""event"",""trial"",""time""
""fullscreenenter"",""0"",""1878""
","
","1416.5","","","","","","","","50","0,0,0","6","blank","293","null","0.08525966654586142","0.2685696342243146","0.5664954841082649","0","","","","","","","","",""
"","html-keyboard-response","147","448881","0.0-82.0-1.0","""event"",""trial"",""time""
""fullscreenenter"",""0"",""1878""
","
","
","""event"",""trial"",""time""
""fullscreenenter"",""0"",""1878""
","
","null","<p></p>","null","","","","","","","","","","","","","","","","","","","","","","","",""
"","do_trial","148","451930","0.0-83.0-0.0","""event"",""trial"",""time""
""fullscreenenter"",""0"",""1878""
","
","
","""event"",""trial"",""time""
""fullscreenenter"",""0"",""1878""
","
","479.1999999284744","","","","","","","","50","0,0,0","6","blank","294","null","0.1660823211434718","0.3442384110213489","0.5067709610632128","0","","","","","","","","",""
"","html-keyboard-response","149","452948","0.0-83.0-1.0","""event"",""trial"",""time""
""fullscreenenter"",""0"",""1878""
","
","
","""event"",""trial"",""time""
""fullscreenenter"",""0"",""1878""
","
","null","<p></p>","null","","","","","","","","","","","","","","","","","","","","","","","",""
"","do_trial","150","455848","0.0-84.0-0.0","""event"",""trial"",""time""
""fullscreenenter"",""0"",""1878""
","
","
","""event"",""trial"",""time""
""fullscreenenter"",""0"",""1878""
","
","269.60000002384186","","","","","","","","50","0,1,0","6","blank","295","null","0.2128053094567147","0.3474767983465263","0.5896716967965813","1","","","","","","","","",""
"","html-keyboard-response","151","456864","0.0-84.0-1.0","""event"",""trial"",""time""
""fullscreenenter"",""0"",""1878""
","
","
","""event"",""trial"",""time""
""fullscreenenter"",""0"",""1878""
","
","null","<p></p>","null","","","","","","","","","","","","","","","","","","","","","","","",""
"","do_trial","152","459750","0.0-85.0-0.0","""event"",""trial"",""time""
""fullscreenenter"",""0"",""1878""
","
","
","""event"",""trial"",""time""
""fullscreenenter"",""0"",""1878""
","
","297.39999997615814","","","","","","","","50","0,1,0","6","blank","296","null","0.22320753515244007","0.4606348963355966","0.5952667303112256","1","","","","","","","","",""
"","html-keyboard-response","153","460766","0.0-85.0-1.0","""event"",""trial"",""time""
""fullscreenenter"",""0"",""1878""
","
","
","""event"",""trial"",""time""
""fullscreenenter"",""0"",""1878""
","
","null","<p></p>","null","","","","","","","","","","","","","","","","","","","","","","","",""
"","do_trial","154","463717","0.0-86.0-0.0","""event"",""trial"",""time""
""fullscreenenter"",""0"",""1878""
","
","
","""event"",""trial"",""time""
""fullscreenenter"",""0"",""1878""
","
","318.2999999523163","","","","","","","","50","0,1,0","6","blank","297","null","0.14605440367709185","0.5413457119379962","0.3523307717599887","1","","","","","","","","",""
"","html-keyboard-response","155","464735","0.0-86.0-1.0","""event"",""trial"",""time""
""fullscreenenter"",""0"",""1878""
","
","
","""event"",""trial"",""time""
""fullscreenenter"",""0"",""1878""
","
","null","<p></p>","null","","","","","","","","","","","","","","","","","","","","","","","",""
"","do_recog","156","468474","0.0-87.0-0.0","""event"",""trial"",""time""
""fullscreenenter"",""0"",""1878""
","
","
","""event"",""trial"",""time""
""fullscreenenter"",""0"",""1878""
","
","2216","","","","","","","","56","","","","298","probe-194","","","","","1","[object Object]","119","2","0","","","",""
"","html-keyboard-response","157","469485","0.0-87.0-1.0","""event"",""trial"",""time""
""fullscreenenter"",""0"",""1878""
","
","
","""event"",""trial"",""time""
""fullscreenenter"",""0"",""1878""
","
","null","<p></p>","null","","","","","","","","","","","","","","","","","","","","","","","",""
"","do_trial","158","474129","0.0-88.0-0.0","""event"",""trial"",""time""
""fullscreenenter"",""0"",""1878""
","
","
","""event"",""trial"",""time""
""fullscreenenter"",""0"",""1878""
","
","2012.3000000715256","","","","","","","","50","0,1,0","6","blank","299","null","0.16778614423235255","0.5188396651785326","0.11154757429332589","1","","","","","","","","",""
"","html-keyboard-response","159","475136","0.0-88.0-1.0","""event"",""trial"",""time""
""fullscreenenter"",""0"",""1878""
","
","
","""event"",""trial"",""time""
""fullscreenenter"",""0"",""1878""
","
","null","<p></p>","null","","","","","","","","","","","","","","","","","","","","","","","",""
"","do_trial","160","477989","0.0-89.0-0.0","""event"",""trial"",""time""
""fullscreenenter"",""0"",""1878""
","
","
","""event"",""trial"",""time""
""fullscreenenter"",""0"",""1878""
","
","230.69999992847443","","","","","","","","50","0,1,1","6","blank","300","null","0.24782679820075898","0.4617652585114631","0.08687249237666388","1","","","","","","","","",""
"","html-keyboard-response","161","479005","0.0-89.0-1.0","""event"",""trial"",""time""
""fullscreenenter"",""0"",""1878""
","
","
","""event"",""trial"",""time""
""fullscreenenter"",""0"",""1878""
","
","null","<p></p>","null","","","","","","","","","","","","","","","","","","","","","","","",""
"","do_trial","162","481904","0.0-90.0-0.0","""event"",""trial"",""time""
""fullscreenenter"",""0"",""1878""
","
","
","""event"",""trial"",""time""
""fullscreenenter"",""0"",""1878""
","
","265.10000002384186","","","","","","","","50","0,0,0","6","blank","301","null","0.17788035453394735","0.501508743764869","0.053456963353968795","0","","","","","","","","",""
"","html-keyboard-response","163","482923","0.0-90.0-1.0","""event"",""trial"",""time""
""fullscreenenter"",""0"",""1878""
","
","
","""event"",""trial"",""time""
""fullscreenenter"",""0"",""1878""
","
","null","<p></p>","null","","","","","","","","","","","","","","","","","","","","","","","",""
"","do_trial","164","485725","0.0-91.0-0.0","""event"",""trial"",""time""
""fullscreenenter"",""0"",""1878""
","
","
","""event"",""trial"",""time""
""fullscreenenter"",""0"",""1878""
","
","242.60000002384186","","","","","","","","50","0,0,0","6","blank","302","null","0.13885828344406723","0.36492487967602755","0.14496446551548212","0","","","","","","","","",""
"","html-keyboard-response","165","486740","0.0-91.0-1.0","""event"",""trial"",""time""
""fullscreenenter"",""0"",""1878""
","
","
","""event"",""trial"",""time""
""fullscreenenter"",""0"",""1878""
","
","null","<p></p>","null","","","","","","","","","","","","","","","","","","","","","","","",""
"","do_trial","166","489742","0.0-92.0-0.0","""event"",""trial"",""time""
""fullscreenenter"",""0"",""1878""
","
","
","""event"",""trial"",""time""
""fullscreenenter"",""0"",""1878""
","
","340.39999997615814","","","","","","","","50","0,1,0","6","blank","303","null","0.23005775315297733","0.46815035402839256","0.3134319138035653","1","","","","","","","","",""
"","html-keyboard-response","167","490759","0.0-92.0-1.0","""event"",""trial"",""time""
""fullscreenenter"",""0"",""1878""
","
","
","""event"",""trial"",""time""
""fullscreenenter"",""0"",""1878""
","
","null","<p></p>","null","","","","","","","","","","","","","","","","","","","","","","","",""
"","do_trial","168","493710","0.0-93.0-0.0","""event"",""trial"",""time""
""fullscreenenter"",""0"",""1878""
","
","
","""event"",""trial"",""time""
""fullscreenenter"",""0"",""1878""
","
","376.60000002384186","","","","","","","","50","0,0,1","6","blank","304","null","0.2101099132968618","0.5888034422202565","0.0695620316122805","0","","","","","","","","",""
"","html-keyboard-response","169","494725","0.0-93.0-1.0","""event"",""trial"",""time""
""fullscreenenter"",""0"",""1878""
","
","
","""event"",""trial"",""time""
""fullscreenenter"",""0"",""1878""
","
","null","<p></p>","null","","","","","","","","","","","","","","","","","","","","","","","",""
"","do_recog","170","498532","0.0-94.0-0.0","""event"",""trial"",""time""
""fullscreenenter"",""0"",""1878""
","
","
","""event"",""trial"",""time""
""fullscreenenter"",""0"",""1878""
","
","2278.6999999284744","","","","","","","","56","","","","305","probe-87","","","","","1","[object Object]","191","4","0","","","",""
"","html-keyboard-response","171","499547","0.0-94.0-1.0","""event"",""trial"",""time""
""fullscreenenter"",""0"",""1878""
","
","
","""event"",""trial"",""time""
""fullscreenenter"",""0"",""1878""
","
","null","<p></p>","null","","","","","","","","","","","","","","","","","","","","","","","",""
"","do_trial","172","503128","0.0-95.0-0.0","""event"",""trial"",""time""
""fullscreenenter"",""0"",""1878""
","
","
","""event"",""trial"",""time""
""fullscreenenter"",""0"",""1878""
","
","959","","","","","","","","50","1,1,0","6","blank","306","null","0.36500670548407216","0.6232150342290685","0.11427373276165334","1","","","","","","","","",""
"","html-keyboard-response","173","504145","0.0-95.0-1.0","""event"",""trial"",""time""
""fullscreenenter"",""0"",""1878""
","
","
","""event"",""trial"",""time""
""fullscreenenter"",""0"",""1878""
","
","null","<p></p>","null","","","","","","","","","","","","","","","","","","","","","","","",""
"","do_trial","174","507115","0.0-96.0-0.0","""event"",""trial"",""time""
""fullscreenenter"",""0"",""1878""
","
","
","""event"",""trial"",""time""
""fullscreenenter"",""0"",""1878""
","
","343.1999999284744","","","","","","","","50","0,0,0","6","blank","307","null","0.32897760776213697","0.5123667940431966","0.07273591360263161","0","","","","","","","","",""
"","html-keyboard-response","175","508121","0.0-96.0-1.0","""event"",""trial"",""time""
""fullscreenenter"",""0"",""1878""
","
","
","""event"",""trial"",""time""
""fullscreenenter"",""0"",""1878""
","
","null","<p></p>","null","","","","","","","","","","","","","","","","","","","","","","","",""
"","do_trial","176","511197","0.0-97.0-0.0","""event"",""trial"",""time""
""fullscreenenter"",""0"",""1878""
","
","
","""event"",""trial"",""time""
""fullscreenenter"",""0"",""1878""
","
","443.2999999523163","","","","","","","","50","1,1,0","6","blank","308","null","0.35426682487467903","0.6061086948677313","0.15325894084607658","1","","","","","","","","",""
"","html-keyboard-response","177","512213","0.0-97.0-1.0","""event"",""trial"",""time""
""fullscreenenter"",""0"",""1878""
","
","
","""event"",""trial"",""time""
""fullscreenenter"",""0"",""1878""
","
","null","<p></p>","null","","","","","","","","","","","","","","","","","","","","","","","",""
"","break","178","513660","0.0-98.0-0.0","""event"",""trial"",""time""
""fullscreenenter"",""0"",""1878""
","
","
","""event"",""trial"",""time""
""fullscreenenter"",""0"",""1878""
","
","1444.8999999761581","<div class='center'><p>Time to take a quick break! You have 2 minutes to rest, but you can move on sooner if you'd like.</p><p> Press the <b>space bar</b> to continue.</p></div>","32","","","","","","","","","","","","","","","","","","","","","","","",""
"","do_trial","179","516903","0.0-98.0-1.0","""event"",""trial"",""time""
""fullscreenenter"",""0"",""1878""
","
","
","""event"",""trial"",""time""
""fullscreenenter"",""0"",""1878""
","
","615.5","","","","","","","","50","0,1,1","6","blank","309","null","0.2658337644028983","0.5954337243371096","0.09621324853311566","1","","","","","","","","",""
"","html-keyboard-response","180","517915","0.0-98.0-2.0","""event"",""trial"",""time""
""fullscreenenter"",""0"",""1878""
","
","
","""event"",""trial"",""time""
""fullscreenenter"",""0"",""1878""
","
","null","<p></p>","null","","","","","","","","","","","","","","","","","","","","","","","",""
"","do_trial","181","520939","0.0-99.0-0.0","""event"",""trial"",""time""
""fullscreenenter"",""0"",""1878""
","
","
","""event"",""trial"",""time""
""fullscreenenter"",""0"",""1878""
","
","390.89999997615814","","","","","","","","50","0,1,0","6","blank","310","null","0.3473363707149126","0.5114818671589128","0.05625437354230777","1","","","","","","","","",""
"","html-keyboard-response","182","521948","0.0-99.0-1.0","""event"",""trial"",""time""
""fullscreenenter"",""0"",""1878""
","
","
","""event"",""trial"",""time""
""fullscreenenter"",""0"",""1878""
","
","null","<p></p>","null","","","","","","","","","","","","","","","","","","","","","","","",""
"","do_trial","183","524999","0.0-100.0-0.0","""event"",""trial"",""time""
""fullscreenenter"",""0"",""1878""
","
","
","""event"",""trial"",""time""
""fullscreenenter"",""0"",""1878""
","
","422.8000000715256","","","","","","","","50","1,1,0","6","blank","311","null","0.26489600537903807","0.39139077712145187","0.22209648122070802","1","","","","","","","","",""
"","html-keyboard-response","184","526006","0.0-100.0-1.0","""event"",""trial"",""time""
""fullscreenenter"",""0"",""1878""
","
","
","""event"",""trial"",""time""
""fullscreenenter"",""0"",""1878""
","
","null","<p></p>","null","","","","","","","","","","","","","","","","","","","","","","","",""
"","do_recog","185","529451","0.0-101.0-0.0","""event"",""trial"",""time""
""fullscreenenter"",""0"",""1878""
","
","
","""event"",""trial"",""time""
""fullscreenenter"",""0"",""1878""
","
","1927.9000000953674","","","","","","","","53","","","","312","probe-139","","","","","1","[object Object]","193","4","1","","","",""
"","html-keyboard-response","186","530468","0.0-101.0-1.0","""event"",""trial"",""time""
""fullscreenenter"",""0"",""1878""
","
","
","""event"",""trial"",""time""
""fullscreenenter"",""0"",""1878""
","
","null","<p></p>","null","","","","","","","","","","","","","","","","","","","","","","","",""
"","do_trial","187","533971","0.0-102.0-0.0","""event"",""trial"",""time""
""fullscreenenter"",""0"",""1878""
","
","
","""event"",""trial"",""time""
""fullscreenenter"",""0"",""1878""
","
","918.3999999761581","","","","","","","","50","1,0,0","6","blank","313","null","0.23673175073731323","0.5129538863271861","0.26785940483719634","0","","","","","","","","",""
"","html-keyboard-response","188","534987","0.0-102.0-1.0","""event"",""trial"",""time""
""fullscreenenter"",""0"",""1878""
","
","
","""event"",""trial"",""time""
""fullscreenenter"",""0"",""1878""
","
","null","<p></p>","null","","","","","","","","","","","","","","","","","","","","","","","",""
"","do_trial","189","538038","0.0-103.0-0.0","""event"",""trial"",""time""
""fullscreenenter"",""0"",""1878""
","
","
","""event"",""trial"",""time""
""fullscreenenter"",""0"",""1878""
","
","419.2999999523163","","","","","","","","50","0,1,0","6","blank","314","null","0.31764944324970096","0.5709737148196087","0.20393424065584095","1","","","","","","","","",""
"","html-keyboard-response","190","539053","0.0-103.0-1.0","""event"",""trial"",""time""
""fullscreenenter"",""0"",""1878""
","
","
","""event"",""trial"",""time""
""fullscreenenter"",""0"",""1878""
","
","null","<p></p>","null","","","","","","","","","","","","","","","","","","","","","","","",""
"","do_trial","191","542027","0.0-104.0-0.0","""event"",""trial"",""time""
""fullscreenenter"",""0"",""1878""
","
","
","""event"",""trial"",""time""
""fullscreenenter"",""0"",""1878""
","
","413.5","","","","","","","","50","0,0,0","6","blank","315","null","0.182095268260686","0.5537564534694271","0.16611288169410807","0","","","","","","","","",""
"","html-keyboard-response","192","543039","0.0-104.0-1.0","""event"",""trial"",""time""
""fullscreenenter"",""0"",""1878""
","
","
","""event"",""trial"",""time""
""fullscreenenter"",""0"",""1878""
","
","null","<p></p>","null","","","","","","","","","","","","","","","","","","","","","","","",""
"","do_recog","193","549072","0.0-105.0-0.0","""event"",""trial"",""time""
""fullscreenenter"",""0"",""1878""
","
","
","""event"",""trial"",""time""
""fullscreenenter"",""0"",""1878""
","
","null","","","","","","","","null","","","","316","probe-251","","","","","0","[object Object]","null","null","0","","","",""
"","html-keyboard-response","194","550074","0.0-105.0-1.0","""event"",""trial"",""time""
""fullscreenenter"",""0"",""1878""
","
","
","""event"",""trial"",""time""
""fullscreenenter"",""0"",""1878""
","
","null","<p></p>","null","","","","","","","","","","","","","","","","","","","","","","","",""
"","do_trial","195","553092","0.0-106.0-0.0","""event"",""trial"",""time""
""fullscreenenter"",""0"",""1878""
","
","
","""event"",""trial"",""time""
""fullscreenenter"",""0"",""1878""
","
","392.7000000476837","","","","","","","","50","0,1,1","6","blank","317","null","0.31840276144085655","0.5022819287205444","0.30780787109994806","1","","","","","","","","",""
"","html-keyboard-response","196","554107","0.0-106.0-1.0","""event"",""trial"",""time""
""fullscreenenter"",""0"",""1878""
","
","
","""event"",""trial"",""time""
""fullscreenenter"",""0"",""1878""
","
","null","<p></p>","null","","","","","","","","","","","","","","","","","","","","","","","",""
"","do_trial","197","557395","0.0-107.0-0.0","""event"",""trial"",""time""
""fullscreenenter"",""0"",""1878""
","
","
","""event"",""trial"",""time""
""fullscreenenter"",""0"",""1878""
","
","655.6999999284744","","","","","","","","50","1,1,0","6","blank","318","null","0.22938991414327528","0.5179788860602622","0.26655489838906704","1","","","","","","","","",""
"","html-keyboard-response","198","558409","0.0-107.0-1.0","""event"",""trial"",""time""
""fullscreenenter"",""0"",""1878""
","
","
","""event"",""trial"",""time""
""fullscreenenter"",""0"",""1878""
","
","null","<p></p>","null","","","","","","","","","","","","","","","","","","","","","","","",""
"","do_trial","199","561610","0.0-108.0-0.0","""event"",""trial"",""time""
""fullscreenenter"",""0"",""1878""
","
","
","""event"",""trial"",""time""
""fullscreenenter"",""0"",""1878""
","
","597.6000000238419","","","","","","","","50","0,1,0","6","blank","319","null","0.22516235435901785","0.4826415866306369","0.11807711329499404","1","","","","","","","","",""
"","html-keyboard-response","200","562626","0.0-108.0-1.0","""event"",""trial"",""time""
""fullscreenenter"",""0"",""1878""
","
","
","""event"",""trial"",""time""
""fullscreenenter"",""0"",""1878""
","
","null","<p></p>","null","","","","","","","","","","","","","","","","","","","","","","","",""
"","do_trial","201","565335","0.0-109.0-0.0","""event"",""trial"",""time""
""fullscreenenter"",""0"",""1878""
","
","
","""event"",""trial"",""time""
""fullscreenenter"",""0"",""1878""
","
","143.60000002384186","","","","","","","","50","0,1,0","6","blank","320","null","0.11972366632282871","0.5294168863906998","0.07221602643340011","1","","","","","","","","",""
"","html-keyboard-response","202","566344","0.0-109.0-1.0","""event"",""trial"",""time""
""fullscreenenter"",""0"",""1878""
","
","
","""event"",""trial"",""time""
""fullscreenenter"",""0"",""1878""
","
","null","<p></p>","null","","","","","","","","","","","","","","","","","","","","","","","",""
"","do_trial","203","569161","0.0-110.0-0.0","""event"",""trial"",""time""
""fullscreenenter"",""0"",""1878""
","
","
","""event"",""trial"",""time""
""fullscreenenter"",""0"",""1878""
","
","183.5","","","","","","","","50","1,1,1","6","blank","321","null","0.14678287076615246","0.43017275450124487","0.18546709192440256","1","","","","","","","","",""
"","html-keyboard-response","204","570178","0.0-110.0-1.0","""event"",""trial"",""time""
""fullscreenenter"",""0"",""1878""
","
","
","""event"",""trial"",""time""
""fullscreenenter"",""0"",""1878""
","
","null","<p></p>","null","","","","","","","","","","","","","","","","","","","","","","","",""
"","do_trial","205","573314","0.0-111.0-0.0","""event"",""trial"",""time""
""fullscreenenter"",""0"",""1878""
","
","
","""event"",""trial"",""time""
""fullscreenenter"",""0"",""1878""
","
","507.5","","","","","","","","50","1,0,0","6","blank","322","null","0.28180202462157455","0.43814235206875546","0.11495912275557753","0","","","","","","","","",""
"","html-keyboard-response","206","574332","0.0-111.0-1.0","""event"",""trial"",""time""
""fullscreenenter"",""0"",""1878""
","
","
","""event"",""trial"",""time""
""fullscreenenter"",""0"",""1878""
","
","null","<p></p>","null","","","","","","","","","","","","","","","","","","","","","","","",""
"","do_recog","207","577815","0.0-112.0-0.0","""event"",""trial"",""time""
""fullscreenenter"",""0"",""1878""
","
","
","""event"",""trial"",""time""
""fullscreenenter"",""0"",""1878""
","
","1967.9000000953674","","","","","","","","53","","","","323","probe-122","","","","","1","[object Object]","31","0","1","","","",""
"","html-keyboard-response","208","578829","0.0-112.0-1.0","""event"",""trial"",""time""
""fullscreenenter"",""0"",""1878""
","
","
","""event"",""trial"",""time""
""fullscreenenter"",""0"",""1878""
","
","null","<p></p>","null","","","","","","","","","","","","","","","","","","","","","","","",""
"","do_trial","209","583148","0.0-113.0-0.0","""event"",""trial"",""time""
""fullscreenenter"",""0"",""1878""
","
","
","""event"",""trial"",""time""
""fullscreenenter"",""0"",""1878""
","
","1690.1000000238419","","","","","","","","51","0,0,0","6","blank","324","null","0.32620858862761765","0.5772381916049716","0.07729754935463723","0","","","","","","","","",""
"","html-keyboard-response","210","584162","0.0-113.0-1.0","""event"",""trial"",""time""
""fullscreenenter"",""0"",""1878""
","
","
","""event"",""trial"",""time""
""fullscreenenter"",""0"",""1878""
","
","null","<p></p>","null","","","","","","","","","","","","","","","","","","","","","","","",""
"","do_recog","211","587650","0.0-114.0-0.0","""event"",""trial"",""time""
""fullscreenenter"",""0"",""1878""
","
","
","""event"",""trial"",""time""
""fullscreenenter"",""0"",""1878""
","
","1974","","","","","","","","56","","","","325","probe-176","","","","","1","[object Object]","37","0","0","","","",""
"","html-keyboard-response","212","588657","0.0-114.0-1.0","""event"",""trial"",""time""
""fullscreenenter"",""0"",""1878""
","
","
","""event"",""trial"",""time""
""fullscreenenter"",""0"",""1878""
","
","null","<p></p>","null","","","","","","","","","","","","","","","","","","","","","","","",""
"","do_trial","213","593699","0.0-115.0-0.0","""event"",""trial"",""time""
""fullscreenenter"",""0"",""1878""
","
","
","""event"",""trial"",""time""
""fullscreenenter"",""0"",""1878""
","
","2414.399999976158","","","","","","","","50","1,0,0","6","blank","326","null","0.3275708138788816","0.4963521989667685","0.18785173423977164","0","","","","","","","","",""
"","html-keyboard-response","214","594715","0.0-115.0-1.0","""event"",""trial"",""time""
""fullscreenenter"",""0"",""1878""
","
","
","""event"",""trial"",""time""
""fullscreenenter"",""0"",""1878""
","
","null","<p></p>","null","","","","","","","","","","","","","","","","","","","","","","","",""
"","do_trial","215","598099","0.0-116.0-0.0","""event"",""trial"",""time""
""fullscreenenter"",""0"",""1878""
","
","
","""event"",""trial"",""time""
""fullscreenenter"",""0"",""1878""
","
","750.3999999761581","","","","","","","","50","0,1,0","6","blank","327","null","0.3970474045108533","0.5809448023238107","0.14249449749743795","1","","","","","","","","",""
"","html-keyboard-response","216","599104","0.0-116.0-1.0","""event"",""trial"",""time""
""fullscreenenter"",""0"",""1878""
","
","
","""event"",""trial"",""time""
""fullscreenenter"",""0"",""1878""
","
","null","<p></p>","null","","","","","","","","","","","","","","","","","","","","","","","",""
"","do_trial","217","602502","0.0-117.0-0.0","""event"",""trial"",""time""
""fullscreenenter"",""0"",""1878""
","
","
","""event"",""trial"",""time""
""fullscreenenter"",""0"",""1878""
","
","821.6000000238419","","","","","","","","50","0,1,1","6","blank","328","null","0.3257246110765333","0.6170108445815907","0.16005369073415934","1","","","","","","","","",""
"","html-keyboard-response","218","603510","0.0-117.0-1.0","""event"",""trial"",""time""
""fullscreenenter"",""0"",""1878""
","
","
","""event"",""trial"",""time""
""fullscreenenter"",""0"",""1878""
","
","null","<p></p>","null","","","","","","","","","","","","","","","","","","","","","","","",""
"","do_trial","219","607204","0.0-118.0-0.0","""event"",""trial"",""time""
""fullscreenenter"",""0"",""1878""
","
","
","""event"",""trial"",""time""
""fullscreenenter"",""0"",""1878""
","
","1068.3000000715256","","","","","","","","50","0,0,0","6","blank","329","null","0.3236502698627627","0.45422198963171484","0.21196523376595822","0","","","","","","","","",""
"","html-keyboard-response","220","608219","0.0-118.0-1.0","""event"",""trial"",""time""
""fullscreenenter"",""0"",""1878""
","
","
","""event"",""trial"",""time""
""fullscreenenter"",""0"",""1878""
","
","null","<p></p>","null","","","","","","","","","","","","","","","","","","","","","","","",""
"","do_recog","221","611857","0.0-119.0-0.0","""event"",""trial"",""time""
""fullscreenenter"",""0"",""1878""
","
","
","""event"",""trial"",""time""
""fullscreenenter"",""0"",""1878""
","
","2123.2999999523163","","","","","","","","53","","","","330","probe-153","","","","","1","[object Object]","74","1","1","","","",""
"","html-keyboard-response","222","612873","0.0-119.0-1.0","""event"",""trial"",""time""
""fullscreenenter"",""0"",""1878""
","
","
","""event"",""trial"",""time""
""fullscreenenter"",""0"",""1878""
","
","null","<p></p>","null","","","","","","","","","","","","","","","","","","","","","","","",""
"","do_trial","223","616606","0.0-120.0-0.0","""event"",""trial"",""time""
""fullscreenenter"",""0"",""1878""
","
","
","""event"",""trial"",""time""
""fullscreenenter"",""0"",""1878""
","
","1097.1000000238419","","","","","","","","50","0,0,0","6","blank","331","null","0.26836080301835424","0.43049456002613506","0.18294466825191716","0","","","","","","","","",""
"","html-keyboard-response","224","617624","0.0-120.0-1.0","""event"",""trial"",""time""
""fullscreenenter"",""0"",""1878""
","
","
","""event"",""trial"",""time""
""fullscreenenter"",""0"",""1878""
","
","null","<p></p>","null","","","","","","","","","","","","","","","","","","","","","","","",""
"","do_recog","225","620893","0.0-121.0-0.0","""event"",""trial"",""time""
""fullscreenenter"",""0"",""1878""
","
","
","""event"",""trial"",""time""
""fullscreenenter"",""0"",""1878""
","
","1747.6000000238419","","","","","","","","53","","","","332","probe-168","","","","","1","[object Object]","118","2","1","","","",""
"","html-keyboard-response","226","621905","0.0-121.0-1.0","""event"",""trial"",""time""
""fullscreenenter"",""0"",""1878""
","
","
","""event"",""trial"",""time""
""fullscreenenter"",""0"",""1878""
","
","null","<p></p>","null","","","","","","","","","","","","","","","","","","","","","","","",""
"","do_trial","227","625090","0.0-122.0-0.0","""event"",""trial"",""time""
""fullscreenenter"",""0"",""1878""
","
","
","""event"",""trial"",""time""
""fullscreenenter"",""0"",""1878""
","
","561.4000000953674","","","","","","","","50","1,0,0","6","blank","333","null","0.2953411285057236","0.4165181604080835","0.07225575626462728","0","","","","","","","","",""
"","html-keyboard-response","228","626108","0.0-122.0-1.0","""event"",""trial"",""time""
""fullscreenenter"",""0"",""1878""
","
","
","""event"",""trial"",""time""
""fullscreenenter"",""0"",""1878""
","
","null","<p></p>","null","","","","","","","","","","","","","","","","","","","","","","","",""
"","do_recog","229","629707","0.0-123.0-0.0","""event"",""trial"",""time""
""fullscreenenter"",""0"",""1878""
","
","
","""event"",""trial"",""time""
""fullscreenenter"",""0"",""1878""
","
","2076.600000023842","","","","","","","","53","","","","334","probe-233","","","","","0","[object Object]","null","null","0","","","",""
"","html-keyboard-response","230","630725","0.0-123.0-1.0","""event"",""trial"",""time""
""fullscreenenter"",""0"",""1878""
","
","
","""event"",""trial"",""time""
""fullscreenenter"",""0"",""1878""
","
","null","<p></p>","null","","","","","","","","","","","","","","","","","","","","","","","",""
"","do_trial","231","635376","0.0-124.0-0.0","""event"",""trial"",""time""
""fullscreenenter"",""0"",""1878""
","
","
","""event"",""trial"",""time""
""fullscreenenter"",""0"",""1878""
","
","2081.3000000715256","","","","","","","","50","0,0,0","6","blank","335","null","0.2674830350503088","0.5252027445413638","0.14944760359007728","0","","","","","","","","",""
"","html-keyboard-response","232","636393","0.0-124.0-1.0","""event"",""trial"",""time""
""fullscreenenter"",""0"",""1878""
","
","
","""event"",""trial"",""time""
""fullscreenenter"",""0"",""1878""
","
","null","<p></p>","null","","","","","","","","","","","","","","","","","","","","","","","",""
"","do_trial","233","639310","0.0-125.0-0.0","""event"",""trial"",""time""
""fullscreenenter"",""0"",""1878""
","
","
","""event"",""trial"",""time""
""fullscreenenter"",""0"",""1878""
","
","297.89999997615814","","","","","","","","50","1,1,1","6","blank","336","null","0.4728791343534704","0.7573804541350028","0.1883832665770665","1","","","","","","","","",""
"","html-keyboard-response","234","640327","0.0-125.0-1.0","""event"",""trial"",""time""
""fullscreenenter"",""0"",""1878""
","
","
","""event"",""trial"",""time""
""fullscreenenter"",""0"",""1878""
","
","null","<p></p>","null","","","","","","","","","","","","","","","","","","","","","","","",""
"","do_trial","235","643479","0.0-126.0-0.0","""event"",""trial"",""time""
""fullscreenenter"",""0"",""1878""
","
","
","""event"",""trial"",""time""
""fullscreenenter"",""0"",""1878""
","
","516.3999999761581","","","","","","","","50","0,1,0","6","blank","337","null","0.38568188315209545","0.6066672553956017","0.1328800148888922","1","","","","","","","","",""
"","html-keyboard-response","236","644484","0.0-126.0-1.0","""event"",""trial"",""time""
""fullscreenenter"",""0"",""1878""
","
","
","""event"",""trial"",""time""
""fullscreenenter"",""0"",""1878""
","
","null","<p></p>","null","","","","","","","","","","","","","","","","","","","","","","","",""
"","do_trial","237","647430","0.0-127.0-0.0","""event"",""trial"",""time""
""fullscreenenter"",""0"",""1878""
","
","
","""event"",""trial"",""time""
""fullscreenenter"",""0"",""1878""
","
","340.8000000715256","","","","","","","","50","1,0,0","6","blank","338","null","0.2978498745259425","0.7018095376039343","0.06100986906775691","0","","","","","","","","",""
"","html-keyboard-response","238","648448","0.0-127.0-1.0","""event"",""trial"",""time""
""fullscreenenter"",""0"",""1878""
","
","
","""event"",""trial"",""time""
""fullscreenenter"",""0"",""1878""
","
","null","<p></p>","null","","","","","","","","","","","","","","","","","","","","","","","",""
"","do_trial","239","651096","0.0-128.0-0.0","""event"",""trial"",""time""
""fullscreenenter"",""0"",""1878""
","
","
","""event"",""trial"",""time""
""fullscreenenter"",""0"",""1878""
","
","14.399999976158142","","","","","","","","50","1,1,0","6","blank","339","null","0.1934048594446065","0.5257369995854331","0.13598260476091958","1","","","","","","","","",""
"","html-keyboard-response","240","652099","0.0-128.0-1.0","""event"",""trial"",""time""
""fullscreenenter"",""0"",""1878""
","
","
","""event"",""trial"",""time""
""fullscreenenter"",""0"",""1878""
","
","null","<p></p>","null","","","","","","","","","","","","","","","","","","","","","","","",""
"","do_trial","241","655042","0.0-129.0-0.0","""event"",""trial"",""time""
""fullscreenenter"",""0"",""1878""
","
","
","""event"",""trial"",""time""
""fullscreenenter"",""0"",""1878""
","
","319.3000000715256","","","","","","","","50","0,1,0","6","blank","340","null","0.1573586337599775","0.36388611293702083","0.24317773719365549","1","","","","","","","","",""
"","html-keyboard-response","242","656049","0.0-129.0-1.0","""event"",""trial"",""time""
""fullscreenenter"",""0"",""1878""
","
","
","""event"",""trial"",""time""
""fullscreenenter"",""0"",""1878""
","
","null","<p></p>","null","","","","","","","","","","","","","","","","","","","","","","","",""
"","do_trial","243","659266","0.0-130.0-0.0","""event"",""trial"",""time""
""fullscreenenter"",""0"",""1878""
","
","
","""event"",""trial"",""time""
""fullscreenenter"",""0"",""1878""
","
","648.2000000476837","","","","","","","","50","0,1,0","6","blank","341","null","0.1424625923003905","0.496832043137015","0.10925363063777142","1","","","","","","","","",""
"","html-keyboard-response","244","660282","0.0-130.0-1.0","""event"",""trial"",""time""
""fullscreenenter"",""0"",""1878""
","
","
","""event"",""trial"",""time""
""fullscreenenter"",""0"",""1878""
","
","null","<p></p>","null","","","","","","","","","","","","","","","","","","","","","","","",""
"","do_recog","245","663217","0.0-131.0-0.0","""event"",""trial"",""time""
""fullscreenenter"",""0"",""1878""
","
","
","""event"",""trial"",""time""
""fullscreenenter"",""0"",""1878""
","
","1413.2000000476837","","","","","","","","53","","","","342","probe-121","","","","","1","[object Object]","115","2","1","","","",""
"","html-keyboard-response","246","664233","0.0-131.0-1.0","""event"",""trial"",""time""
""fullscreenenter"",""0"",""1878""
","
","
","""event"",""trial"",""time""
""fullscreenenter"",""0"",""1878""
","
","null","<p></p>","null","","","","","","","","","","","","","","","","","","","","","","","",""
"","do_trial","247","668318","0.0-132.0-0.0","""event"",""trial"",""time""
""fullscreenenter"",""0"",""1878""
","
","
","""event"",""trial"",""time""
""fullscreenenter"",""0"",""1878""
","
","1448.6999999284744","","","","","","","","50","0,1,0","6","blank","343","null","0.23460867637070337","0.5120050659655726","0.07223125138083158","1","","","","","","","","",""
"","html-keyboard-response","248","669334","0.0-132.0-1.0","""event"",""trial"",""time""
""fullscreenenter"",""0"",""1878""
","
","
","""event"",""trial"",""time""
""fullscreenenter"",""0"",""1878""
","
","null","<p></p>","null","","","","","","","","","","","","","","","","","","","","","","","",""
"","do_trial","249","672350","0.0-133.0-0.0","""event"",""trial"",""time""
""fullscreenenter"",""0"",""1878""
","
","
","""event"",""trial"",""time""
""fullscreenenter"",""0"",""1878""
","
","387.3000000715256","","","","","","","","50","0,0,0","6","blank","344","null","0.1885426783601136","0.5895475792787105","0.07866708326461523","0","","","","","","","","",""
"","html-keyboard-response","250","673371","0.0-133.0-1.0","""event"",""trial"",""time""
""fullscreenenter"",""0"",""1878""
","
","
","""event"",""trial"",""time""
""fullscreenenter"",""0"",""1878""
","
","null","<p></p>","null","","","","","","","","","","","","","","","","","","","","","","","",""
"","do_trial","251","676303","0.0-134.0-0.0","""event"",""trial"",""time""
""fullscreenenter"",""0"",""1878""
","
","
","""event"",""trial"",""time""
""fullscreenenter"",""0"",""1878""
","
","306","","","","","","","","50","0,1,0","6","blank","345","null","0.1694125302940314","0.5961698746201084","0.0893164444439604","1","","","","","","","","",""
"","html-keyboard-response","252","677320","0.0-134.0-1.0","""event"",""trial"",""time""
""fullscreenenter"",""0"",""1878""
","
","
","""event"",""trial"",""time""
""fullscreenenter"",""0"",""1878""
","
","null","<p></p>","null","","","","","","","","","","","","","","","","","","","","","","","",""
"","do_trial","253","680553","0.0-135.0-0.0","""event"",""trial"",""time""
""fullscreenenter"",""0"",""1878""
","
","
","""event"",""trial"",""time""
""fullscreenenter"",""0"",""1878""
","
","672.1999999284744","","","","","","","","50","0,1,0","6","blank","346","null","0.31358111093629804","0.36935766359755084","0.25083478092349754","1","","","","","","","","",""
"","html-keyboard-response","254","681571","0.0-135.0-1.0","""event"",""trial"",""time""
""fullscreenenter"",""0"",""1878""
","
","
","""event"",""trial"",""time""
""fullscreenenter"",""0"",""1878""
","
","null","<p></p>","null","","","","","","","","","","","","","","","","","","","","","","","",""
"","do_recog","255","684739","0.0-136.0-0.0","""event"",""trial"",""time""
""fullscreenenter"",""0"",""1878""
","
","
","""event"",""trial"",""time""
""fullscreenenter"",""0"",""1878""
","
","1654.8999999761581","","","","","","","","53","","","","347","probe-75","","","","","1","[object Object]","117","2","1","","","",""
"","html-keyboard-response","256","685756","0.0-136.0-1.0","""event"",""trial"",""time""
""fullscreenenter"",""0"",""1878""
","
","
","""event"",""trial"",""time""
""fullscreenenter"",""0"",""1878""
","
","null","<p></p>","null","","","","","","","","","","","","","","","","","","","","","","","",""
"","do_trial","257","689575","0.0-137.0-0.0","""event"",""trial"",""time""
""fullscreenenter"",""0"",""1878""
","
","
","""event"",""trial"",""time""
""fullscreenenter"",""0"",""1878""
","
","1198.2999999523163","","","","","","","","50","0,0,1","6","blank","348","null","0.34063049654376387","0.35167681531359846","0.37732293993394317","0","","","","","","","","",""
"","html-keyboard-response","258","690593","0.0-137.0-1.0","""event"",""trial"",""time""
""fullscreenenter"",""0"",""1878""
","
","
","""event"",""trial"",""time""
""fullscreenenter"",""0"",""1878""
","
","null","<p></p>","null","","","","","","","","","","","","","","","","","","","","","","","",""
"","break","259","691565","0.0-138.0-0.0","""event"",""trial"",""time""
""fullscreenenter"",""0"",""1878""
","
","
","""event"",""trial"",""time""
""fullscreenenter"",""0"",""1878""
","
","969.7000000476837","<div class='center'><p>Time to take a quick break! You have 2 minutes to rest, but you can move on sooner if you'd like.</p><p> Press the <b>space bar</b> to continue.</p></div>","32","","","","","","","","","","","","","","","","","","","","","","","",""
"","do_trial","260","694813","0.0-138.0-1.0","""event"",""trial"",""time""
""fullscreenenter"",""0"",""1878""
","
","
","""event"",""trial"",""time""
""fullscreenenter"",""0"",""1878""
","
","611.0999999046326","","","","","","","","50","0,0,0","6","blank","349","null","0.34650518474819925","0.09251077699516982","0.5072818706542729","0","","","","","","","","",""
"","html-keyboard-response","261","695825","0.0-138.0-2.0","""event"",""trial"",""time""
""fullscreenenter"",""0"",""1878""
","
","
","""event"",""trial"",""time""
""fullscreenenter"",""0"",""1878""
","
","null","<p></p>","null","","","","","","","","","","","","","","","","","","","","","","","",""
"","do_recog","262","699727","0.0-139.0-0.0","""event"",""trial"",""time""
""fullscreenenter"",""0"",""1878""
","
","
","""event"",""trial"",""time""
""fullscreenenter"",""0"",""1878""
","
","2379","","","","","","","","53","","","","350","probe-51","","","","","1","[object Object]","159","3","1","","","",""
"","html-keyboard-response","263","700744","0.0-139.0-1.0","""event"",""trial"",""time""
""fullscreenenter"",""0"",""1878""
","
","
","""event"",""trial"",""time""
""fullscreenenter"",""0"",""1878""
","
","null","<p></p>","null","","","","","","","","","","","","","","","","","","","","","","","",""
"","do_trial","264","704244","0.0-140.0-0.0","""event"",""trial"",""time""
""fullscreenenter"",""0"",""1878""
","
","
","""event"",""trial"",""time""
""fullscreenenter"",""0"",""1878""
","
","864","","","","","","","","50","1,0,0","6","blank","351","null","0.46508660612554553","0.11989488994892987","0.5254169650350945","0","","","","","","","","",""
"","html-keyboard-response","265","705260","0.0-140.0-1.0","""event"",""trial"",""time""
""fullscreenenter"",""0"",""1878""
","
","
","""event"",""trial"",""time""
""fullscreenenter"",""0"",""1878""
","
","null","<p></p>","null","","","","","","","","","","","","","","","","","","","","","","","",""
"","do_recog","266","708846","0.0-141.0-0.0","""event"",""trial"",""time""
""fullscreenenter"",""0"",""1878""
","
","
","""event"",""trial"",""time""
""fullscreenenter"",""0"",""1878""
","
","2064.9000000953674","","","","","","","","56","","","","352","probe-250","","","","","0","[object Object]","null","null","1","","","",""
"","html-keyboard-response","267","709862","0.0-141.0-1.0","""event"",""trial"",""time""
""fullscreenenter"",""0"",""1878""
","
","
","""event"",""trial"",""time""
""fullscreenenter"",""0"",""1878""
","
","null","<p></p>","null","","","","","","","","","","","","","","","","","","","","","","","",""
"","do_trial","268","713446","0.0-142.0-0.0","""event"",""trial"",""time""
""fullscreenenter"",""0"",""1878""
","
","
","""event"",""trial"",""time""
""fullscreenenter"",""0"",""1878""
","
","1022.7000000476837","","","","","","","","50","1,0,0","6","blank","353","null","0.5451502658740826","0.1427178149039533","0.6176550122057983","0","","","","","","","","",""
"","html-keyboard-response","269","714477","0.0-142.0-1.0","""event"",""trial"",""time""
""fullscreenenter"",""0"",""1878""
","
","
","""event"",""trial"",""time""
""fullscreenenter"",""0"",""1878""
","
","null","<p></p>","null","","","","","","","","","","","","","","","","","","","","","","","",""
"","do_trial","270","717580","0.0-143.0-0.0","""event"",""trial"",""time""
""fullscreenenter"",""0"",""1878""
","
","
","""event"",""trial"",""time""
""fullscreenenter"",""0"",""1878""
","
","484.7999999523163","","","","","","","","50","0,0,1","6","blank","354","null","0.41691940764376456","0.15489398069112326","0.5690239630328345","0","","","","","","","","",""
"","html-keyboard-response","271","718585","0.0-143.0-1.0","""event"",""trial"",""time""
""fullscreenenter"",""0"",""1878""
","
","
","""event"",""trial"",""time""
""fullscreenenter"",""0"",""1878""
","
","null","<p></p>","null","","","","","","","","","","","","","","","","","","","","","","","",""
"","do_recog","272","721635","0.0-144.0-0.0","""event"",""trial"",""time""
""fullscreenenter"",""0"",""1878""
","
","
","""event"",""trial"",""time""
""fullscreenenter"",""0"",""1878""
","
","1520.7999999523163","","","","","","","","53","","","","355","probe-63","","","","","1","[object Object]","154","3","1","","","",""
"","html-keyboard-response","273","722648","0.0-144.0-1.0","""event"",""trial"",""time""
""fullscreenenter"",""0"",""1878""
","
","
","""event"",""trial"",""time""
""fullscreenenter"",""0"",""1878""
","
","null","<p></p>","null","","","","","","","","","","","","","","","","","","","","","","","",""
"","do_trial","274","725764","0.0-145.0-0.0","""event"",""trial"",""time""
""fullscreenenter"",""0"",""1878""
","
","
","""event"",""trial"",""time""
""fullscreenenter"",""0"",""1878""
","
","486.5","","","","","","","","50","1,0,0","6","blank","356","null","0.3429421752158967","0.170686066437003","0.5033449592582905","0","","","","","","","","",""
"","html-keyboard-response","275","726772","0.0-145.0-1.0","""event"",""trial"",""time""
""fullscreenenter"",""0"",""1878""
","
","
","""event"",""trial"",""time""
""fullscreenenter"",""0"",""1878""
","
","null","<p></p>","null","","","","","","","","","","","","","","","","","","","","","","","",""
"","do_recog","276","730534","0.0-146.0-0.0","""event"",""trial"",""time""
""fullscreenenter"",""0"",""1878""
","
","
","""event"",""trial"",""time""
""fullscreenenter"",""0"",""1878""
","
","2248.2999999523163","","","","","","","","56","","","","357","probe-26","","","","","1","[object Object]","197","4","0","","","",""
