"success","trial_type","trial_index","time_elapsed","internal_node_id","interactions","blur_events","focus_events","fullscreenenter_events","fullscreenexit_events","rt","stimulus","key_press","subject_id","participant_id","age","gender","prompt","response","choice_outcomes","context_n","context_img_id","trial_n","probe_img_id","pR_red","pR_white","pR_black","outcome","is_valid","image_to_show","probed_trial","probed_context","correct","probe","probed_trial_n","probed_context_n","context_im"
"true","fullscreen","0","7783","0.0-0.0","""event"",""trial"",""time""
""blur"",""0"",""0""
""focus"",""0"",""6638""
""fullscreenenter"",""0"",""6820""
","""event"",""trial"",""time""
""blur"",""0"",""0""
","""event"",""trial"",""time""
""focus"",""0"",""6638""
","""event"",""trial"",""time""
""fullscreenenter"",""0"",""6820""
","
","","","","","","","","","","","","","","","","","","","","","","","","","","",""
"","pavlovia","1","7788","0.0-1.0","""event"",""trial"",""time""
""blur"",""0"",""0""
""focus"",""0"",""6638""
""fullscreenenter"",""0"",""6820""
","""event"",""trial"",""time""
""blur"",""0"",""0""
","""event"",""trial"",""time""
""focus"",""0"",""6638""
","""event"",""trial"",""time""
""fullscreenenter"",""0"",""6820""
","
","","","","","","","","","","","","","","","","","","","","","","","","","","",""
"","welc_back","2","17630","0.0-2.0","""event"",""trial"",""time""
""blur"",""0"",""0""
""focus"",""0"",""6638""
""fullscreenenter"",""0"",""6820""
","""event"",""trial"",""time""
""blur"",""0"",""0""
","""event"",""trial"",""time""
""focus"",""0"",""6638""
","""event"",""trial"",""time""
""fullscreenenter"",""0"",""6820""
","
","null","run_exp/static/audio/clip_29_welcome_back.m4a","null","883","816","8","Female","<div class='center'><p>Welcome to day 2!</p><p> Yesterday, you were the head captain of a pirate ship. You asked your fellow pirates to rob other ships of their gold across six different islands.</p></div>","","","","","","","","","","","","","","","","","","",""
"","html-keyboard-response","3","18874","0.0-3.0","""event"",""trial"",""time""
""blur"",""0"",""0""
""focus"",""0"",""6638""
""fullscreenenter"",""0"",""6820""
","""event"",""trial"",""time""
""blur"",""0"",""0""
","""event"",""trial"",""time""
""focus"",""0"",""6638""
","""event"",""trial"",""time""
""fullscreenenter"",""0"",""6820""
","
","1241.8000000715256","<div class='center'><p>Welcome to day 2!</p><p> Yesterday, you were the head captain of a pirate ship. You asked your fellow pirates to rob other ships of their gold across six different islands.</p><p><b>[Press the space bar to continue]</b></p></div>","32","","","","","","","","","","","","","","","","","","","","","","","",""
"","day_1_summary_goal","4","36103","0.0-4.0","""event"",""trial"",""time""
""blur"",""0"",""0""
""focus"",""0"",""6638""
""fullscreenenter"",""0"",""6820""
","""event"",""trial"",""time""
""blur"",""0"",""0""
","""event"",""trial"",""time""
""focus"",""0"",""6638""
","""event"",""trial"",""time""
""fullscreenenter"",""0"",""6820""
","
","null","run_exp/static/audio/clip_30_goal_of_game.m4a","null","","","","","<div class='center'><p>Today, like yesterday, you get to pick which pirate you want to rob the next ship.</p><p>If the pirate is successful in robbing a ship, you get gold coins that look like this: </p><p><img src='run_exp/static/images/tutorial/reward.png' height='150'></p><p> If they were not successful in robbing the ship, then you will get no gold coins and you'll see a big red x like this: </p><p><img src='run_exp/static/images/tutorial/reward_no.png' height='150'></p></div>","","","","","","","","","","","","","","","","","","",""
"","html-keyboard-response","5","37430","0.0-5.0","""event"",""trial"",""time""
""blur"",""0"",""0""
""focus"",""0"",""6638""
""fullscreenenter"",""0"",""6820""
","""event"",""trial"",""time""
""blur"",""0"",""0""
","""event"",""trial"",""time""
""focus"",""0"",""6638""
","""event"",""trial"",""time""
""fullscreenenter"",""0"",""6820""
","
","1322","<div class='center'><p>Today, like yesterday, you get to pick which pirate you want to rob the next ship.</p><p>If the pirate is successful in robbing a ship, you get gold coins that look like this: </p><p><img src='run_exp/static/images/tutorial/reward.png' height='150'></p><p> If they were not successful in robbing the ship, then you will get no gold coins and you'll see a big red x like this: </p><p><img src='run_exp/static/images/tutorial/reward_no.png' height='150'></p><p><b>[Press the space bar to continue]</b></p></div>","32","","","","","","","","","","","","","","","","","","","","","","","",""
"","day_1_summary_pick","6","52127","0.0-6.0","""event"",""trial"",""time""
""blur"",""0"",""0""
""focus"",""0"",""6638""
""fullscreenenter"",""0"",""6820""
","""event"",""trial"",""time""
""blur"",""0"",""0""
","""event"",""trial"",""time""
""focus"",""0"",""6638""
","""event"",""trial"",""time""
""fullscreenenter"",""0"",""6820""
","
","null","run_exp/static/audio/clip_31_how_to_pick_a_pirate.m4a","null","","","","","<div class='center'><p>Also, just like yesterday, you will use the 1,2,3 keys on your keyboard to pick a pirate. Press '1' to choose red beard, '2' to choose white beard, and '3' to choose black beard . You only have 3 seconds to pick a pirate, so please make a choice quickly!</p></div>","","","","","","","","","","","","","","","","","","",""
"","html-keyboard-response","7","55446","0.0-7.0","""event"",""trial"",""time""
""blur"",""0"",""0""
""focus"",""0"",""6638""
""fullscreenenter"",""0"",""6820""
","""event"",""trial"",""time""
""blur"",""0"",""0""
","""event"",""trial"",""time""
""focus"",""0"",""6638""
","""event"",""trial"",""time""
""fullscreenenter"",""0"",""6820""
","
","3316.7999999523163","<div class='center'><p>Also, just like yesterday, you will use the 1,2,3 keys on your keyboard to pick a pirate. Press '1' to choose red beard, '2' to choose white beard, and '3' to choose black beard . You only have 3 seconds to pick a pirate, so please make a choice quickly!</p><p><b>[Press the space bar to continue]</b></p></div>","32","","","","","","","","","","","","","","","","","","","","","","","",""
"","test_phase_begin","8","85832","0.0-8.0","""event"",""trial"",""time""
""blur"",""0"",""0""
""focus"",""0"",""6638""
""fullscreenenter"",""0"",""6820""
","""event"",""trial"",""time""
""blur"",""0"",""0""
","""event"",""trial"",""time""
""focus"",""0"",""6638""
","""event"",""trial"",""time""
""fullscreenenter"",""0"",""6820""
","
","null","run_exp/static/audio/clip_32_final_place.m4a","null","","","","","<div class='center'><p>You’ve arrived at the final island of your journey! Unfortunately, it’s very foggy out, so you won’t be able to see it in the distance like the other islands you've visited.</p><p>You’ll still be deciding which pirate you want to rob a ship like before. However, because of the fog, you also won’t be able to see the ship.</p><p>This means you do not have to remember the ships you rob on this island.</p><p>Unlike yesterday, you won't be visiting multiple islands today. You will stay on this island for the entire game. This game will last ~30 minutes.</p></div>","","","","","","","","","","","","","","","","","","",""
"","html-keyboard-response","9","86768","0.0-9.0","""event"",""trial"",""time""
""blur"",""0"",""0""
""focus"",""0"",""6638""
""fullscreenenter"",""0"",""6820""
","""event"",""trial"",""time""
""blur"",""0"",""0""
","""event"",""trial"",""time""
""focus"",""0"",""6638""
","""event"",""trial"",""time""
""fullscreenenter"",""0"",""6820""
","
","934.3999999761581","<div class='center'><p>You’ve arrived at the final island of your journey! Unfortunately, it’s very foggy out, so you won’t be able to see it in the distance like the other islands you've visited.</p><p>You’ll still be deciding which pirate you want to rob a ship like before. However, because of the fog, you also won’t be able to see the ship.</p><p>This means you do not have to remember the ships you rob on this island.</p><p>Unlike yesterday, you won't be visiting multiple islands today. You will stay on this island for the entire game. This game will last ~30 minutes.</p><p><b>[Press the space bar to continue]</b></p></div>","32","","","","","","","","","","","","","","","","","","","","","","","",""
"","explain_probe_1","10","94472","0.0-10.0","""event"",""trial"",""time""
""blur"",""0"",""0""
""focus"",""0"",""6638""
""fullscreenenter"",""0"",""6820""
","""event"",""trial"",""time""
""blur"",""0"",""0""
","""event"",""trial"",""time""
""focus"",""0"",""6638""
","""event"",""trial"",""time""
""fullscreenenter"",""0"",""6820""
","
","null","run_exp/static/audio/clip_33_recognition_1.m4a","null","","","","","<div class='center'><p> Sometimes you’ll be shown a ship, and you will be asked if you saw this ship on a past island.</p><p> Here is an example of what you will see.</p><p><img src='run_exp/static/images/tutorial/example_recog_trial.png' height='500'></p></div>","","","","","","","","","","","","","","","","","","",""
"","html-keyboard-response","11","99512","0.0-11.0","""event"",""trial"",""time""
""blur"",""0"",""0""
""focus"",""0"",""6638""
""fullscreenenter"",""0"",""6820""
","""event"",""trial"",""time""
""blur"",""0"",""0""
","""event"",""trial"",""time""
""focus"",""0"",""6638""
","""event"",""trial"",""time""
""fullscreenenter"",""0"",""6820""
","
","5037.100000023842","<div class='center'><p> Sometimes you’ll be shown a ship, and you will be asked if you saw this ship on a past island.</p><p> Here is an example of what you will see.</p><p><img src='run_exp/static/images/tutorial/example_recog_trial.png' height='500'></p><p><b>[Press the space bar to continue]</b></p></div>","32","","","","","","","","","","","","","","","","","","","","","","","",""
"","explain_probe_2","12","121223","0.0-12.0","""event"",""trial"",""time""
""blur"",""0"",""0""
""focus"",""0"",""6638""
""fullscreenenter"",""0"",""6820""
","""event"",""trial"",""time""
""blur"",""0"",""0""
","""event"",""trial"",""time""
""focus"",""0"",""6638""
","""event"",""trial"",""time""
""fullscreenenter"",""0"",""6820""
","
","null","run_exp/static/audio/clip_34_recognition_2.m4a","null","","","","","<div class='center'><p> You will press the 5, 6, 7, 8 keys on your keyboard to respond.</p><p>If you are sure you saw the ship, press <b>5</b> on your keyboard.</p><p> If you think you saw it before but aren't sure, then press <b>6</b>.</p><p> If you think you have <b>not</b> seen it before but aren't sure, then press <b>7</b>.</p><p> If you are sure you did <b>not</b> see the ship before, then press <b>8</b>.</p><p><img src='run_exp/static/images/tutorial/example_recog_trial.png' height='500'></p></div>","","","","","","","","","","","","","","","","","","",""
"","html-keyboard-response","13","124866","0.0-13.0","""event"",""trial"",""time""
""blur"",""0"",""0""
""focus"",""0"",""6638""
""fullscreenenter"",""0"",""6820""
","""event"",""trial"",""time""
""blur"",""0"",""0""
","""event"",""trial"",""time""
""focus"",""0"",""6638""
","""event"",""trial"",""time""
""fullscreenenter"",""0"",""6820""
","
","3641.2999999523163","<div class='center'><p> You will press the 5, 6, 7, 8 keys on your keyboard to respond.</p><p>If you are sure you saw the ship, press <b>5</b> on your keyboard.</p><p> If you think you saw it before but aren't sure, then press <b>6</b>.</p><p> If you think you have <b>not</b> seen it before but aren't sure, then press <b>7</b>.</p><p> If you are sure you did <b>not</b> see the ship before, then press <b>8</b>.</p><p><img src='run_exp/static/images/tutorial/example_recog_trial.png' height='500'></p><p><b>[Press the space bar to continue]</b></p></div>","32","","","","","","","","","","","","","","","","","","","","","","","",""
"","explain_outcome","14","142066","0.0-14.0","""event"",""trial"",""time""
""blur"",""0"",""0""
""focus"",""0"",""6638""
""fullscreenenter"",""0"",""6820""
","""event"",""trial"",""time""
""blur"",""0"",""0""
","""event"",""trial"",""time""
""focus"",""0"",""6638""
","""event"",""trial"",""time""
""fullscreenenter"",""0"",""6820""
","
","null","run_exp/static/audio/clip_35_recognition_3.m4a","null","","","","","<div class='center'><p> If you remember correctly, then you’ll get a gold coin like this: </p><p><img src='run_exp/static/images/tutorial/reward_small.png' height='200'></p><p>If you do not remember correctly, then you'll see a red x like this: </p><p><img src='run_exp/static/images/tutorial/reward_no.png' height='200'></p><p>Importantly, when you are shown a ship, take the time to remind yourself which island you saw it on. This will help you in the next part of the study.</p></div>","","","","","","","","","","","","","","","","","","",""
"","html-keyboard-response","15","143443","0.0-15.0","""event"",""trial"",""time""
""blur"",""0"",""0""
""focus"",""0"",""6638""
""fullscreenenter"",""0"",""6820""
","""event"",""trial"",""time""
""blur"",""0"",""0""
","""event"",""trial"",""time""
""focus"",""0"",""6638""
","""event"",""trial"",""time""
""fullscreenenter"",""0"",""6820""
","
","1374.5999999046326","<div class='center'><p> If you remember correctly, then you’ll get a gold coin like this: </p><p><img src='run_exp/static/images/tutorial/reward_small.png' height='200'></p><p>If you do not remember correctly, then you'll see a red x like this: </p><p><img src='run_exp/static/images/tutorial/reward_no.png' height='200'></p><p>Importantly, when you are shown a ship, take the time to remind yourself which island you saw it on. This will help you in the next part of the study.</p><p><b>[Press the space bar to continue]</b></p></div>","32","","","","","","","","","","","","","","","","","","","","","","","",""
"","begin_test_phase","16","159260","0.0-16.0","""event"",""trial"",""time""
""blur"",""0"",""0""
""focus"",""0"",""6638""
""fullscreenenter"",""0"",""6820""
","""event"",""trial"",""time""
""blur"",""0"",""0""
","""event"",""trial"",""time""
""focus"",""0"",""6638""
","""event"",""trial"",""time""
""fullscreenenter"",""0"",""6820""
","
","null","run_exp/static/audio/clip_36_begin_final.m4a","null","","","","","<div class='center'><p>Let's go over the important points again. Your job is to: </p><p>1. Pick the pirate who is best at robbing ships and will bring you back gold coins. </p><p>2. Correctly remember whether or not you saw a ship before. If you did see the ship before, remind yourself on which island you saw it. </p></div>","","","","","","","","","","","","","","","","","","",""
"","html-keyboard-response","17","182058","0.0-17.0","""event"",""trial"",""time""
""blur"",""0"",""0""
""focus"",""0"",""6638""
""fullscreenenter"",""0"",""6820""
","""event"",""trial"",""time""
""blur"",""0"",""0""
","""event"",""trial"",""time""
""focus"",""0"",""6638""
","""event"",""trial"",""time""
""fullscreenenter"",""0"",""6820""
","
","22760.199999928474","<div class='center'><p>Let's go over the important points again. Your job is to: </p><p>1. Pick the pirate who is best at robbing ships and will bring you back gold coins. </p><p>2. Correctly remember whether or not you saw a ship before. If you did see the ship before, remind yourself on which island you saw it. </p><p><b>[Press the space bar to continue]</b></p></div>","32","","","","","","","","","","","","","","","","","","","","","","","",""
"","do_welcome","18","186094","0.0-18.0","""event"",""trial"",""time""
""blur"",""0"",""0""
""focus"",""0"",""6638""
""fullscreenenter"",""0"",""6820""
","""event"",""trial"",""time""
""blur"",""0"",""0""
","""event"",""trial"",""time""
""focus"",""0"",""6638""
","""event"",""trial"",""time""
""fullscreenenter"",""0"",""6820""
","
","null","","","","","","","","null","","","","","","","","","","","","","","","","","",""
"","do_trial","19","192163","0.0-19.0-0.0","""event"",""trial"",""time""
""blur"",""0"",""0""
""focus"",""0"",""6638""
""fullscreenenter"",""0"",""6820""
","""event"",""trial"",""time""
""blur"",""0"",""0""
","""event"",""trial"",""time""
""focus"",""0"",""6638""
","""event"",""trial"",""time""
""fullscreenenter"",""0"",""6820""
","
","null","","","","","","","","null","0,0,1","6","blank","230","null","0.29804074209423675","0.18784194235032609","0.6293720745500346","","","","","","","","","",""
"","html-keyboard-response","20","193187","0.0-19.0-1.0","""event"",""trial"",""time""
""blur"",""0"",""0""
""focus"",""0"",""6638""
""fullscreenenter"",""0"",""6820""
","""event"",""trial"",""time""
""blur"",""0"",""0""
","""event"",""trial"",""time""
""focus"",""0"",""6638""
","""event"",""trial"",""time""
""fullscreenenter"",""0"",""6820""
","
","null","<p></p>","null","","","","","","","","","","","","","","","","","","","","","","","",""
"","do_trial","21","196898","0.0-20.0-0.0","""event"",""trial"",""time""
""blur"",""0"",""0""
""focus"",""0"",""6638""
""fullscreenenter"",""0"",""6820""
","""event"",""trial"",""time""
""blur"",""0"",""0""
","""event"",""trial"",""time""
""focus"",""0"",""6638""
","""event"",""trial"",""time""
""fullscreenenter"",""0"",""6820""
","
","1152.7000000476837","","","","","","","","50","1,0,1","6","blank","231","null","0.26235456794756906","0.2185148708255864","0.6507293967735102","0","","","","","","","","",""
"","html-keyboard-response","22","197902","0.0-20.0-1.0","""event"",""trial"",""time""
""blur"",""0"",""0""
""focus"",""0"",""6638""
""fullscreenenter"",""0"",""6820""
","""event"",""trial"",""time""
""blur"",""0"",""0""
","""event"",""trial"",""time""
""focus"",""0"",""6638""
","""event"",""trial"",""time""
""fullscreenenter"",""0"",""6820""
","
","null","<p></p>","null","","","","","","","","","","","","","","","","","","","","","","","",""
"","do_trial","23","201113","0.0-21.0-0.0","""event"",""trial"",""time""
""blur"",""0"",""0""
""focus"",""0"",""6638""
""fullscreenenter"",""0"",""6820""
","""event"",""trial"",""time""
""blur"",""0"",""0""
","""event"",""trial"",""time""
""focus"",""0"",""6638""
","""event"",""trial"",""time""
""fullscreenenter"",""0"",""6820""
","
","648.2000000476837","","","","","","","","49","0,0,1","6","blank","232","null","0.4019938014778076","0.09395162158346039","0.6572659207484459","0","","","","","","","","",""
"","html-keyboard-response","24","202117","0.0-21.0-1.0","""event"",""trial"",""time""
""blur"",""0"",""0""
""focus"",""0"",""6638""
""fullscreenenter"",""0"",""6820""
","""event"",""trial"",""time""
""blur"",""0"",""0""
","""event"",""trial"",""time""
""focus"",""0"",""6638""
","""event"",""trial"",""time""
""fullscreenenter"",""0"",""6820""
","
","null","<p></p>","null","","","","","","","","","","","","","","","","","","","","","","","",""
"","do_trial","25","205225","0.0-22.0-0.0","""event"",""trial"",""time""
""blur"",""0"",""0""
""focus"",""0"",""6638""
""fullscreenenter"",""0"",""6820""
","""event"",""trial"",""time""
""blur"",""0"",""0""
","""event"",""trial"",""time""
""focus"",""0"",""6638""
","""event"",""trial"",""time""
""fullscreenenter"",""0"",""6820""
","
","545.1000000238419","","","","","","","","51","0,0,1","6","blank","233","null","0.4017725873378787","0.0959902144924564","0.6919075408340709","1","","","","","","","","",""
"","html-keyboard-response","26","206229","0.0-22.0-1.0","""event"",""trial"",""time""
""blur"",""0"",""0""
""focus"",""0"",""6638""
""fullscreenenter"",""0"",""6820""
","""event"",""trial"",""time""
""blur"",""0"",""0""
","""event"",""trial"",""time""
""focus"",""0"",""6638""
","""event"",""trial"",""time""
""fullscreenenter"",""0"",""6820""
","
","null","<p></p>","null","","","","","","","","","","","","","","","","","","","","","","","",""
"","do_trial","27","208825","0.0-23.0-0.0","""event"",""trial"",""time""
""blur"",""0"",""0""
""focus"",""0"",""6638""
""fullscreenenter"",""0"",""6820""
","""event"",""trial"",""time""
""blur"",""0"",""0""
","""event"",""trial"",""time""
""focus"",""0"",""6638""
","""event"",""trial"",""time""
""fullscreenenter"",""0"",""6820""
","
","48.89999997615814","","","","","","","","50","0,1,1","6","blank","234","null","0.3716546227279078","0.06632467411907884","0.6553730075835301","1","","","","","","","","",""
"","html-keyboard-response","28","209829","0.0-23.0-1.0","""event"",""trial"",""time""
""blur"",""0"",""0""
""focus"",""0"",""6638""
""fullscreenenter"",""0"",""6820""
","""event"",""trial"",""time""
""blur"",""0"",""0""
","""event"",""trial"",""time""
""focus"",""0"",""6638""
","""event"",""trial"",""time""
""fullscreenenter"",""0"",""6820""
","
","null","<p></p>","null","","","","","","","","","","","","","","","","","","","","","","","",""
"","do_trial","29","212739","0.0-24.0-0.0","""event"",""trial"",""time""
""blur"",""0"",""0""
""focus"",""0"",""6638""
""fullscreenenter"",""0"",""6820""
","""event"",""trial"",""time""
""blur"",""0"",""0""
","""event"",""trial"",""time""
""focus"",""0"",""6638""
","""event"",""trial"",""time""
""fullscreenenter"",""0"",""6820""
","
","352.5","","","","","","","","49","0,0,1","6","blank","235","null","0.12964610851292455","0.08967073997412232","0.6910951241837024","0","","","","","","","","",""
"","html-keyboard-response","30","213743","0.0-24.0-1.0","""event"",""trial"",""time""
""blur"",""0"",""0""
""focus"",""0"",""6638""
""fullscreenenter"",""0"",""6820""
","""event"",""trial"",""time""
""blur"",""0"",""0""
","""event"",""trial"",""time""
""focus"",""0"",""6638""
","""event"",""trial"",""time""
""fullscreenenter"",""0"",""6820""
","
","null","<p></p>","null","","","","","","","","","","","","","","","","","","","","","","","",""
"","do_trial","31","216617","0.0-25.0-0.0","""event"",""trial"",""time""
""blur"",""0"",""0""
""focus"",""0"",""6638""
""fullscreenenter"",""0"",""6820""
","""event"",""trial"",""time""
""blur"",""0"",""0""
","""event"",""trial"",""time""
""focus"",""0"",""6638""
","""event"",""trial"",""time""
""fullscreenenter"",""0"",""6820""
","
","306.10000002384186","","","","","","","","51","1,0,0","6","blank","236","null","0.29350851797309596","0.15379473079597475","0.728494409773649","0","","","","","","","","",""
"","html-keyboard-response","32","217620","0.0-25.0-1.0","""event"",""trial"",""time""
""blur"",""0"",""0""
""focus"",""0"",""6638""
""fullscreenenter"",""0"",""6820""
","""event"",""trial"",""time""
""blur"",""0"",""0""
","""event"",""trial"",""time""
""focus"",""0"",""6638""
","""event"",""trial"",""time""
""fullscreenenter"",""0"",""6820""
","
","null","<p></p>","null","","","","","","","","","","","","","","","","","","","","","","","",""
"","do_trial","33","220490","0.0-26.0-0.0","""event"",""trial"",""time""
""blur"",""0"",""0""
""focus"",""0"",""6638""
""fullscreenenter"",""0"",""6820""
","""event"",""trial"",""time""
""blur"",""0"",""0""
","""event"",""trial"",""time""
""focus"",""0"",""6638""
","""event"",""trial"",""time""
""fullscreenenter"",""0"",""6820""
","
","308","","","","","","","","51","0,0,0","6","blank","237","null","0.2754639230236057","0.12004227202917252","0.6469374408151782","0","","","","","","","","",""
"","html-keyboard-response","34","221502","0.0-26.0-1.0","""event"",""trial"",""time""
""blur"",""0"",""0""
""focus"",""0"",""6638""
""fullscreenenter"",""0"",""6820""
","""event"",""trial"",""time""
""blur"",""0"",""0""
","""event"",""trial"",""time""
""focus"",""0"",""6638""
","""event"",""trial"",""time""
""fullscreenenter"",""0"",""6820""
","
","null","<p></p>","null","","","","","","","","","","","","","","","","","","","","","","","",""
"","do_trial","35","224178","0.0-27.0-0.0","""event"",""trial"",""time""
""blur"",""0"",""0""
""focus"",""0"",""6638""
""fullscreenenter"",""0"",""6820""
","""event"",""trial"",""time""
""blur"",""0"",""0""
","""event"",""trial"",""time""
""focus"",""0"",""6638""
","""event"",""trial"",""time""
""fullscreenenter"",""0"",""6820""
","
","121.69999992847443","","","","","","","","50","0,0,1","6","blank","238","null","0.32030313118889153","0.14315240207375957","0.7365757712141646","0","","","","","","","","",""
"","html-keyboard-response","36","225182","0.0-27.0-1.0","""event"",""trial"",""time""
""blur"",""0"",""0""
""focus"",""0"",""6638""
""fullscreenenter"",""0"",""6820""
","""event"",""trial"",""time""
""blur"",""0"",""0""
","""event"",""trial"",""time""
""focus"",""0"",""6638""
","""event"",""trial"",""time""
""fullscreenenter"",""0"",""6820""
","
","null","<p></p>","null","","","","","","","","","","","","","","","","","","","","","","","",""
"","do_trial","37","227855","0.0-28.0-0.0","""event"",""trial"",""time""
""blur"",""0"",""0""
""focus"",""0"",""6638""
""fullscreenenter"",""0"",""6820""
","""event"",""trial"",""time""
""blur"",""0"",""0""
","""event"",""trial"",""time""
""focus"",""0"",""6638""
","""event"",""trial"",""time""
""fullscreenenter"",""0"",""6820""
","
","114.70000004768372","","","","","","","","49","0,0,1","6","blank","239","null","0.3361627409514432","0.10331370439688707","0.5624202785700596","0","","","","","","","","",""
"","html-keyboard-response","38","228859","0.0-28.0-1.0","""event"",""trial"",""time""
""blur"",""0"",""0""
""focus"",""0"",""6638""
""fullscreenenter"",""0"",""6820""
","""event"",""trial"",""time""
""blur"",""0"",""0""
","""event"",""trial"",""time""
""focus"",""0"",""6638""
","""event"",""trial"",""time""
""fullscreenenter"",""0"",""6820""
","
","null","<p></p>","null","","","","","","","","","","","","","","","","","","","","","","","",""
"","do_trial","39","232913","0.0-29.0-0.0","""event"",""trial"",""time""
""blur"",""0"",""0""
""focus"",""0"",""6638""
""fullscreenenter"",""0"",""6820""
","""event"",""trial"",""time""
""blur"",""0"",""0""
","""event"",""trial"",""time""
""focus"",""0"",""6638""
","""event"",""trial"",""time""
""fullscreenenter"",""0"",""6820""
","
","1487.5","","","","","","","","50","0,0,1","6","blank","240","null","0.3437791948441574","0.08593976095864495","0.6049957483853357","0","","","","","","","","",""
"","html-keyboard-response","40","233917","0.0-29.0-1.0","""event"",""trial"",""time""
""blur"",""0"",""0""
""focus"",""0"",""6638""
""fullscreenenter"",""0"",""6820""
","""event"",""trial"",""time""
""blur"",""0"",""0""
","""event"",""trial"",""time""
""focus"",""0"",""6638""
","""event"",""trial"",""time""
""fullscreenenter"",""0"",""6820""
","
","null","<p></p>","null","","","","","","","","","","","","","","","","","","","","","","","",""
"","do_trial","41","237091","0.0-30.0-0.0","""event"",""trial"",""time""
""blur"",""0"",""0""
""focus"",""0"",""6638""
""fullscreenenter"",""0"",""6820""
","""event"",""trial"",""time""
""blur"",""0"",""0""
","""event"",""trial"",""time""
""focus"",""0"",""6638""
","""event"",""trial"",""time""
""fullscreenenter"",""0"",""6820""
","
","623.6000000238419","","","","","","","","50","0,0,0","6","blank","241","null","0.5501897246693224","0.08354471996698433","0.6418815105266192","0","","","","","","","","",""
"","html-keyboard-response","42","238095","0.0-30.0-1.0","""event"",""trial"",""time""
""blur"",""0"",""0""
""focus"",""0"",""6638""
""fullscreenenter"",""0"",""6820""
","""event"",""trial"",""time""
""blur"",""0"",""0""
","""event"",""trial"",""time""
""focus"",""0"",""6638""
","""event"",""trial"",""time""
""fullscreenenter"",""0"",""6820""
","
","null","<p></p>","null","","","","","","","","","","","","","","","","","","","","","","","",""
"","do_trial","43","240973","0.0-31.0-0.0","""event"",""trial"",""time""
""blur"",""0"",""0""
""focus"",""0"",""6638""
""fullscreenenter"",""0"",""6820""
","""event"",""trial"",""time""
""blur"",""0"",""0""
","""event"",""trial"",""time""
""focus"",""0"",""6638""
","""event"",""trial"",""time""
""fullscreenenter"",""0"",""6820""
","
","321.2000000476837","","","","","","","","51","1,0,1","6","blank","242","null","0.5834523056944269","0.2814938867368776","0.36550396058664","1","","","","","","","","",""
"","html-keyboard-response","44","241977","0.0-31.0-1.0","""event"",""trial"",""time""
""blur"",""0"",""0""
""focus"",""0"",""6638""
""fullscreenenter"",""0"",""6820""
","""event"",""trial"",""time""
""blur"",""0"",""0""
","""event"",""trial"",""time""
""focus"",""0"",""6638""
","""event"",""trial"",""time""
""fullscreenenter"",""0"",""6820""
","
","null","<p></p>","null","","","","","","","","","","","","","","","","","","","","","","","",""
"","do_recog","45","248002","0.0-32.0-0.0","""event"",""trial"",""time""
""blur"",""0"",""0""
""focus"",""0"",""6638""
""fullscreenenter"",""0"",""6820""
","""event"",""trial"",""time""
""blur"",""0"",""0""
","""event"",""trial"",""time""
""focus"",""0"",""6638""
","""event"",""trial"",""time""
""fullscreenenter"",""0"",""6820""
","
","null","","","","","","","","null","","","","243","probe-240","","","","","0","[object Object]","null","null","0","","","",""
"","html-keyboard-response","46","249005","0.0-32.0-1.0","""event"",""trial"",""time""
""blur"",""0"",""0""
""focus"",""0"",""6638""
""fullscreenenter"",""0"",""6820""
","""event"",""trial"",""time""
""blur"",""0"",""0""
","""event"",""trial"",""time""
""focus"",""0"",""6638""
","""event"",""trial"",""time""
""fullscreenenter"",""0"",""6820""
","
","null","<p></p>","null","","","","","","","","","","","","","","","","","","","","","","","",""
"","do_trial","47","254212","0.0-33.0-0.0","""event"",""trial"",""time""
""blur"",""0"",""0""
""focus"",""0"",""6638""
""fullscreenenter"",""0"",""6820""
","""event"",""trial"",""time""
""blur"",""0"",""0""
","""event"",""trial"",""time""
""focus"",""0"",""6638""
","""event"",""trial"",""time""
""fullscreenenter"",""0"",""6820""
","
","2645.399999976158","","","","","","","","50","1,0,0","6","blank","244","null","0.6147761879432142","0.20494018633166997","0.2328376561101669","0","","","","","","","","",""
"","html-keyboard-response","48","255228","0.0-33.0-1.0","""event"",""trial"",""time""
""blur"",""0"",""0""
""focus"",""0"",""6638""
""fullscreenenter"",""0"",""6820""
","""event"",""trial"",""time""
""blur"",""0"",""0""
","""event"",""trial"",""time""
""focus"",""0"",""6638""
","""event"",""trial"",""time""
""fullscreenenter"",""0"",""6820""
","
","null","<p></p>","null","","","","","","","","","","","","","","","","","","","","","","","",""
"","do_recog","49","259268","0.0-34.0-0.0","""event"",""trial"",""time""
""blur"",""0"",""0""
""focus"",""0"",""6638""
""fullscreenenter"",""0"",""6820""
","""event"",""trial"",""time""
""blur"",""0"",""0""
","""event"",""trial"",""time""
""focus"",""0"",""6638""
","""event"",""trial"",""time""
""fullscreenenter"",""0"",""6820""
","
","2493.399999976158","","","","","","","","56","","","","245","probe-124","","","","","1","[object Object]","114","2","0","","","",""
"","html-keyboard-response","50","260272","0.0-34.0-1.0","""event"",""trial"",""time""
""blur"",""0"",""0""
""focus"",""0"",""6638""
""fullscreenenter"",""0"",""6820""
","""event"",""trial"",""time""
""blur"",""0"",""0""
","""event"",""trial"",""time""
""focus"",""0"",""6638""
","""event"",""trial"",""time""
""fullscreenenter"",""0"",""6820""
","
","null","<p></p>","null","","","","","","","","","","","","","","","","","","","","","","","",""
"","do_trial","51","263654","0.0-35.0-0.0","""event"",""trial"",""time""
""blur"",""0"",""0""
""focus"",""0"",""6638""
""fullscreenenter"",""0"",""6820""
","""event"",""trial"",""time""
""blur"",""0"",""0""
","""event"",""trial"",""time""
""focus"",""0"",""6638""
","""event"",""trial"",""time""
""fullscreenenter"",""0"",""6820""
","
","786.1000000238419","","","","","","","","49","0,0,0","6","blank","246","null","0.6969482671063222","0.30231787394135856","0.2407562009111315","0","","","","","","","","",""
"","html-keyboard-response","52","264659","0.0-35.0-1.0","""event"",""trial"",""time""
""blur"",""0"",""0""
""focus"",""0"",""6638""
""fullscreenenter"",""0"",""6820""
","""event"",""trial"",""time""
""blur"",""0"",""0""
","""event"",""trial"",""time""
""focus"",""0"",""6638""
","""event"",""trial"",""time""
""fullscreenenter"",""0"",""6820""
","
","null","<p></p>","null","","","","","","","","","","","","","","","","","","","","","","","",""
"","do_recog","53","267902","0.0-36.0-0.0","""event"",""trial"",""time""
""blur"",""0"",""0""
""focus"",""0"",""6638""
""fullscreenenter"",""0"",""6820""
","""event"",""trial"",""time""
""blur"",""0"",""0""
","""event"",""trial"",""time""
""focus"",""0"",""6638""
","""event"",""trial"",""time""
""fullscreenenter"",""0"",""6820""
","
","1730.6999999284744","","","","","","","","56","","","","247","probe-211","","","","","1","[object Object]","36","0","0","","","",""
"","html-keyboard-response","54","268908","0.0-36.0-1.0","""event"",""trial"",""time""
""blur"",""0"",""0""
""focus"",""0"",""6638""
""fullscreenenter"",""0"",""6820""
","""event"",""trial"",""time""
""blur"",""0"",""0""
","""event"",""trial"",""time""
""focus"",""0"",""6638""
","""event"",""trial"",""time""
""fullscreenenter"",""0"",""6820""
","
","null","<p></p>","null","","","","","","","","","","","","","","","","","","","","","","","",""
"","do_trial","55","272365","0.0-37.0-0.0","""event"",""trial"",""time""
""blur"",""0"",""0""
""focus"",""0"",""6638""
""fullscreenenter"",""0"",""6820""
","""event"",""trial"",""time""
""blur"",""0"",""0""
","""event"",""trial"",""time""
""focus"",""0"",""6638""
","""event"",""trial"",""time""
""fullscreenenter"",""0"",""6820""
","
","846.3000000715256","","","","","","","","49","0,0,0","6","blank","248","null","0.5628055504345152","0.41865621680264975","0.3030125591505357","0","","","","","","","","",""
"","html-keyboard-response","56","273373","0.0-37.0-1.0","""event"",""trial"",""time""
""blur"",""0"",""0""
""focus"",""0"",""6638""
""fullscreenenter"",""0"",""6820""
","""event"",""trial"",""time""
""blur"",""0"",""0""
","""event"",""trial"",""time""
""focus"",""0"",""6638""
","""event"",""trial"",""time""
""fullscreenenter"",""0"",""6820""
","
","null","<p></p>","null","","","","","","","","","","","","","","","","","","","","","","","",""
"","do_trial","57","276429","0.0-38.0-0.0","""event"",""trial"",""time""
""blur"",""0"",""0""
""focus"",""0"",""6638""
""fullscreenenter"",""0"",""6820""
","""event"",""trial"",""time""
""blur"",""0"",""0""
","""event"",""trial"",""time""
""focus"",""0"",""6638""
","""event"",""trial"",""time""
""fullscreenenter"",""0"",""6820""
","
","458.5","","","","","","","","50","1,1,0","6","blank","249","null","0.5186707784350966","0.292880298033608","0.3989819948794825","1","","","","","","","","",""
"","html-keyboard-response","58","277438","0.0-38.0-1.0","""event"",""trial"",""time""
""blur"",""0"",""0""
""focus"",""0"",""6638""
""fullscreenenter"",""0"",""6820""
","""event"",""trial"",""time""
""blur"",""0"",""0""
","""event"",""trial"",""time""
""focus"",""0"",""6638""
","""event"",""trial"",""time""
""fullscreenenter"",""0"",""6820""
","
","null","<p></p>","null","","","","","","","","","","","","","","","","","","","","","","","",""
"","do_trial","59","280369","0.0-39.0-0.0","""event"",""trial"",""time""
""blur"",""0"",""0""
""focus"",""0"",""6638""
""fullscreenenter"",""0"",""6820""
","""event"",""trial"",""time""
""blur"",""0"",""0""
","""event"",""trial"",""time""
""focus"",""0"",""6638""
","""event"",""trial"",""time""
""fullscreenenter"",""0"",""6820""
","
","332.2000000476837","","","","","","","","51","0,0,0","6","blank","250","null","0.6065859519961827","0.4181698989093574","0.053752732006899145","0","","","","","","","","",""
"","html-keyboard-response","60","281380","0.0-39.0-1.0","""event"",""trial"",""time""
""blur"",""0"",""0""
""focus"",""0"",""6638""
""fullscreenenter"",""0"",""6820""
","""event"",""trial"",""time""
""blur"",""0"",""0""
","""event"",""trial"",""time""
""focus"",""0"",""6638""
","""event"",""trial"",""time""
""fullscreenenter"",""0"",""6820""
","
","null","<p></p>","null","","","","","","","","","","","","","","","","","","","","","","","",""
"","do_trial","61","284269","0.0-40.0-0.0","""event"",""trial"",""time""
""blur"",""0"",""0""
""focus"",""0"",""6638""
""fullscreenenter"",""0"",""6820""
","""event"",""trial"",""time""
""blur"",""0"",""0""
","""event"",""trial"",""time""
""focus"",""0"",""6638""
","""event"",""trial"",""time""
""fullscreenenter"",""0"",""6820""
","
","307.7000000476837","","","","","","","","50","0,1,0","6","blank","251","null","0.46935973141458126","0.3719754683419737","0.2322562856018528","1","","","","","","","","",""
"","html-keyboard-response","62","285278","0.0-40.0-1.0","""event"",""trial"",""time""
""blur"",""0"",""0""
""focus"",""0"",""6638""
""fullscreenenter"",""0"",""6820""
","""event"",""trial"",""time""
""blur"",""0"",""0""
","""event"",""trial"",""time""
""focus"",""0"",""6638""
","""event"",""trial"",""time""
""fullscreenenter"",""0"",""6820""
","
","null","<p></p>","null","","","","","","","","","","","","","","","","","","","","","","","",""
"","do_trial","63","288030","0.0-41.0-0.0","""event"",""trial"",""time""
""blur"",""0"",""0""
""focus"",""0"",""6638""
""fullscreenenter"",""0"",""6820""
","""event"",""trial"",""time""
""blur"",""0"",""0""
","""event"",""trial"",""time""
""focus"",""0"",""6638""
","""event"",""trial"",""time""
""fullscreenenter"",""0"",""6820""
","
","158.5","","","","","","","","49","0,1,0","6","blank","252","null","0.6564638911695256","0.3323973486368884","0.16220157006237199","0","","","","","","","","",""
"","html-keyboard-response","64","289032","0.0-41.0-1.0","""event"",""trial"",""time""
""blur"",""0"",""0""
""focus"",""0"",""6638""
""fullscreenenter"",""0"",""6820""
","""event"",""trial"",""time""
""blur"",""0"",""0""
","""event"",""trial"",""time""
""focus"",""0"",""6638""
","""event"",""trial"",""time""
""fullscreenenter"",""0"",""6820""
","
","null","<p></p>","null","","","","","","","","","","","","","","","","","","","","","","","",""
"","do_trial","65","291929","0.0-42.0-0.0","""event"",""trial"",""time""
""blur"",""0"",""0""
""focus"",""0"",""6638""
""fullscreenenter"",""0"",""6820""
","""event"",""trial"",""time""
""blur"",""0"",""0""
","""event"",""trial"",""time""
""focus"",""0"",""6638""
","""event"",""trial"",""time""
""fullscreenenter"",""0"",""6820""
","
","297.40000009536743","","","","","","","","51","1,1,0","6","blank","253","null","0.7383469964003386","0.34068157984453673","0.2581386419103274","0","","","","","","","","",""
"","html-keyboard-response","66","292935","0.0-42.0-1.0","""event"",""trial"",""time""
""blur"",""0"",""0""
""focus"",""0"",""6638""
""fullscreenenter"",""0"",""6820""
","""event"",""trial"",""time""
""blur"",""0"",""0""
","""event"",""trial"",""time""
""focus"",""0"",""6638""
","""event"",""trial"",""time""
""fullscreenenter"",""0"",""6820""
","
","null","<p></p>","null","","","","","","","","","","","","","","","","","","","","","","","",""
"","do_recog","67","298981","0.0-43.0-0.0","""event"",""trial"",""time""
""blur"",""0"",""0""
""focus"",""0"",""6638""
""fullscreenenter"",""0"",""6820""
","""event"",""trial"",""time""
""blur"",""0"",""0""
","""event"",""trial"",""time""
""focus"",""0"",""6638""
","""event"",""trial"",""time""
""fullscreenenter"",""0"",""6820""
","
","null","","","","","","","","null","","","","254","probe-113","","","","","1","[object Object]","193","4","0","","","",""
"","html-keyboard-response","68","299985","0.0-43.0-1.0","""event"",""trial"",""time""
""blur"",""0"",""0""
""focus"",""0"",""6638""
""fullscreenenter"",""0"",""6820""
","""event"",""trial"",""time""
""blur"",""0"",""0""
","""event"",""trial"",""time""
""focus"",""0"",""6638""
","""event"",""trial"",""time""
""fullscreenenter"",""0"",""6820""
","
","null","<p></p>","null","","","","","","","","","","","","","","","","","","","","","","","",""
"","do_trial","69","303262","0.0-44.0-0.0","""event"",""trial"",""time""
""blur"",""0"",""0""
""focus"",""0"",""6638""
""fullscreenenter"",""0"",""6820""
","""event"",""trial"",""time""
""blur"",""0"",""0""
","""event"",""trial"",""time""
""focus"",""0"",""6638""
","""event"",""trial"",""time""
""fullscreenenter"",""0"",""6820""
","
","680.7999999523163","","","","","","","","49","1,0,0","6","blank","255","null","0.7027960877109196","0.2180962220009915","0.17338382338890335","1","","","","","","","","",""
"","html-keyboard-response","70","304268","0.0-44.0-1.0","""event"",""trial"",""time""
""blur"",""0"",""0""
""focus"",""0"",""6638""
""fullscreenenter"",""0"",""6820""
","""event"",""trial"",""time""
""blur"",""0"",""0""
","""event"",""trial"",""time""
""focus"",""0"",""6638""
","""event"",""trial"",""time""
""fullscreenenter"",""0"",""6820""
","
","null","<p></p>","null","","","","","","","","","","","","","","","","","","","","","","","",""
"","do_trial","71","307429","0.0-45.0-0.0","""event"",""trial"",""time""
""blur"",""0"",""0""
""focus"",""0"",""6638""
""fullscreenenter"",""0"",""6820""
","""event"",""trial"",""time""
""blur"",""0"",""0""
","""event"",""trial"",""time""
""focus"",""0"",""6638""
","""event"",""trial"",""time""
""fullscreenenter"",""0"",""6820""
","
","574.8000000715256","","","","","","","","49","1,0,0","6","blank","256","null","0.624548831256722","0.12119648085899973","0.07840925694441778","1","","","","","","","","",""
"","html-keyboard-response","72","308439","0.0-45.0-1.0","""event"",""trial"",""time""
""blur"",""0"",""0""
""focus"",""0"",""6638""
""fullscreenenter"",""0"",""6820""
","""event"",""trial"",""time""
""blur"",""0"",""0""
","""event"",""trial"",""time""
""focus"",""0"",""6638""
","""event"",""trial"",""time""
""fullscreenenter"",""0"",""6820""
","
","null","<p></p>","null","","","","","","","","","","","","","","","","","","","","","","","",""
"","do_trial","73","311782","0.0-46.0-0.0","""event"",""trial"",""time""
""blur"",""0"",""0""
""focus"",""0"",""6638""
""fullscreenenter"",""0"",""6820""
","""event"",""trial"",""time""
""blur"",""0"",""0""
","""event"",""trial"",""time""
""focus"",""0"",""6638""
","""event"",""trial"",""time""
""fullscreenenter"",""0"",""6820""
","
","765.5999999046326","","","","","","","","50","0,0,0","6","blank","257","null","0.5680438312326161","0.21325635495647846","0.12937608117582688","0","","","","","","","","",""
"","html-keyboard-response","74","312791","0.0-46.0-1.0","""event"",""trial"",""time""
""blur"",""0"",""0""
""focus"",""0"",""6638""
""fullscreenenter"",""0"",""6820""
","""event"",""trial"",""time""
""blur"",""0"",""0""
","""event"",""trial"",""time""
""focus"",""0"",""6638""
","""event"",""trial"",""time""
""fullscreenenter"",""0"",""6820""
","
","null","<p></p>","null","","","","","","","","","","","","","","","","","","","","","","","",""
"","do_trial","75","316550","0.0-47.0-0.0","""event"",""trial"",""time""
""blur"",""0"",""0""
""focus"",""0"",""6638""
""fullscreenenter"",""0"",""6820""
","""event"",""trial"",""time""
""blur"",""0"",""0""
","""event"",""trial"",""time""
""focus"",""0"",""6638""
","""event"",""trial"",""time""
""fullscreenenter"",""0"",""6820""
","
","1152.2000000476837","","","","","","","","50","1,1,0","6","blank","258","null","0.6618414295521552","0.11841001247635077","0.19211956063244984","1","","","","","","","","",""
"","html-keyboard-response","76","317555","0.0-47.0-1.0","""event"",""trial"",""time""
""blur"",""0"",""0""
""focus"",""0"",""6638""
""fullscreenenter"",""0"",""6820""
","""event"",""trial"",""time""
""blur"",""0"",""0""
","""event"",""trial"",""time""
""focus"",""0"",""6638""
","""event"",""trial"",""time""
""fullscreenenter"",""0"",""6820""
","
","null","<p></p>","null","","","","","","","","","","","","","","","","","","","","","","","",""
"","do_trial","77","320914","0.0-48.0-0.0","""event"",""trial"",""time""
""blur"",""0"",""0""
""focus"",""0"",""6638""
""fullscreenenter"",""0"",""6820""
","""event"",""trial"",""time""
""blur"",""0"",""0""
","""event"",""trial"",""time""
""focus"",""0"",""6638""
","""event"",""trial"",""time""
""fullscreenenter"",""0"",""6820""
","
","763.8999999761581","","","","","","","","51","1,0,1","6","blank","259","null","0.7187859987633651","0.05494766224313235","0.2530548439815239","1","","","","","","","","",""
"","html-keyboard-response","78","321919","0.0-48.0-1.0","""event"",""trial"",""time""
""blur"",""0"",""0""
""focus"",""0"",""6638""
""fullscreenenter"",""0"",""6820""
","""event"",""trial"",""time""
""blur"",""0"",""0""
","""event"",""trial"",""time""
""focus"",""0"",""6638""
","""event"",""trial"",""time""
""fullscreenenter"",""0"",""6820""
","
","null","<p></p>","null","","","","","","","","","","","","","","","","","","","","","","","",""
"","do_recog","79","325615","0.0-49.0-0.0","""event"",""trial"",""time""
""blur"",""0"",""0""
""focus"",""0"",""6638""
""fullscreenenter"",""0"",""6820""
","""event"",""trial"",""time""
""blur"",""0"",""0""
","""event"",""trial"",""time""
""focus"",""0"",""6638""
","""event"",""trial"",""time""
""fullscreenenter"",""0"",""6820""
","
","2183","","","","","","","","56","","","","260","probe-74","","","","","1","[object Object]","39","0","0","","","",""
"","html-keyboard-response","80","326628","0.0-49.0-1.0","""event"",""trial"",""time""
""blur"",""0"",""0""
""focus"",""0"",""6638""
""fullscreenenter"",""0"",""6820""
","""event"",""trial"",""time""
""blur"",""0"",""0""
","""event"",""trial"",""time""
""focus"",""0"",""6638""
","""event"",""trial"",""time""
""fullscreenenter"",""0"",""6820""
","
","null","<p></p>","null","","","","","","","","","","","","","","","","","","","","","","","",""
"","do_trial","81","329959","0.0-50.0-0.0","""event"",""trial"",""time""
""blur"",""0"",""0""
""focus"",""0"",""6638""
""fullscreenenter"",""0"",""6820""
","""event"",""trial"",""time""
""blur"",""0"",""0""
","""event"",""trial"",""time""
""focus"",""0"",""6638""
","""event"",""trial"",""time""
""fullscreenenter"",""0"",""6820""
","
","732.3999999761581","","","","","","","","49","1,1,0","6","blank","261","null","0.7181051650578042","0.1620691546753337","0.2833013714879364","1","","","","","","","","",""
"","html-keyboard-response","82","330965","0.0-50.0-1.0","""event"",""trial"",""time""
""blur"",""0"",""0""
""focus"",""0"",""6638""
""fullscreenenter"",""0"",""6820""
","""event"",""trial"",""time""
""blur"",""0"",""0""
","""event"",""trial"",""time""
""focus"",""0"",""6638""
","""event"",""trial"",""time""
""fullscreenenter"",""0"",""6820""
","
","null","<p></p>","null","","","","","","","","","","","","","","","","","","","","","","","",""
"","do_trial","83","333909","0.0-51.0-0.0","""event"",""trial"",""time""
""blur"",""0"",""0""
""focus"",""0"",""6638""
""fullscreenenter"",""0"",""6820""
","""event"",""trial"",""time""
""blur"",""0"",""0""
","""event"",""trial"",""time""
""focus"",""0"",""6638""
","""event"",""trial"",""time""
""fullscreenenter"",""0"",""6820""
","
","369.5","","","","","","","","51","1,1,0","6","blank","262","null","0.7242836765712058","0.1252645107442212","0.09366515272222758","0","","","","","","","","",""
"","html-keyboard-response","84","334913","0.0-51.0-1.0","""event"",""trial"",""time""
""blur"",""0"",""0""
""focus"",""0"",""6638""
""fullscreenenter"",""0"",""6820""
","""event"",""trial"",""time""
""blur"",""0"",""0""
","""event"",""trial"",""time""
""focus"",""0"",""6638""
","""event"",""trial"",""time""
""fullscreenenter"",""0"",""6820""
","
","null","<p></p>","null","","","","","","","","","","","","","","","","","","","","","","","",""
"","do_trial","85","337962","0.0-52.0-0.0","""event"",""trial"",""time""
""blur"",""0"",""0""
""focus"",""0"",""6638""
""fullscreenenter"",""0"",""6820""
","""event"",""trial"",""time""
""blur"",""0"",""0""
","""event"",""trial"",""time""
""focus"",""0"",""6638""
","""event"",""trial"",""time""
""fullscreenenter"",""0"",""6820""
","
","444.7000000476837","","","","","","","","50","0,0,0","6","blank","263","null","0.6749302582359447","0.1372977610699919","0.17084591822865144","0","","","","","","","","",""
"","html-keyboard-response","86","338976","0.0-52.0-1.0","""event"",""trial"",""time""
""blur"",""0"",""0""
""focus"",""0"",""6638""
""fullscreenenter"",""0"",""6820""
","""event"",""trial"",""time""
""blur"",""0"",""0""
","""event"",""trial"",""time""
""focus"",""0"",""6638""
","""event"",""trial"",""time""
""fullscreenenter"",""0"",""6820""
","
","null","<p></p>","null","","","","","","","","","","","","","","","","","","","","","","","",""
"","do_trial","87","342129","0.0-53.0-0.0","""event"",""trial"",""time""
""blur"",""0"",""0""
""focus"",""0"",""6638""
""fullscreenenter"",""0"",""6820""
","""event"",""trial"",""time""
""blur"",""0"",""0""
","""event"",""trial"",""time""
""focus"",""0"",""6638""
","""event"",""trial"",""time""
""fullscreenenter"",""0"",""6820""
","
","552","","","","","","","","50","0,0,0","6","blank","264","null","0.6559859928130392","0.1758778199892571","0.13827381310782794","0","","","","","","","","",""
"","html-keyboard-response","88","343134","0.0-53.0-1.0","""event"",""trial"",""time""
""blur"",""0"",""0""
""focus"",""0"",""6638""
""fullscreenenter"",""0"",""6820""
","""event"",""trial"",""time""
""blur"",""0"",""0""
","""event"",""trial"",""time""
""focus"",""0"",""6638""
","""event"",""trial"",""time""
""fullscreenenter"",""0"",""6820""
","
","null","<p></p>","null","","","","","","","","","","","","","","","","","","","","","","","",""
"","do_recog","89","345718","0.0-54.0-0.0","""event"",""trial"",""time""
""blur"",""0"",""0""
""focus"",""0"",""6638""
""fullscreenenter"",""0"",""6820""
","""event"",""trial"",""time""
""blur"",""0"",""0""
","""event"",""trial"",""time""
""focus"",""0"",""6638""
","""event"",""trial"",""time""
""fullscreenenter"",""0"",""6820""
","
","1065.7999999523163","","","","","","","","53","","","","265","probe-129","","","","","1","[object Object]","190","4","1","","","",""
"","html-keyboard-response","90","346723","0.0-54.0-1.0","""event"",""trial"",""time""
""blur"",""0"",""0""
""focus"",""0"",""6638""
""fullscreenenter"",""0"",""6820""
","""event"",""trial"",""time""
""blur"",""0"",""0""
","""event"",""trial"",""time""
""focus"",""0"",""6638""
","""event"",""trial"",""time""
""fullscreenenter"",""0"",""6820""
","
","null","<p></p>","null","","","","","","","","","","","","","","","","","","","","","","","",""
"","do_trial","91","349949","0.0-55.0-0.0","""event"",""trial"",""time""
""blur"",""0"",""0""
""focus"",""0"",""6638""
""fullscreenenter"",""0"",""6820""
","""event"",""trial"",""time""
""blur"",""0"",""0""
","""event"",""trial"",""time""
""focus"",""0"",""6638""
","""event"",""trial"",""time""
""fullscreenenter"",""0"",""6820""
","
","639.6000000238419","","","","","","","","50","0,0,0","6","blank","266","null","0.6043699105981406","0.15798065374338896","0.08980922611177465","0","","","","","","","","",""
"","html-keyboard-response","92","350956","0.0-55.0-1.0","""event"",""trial"",""time""
""blur"",""0"",""0""
""focus"",""0"",""6638""
""fullscreenenter"",""0"",""6820""
","""event"",""trial"",""time""
""blur"",""0"",""0""
","""event"",""trial"",""time""
""focus"",""0"",""6638""
","""event"",""trial"",""time""
""fullscreenenter"",""0"",""6820""
","
","null","<p></p>","null","","","","","","","","","","","","","","","","","","","","","","","",""
"","do_trial","93","353920","0.0-56.0-0.0","""event"",""trial"",""time""
""blur"",""0"",""0""
""focus"",""0"",""6638""
""fullscreenenter"",""0"",""6820""
","""event"",""trial"",""time""
""blur"",""0"",""0""
","""event"",""trial"",""time""
""focus"",""0"",""6638""
","""event"",""trial"",""time""
""fullscreenenter"",""0"",""6820""
","
","369.2999999523163","","","","","","","","49","0,0,0","6","blank","267","null","0.6478192478369236","0.058506393941031104","0.07354208113657847","0","","","","","","","","",""
"","html-keyboard-response","94","354931","0.0-56.0-1.0","""event"",""trial"",""time""
""blur"",""0"",""0""
""focus"",""0"",""6638""
""fullscreenenter"",""0"",""6820""
","""event"",""trial"",""time""
""blur"",""0"",""0""
","""event"",""trial"",""time""
""focus"",""0"",""6638""
","""event"",""trial"",""time""
""fullscreenenter"",""0"",""6820""
","
","null","<p></p>","null","","","","","","","","","","","","","","","","","","","","","","","",""
"","do_trial","95","357800","0.0-57.0-0.0","""event"",""trial"",""time""
""blur"",""0"",""0""
""focus"",""0"",""6638""
""fullscreenenter"",""0"",""6820""
","""event"",""trial"",""time""
""blur"",""0"",""0""
","""event"",""trial"",""time""
""focus"",""0"",""6638""
","""event"",""trial"",""time""
""fullscreenenter"",""0"",""6820""
","
","277","","","","","","","","51","1,0,0","6","blank","268","null","0.6485581951345796","0.05109831339486977","0.10407007128359828","0","","","","","","","","",""
"","html-keyboard-response","96","358824","0.0-57.0-1.0","""event"",""trial"",""time""
""blur"",""0"",""0""
""focus"",""0"",""6638""
""fullscreenenter"",""0"",""6820""
","""event"",""trial"",""time""
""blur"",""0"",""0""
","""event"",""trial"",""time""
""focus"",""0"",""6638""
","""event"",""trial"",""time""
""fullscreenenter"",""0"",""6820""
","
","null","<p></p>","null","","","","","","","","","","","","","","","","","","","","","","","",""
"","break","97","363528","0.0-58.0-0.0","""event"",""trial"",""time""
""blur"",""0"",""0""
""focus"",""0"",""6638""
""fullscreenenter"",""0"",""6820""
","""event"",""trial"",""time""
""blur"",""0"",""0""
","""event"",""trial"",""time""
""focus"",""0"",""6638""
","""event"",""trial"",""time""
""fullscreenenter"",""0"",""6820""
","
","4702.300000071526","<div class='center'><p>Time to take a quick break! You have 2 minutes to rest, but you can move on sooner if you'd like.</p><p> Press the <b>space bar</b> to continue.</p></div>","32","","","","","","","","","","","","","","","","","","","","","","","",""
"","do_trial","98","367048","0.0-58.0-1.0","""event"",""trial"",""time""
""blur"",""0"",""0""
""focus"",""0"",""6638""
""fullscreenenter"",""0"",""6820""
","""event"",""trial"",""time""
""blur"",""0"",""0""
","""event"",""trial"",""time""
""focus"",""0"",""6638""
","""event"",""trial"",""time""
""fullscreenenter"",""0"",""6820""
","
","943.7999999523163","","","","","","","","49","1,0,0","6","blank","269","null","0.637662287565336","0.1664952042272708","0.08741113221148111","1","","","","","","","","",""
"","html-keyboard-response","99","368058","0.0-58.0-2.0","""event"",""trial"",""time""
""blur"",""0"",""0""
""focus"",""0"",""6638""
""fullscreenenter"",""0"",""6820""
","""event"",""trial"",""time""
""blur"",""0"",""0""
","""event"",""trial"",""time""
""focus"",""0"",""6638""
","""event"",""trial"",""time""
""fullscreenenter"",""0"",""6820""
","
","null","<p></p>","null","","","","","","","","","","","","","","","","","","","","","","","",""
"","do_trial","100","371128","0.0-59.0-0.0","""event"",""trial"",""time""
""blur"",""0"",""0""
""focus"",""0"",""6638""
""fullscreenenter"",""0"",""6820""
","""event"",""trial"",""time""
""blur"",""0"",""0""
","""event"",""trial"",""time""
""focus"",""0"",""6638""
","""event"",""trial"",""time""
""fullscreenenter"",""0"",""6820""
","
","468.5","","","","","","","","50","0,0,1","6","blank","270","null","0.6236708193223808","0.29284515060796146","0.10586278467303312","0","","","","","","","","",""
"","html-keyboard-response","101","372134","0.0-59.0-1.0","""event"",""trial"",""time""
""blur"",""0"",""0""
""focus"",""0"",""6638""
""fullscreenenter"",""0"",""6820""
","""event"",""trial"",""time""
""blur"",""0"",""0""
","""event"",""trial"",""time""
""focus"",""0"",""6638""
","""event"",""trial"",""time""
""fullscreenenter"",""0"",""6820""
","
","null","<p></p>","null","","","","","","","","","","","","","","","","","","","","","","","",""
"","do_trial","102","374996","0.0-60.0-0.0","""event"",""trial"",""time""
""blur"",""0"",""0""
""focus"",""0"",""6638""
""fullscreenenter"",""0"",""6820""
","""event"",""trial"",""time""
""blur"",""0"",""0""
","""event"",""trial"",""time""
""focus"",""0"",""6638""
","""event"",""trial"",""time""
""fullscreenenter"",""0"",""6820""
","
","287","","","","","","","","51","0,0,0","6","blank","271","null","0.6249095529501958","0.2804590486924933","0.10133297673340608","0","","","","","","","","",""
"","html-keyboard-response","103","376002","0.0-60.0-1.0","""event"",""trial"",""time""
""blur"",""0"",""0""
""focus"",""0"",""6638""
""fullscreenenter"",""0"",""6820""
","""event"",""trial"",""time""
""blur"",""0"",""0""
","""event"",""trial"",""time""
""focus"",""0"",""6638""
","""event"",""trial"",""time""
""fullscreenenter"",""0"",""6820""
","
","null","<p></p>","null","","","","","","","","","","","","","","","","","","","","","","","",""
"","do_recog","104","379733","0.0-61.0-0.0","""event"",""trial"",""time""
""blur"",""0"",""0""
""focus"",""0"",""6638""
""fullscreenenter"",""0"",""6820""
","""event"",""trial"",""time""
""blur"",""0"",""0""
","""event"",""trial"",""time""
""focus"",""0"",""6638""
","""event"",""trial"",""time""
""fullscreenenter"",""0"",""6820""
","
","2215","","","","","","","","56","","","","272","probe-221","","","","","1","[object Object]","192","4","0","","","",""
"","html-keyboard-response","105","380744","0.0-61.0-1.0","""event"",""trial"",""time""
""blur"",""0"",""0""
""focus"",""0"",""6638""
""fullscreenenter"",""0"",""6820""
","""event"",""trial"",""time""
""blur"",""0"",""0""
","""event"",""trial"",""time""
""focus"",""0"",""6638""
","""event"",""trial"",""time""
""fullscreenenter"",""0"",""6820""
","
","null","<p></p>","null","","","","","","","","","","","","","","","","","","","","","","","",""
"","do_trial","106","384149","0.0-62.0-0.0","""event"",""trial"",""time""
""blur"",""0"",""0""
""focus"",""0"",""6638""
""fullscreenenter"",""0"",""6820""
","""event"",""trial"",""time""
""blur"",""0"",""0""
","""event"",""trial"",""time""
""focus"",""0"",""6638""
","""event"",""trial"",""time""
""fullscreenenter"",""0"",""6820""
","
","804.2000000476837","","","","","","","","49","1,0,0","6","blank","273","null","0.7151101058560713","0.303698352599107","0.14517080792240625","1","","","","","","","","",""
"","html-keyboard-response","107","385155","0.0-62.0-1.0","""event"",""trial"",""time""
""blur"",""0"",""0""
""focus"",""0"",""6638""
""fullscreenenter"",""0"",""6820""
","""event"",""trial"",""time""
""blur"",""0"",""0""
","""event"",""trial"",""time""
""focus"",""0"",""6638""
","""event"",""trial"",""time""
""fullscreenenter"",""0"",""6820""
","
","null","<p></p>","null","","","","","","","","","","","","","","","","","","","","","","","",""
"","do_trial","108","388226","0.0-63.0-0.0","""event"",""trial"",""time""
""blur"",""0"",""0""
""focus"",""0"",""6638""
""fullscreenenter"",""0"",""6820""
","""event"",""trial"",""time""
""blur"",""0"",""0""
","""event"",""trial"",""time""
""focus"",""0"",""6638""
","""event"",""trial"",""time""
""fullscreenenter"",""0"",""6820""
","
","478.59999990463257","","","","","","","","50","1,1,0","6","blank","274","null","0.7716051922371966","0.30373433268911765","0.12146435379469285","1","","","","","","","","",""
"","html-keyboard-response","109","389235","0.0-63.0-1.0","""event"",""trial"",""time""
""blur"",""0"",""0""
""focus"",""0"",""6638""
""fullscreenenter"",""0"",""6820""
","""event"",""trial"",""time""
""blur"",""0"",""0""
","""event"",""trial"",""time""
""focus"",""0"",""6638""
","""event"",""trial"",""time""
""fullscreenenter"",""0"",""6820""
","
","null","<p></p>","null","","","","","","","","","","","","","","","","","","","","","","","",""
"","do_trial","110","393028","0.0-64.0-0.0","""event"",""trial"",""time""
""blur"",""0"",""0""
""focus"",""0"",""6638""
""fullscreenenter"",""0"",""6820""
","""event"",""trial"",""time""
""blur"",""0"",""0""
","""event"",""trial"",""time""
""focus"",""0"",""6638""
","""event"",""trial"",""time""
""fullscreenenter"",""0"",""6820""
","
","1206.5","","","","","","","","50","0,0,0","6","blank","275","null","0.7754101582331816","0.17906395865848804","0.1873211980129104","0","","","","","","","","",""
"","html-keyboard-response","111","394034","0.0-64.0-1.0","""event"",""trial"",""time""
""blur"",""0"",""0""
""focus"",""0"",""6638""
""fullscreenenter"",""0"",""6820""
","""event"",""trial"",""time""
""blur"",""0"",""0""
","""event"",""trial"",""time""
""focus"",""0"",""6638""
","""event"",""trial"",""time""
""fullscreenenter"",""0"",""6820""
","
","null","<p></p>","null","","","","","","","","","","","","","","","","","","","","","","","",""
"","do_trial","112","397141","0.0-65.0-0.0","""event"",""trial"",""time""
""blur"",""0"",""0""
""focus"",""0"",""6638""
""fullscreenenter"",""0"",""6820""
","""event"",""trial"",""time""
""blur"",""0"",""0""
","""event"",""trial"",""time""
""focus"",""0"",""6638""
","""event"",""trial"",""time""
""fullscreenenter"",""0"",""6820""
","
","505.6999999284744","","","","","","","","49","1,0,0","6","blank","276","null","0.8037914027766219","0.20807788627389848","0.24828944380326434","1","","","","","","","","",""
"","html-keyboard-response","113","398146","0.0-65.0-1.0","""event"",""trial"",""time""
""blur"",""0"",""0""
""focus"",""0"",""6638""
""fullscreenenter"",""0"",""6820""
","""event"",""trial"",""time""
""blur"",""0"",""0""
","""event"",""trial"",""time""
""focus"",""0"",""6638""
","""event"",""trial"",""time""
""fullscreenenter"",""0"",""6820""
","
","null","<p></p>","null","","","","","","","","","","","","","","","","","","","","","","","",""
"","do_trial","114","401519","0.0-66.0-0.0","""event"",""trial"",""time""
""blur"",""0"",""0""
""focus"",""0"",""6638""
""fullscreenenter"",""0"",""6820""
","""event"",""trial"",""time""
""blur"",""0"",""0""
","""event"",""trial"",""time""
""focus"",""0"",""6638""
","""event"",""trial"",""time""
""fullscreenenter"",""0"",""6820""
","
","774.6000000238419","","","","","","","","49","1,0,0","6","blank","277","null","0.6648430787495974","0.3784245076751042","0.2511270994205332","1","","","","","","","","",""
"","html-keyboard-response","115","402530","0.0-66.0-1.0","""event"",""trial"",""time""
""blur"",""0"",""0""
""focus"",""0"",""6638""
""fullscreenenter"",""0"",""6820""
","""event"",""trial"",""time""
""blur"",""0"",""0""
","""event"",""trial"",""time""
""focus"",""0"",""6638""
","""event"",""trial"",""time""
""fullscreenenter"",""0"",""6820""
","
","null","<p></p>","null","","","","","","","","","","","","","","","","","","","","","","","",""
"","do_recog","116","405614","0.0-67.0-0.0","""event"",""trial"",""time""
""blur"",""0"",""0""
""focus"",""0"",""6638""
""fullscreenenter"",""0"",""6820""
","""event"",""trial"",""time""
""blur"",""0"",""0""
","""event"",""trial"",""time""
""focus"",""0"",""6638""
","""event"",""trial"",""time""
""fullscreenenter"",""0"",""6820""
","
","1574.7000000476837","","","","","","","","54","","","","278","probe-14","","","","","1","[object Object]","79","1","1","","","",""
"","html-keyboard-response","117","406619","0.0-67.0-1.0","""event"",""trial"",""time""
""blur"",""0"",""0""
""focus"",""0"",""6638""
""fullscreenenter"",""0"",""6820""
","""event"",""trial"",""time""
""blur"",""0"",""0""
","""event"",""trial"",""time""
""focus"",""0"",""6638""
","""event"",""trial"",""time""
""fullscreenenter"",""0"",""6820""
","
","null","<p></p>","null","","","","","","","","","","","","","","","","","","","","","","","",""
"","do_trial","118","410203","0.0-68.0-0.0","""event"",""trial"",""time""
""blur"",""0"",""0""
""focus"",""0"",""6638""
""fullscreenenter"",""0"",""6820""
","""event"",""trial"",""time""
""blur"",""0"",""0""
","""event"",""trial"",""time""
""focus"",""0"",""6638""
","""event"",""trial"",""time""
""fullscreenenter"",""0"",""6820""
","
","993.1000000238419","","","","","","","","50","0,0,0","6","blank","279","null","0.5575189426302769","0.36800602217055195","0.2258909212198195","0","","","","","","","","",""
"","html-keyboard-response","119","411213","0.0-68.0-1.0","""event"",""trial"",""time""
""blur"",""0"",""0""
""focus"",""0"",""6638""
""fullscreenenter"",""0"",""6820""
","""event"",""trial"",""time""
""blur"",""0"",""0""
","""event"",""trial"",""time""
""focus"",""0"",""6638""
","""event"",""trial"",""time""
""fullscreenenter"",""0"",""6820""
","
","null","<p></p>","null","","","","","","","","","","","","","","","","","","","","","","","",""
"","do_trial","120","414137","0.0-69.0-0.0","""event"",""trial"",""time""
""blur"",""0"",""0""
""focus"",""0"",""6638""
""fullscreenenter"",""0"",""6820""
","""event"",""trial"",""time""
""blur"",""0"",""0""
","""event"",""trial"",""time""
""focus"",""0"",""6638""
","""event"",""trial"",""time""
""fullscreenenter"",""0"",""6820""
","
","312.10000002384186","","","","","","","","49","0,1,0","6","blank","280","null","0.5580322108733815","0.4586470140405292","0.06556763737438016","0","","","","","","","","",""
"","html-keyboard-response","121","415146","0.0-69.0-1.0","""event"",""trial"",""time""
""blur"",""0"",""0""
""focus"",""0"",""6638""
""fullscreenenter"",""0"",""6820""
","""event"",""trial"",""time""
""blur"",""0"",""0""
","""event"",""trial"",""time""
""focus"",""0"",""6638""
","""event"",""trial"",""time""
""fullscreenenter"",""0"",""6820""
","
","null","<p></p>","null","","","","","","","","","","","","","","","","","","","","","","","",""
"","do_trial","122","418067","0.0-70.0-0.0","""event"",""trial"",""time""
""blur"",""0"",""0""
""focus"",""0"",""6638""
""fullscreenenter"",""0"",""6820""
","""event"",""trial"",""time""
""blur"",""0"",""0""
","""event"",""trial"",""time""
""focus"",""0"",""6638""
","""event"",""trial"",""time""
""fullscreenenter"",""0"",""6820""
","
","337.5","","","","","","","","51","1,1,0","6","blank","281","null","0.5966795775727861","0.5034048645135097","0.07106845960642336","0","","","","","","","","",""
"","html-keyboard-response","123","419077","0.0-70.0-1.0","""event"",""trial"",""time""
""blur"",""0"",""0""
""focus"",""0"",""6638""
""fullscreenenter"",""0"",""6820""
","""event"",""trial"",""time""
""blur"",""0"",""0""
","""event"",""trial"",""time""
""focus"",""0"",""6638""
","""event"",""trial"",""time""
""fullscreenenter"",""0"",""6820""
","
","null","<p></p>","null","","","","","","","","","","","","","","","","","","","","","","","",""
"","do_trial","124","421983","0.0-71.0-0.0","""event"",""trial"",""time""
""blur"",""0"",""0""
""focus"",""0"",""6638""
""fullscreenenter"",""0"",""6820""
","""event"",""trial"",""time""
""blur"",""0"",""0""
","""event"",""trial"",""time""
""focus"",""0"",""6638""
","""event"",""trial"",""time""
""fullscreenenter"",""0"",""6820""
","
","308.2000000476837","","","","","","","","50","0,0,0","6","blank","282","null","0.6991794826718802","0.3689155583066967","0.13929340791841568","0","","","","","","","","",""
"","html-keyboard-response","125","422988","0.0-71.0-1.0","""event"",""trial"",""time""
""blur"",""0"",""0""
""focus"",""0"",""6638""
""fullscreenenter"",""0"",""6820""
","""event"",""trial"",""time""
""blur"",""0"",""0""
","""event"",""trial"",""time""
""focus"",""0"",""6638""
","""event"",""trial"",""time""
""fullscreenenter"",""0"",""6820""
","
","null","<p></p>","null","","","","","","","","","","","","","","","","","","","","","","","",""
"","do_trial","126","426007","0.0-72.0-0.0","""event"",""trial"",""time""
""blur"",""0"",""0""
""focus"",""0"",""6638""
""fullscreenenter"",""0"",""6820""
","""event"",""trial"",""time""
""blur"",""0"",""0""
","""event"",""trial"",""time""
""focus"",""0"",""6638""
","""event"",""trial"",""time""
""fullscreenenter"",""0"",""6820""
","
","420.09999990463257","","","","","","","","49","1,1,0","6","blank","283","null","0.6529611540702244","0.41198564134658483","0.11721185351572783","1","","","","","","","","",""
"","html-keyboard-response","127","427013","0.0-72.0-1.0","""event"",""trial"",""time""
""blur"",""0"",""0""
""focus"",""0"",""6638""
""fullscreenenter"",""0"",""6820""
","""event"",""trial"",""time""
""blur"",""0"",""0""
","""event"",""trial"",""time""
""focus"",""0"",""6638""
","""event"",""trial"",""time""
""fullscreenenter"",""0"",""6820""
","
","null","<p></p>","null","","","","","","","","","","","","","","","","","","","","","","","",""
"","do_trial","128","429936","0.0-73.0-0.0","""event"",""trial"",""time""
""blur"",""0"",""0""
""focus"",""0"",""6638""
""fullscreenenter"",""0"",""6820""
","""event"",""trial"",""time""
""blur"",""0"",""0""
","""event"",""trial"",""time""
""focus"",""0"",""6638""
","""event"",""trial"",""time""
""fullscreenenter"",""0"",""6820""
","
","319.5","","","","","","","","50","1,1,0","6","blank","284","null","0.746734583501774","0.5050079757047863","0.061880984548239176","1","","","","","","","","",""
"","html-keyboard-response","129","430942","0.0-73.0-1.0","""event"",""trial"",""time""
""blur"",""0"",""0""
""focus"",""0"",""6638""
""fullscreenenter"",""0"",""6820""
","""event"",""trial"",""time""
""blur"",""0"",""0""
","""event"",""trial"",""time""
""focus"",""0"",""6638""
","""event"",""trial"",""time""
""fullscreenenter"",""0"",""6820""
","
","null","<p></p>","null","","","","","","","","","","","","","","","","","","","","","","","",""
"","do_trial","130","434143","0.0-74.0-0.0","""event"",""trial"",""time""
""blur"",""0"",""0""
""focus"",""0"",""6638""
""fullscreenenter"",""0"",""6820""
","""event"",""trial"",""time""
""blur"",""0"",""0""
","""event"",""trial"",""time""
""focus"",""0"",""6638""
","""event"",""trial"",""time""
""fullscreenenter"",""0"",""6820""
","
","599.7000000476837","","","","","","","","49","1,0,0","6","blank","285","null","0.7340420843098121","0.4833966308941075","0.09375660372999699","1","","","","","","","","",""
"","html-keyboard-response","131","435150","0.0-74.0-1.0","""event"",""trial"",""time""
""blur"",""0"",""0""
""focus"",""0"",""6638""
""fullscreenenter"",""0"",""6820""
","""event"",""trial"",""time""
""blur"",""0"",""0""
","""event"",""trial"",""time""
""focus"",""0"",""6638""
","""event"",""trial"",""time""
""fullscreenenter"",""0"",""6820""
","
","null","<p></p>","null","","","","","","","","","","","","","","","","","","","","","","","",""
"","do_recog","132","438466","0.0-75.0-0.0","""event"",""trial"",""time""
""blur"",""0"",""0""
""focus"",""0"",""6638""
""fullscreenenter"",""0"",""6820""
","""event"",""trial"",""time""
""blur"",""0"",""0""
","""event"",""trial"",""time""
""focus"",""0"",""6638""
","""event"",""trial"",""time""
""fullscreenenter"",""0"",""6820""
","
","1793.8999999761581","","","","","","","","53","","","","286","probe-81","","","","","1","[object Object]","195","4","1","","","",""
"","html-keyboard-response","133","439476","0.0-75.0-1.0","""event"",""trial"",""time""
""blur"",""0"",""0""
""focus"",""0"",""6638""
""fullscreenenter"",""0"",""6820""
","""event"",""trial"",""time""
""blur"",""0"",""0""
","""event"",""trial"",""time""
""focus"",""0"",""6638""
","""event"",""trial"",""time""
""fullscreenenter"",""0"",""6820""
","
","null","<p></p>","null","","","","","","","","","","","","","","","","","","","","","","","",""
"","do_trial","134","442900","0.0-76.0-0.0","""event"",""trial"",""time""
""blur"",""0"",""0""
""focus"",""0"",""6638""
""fullscreenenter"",""0"",""6820""
","""event"",""trial"",""time""
""blur"",""0"",""0""
","""event"",""trial"",""time""
""focus"",""0"",""6638""
","""event"",""trial"",""time""
""fullscreenenter"",""0"",""6820""
","
","829.7000000476837","","","","","","","","51","1,0,0","6","blank","287","null","0.644662479108432","0.35999015346706587","0.05687910260351724","0","","","","","","","","",""
"","html-keyboard-response","135","443904","0.0-76.0-1.0","""event"",""trial"",""time""
""blur"",""0"",""0""
""focus"",""0"",""6638""
""fullscreenenter"",""0"",""6820""
","""event"",""trial"",""time""
""blur"",""0"",""0""
","""event"",""trial"",""time""
""focus"",""0"",""6638""
","""event"",""trial"",""time""
""fullscreenenter"",""0"",""6820""
","
","null","<p></p>","null","","","","","","","","","","","","","","","","","","","","","","","",""
"","do_trial","136","447063","0.0-77.0-0.0","""event"",""trial"",""time""
""blur"",""0"",""0""
""focus"",""0"",""6638""
""fullscreenenter"",""0"",""6820""
","""event"",""trial"",""time""
""blur"",""0"",""0""
","""event"",""trial"",""time""
""focus"",""0"",""6638""
","""event"",""trial"",""time""
""fullscreenenter"",""0"",""6820""
","
","547.2999999523163","","","","","","","","50","0,0,1","6","blank","288","null","0.7084750868123793","0.3226507552381458","0.13268175791115178","0","","","","","","","","",""
"","html-keyboard-response","137","448069","0.0-77.0-1.0","""event"",""trial"",""time""
""blur"",""0"",""0""
""focus"",""0"",""6638""
""fullscreenenter"",""0"",""6820""
","""event"",""trial"",""time""
""blur"",""0"",""0""
","""event"",""trial"",""time""
""focus"",""0"",""6638""
","""event"",""trial"",""time""
""fullscreenenter"",""0"",""6820""
","
","null","<p></p>","null","","","","","","","","","","","","","","","","","","","","","","","",""
"","do_trial","138","451094","0.0-78.0-0.0","""event"",""trial"",""time""
""blur"",""0"",""0""
""focus"",""0"",""6638""
""fullscreenenter"",""0"",""6820""
","""event"",""trial"",""time""
""blur"",""0"",""0""
","""event"",""trial"",""time""
""focus"",""0"",""6638""
","""event"",""trial"",""time""
""fullscreenenter"",""0"",""6820""
","
","431.8000000715256","","","","","","","","49","1,1,0","6","blank","289","null","0.7029894473922277","0.4264397319838571","0.2045253095676156","1","","","","","","","","",""
"","html-keyboard-response","139","452100","0.0-78.0-1.0","""event"",""trial"",""time""
""blur"",""0"",""0""
""focus"",""0"",""6638""
""fullscreenenter"",""0"",""6820""
","""event"",""trial"",""time""
""blur"",""0"",""0""
","""event"",""trial"",""time""
""focus"",""0"",""6638""
","""event"",""trial"",""time""
""fullscreenenter"",""0"",""6820""
","
","null","<p></p>","null","","","","","","","","","","","","","","","","","","","","","","","",""
"","do_trial","140","456045","0.0-79.0-0.0","""event"",""trial"",""time""
""blur"",""0"",""0""
""focus"",""0"",""6638""
""fullscreenenter"",""0"",""6820""
","""event"",""trial"",""time""
""blur"",""0"",""0""
","""event"",""trial"",""time""
""focus"",""0"",""6638""
","""event"",""trial"",""time""
""fullscreenenter"",""0"",""6820""
","
","1350.1999999284744","","","","","","","","49","0,0,1","6","blank","290","null","0.8146273300237793","0.32515515086517766","0.29233138665741604","0","","","","","","","","",""
"","html-keyboard-response","141","457054","0.0-79.0-1.0","""event"",""trial"",""time""
""blur"",""0"",""0""
""focus"",""0"",""6638""
""fullscreenenter"",""0"",""6820""
","""event"",""trial"",""time""
""blur"",""0"",""0""
","""event"",""trial"",""time""
""focus"",""0"",""6638""
","""event"",""trial"",""time""
""fullscreenenter"",""0"",""6820""
","
","null","<p></p>","null","","","","","","","","","","","","","","","","","","","","","","","",""
"","do_recog","142","460896","0.0-80.0-0.0","""event"",""trial"",""time""
""blur"",""0"",""0""
""focus"",""0"",""6638""
""fullscreenenter"",""0"",""6820""
","""event"",""trial"",""time""
""blur"",""0"",""0""
","""event"",""trial"",""time""
""focus"",""0"",""6638""
","""event"",""trial"",""time""
""fullscreenenter"",""0"",""6820""
","
","2319.5","","","","","","","","55","","","","291","probe-233","","","","","0","[object Object]","null","null","1","","","",""
"","html-keyboard-response","143","461903","0.0-80.0-1.0","""event"",""trial"",""time""
""blur"",""0"",""0""
""focus"",""0"",""6638""
""fullscreenenter"",""0"",""6820""
","""event"",""trial"",""time""
""blur"",""0"",""0""
","""event"",""trial"",""time""
""focus"",""0"",""6638""
","""event"",""trial"",""time""
""fullscreenenter"",""0"",""6820""
","
","null","<p></p>","null","","","","","","","","","","","","","","","","","","","","","","","",""
"","do_trial","144","466451","0.0-81.0-0.0","""event"",""trial"",""time""
""blur"",""0"",""0""
""focus"",""0"",""6638""
""fullscreenenter"",""0"",""6820""
","""event"",""trial"",""time""
""blur"",""0"",""0""
","""event"",""trial"",""time""
""focus"",""0"",""6638""
","""event"",""trial"",""time""
""fullscreenenter"",""0"",""6820""
","
","1953.4000000953674","","","","","","","","49","1,0,0","6","blank","292","null","0.6773870163087713","0.5859695437818411","0.15910066971740489","1","","","","","","","","",""
"","html-keyboard-response","145","467455","0.0-81.0-1.0","""event"",""trial"",""time""
""blur"",""0"",""0""
""focus"",""0"",""6638""
""fullscreenenter"",""0"",""6820""
","""event"",""trial"",""time""
""blur"",""0"",""0""
","""event"",""trial"",""time""
""focus"",""0"",""6638""
","""event"",""trial"",""time""
""fullscreenenter"",""0"",""6820""
","
","null","<p></p>","null","","","","","","","","","","","","","","","","","","","","","","","",""
"","do_trial","146","471002","0.0-82.0-0.0","""event"",""trial"",""time""
""blur"",""0"",""0""
""focus"",""0"",""6638""
""fullscreenenter"",""0"",""6820""
","""event"",""trial"",""time""
""blur"",""0"",""0""
","""event"",""trial"",""time""
""focus"",""0"",""6638""
","""event"",""trial"",""time""
""fullscreenenter"",""0"",""6820""
","
","936.5","","","","","","","","50","1,0,0","6","blank","293","null","0.3851403758159054","0.6767556405523767","0.054756190023480096","0","","","","","","","","",""
"","html-keyboard-response","147","472009","0.0-82.0-1.0","""event"",""trial"",""time""
""blur"",""0"",""0""
""focus"",""0"",""6638""
""fullscreenenter"",""0"",""6820""
","""event"",""trial"",""time""
""blur"",""0"",""0""
","""event"",""trial"",""time""
""focus"",""0"",""6638""
","""event"",""trial"",""time""
""fullscreenenter"",""0"",""6820""
","
","null","<p></p>","null","","","","","","","","","","","","","","","","","","","","","","","",""
"","do_trial","148","475515","0.0-83.0-0.0","""event"",""trial"",""time""
""blur"",""0"",""0""
""focus"",""0"",""6638""
""fullscreenenter"",""0"",""6820""
","""event"",""trial"",""time""
""blur"",""0"",""0""
","""event"",""trial"",""time""
""focus"",""0"",""6638""
","""event"",""trial"",""time""
""fullscreenenter"",""0"",""6820""
","
","920.5","","","","","","","","50","0,0,0","6","blank","294","null","0.25326041955571504","0.44040835937722317","0.12027534550290243","0","","","","","","","","",""
"","html-keyboard-response","149","476520","0.0-83.0-1.0","""event"",""trial"",""time""
""blur"",""0"",""0""
""focus"",""0"",""6638""
""fullscreenenter"",""0"",""6820""
","""event"",""trial"",""time""
""blur"",""0"",""0""
","""event"",""trial"",""time""
""focus"",""0"",""6638""
","""event"",""trial"",""time""
""fullscreenenter"",""0"",""6820""
","
","null","<p></p>","null","","","","","","","","","","","","","","","","","","","","","","","",""
"","do_recog","150","482546","0.0-84.0-0.0","""event"",""trial"",""time""
""blur"",""0"",""0""
""focus"",""0"",""6638""
""fullscreenenter"",""0"",""6820""
","""event"",""trial"",""time""
""blur"",""0"",""0""
","""event"",""trial"",""time""
""focus"",""0"",""6638""
","""event"",""trial"",""time""
""fullscreenenter"",""0"",""6820""
","
","null","","","","","","","","null","","","","295","probe-154","","","","","1","[object Object]","156","3","0","","","",""
"","html-keyboard-response","151","483554","0.0-84.0-1.0","""event"",""trial"",""time""
""blur"",""0"",""0""
""focus"",""0"",""6638""
""fullscreenenter"",""0"",""6820""
","""event"",""trial"",""time""
""blur"",""0"",""0""
","""event"",""trial"",""time""
""focus"",""0"",""6638""
","""event"",""trial"",""time""
""fullscreenenter"",""0"",""6820""
","
","null","<p></p>","null","","","","","","","","","","","","","","","","","","","","","","","",""
"","do_trial","152","486192","0.0-85.0-0.0","""event"",""trial"",""time""
""blur"",""0"",""0""
""focus"",""0"",""6638""
""fullscreenenter"",""0"",""6820""
","""event"",""trial"",""time""
""blur"",""0"",""0""
","""event"",""trial"",""time""
""focus"",""0"",""6638""
","""event"",""trial"",""time""
""fullscreenenter"",""0"",""6820""
","
","32","","","","","","","","50","0,1,0","6","blank","296","null","0.2052879872382394","0.47621814022540987","0.21129181776460246","1","","","","","","","","",""
"","html-keyboard-response","153","487198","0.0-85.0-1.0","""event"",""trial"",""time""
""blur"",""0"",""0""
""focus"",""0"",""6638""
""fullscreenenter"",""0"",""6820""
","""event"",""trial"",""time""
""blur"",""0"",""0""
","""event"",""trial"",""time""
""focus"",""0"",""6638""
","""event"",""trial"",""time""
""fullscreenenter"",""0"",""6820""
","
","null","<p></p>","null","","","","","","","","","","","","","","","","","","","","","","","",""
"","do_trial","154","490203","0.0-86.0-0.0","""event"",""trial"",""time""
""blur"",""0"",""0""
""focus"",""0"",""6638""
""fullscreenenter"",""0"",""6820""
","""event"",""trial"",""time""
""blur"",""0"",""0""
","""event"",""trial"",""time""
""focus"",""0"",""6638""
","""event"",""trial"",""time""
""fullscreenenter"",""0"",""6820""
","
","406.09999990463257","","","","","","","","50","0,1,0","6","blank","297","null","0.17525848539593303","0.4297889098091176","0.24053771021680753","1","","","","","","","","",""
"","html-keyboard-response","155","491213","0.0-86.0-1.0","""event"",""trial"",""time""
""blur"",""0"",""0""
""focus"",""0"",""6638""
""fullscreenenter"",""0"",""6820""
","""event"",""trial"",""time""
""blur"",""0"",""0""
","""event"",""trial"",""time""
""focus"",""0"",""6638""
","""event"",""trial"",""time""
""fullscreenenter"",""0"",""6820""
","
","null","<p></p>","null","","","","","","","","","","","","","","","","","","","","","","","",""
"","do_trial","156","493969","0.0-87.0-0.0","""event"",""trial"",""time""
""blur"",""0"",""0""
""focus"",""0"",""6638""
""fullscreenenter"",""0"",""6820""
","""event"",""trial"",""time""
""blur"",""0"",""0""
","""event"",""trial"",""time""
""focus"",""0"",""6638""
","""event"",""trial"",""time""
""fullscreenenter"",""0"",""6820""
","
","161.70000004768372","","","","","","","","49","1,1,0","6","blank","298","null","0.25222947611196317","0.43983198653288347","0.2099679272444559","1","","","","","","","","",""
"","html-keyboard-response","157","494975","0.0-87.0-1.0","""event"",""trial"",""time""
""blur"",""0"",""0""
""focus"",""0"",""6638""
""fullscreenenter"",""0"",""6820""
","""event"",""trial"",""time""
""blur"",""0"",""0""
","""event"",""trial"",""time""
""focus"",""0"",""6638""
","""event"",""trial"",""time""
""fullscreenenter"",""0"",""6820""
","
","null","<p></p>","null","","","","","","","","","","","","","","","","","","","","","","","",""
"","do_trial","158","497557","0.0-88.0-0.0","""event"",""trial"",""time""
""blur"",""0"",""0""
""focus"",""0"",""6638""
""fullscreenenter"",""0"",""6820""
","""event"",""trial"",""time""
""blur"",""0"",""0""
","""event"",""trial"",""time""
""focus"",""0"",""6638""
","""event"",""trial"",""time""
""fullscreenenter"",""0"",""6820""
","
","0.30000007152557373","","","","","","","","50","1,1,1","6","blank","299","null","0.33883134462771475","0.6388308274103761","0.1118533232709543","1","","","","","","","","",""
"","html-keyboard-response","159","498565","0.0-88.0-1.0","""event"",""trial"",""time""
""blur"",""0"",""0""
""focus"",""0"",""6638""
""fullscreenenter"",""0"",""6820""
","""event"",""trial"",""time""
""blur"",""0"",""0""
","""event"",""trial"",""time""
""focus"",""0"",""6638""
","""event"",""trial"",""time""
""fullscreenenter"",""0"",""6820""
","
","null","<p></p>","null","","","","","","","","","","","","","","","","","","","","","","","",""
"","do_trial","160","501941","0.0-89.0-0.0","""event"",""trial"",""time""
""blur"",""0"",""0""
""focus"",""0"",""6638""
""fullscreenenter"",""0"",""6820""
","""event"",""trial"",""time""
""blur"",""0"",""0""
","""event"",""trial"",""time""
""focus"",""0"",""6638""
","""event"",""trial"",""time""
""fullscreenenter"",""0"",""6820""
","
","787.3000000715256","","","","","","","","51","1,0,0","6","blank","300","null","0.31386186909151004","0.7239219675239745","0.14592350347260583","0","","","","","","","","",""
"","html-keyboard-response","161","502947","0.0-89.0-1.0","""event"",""trial"",""time""
""blur"",""0"",""0""
""focus"",""0"",""6638""
""fullscreenenter"",""0"",""6820""
","""event"",""trial"",""time""
""blur"",""0"",""0""
","""event"",""trial"",""time""
""focus"",""0"",""6638""
","""event"",""trial"",""time""
""fullscreenenter"",""0"",""6820""
","
","null","<p></p>","null","","","","","","","","","","","","","","","","","","","","","","","",""
"","do_trial","162","506055","0.0-90.0-0.0","""event"",""trial"",""time""
""blur"",""0"",""0""
""focus"",""0"",""6638""
""fullscreenenter"",""0"",""6820""
","""event"",""trial"",""time""
""blur"",""0"",""0""
","""event"",""trial"",""time""
""focus"",""0"",""6638""
","""event"",""trial"",""time""
""fullscreenenter"",""0"",""6820""
","
","516.6999999284744","","","","","","","","50","0,0,0","6","blank","301","null","0.19948372488450453","0.6359269176355075","0.12778947262000973","0","","","","","","","","",""
"","html-keyboard-response","163","507061","0.0-90.0-1.0","""event"",""trial"",""time""
""blur"",""0"",""0""
""focus"",""0"",""6638""
""fullscreenenter"",""0"",""6820""
","""event"",""trial"",""time""
""blur"",""0"",""0""
","""event"",""trial"",""time""
""focus"",""0"",""6638""
","""event"",""trial"",""time""
""fullscreenenter"",""0"",""6820""
","
","null","<p></p>","null","","","","","","","","","","","","","","","","","","","","","","","",""
"","do_recog","164","510530","0.0-91.0-0.0","""event"",""trial"",""time""
""blur"",""0"",""0""
""focus"",""0"",""6638""
""fullscreenenter"",""0"",""6820""
","""event"",""trial"",""time""
""blur"",""0"",""0""
","""event"",""trial"",""time""
""focus"",""0"",""6638""
","""event"",""trial"",""time""
""fullscreenenter"",""0"",""6820""
","
","1948.5","","","","","","","","53","","","","302","probe-246","","","","","0","[object Object]","null","null","0","","","",""
"","html-keyboard-response","165","511538","0.0-91.0-1.0","""event"",""trial"",""time""
""blur"",""0"",""0""
""focus"",""0"",""6638""
""fullscreenenter"",""0"",""6820""
","""event"",""trial"",""time""
""blur"",""0"",""0""
","""event"",""trial"",""time""
""focus"",""0"",""6638""
","""event"",""trial"",""time""
""fullscreenenter"",""0"",""6820""
","
","null","<p></p>","null","","","","","","","","","","","","","","","","","","","","","","","",""
"","do_trial","166","514927","0.0-92.0-0.0","""event"",""trial"",""time""
""blur"",""0"",""0""
""focus"",""0"",""6638""
""fullscreenenter"",""0"",""6820""
","""event"",""trial"",""time""
""blur"",""0"",""0""
","""event"",""trial"",""time""
""focus"",""0"",""6638""
","""event"",""trial"",""time""
""fullscreenenter"",""0"",""6820""
","
","793.5","","","","","","","","49","0,0,0","6","blank","303","null","0.06781121045714776","0.560232454822839","0.242621482279539","0","","","","","","","","",""
"","html-keyboard-response","167","515934","0.0-92.0-1.0","""event"",""trial"",""time""
""blur"",""0"",""0""
""focus"",""0"",""6638""
""fullscreenenter"",""0"",""6820""
","""event"",""trial"",""time""
""blur"",""0"",""0""
","""event"",""trial"",""time""
""focus"",""0"",""6638""
","""event"",""trial"",""time""
""fullscreenenter"",""0"",""6820""
","
","null","<p></p>","null","","","","","","","","","","","","","","","","","","","","","","","",""
"","do_recog","168","519259","0.0-93.0-0.0","""event"",""trial"",""time""
""blur"",""0"",""0""
""focus"",""0"",""6638""
""fullscreenenter"",""0"",""6820""
","""event"",""trial"",""time""
""blur"",""0"",""0""
","""event"",""trial"",""time""
""focus"",""0"",""6638""
","""event"",""trial"",""time""
""fullscreenenter"",""0"",""6820""
","
","1804.1999999284744","","","","","","","","53","","","","304","probe-42","","","","","1","[object Object]","159","3","1","","","",""
"","html-keyboard-response","169","520266","0.0-93.0-1.0","""event"",""trial"",""time""
""blur"",""0"",""0""
""focus"",""0"",""6638""
""fullscreenenter"",""0"",""6820""
","""event"",""trial"",""time""
""blur"",""0"",""0""
","""event"",""trial"",""time""
""focus"",""0"",""6638""
","""event"",""trial"",""time""
""fullscreenenter"",""0"",""6820""
","
","null","<p></p>","null","","","","","","","","","","","","","","","","","","","","","","","",""
"","do_trial","170","523783","0.0-94.0-0.0","""event"",""trial"",""time""
""blur"",""0"",""0""
""focus"",""0"",""6638""
""fullscreenenter"",""0"",""6820""
","""event"",""trial"",""time""
""blur"",""0"",""0""
","""event"",""trial"",""time""
""focus"",""0"",""6638""
","""event"",""trial"",""time""
""fullscreenenter"",""0"",""6820""
","
","926.2999999523163","","","","","","","","50","1,1,0","6","blank","305","null","0.1812035025217485","0.5250088583420299","0.1757860162402328","1","","","","","","","","",""
"","html-keyboard-response","171","524789","0.0-94.0-1.0","""event"",""trial"",""time""
""blur"",""0"",""0""
""focus"",""0"",""6638""
""fullscreenenter"",""0"",""6820""
","""event"",""trial"",""time""
""blur"",""0"",""0""
","""event"",""trial"",""time""
""focus"",""0"",""6638""
","""event"",""trial"",""time""
""fullscreenenter"",""0"",""6820""
","
","null","<p></p>","null","","","","","","","","","","","","","","","","","","","","","","","",""
"","do_trial","172","528373","0.0-95.0-0.0","""event"",""trial"",""time""
""blur"",""0"",""0""
""focus"",""0"",""6638""
""fullscreenenter"",""0"",""6820""
","""event"",""trial"",""time""
""blur"",""0"",""0""
","""event"",""trial"",""time""
""focus"",""0"",""6638""
","""event"",""trial"",""time""
""fullscreenenter"",""0"",""6820""
","
","999.6000000238419","","","","","","","","50","0,0,0","6","blank","306","null","0.373215617328799","0.5780237712944597","0.09615585891433469","0","","","","","","","","",""
"","html-keyboard-response","173","529382","0.0-95.0-1.0","""event"",""trial"",""time""
""blur"",""0"",""0""
""focus"",""0"",""6638""
""fullscreenenter"",""0"",""6820""
","""event"",""trial"",""time""
""blur"",""0"",""0""
","""event"",""trial"",""time""
""focus"",""0"",""6638""
","""event"",""trial"",""time""
""fullscreenenter"",""0"",""6820""
","
","null","<p></p>","null","","","","","","","","","","","","","","","","","","","","","","","",""
"","do_trial","174","532440","0.0-96.0-0.0","""event"",""trial"",""time""
""blur"",""0"",""0""
""focus"",""0"",""6638""
""fullscreenenter"",""0"",""6820""
","""event"",""trial"",""time""
""blur"",""0"",""0""
","""event"",""trial"",""time""
""focus"",""0"",""6638""
","""event"",""trial"",""time""
""fullscreenenter"",""0"",""6820""
","
","461.1999999284744","","","","","","","","51","0,1,0","6","blank","307","null","0.3515357900701223","0.6271443792657699","0.05812559658439709","0","","","","","","","","",""
"","html-keyboard-response","175","533449","0.0-96.0-1.0","""event"",""trial"",""time""
""blur"",""0"",""0""
""focus"",""0"",""6638""
""fullscreenenter"",""0"",""6820""
","""event"",""trial"",""time""
""blur"",""0"",""0""
","""event"",""trial"",""time""
""focus"",""0"",""6638""
","""event"",""trial"",""time""
""fullscreenenter"",""0"",""6820""
","
","null","<p></p>","null","","","","","","","","","","","","","","","","","","","","","","","",""
"","do_trial","176","537161","0.0-97.0-0.0","""event"",""trial"",""time""
""blur"",""0"",""0""
""focus"",""0"",""6638""
""fullscreenenter"",""0"",""6820""
","""event"",""trial"",""time""
""blur"",""0"",""0""
","""event"",""trial"",""time""
""focus"",""0"",""6638""
","""event"",""trial"",""time""
""fullscreenenter"",""0"",""6820""
","
","1113.8999999761581","","","","","","","","51","1,0,0","6","blank","308","null","0.4093339736852334","0.6639119199790204","0.0659606870472213","0","","","","","","","","",""
"","html-keyboard-response","177","538172","0.0-97.0-1.0","""event"",""trial"",""time""
""blur"",""0"",""0""
""focus"",""0"",""6638""
""fullscreenenter"",""0"",""6820""
","""event"",""trial"",""time""
""blur"",""0"",""0""
","""event"",""trial"",""time""
""focus"",""0"",""6638""
","""event"",""trial"",""time""
""fullscreenenter"",""0"",""6820""
","
","null","<p></p>","null","","","","","","","","","","","","","","","","","","","","","","","",""
"","break","178","576278","0.0-98.0-0.0","""event"",""trial"",""time""
""blur"",""0"",""0""
""focus"",""0"",""6638""
""fullscreenenter"",""0"",""6820""
","""event"",""trial"",""time""
""blur"",""0"",""0""
","""event"",""trial"",""time""
""focus"",""0"",""6638""
","""event"",""trial"",""time""
""fullscreenenter"",""0"",""6820""
","
","38105","<div class='center'><p>Time to take a quick break! You have 2 minutes to rest, but you can move on sooner if you'd like.</p><p> Press the <b>space bar</b> to continue.</p></div>","32","","","","","","","","","","","","","","","","","","","","","","","",""
"","do_trial","179","580039","0.0-98.0-1.0","""event"",""trial"",""time""
""blur"",""0"",""0""
""focus"",""0"",""6638""
""fullscreenenter"",""0"",""6820""
","""event"",""trial"",""time""
""blur"",""0"",""0""
","""event"",""trial"",""time""
""focus"",""0"",""6638""
","""event"",""trial"",""time""
""fullscreenenter"",""0"",""6820""
","
","1160.2000000476837","","","","","","","","49","0,0,1","6","blank","309","null","0.392033862843733","0.6469362312810988","0.25107821192415736","0","","","","","","","","",""
"","html-keyboard-response","180","581051","0.0-98.0-2.0","""event"",""trial"",""time""
""blur"",""0"",""0""
""focus"",""0"",""6638""
""fullscreenenter"",""0"",""6820""
","""event"",""trial"",""time""
""blur"",""0"",""0""
","""event"",""trial"",""time""
""focus"",""0"",""6638""
","""event"",""trial"",""time""
""fullscreenenter"",""0"",""6820""
","
","null","<p></p>","null","","","","","","","","","","","","","","","","","","","","","","","",""
"","do_trial","181","584986","0.0-99.0-0.0","""event"",""trial"",""time""
""blur"",""0"",""0""
""focus"",""0"",""6638""
""fullscreenenter"",""0"",""6820""
","""event"",""trial"",""time""
""blur"",""0"",""0""
","""event"",""trial"",""time""
""focus"",""0"",""6638""
","""event"",""trial"",""time""
""fullscreenenter"",""0"",""6820""
","
","1328.7999999523163","","","","","","","","51","1,1,0","6","blank","310","null","0.3407808122848355","0.6849114403959896","0.21936478336442305","0","","","","","","","","",""
"","html-keyboard-response","182","585992","0.0-99.0-1.0","""event"",""trial"",""time""
""blur"",""0"",""0""
""focus"",""0"",""6638""
""fullscreenenter"",""0"",""6820""
","""event"",""trial"",""time""
""blur"",""0"",""0""
","""event"",""trial"",""time""
""focus"",""0"",""6638""
","""event"",""trial"",""time""
""fullscreenenter"",""0"",""6820""
","
","null","<p></p>","null","","","","","","","","","","","","","","","","","","","","","","","",""
"","do_recog","183","589354","0.0-100.0-0.0","""event"",""trial"",""time""
""blur"",""0"",""0""
""focus"",""0"",""6638""
""fullscreenenter"",""0"",""6820""
","""event"",""trial"",""time""
""blur"",""0"",""0""
","""event"",""trial"",""time""
""focus"",""0"",""6638""
","""event"",""trial"",""time""
""fullscreenenter"",""0"",""6820""
","
","1845.3999999761581","","","","","","","","53","","","","311","probe-03","","","","","1","[object Object]","199","4","1","","","",""
"","html-keyboard-response","184","590358","0.0-100.0-1.0","""event"",""trial"",""time""
""blur"",""0"",""0""
""focus"",""0"",""6638""
""fullscreenenter"",""0"",""6820""
","""event"",""trial"",""time""
""blur"",""0"",""0""
","""event"",""trial"",""time""
""focus"",""0"",""6638""
","""event"",""trial"",""time""
""fullscreenenter"",""0"",""6820""
","
","null","<p></p>","null","","","","","","","","","","","","","","","","","","","","","","","",""
"","do_trial","185","593661","0.0-101.0-0.0","""event"",""trial"",""time""
""blur"",""0"",""0""
""focus"",""0"",""6638""
""fullscreenenter"",""0"",""6820""
","""event"",""trial"",""time""
""blur"",""0"",""0""
","""event"",""trial"",""time""
""focus"",""0"",""6638""
","""event"",""trial"",""time""
""fullscreenenter"",""0"",""6820""
","
","739.8000000715256","","","","","","","","50","1,1,0","6","blank","312","null","0.29679209901666503","0.6745709762921135","0.15815607401577114","1","","","","","","","","",""
"","html-keyboard-response","186","594667","0.0-101.0-1.0","""event"",""trial"",""time""
""blur"",""0"",""0""
""focus"",""0"",""6638""
""fullscreenenter"",""0"",""6820""
","""event"",""trial"",""time""
""blur"",""0"",""0""
","""event"",""trial"",""time""
""focus"",""0"",""6638""
","""event"",""trial"",""time""
""fullscreenenter"",""0"",""6820""
","
","null","<p></p>","null","","","","","","","","","","","","","","","","","","","","","","","",""
"","do_trial","187","597246","0.0-102.0-0.0","""event"",""trial"",""time""
""blur"",""0"",""0""
""focus"",""0"",""6638""
""fullscreenenter"",""0"",""6820""
","""event"",""trial"",""time""
""blur"",""0"",""0""
","""event"",""trial"",""time""
""focus"",""0"",""6638""
","""event"",""trial"",""time""
""fullscreenenter"",""0"",""6820""
","
","0.30000007152557373","","","","","","","","49","0,0,0","6","blank","313","null","0.17668623096747887","0.6286251844145745","0.15021227903227424","0","","","","","","","","",""
"","html-keyboard-response","188","598252","0.0-102.0-1.0","""event"",""trial"",""time""
""blur"",""0"",""0""
""focus"",""0"",""6638""
""fullscreenenter"",""0"",""6820""
","""event"",""trial"",""time""
""blur"",""0"",""0""
","""event"",""trial"",""time""
""focus"",""0"",""6638""
","""event"",""trial"",""time""
""fullscreenenter"",""0"",""6820""
","
","null","<p></p>","null","","","","","","","","","","","","","","","","","","","","","","","",""
"","do_trial","189","600882","0.0-103.0-0.0","""event"",""trial"",""time""
""blur"",""0"",""0""
""focus"",""0"",""6638""
""fullscreenenter"",""0"",""6820""
","""event"",""trial"",""time""
""blur"",""0"",""0""
","""event"",""trial"",""time""
""focus"",""0"",""6638""
","""event"",""trial"",""time""
""fullscreenenter"",""0"",""6820""
","
","36","","","","","","","","49","0,0,0","6","blank","314","null","0.33653805626882166","0.5025246574599241","0.1031379476183718","0","","","","","","","","",""
"","html-keyboard-response","190","601888","0.0-103.0-1.0","""event"",""trial"",""time""
""blur"",""0"",""0""
""focus"",""0"",""6638""
""fullscreenenter"",""0"",""6820""
","""event"",""trial"",""time""
""blur"",""0"",""0""
","""event"",""trial"",""time""
""focus"",""0"",""6638""
","""event"",""trial"",""time""
""fullscreenenter"",""0"",""6820""
","
","null","<p></p>","null","","","","","","","","","","","","","","","","","","","","","","","",""
