"success","trial_type","trial_index","time_elapsed","internal_node_id","interactions","blur_events","focus_events","fullscreenenter_events","fullscreenexit_events","rt","stimulus","key_press","subject_id","participant_id","age","gender","prompt","response","choice_outcomes","context_n","context_img_id","trial_n","probe_img_id","pR_red","pR_white","pR_black","outcome","is_valid","image_to_show","probed_trial","probed_context","correct","probe","probed_trial_n","probed_context_n","context_im"
"true","fullscreen","0","4288","0.0-0.0","""event"",""trial"",""time""
""fullscreenenter"",""0"",""3369""
","
","
","""event"",""trial"",""time""
""fullscreenenter"",""0"",""3369""
","
","","","","","","","","","","","","","","","","","","","","","","","","","","",""
"","pavlovia","1","4293","0.0-1.0","""event"",""trial"",""time""
""fullscreenenter"",""0"",""3369""
","
","
","""event"",""trial"",""time""
""fullscreenenter"",""0"",""3369""
","
","","","","","","","","","","","","","","","","","","","","","","","","","","",""
"","welc_back","2","14084","0.0-2.0","""event"",""trial"",""time""
""fullscreenenter"",""0"",""3369""
","
","
","""event"",""trial"",""time""
""fullscreenenter"",""0"",""3369""
","
","null","run_exp/static/audio/clip_29_welcome_back.m4a","null","520","29","11","Male","<div class='center'><p>Welcome to day 2!</p><p> Yesterday, you were the head captain of a pirate ship. You asked your fellow pirates to rob other ships of their gold across six different islands.</p></div>","","","","","","","","","","","","","","","","","","",""
"","html-keyboard-response","3","15982","0.0-3.0","""event"",""trial"",""time""
""fullscreenenter"",""0"",""3369""
","
","
","""event"",""trial"",""time""
""fullscreenenter"",""0"",""3369""
","
","1893.8999999910593","<div class='center'><p>Welcome to day 2!</p><p> Yesterday, you were the head captain of a pirate ship. You asked your fellow pirates to rob other ships of their gold across six different islands.</p><p><b>[Press the space bar to continue]</b></p></div>","32","","","","","","","","","","","","","","","","","","","","","","","",""
"","day_1_summary_goal","4","33179","0.0-4.0","""event"",""trial"",""time""
""fullscreenenter"",""0"",""3369""
","
","
","""event"",""trial"",""time""
""fullscreenenter"",""0"",""3369""
","
","null","run_exp/static/audio/clip_30_goal_of_game.m4a","null","","","","","<div class='center'><p>Today, like yesterday, you get to pick which pirate you want to rob the next ship.</p><p>If the pirate is successful in robbing a ship, you get gold coins that look like this: </p><p><img src='run_exp/static/images/tutorial/reward.png' height='150'></p><p> If they were not successful in robbing the ship, then you will get no gold coins and you'll see a big red x like this: </p><p><img src='run_exp/static/images/tutorial/reward_no.png' height='150'></p></div>","","","","","","","","","","","","","","","","","","",""
"","html-keyboard-response","5","34272","0.0-5.0","""event"",""trial"",""time""
""fullscreenenter"",""0"",""3369""
","
","
","""event"",""trial"",""time""
""fullscreenenter"",""0"",""3369""
","
","1090.9000000059605","<div class='center'><p>Today, like yesterday, you get to pick which pirate you want to rob the next ship.</p><p>If the pirate is successful in robbing a ship, you get gold coins that look like this: </p><p><img src='run_exp/static/images/tutorial/reward.png' height='150'></p><p> If they were not successful in robbing the ship, then you will get no gold coins and you'll see a big red x like this: </p><p><img src='run_exp/static/images/tutorial/reward_no.png' height='150'></p><p><b>[Press the space bar to continue]</b></p></div>","32","","","","","","","","","","","","","","","","","","","","","","","",""
"","day_1_summary_pick","6","48980","0.0-6.0","""event"",""trial"",""time""
""fullscreenenter"",""0"",""3369""
","
","
","""event"",""trial"",""time""
""fullscreenenter"",""0"",""3369""
","
","null","run_exp/static/audio/clip_31_how_to_pick_a_pirate.m4a","null","","","","","<div class='center'><p>Also, just like yesterday, you will use the 1,2,3 keys on your keyboard to pick a pirate. Press '1' to choose red beard, '2' to choose white beard, and '3' to choose black beard . You only have 3 seconds to pick a pirate, so please make a choice quickly!</p></div>","","","","","","","","","","","","","","","","","","",""
"","html-keyboard-response","7","49562","0.0-7.0","""event"",""trial"",""time""
""fullscreenenter"",""0"",""3369""
","
","
","""event"",""trial"",""time""
""fullscreenenter"",""0"",""3369""
","
","579.4000000059605","<div class='center'><p>Also, just like yesterday, you will use the 1,2,3 keys on your keyboard to pick a pirate. Press '1' to choose red beard, '2' to choose white beard, and '3' to choose black beard . You only have 3 seconds to pick a pirate, so please make a choice quickly!</p><p><b>[Press the space bar to continue]</b></p></div>","32","","","","","","","","","","","","","","","","","","","","","","","",""
"","test_phase_begin","8","79939","0.0-8.0","""event"",""trial"",""time""
""fullscreenenter"",""0"",""3369""
","
","
","""event"",""trial"",""time""
""fullscreenenter"",""0"",""3369""
","
","null","run_exp/static/audio/clip_32_final_place.m4a","null","","","","","<div class='center'><p>You’ve arrived at the final island of your journey! Unfortunately, it’s very foggy out, so you won’t be able to see it in the distance like the other islands you've visited.</p><p>You’ll still be deciding which pirate you want to rob a ship like before. However, because of the fog, you also won’t be able to see the ship.</p><p>This means you do not have to remember the ships you rob on this island.</p><p>Unlike yesterday, you won't be visiting multiple islands today. You will stay on this island for the entire game. This game will last ~30 minutes.</p></div>","","","","","","","","","","","","","","","","","","",""
"","html-keyboard-response","9","81111","0.0-9.0","""event"",""trial"",""time""
""fullscreenenter"",""0"",""3369""
","
","
","""event"",""trial"",""time""
""fullscreenenter"",""0"",""3369""
","
","1171.2000000029802","<div class='center'><p>You’ve arrived at the final island of your journey! Unfortunately, it’s very foggy out, so you won’t be able to see it in the distance like the other islands you've visited.</p><p>You’ll still be deciding which pirate you want to rob a ship like before. However, because of the fog, you also won’t be able to see the ship.</p><p>This means you do not have to remember the ships you rob on this island.</p><p>Unlike yesterday, you won't be visiting multiple islands today. You will stay on this island for the entire game. This game will last ~30 minutes.</p><p><b>[Press the space bar to continue]</b></p></div>","32","","","","","","","","","","","","","","","","","","","","","","","",""
"","explain_probe_1","10","88820","0.0-10.0","""event"",""trial"",""time""
""fullscreenenter"",""0"",""3369""
","
","
","""event"",""trial"",""time""
""fullscreenenter"",""0"",""3369""
","
","null","run_exp/static/audio/clip_33_recognition_1.m4a","null","","","","","<div class='center'><p> Sometimes you’ll be shown a ship, and you will be asked if you saw this ship on a past island.</p><p> Here is an example of what you will see.</p><p><img src='run_exp/static/images/tutorial/example_recog_trial.png' height='500'></p></div>","","","","","","","","","","","","","","","","","","",""
"","html-keyboard-response","11","90301","0.0-11.0","""event"",""trial"",""time""
""fullscreenenter"",""0"",""3369""
","
","
","""event"",""trial"",""time""
""fullscreenenter"",""0"",""3369""
","
","1477.2000000029802","<div class='center'><p> Sometimes you’ll be shown a ship, and you will be asked if you saw this ship on a past island.</p><p> Here is an example of what you will see.</p><p><img src='run_exp/static/images/tutorial/example_recog_trial.png' height='500'></p><p><b>[Press the space bar to continue]</b></p></div>","32","","","","","","","","","","","","","","","","","","","","","","","",""
"","explain_probe_2","12","112020","0.0-12.0","""event"",""trial"",""time""
""fullscreenenter"",""0"",""3369""
","
","
","""event"",""trial"",""time""
""fullscreenenter"",""0"",""3369""
","
","null","run_exp/static/audio/clip_34_recognition_2.m4a","null","","","","","<div class='center'><p> You will press the 5, 6, 7, 8 keys on your keyboard to respond.</p><p>If you are sure you saw the ship, press <b>5</b> on your keyboard.</p><p> If you think you saw it before but aren't sure, then press <b>6</b>.</p><p> If you think you have <b>not</b> seen it before but aren't sure, then press <b>7</b>.</p><p> If you are sure you did <b>not</b> see the ship before, then press <b>8</b>.</p><p><img src='run_exp/static/images/tutorial/example_recog_trial.png' height='500'></p></div>","","","","","","","","","","","","","","","","","","",""
"","html-keyboard-response","13","112221","0.0-13.0","""event"",""trial"",""time""
""fullscreenenter"",""0"",""3369""
","
","
","""event"",""trial"",""time""
""fullscreenenter"",""0"",""3369""
","
","198.90000000596046","<div class='center'><p> You will press the 5, 6, 7, 8 keys on your keyboard to respond.</p><p>If you are sure you saw the ship, press <b>5</b> on your keyboard.</p><p> If you think you saw it before but aren't sure, then press <b>6</b>.</p><p> If you think you have <b>not</b> seen it before but aren't sure, then press <b>7</b>.</p><p> If you are sure you did <b>not</b> see the ship before, then press <b>8</b>.</p><p><img src='run_exp/static/images/tutorial/example_recog_trial.png' height='500'></p><p><b>[Press the space bar to continue]</b></p></div>","32","","","","","","","","","","","","","","","","","","","","","","","",""
"","explain_outcome","14","129420","0.0-14.0","""event"",""trial"",""time""
""fullscreenenter"",""0"",""3369""
","
","
","""event"",""trial"",""time""
""fullscreenenter"",""0"",""3369""
","
","null","run_exp/static/audio/clip_35_recognition_3.m4a","null","","","","","<div class='center'><p> If you remember correctly, then you’ll get a gold coin like this: </p><p><img src='run_exp/static/images/tutorial/reward_small.png' height='200'></p><p>If you do not remember correctly, then you'll see a red x like this: </p><p><img src='run_exp/static/images/tutorial/reward_no.png' height='200'></p><p>Importantly, when you are shown a ship, take the time to remind yourself which island you saw it on. This will help you in the next part of the study.</p></div>","","","","","","","","","","","","","","","","","","",""
"","html-keyboard-response","15","130191","0.0-15.0","""event"",""trial"",""time""
""fullscreenenter"",""0"",""3369""
","
","
","""event"",""trial"",""time""
""fullscreenenter"",""0"",""3369""
","
","766.9000000059605","<div class='center'><p> If you remember correctly, then you’ll get a gold coin like this: </p><p><img src='run_exp/static/images/tutorial/reward_small.png' height='200'></p><p>If you do not remember correctly, then you'll see a red x like this: </p><p><img src='run_exp/static/images/tutorial/reward_no.png' height='200'></p><p>Importantly, when you are shown a ship, take the time to remind yourself which island you saw it on. This will help you in the next part of the study.</p><p><b>[Press the space bar to continue]</b></p></div>","32","","","","","","","","","","","","","","","","","","","","","","","",""
"","begin_test_phase","16","146000","0.0-16.0","""event"",""trial"",""time""
""fullscreenenter"",""0"",""3369""
","
","
","""event"",""trial"",""time""
""fullscreenenter"",""0"",""3369""
","
","null","run_exp/static/audio/clip_36_begin_final.m4a","null","","","","","<div class='center'><p>Let's go over the important points again. Your job is to: </p><p>1. Pick the pirate who is best at robbing ships and will bring you back gold coins. </p><p>2. Correctly remember whether or not you saw a ship before. If you did see the ship before, remind yourself on which island you saw it. </p></div>","","","","","","","","","","","","","","","","","","",""
"","html-keyboard-response","17","146582","0.0-17.0","""event"",""trial"",""time""
""fullscreenenter"",""0"",""3369""
","
","
","""event"",""trial"",""time""
""fullscreenenter"",""0"",""3369""
","
","528","<div class='center'><p>Let's go over the important points again. Your job is to: </p><p>1. Pick the pirate who is best at robbing ships and will bring you back gold coins. </p><p>2. Correctly remember whether or not you saw a ship before. If you did see the ship before, remind yourself on which island you saw it. </p><p><b>[Press the space bar to continue]</b></p></div>","32","","","","","","","","","","","","","","","","","","","","","","","",""
"","do_welcome","18","150605","0.0-18.0","""event"",""trial"",""time""
""fullscreenenter"",""0"",""3369""
","
","
","""event"",""trial"",""time""
""fullscreenenter"",""0"",""3369""
","
","null","","","","","","","","null","","","","","","","","","","","","","","","","","",""
"","do_trial","19","154305","0.0-19.0-0.0","""event"",""trial"",""time""
""fullscreenenter"",""0"",""3369""
","
","
","""event"",""trial"",""time""
""fullscreenenter"",""0"",""3369""
","
","1135.5999999940395","","","","","","","","49","1,0,0","6","blank","230","null","0.3820442562261569","0.12164789614956943","0.5554726532401394","1","","","","","","","","",""
"","html-keyboard-response","20","155321","0.0-19.0-1.0","""event"",""trial"",""time""
""fullscreenenter"",""0"",""3369""
","
","
","""event"",""trial"",""time""
""fullscreenenter"",""0"",""3369""
","
","null","<p></p>","null","","","","","","","","","","","","","","","","","","","","","","","",""
"","do_trial","21","158398","0.0-20.0-0.0","""event"",""trial"",""time""
""fullscreenenter"",""0"",""3369""
","
","
","""event"",""trial"",""time""
""fullscreenenter"",""0"",""3369""
","
","502.29999999701977","","","","","","","","51","0,0,1","6","blank","231","null","0.23598500640444603","0.10651718066215286","0.5842222718443812","1","","","","","","","","",""
"","html-keyboard-response","22","159413","0.0-20.0-1.0","""event"",""trial"",""time""
""fullscreenenter"",""0"",""3369""
","
","
","""event"",""trial"",""time""
""fullscreenenter"",""0"",""3369""
","
","null","<p></p>","null","","","","","","","","","","","","","","","","","","","","","","","",""
"","do_trial","23","162287","0.0-21.0-0.0","""event"",""trial"",""time""
""fullscreenenter"",""0"",""3369""
","
","
","""event"",""trial"",""time""
""fullscreenenter"",""0"",""3369""
","
","310.59999999403954","","","","","","","","51","0,1,0","6","blank","232","null","0.24502602205609353","0.11916003598028646","0.5256669032065774","0","","","","","","","","",""
"","html-keyboard-response","24","163302","0.0-21.0-1.0","""event"",""trial"",""time""
""fullscreenenter"",""0"",""3369""
","
","
","""event"",""trial"",""time""
""fullscreenenter"",""0"",""3369""
","
","null","<p></p>","null","","","","","","","","","","","","","","","","","","","","","","","",""
"","do_trial","25","166154","0.0-22.0-0.0","""event"",""trial"",""time""
""fullscreenenter"",""0"",""3369""
","
","
","""event"",""trial"",""time""
""fullscreenenter"",""0"",""3369""
","
","302.29999999701977","","","","","","","","50","0,0,0","6","blank","233","null","0.2241049917153994","0.12014805157404564","0.4838683182630899","0","","","","","","","","",""
"","html-keyboard-response","26","167166","0.0-22.0-1.0","""event"",""trial"",""time""
""fullscreenenter"",""0"",""3369""
","
","
","""event"",""trial"",""time""
""fullscreenenter"",""0"",""3369""
","
","null","<p></p>","null","","","","","","","","","","","","","","","","","","","","","","","",""
"","do_trial","27","170195","0.0-23.0-0.0","""event"",""trial"",""time""
""fullscreenenter"",""0"",""3369""
","
","
","""event"",""trial"",""time""
""fullscreenenter"",""0"",""3369""
","
","468.70000000298023","","","","","","","","49","1,0,0","6","blank","234","null","0.2342952632230129","0.09433332892813534","0.5152777071671503","1","","","","","","","","",""
"","html-keyboard-response","28","171206","0.0-23.0-1.0","""event"",""trial"",""time""
""fullscreenenter"",""0"",""3369""
","
","
","""event"",""trial"",""time""
""fullscreenenter"",""0"",""3369""
","
","null","<p></p>","null","","","","","","","","","","","","","","","","","","","","","","","",""
"","do_trial","29","174280","0.0-24.0-0.0","""event"",""trial"",""time""
""fullscreenenter"",""0"",""3369""
","
","
","""event"",""trial"",""time""
""fullscreenenter"",""0"",""3369""
","
","515","","","","","","","","49","0,0,0","6","blank","235","null","0.4220603993885875","0.1847606330463494","0.5780146440500196","0","","","","","","","","",""
"","html-keyboard-response","30","175283","0.0-24.0-1.0","""event"",""trial"",""time""
""fullscreenenter"",""0"",""3369""
","
","
","""event"",""trial"",""time""
""fullscreenenter"",""0"",""3369""
","
","null","<p></p>","null","","","","","","","","","","","","","","","","","","","","","","","",""
"","do_trial","31","178108","0.0-25.0-0.0","""event"",""trial"",""time""
""fullscreenenter"",""0"",""3369""
","
","
","""event"",""trial"",""time""
""fullscreenenter"",""0"",""3369""
","
","269.90000000596046","","","","","","","","50","0,0,1","6","blank","236","null","0.36034374684388176","0.2488793025380747","0.542819476449934","0","","","","","","","","",""
"","html-keyboard-response","32","179119","0.0-25.0-1.0","""event"",""trial"",""time""
""fullscreenenter"",""0"",""3369""
","
","
","""event"",""trial"",""time""
""fullscreenenter"",""0"",""3369""
","
","null","<p></p>","null","","","","","","","","","","","","","","","","","","","","","","","",""
"","do_trial","33","182004","0.0-26.0-0.0","""event"",""trial"",""time""
""fullscreenenter"",""0"",""3369""
","
","
","""event"",""trial"",""time""
""fullscreenenter"",""0"",""3369""
","
","325.70000000298023","","","","","","","","49","1,1,1","6","blank","237","null","0.28111215272458384","0.11268053636463289","0.5094876412976751","1","","","","","","","","",""
"","html-keyboard-response","34","183021","0.0-26.0-1.0","""event"",""trial"",""time""
""fullscreenenter"",""0"",""3369""
","
","
","""event"",""trial"",""time""
""fullscreenenter"",""0"",""3369""
","
","null","<p></p>","null","","","","","","","","","","","","","","","","","","","","","","","",""
"","do_trial","35","185865","0.0-27.0-0.0","""event"",""trial"",""time""
""fullscreenenter"",""0"",""3369""
","
","
","""event"",""trial"",""time""
""fullscreenenter"",""0"",""3369""
","
","295.09999999403954","","","","","","","","49","1,1,1","6","blank","238","null","0.4224846679949053","0.18921388408040885","0.4358662857473793","1","","","","","","","","",""
"","html-keyboard-response","36","186882","0.0-27.0-1.0","""event"",""trial"",""time""
""fullscreenenter"",""0"",""3369""
","
","
","""event"",""trial"",""time""
""fullscreenenter"",""0"",""3369""
","
","null","<p></p>","null","","","","","","","","","","","","","","","","","","","","","","","",""
"","do_trial","37","189743","0.0-28.0-0.0","""event"",""trial"",""time""
""fullscreenenter"",""0"",""3369""
","
","
","""event"",""trial"",""time""
""fullscreenenter"",""0"",""3369""
","
","300.20000000298023","","","","","","","","49","0,1,1","6","blank","239","null","0.31305733117282997","0.1335568557040116","0.5933208279580362","0","","","","","","","","",""
"","html-keyboard-response","38","190757","0.0-28.0-1.0","""event"",""trial"",""time""
""fullscreenenter"",""0"",""3369""
","
","
","""event"",""trial"",""time""
""fullscreenenter"",""0"",""3369""
","
","null","<p></p>","null","","","","","","","","","","","","","","","","","","","","","","","",""
"","do_trial","39","193607","0.0-29.0-0.0","""event"",""trial"",""time""
""fullscreenenter"",""0"",""3369""
","
","
","""event"",""trial"",""time""
""fullscreenenter"",""0"",""3369""
","
","285.70000000298023","","","","","","","","49","1,1,0","6","blank","240","null","0.36315582549300907","0.20340255053019618","0.4759459847790114","1","","","","","","","","",""
"","html-keyboard-response","40","194615","0.0-29.0-1.0","""event"",""trial"",""time""
""fullscreenenter"",""0"",""3369""
","
","
","""event"",""trial"",""time""
""fullscreenenter"",""0"",""3369""
","
","null","<p></p>","null","","","","","","","","","","","","","","","","","","","","","","","",""
"","do_trial","41","197231","0.0-30.0-0.0","""event"",""trial"",""time""
""fullscreenenter"",""0"",""3369""
","
","
","""event"",""trial"",""time""
""fullscreenenter"",""0"",""3369""
","
","57.099999994039536","","","","","","","","49","0,0,1","6","blank","241","null","0.24114376793868644","0.2583007555935906","0.5382573225447319","0","","","","","","","","",""
"","html-keyboard-response","42","198240","0.0-30.0-1.0","""event"",""trial"",""time""
""fullscreenenter"",""0"",""3369""
","
","
","""event"",""trial"",""time""
""fullscreenenter"",""0"",""3369""
","
","null","<p></p>","null","","","","","","","","","","","","","","","","","","","","","","","",""
"","do_trial","43","201072","0.0-31.0-0.0","""event"",""trial"",""time""
""fullscreenenter"",""0"",""3369""
","
","
","""event"",""trial"",""time""
""fullscreenenter"",""0"",""3369""
","
","281.6000000089407","","","","","","","","49","0,0,1","6","blank","242","null","0.1053713320964917","0.33562979532228226","0.3843866954016656","0","","","","","","","","",""
"","html-keyboard-response","44","202076","0.0-31.0-1.0","""event"",""trial"",""time""
""fullscreenenter"",""0"",""3369""
","
","
","""event"",""trial"",""time""
""fullscreenenter"",""0"",""3369""
","
","null","<p></p>","null","","","","","","","","","","","","","","","","","","","","","","","",""
"","do_trial","45","204926","0.0-32.0-0.0","""event"",""trial"",""time""
""fullscreenenter"",""0"",""3369""
","
","
","""event"",""trial"",""time""
""fullscreenenter"",""0"",""3369""
","
","298","","","","","","","","49","0,1,1","6","blank","243","null","0.26149470110780165","0.4837521059610219","0.30383160895064243","0","","","","","","","","",""
"","html-keyboard-response","46","205944","0.0-32.0-1.0","""event"",""trial"",""time""
""fullscreenenter"",""0"",""3369""
","
","
","""event"",""trial"",""time""
""fullscreenenter"",""0"",""3369""
","
","null","<p></p>","null","","","","","","","","","","","","","","","","","","","","","","","",""
"","do_trial","47","209432","0.0-33.0-0.0","""event"",""trial"",""time""
""fullscreenenter"",""0"",""3369""
","
","
","""event"",""trial"",""time""
""fullscreenenter"",""0"",""3369""
","
","930.7999999970198","","","","","","","","51","0,1,1","6","blank","244","null","0.38731980870514165","0.6201140736403291","0.2558491211737207","1","","","","","","","","",""
"","html-keyboard-response","48","210439","0.0-33.0-1.0","""event"",""trial"",""time""
""fullscreenenter"",""0"",""3369""
","
","
","""event"",""trial"",""time""
""fullscreenenter"",""0"",""3369""
","
","null","<p></p>","null","","","","","","","","","","","","","","","","","","","","","","","",""
"","do_trial","49","213373","0.0-34.0-0.0","""event"",""trial"",""time""
""fullscreenenter"",""0"",""3369""
","
","
","""event"",""trial"",""time""
""fullscreenenter"",""0"",""3369""
","
","372.80000001192093","","","","","","","","51","1,1,0","6","blank","245","null","0.2804612032692397","0.6347262532261495","0.18660205786043244","0","","","","","","","","",""
"","html-keyboard-response","50","214384","0.0-34.0-1.0","""event"",""trial"",""time""
""fullscreenenter"",""0"",""3369""
","
","
","""event"",""trial"",""time""
""fullscreenenter"",""0"",""3369""
","
","null","<p></p>","null","","","","","","","","","","","","","","","","","","","","","","","",""
"","do_recog","51","220418","0.0-35.0-0.0","""event"",""trial"",""time""
""fullscreenenter"",""0"",""3369""
","
","
","""event"",""trial"",""time""
""fullscreenenter"",""0"",""3369""
","
","null","","","","","","","","null","","","","246","probe-19","","","","","1","[object Object]","191","4","0","","","",""
"","html-keyboard-response","52","221435","0.0-35.0-1.0","""event"",""trial"",""time""
""fullscreenenter"",""0"",""3369""
","
","
","""event"",""trial"",""time""
""fullscreenenter"",""0"",""3369""
","
","null","<p></p>","null","","","","","","","","","","","","","","","","","","","","","","","",""
"","do_trial","53","225459","0.0-36.0-0.0","""event"",""trial"",""time""
""fullscreenenter"",""0"",""3369""
","
","
","""event"",""trial"",""time""
""fullscreenenter"",""0"",""3369""
","
","1454.0999999940395","","","","","","","","49","0,0,1","6","blank","247","null","0.16981871654687655","0.6612388967644176","0.24739494082449068","0","","","","","","","","",""
"","html-keyboard-response","54","226473","0.0-36.0-1.0","""event"",""trial"",""time""
""fullscreenenter"",""0"",""3369""
","
","
","""event"",""trial"",""time""
""fullscreenenter"",""0"",""3369""
","
","null","<p></p>","null","","","","","","","","","","","","","","","","","","","","","","","",""
"","do_recog","55","230618","0.0-37.0-0.0","""event"",""trial"",""time""
""fullscreenenter"",""0"",""3369""
","
","
","""event"",""trial"",""time""
""fullscreenenter"",""0"",""3369""
","
","2621.1000000089407","","","","","","","","56","","","","248","probe-217","","","","","1","[object Object]","198","4","0","","","",""
"","html-keyboard-response","56","231630","0.0-37.0-1.0","""event"",""trial"",""time""
""fullscreenenter"",""0"",""3369""
","
","
","""event"",""trial"",""time""
""fullscreenenter"",""0"",""3369""
","
","null","<p></p>","null","","","","","","","","","","","","","","","","","","","","","","","",""
"","do_trial","57","235546","0.0-38.0-0.0","""event"",""trial"",""time""
""fullscreenenter"",""0"",""3369""
","
","
","""event"",""trial"",""time""
""fullscreenenter"",""0"",""3369""
","
","1363.5","","","","","","","","49","1,1,0","6","blank","249","null","0.15207524064446667","0.6461736992868968","0.2925215880115386","1","","","","","","","","",""
"","html-keyboard-response","58","236551","0.0-38.0-1.0","""event"",""trial"",""time""
""fullscreenenter"",""0"",""3369""
","
","
","""event"",""trial"",""time""
""fullscreenenter"",""0"",""3369""
","
","null","<p></p>","null","","","","","","","","","","","","","","","","","","","","","","","",""
"","do_trial","59","239378","0.0-39.0-0.0","""event"",""trial"",""time""
""fullscreenenter"",""0"",""3369""
","
","
","""event"",""trial"",""time""
""fullscreenenter"",""0"",""3369""
","
","273.29999999701977","","","","","","","","50","0,1,0","6","blank","250","null","0.13155739274736658","0.4560318227826518","0.2662914391261547","1","","","","","","","","",""
"","html-keyboard-response","60","240393","0.0-39.0-1.0","""event"",""trial"",""time""
""fullscreenenter"",""0"",""3369""
","
","
","""event"",""trial"",""time""
""fullscreenenter"",""0"",""3369""
","
","null","<p></p>","null","","","","","","","","","","","","","","","","","","","","","","","",""
"","do_trial","61","243233","0.0-40.0-0.0","""event"",""trial"",""time""
""fullscreenenter"",""0"",""3369""
","
","
","""event"",""trial"",""time""
""fullscreenenter"",""0"",""3369""
","
","289","","","","","","","","50","0,0,0","6","blank","251","null","0.15529317329608572","0.43499520362913574","0.3408635413461827","0","","","","","","","","",""
"","html-keyboard-response","62","244243","0.0-40.0-1.0","""event"",""trial"",""time""
""fullscreenenter"",""0"",""3369""
","
","
","""event"",""trial"",""time""
""fullscreenenter"",""0"",""3369""
","
","null","<p></p>","null","","","","","","","","","","","","","","","","","","","","","","","",""
"","do_trial","63","247572","0.0-41.0-0.0","""event"",""trial"",""time""
""fullscreenenter"",""0"",""3369""
","
","
","""event"",""trial"",""time""
""fullscreenenter"",""0"",""3369""
","
","753","","","","","","","","50","0,0,0","6","blank","252","null","0.08959217642621646","0.4328585212384377","0.304682907620144","0","","","","","","","","",""
"","html-keyboard-response","64","248583","0.0-41.0-1.0","""event"",""trial"",""time""
""fullscreenenter"",""0"",""3369""
","
","
","""event"",""trial"",""time""
""fullscreenenter"",""0"",""3369""
","
","null","<p></p>","null","","","","","","","","","","","","","","","","","","","","","","","",""
"","do_recog","65","252436","0.0-42.0-0.0","""event"",""trial"",""time""
""fullscreenenter"",""0"",""3369""
","
","
","""event"",""trial"",""time""
""fullscreenenter"",""0"",""3369""
","
","2326.5","","","","","","","","54","","","","253","probe-55","","","","","1","[object Object]","111","2","1","","","",""
"","html-keyboard-response","66","253441","0.0-42.0-1.0","""event"",""trial"",""time""
""fullscreenenter"",""0"",""3369""
","
","
","""event"",""trial"",""time""
""fullscreenenter"",""0"",""3369""
","
","null","<p></p>","null","","","","","","","","","","","","","","","","","","","","","","","",""
"","do_trial","67","257452","0.0-43.0-0.0","""event"",""trial"",""time""
""fullscreenenter"",""0"",""3369""
","
","
","""event"",""trial"",""time""
""fullscreenenter"",""0"",""3369""
","
","1444.5999999940395","","","","","","","","50","0,0,0","6","blank","254","null","0.15164334035550217","0.32833859178365726","0.3519314787479082","0","","","","","","","","",""
"","html-keyboard-response","68","258456","0.0-43.0-1.0","""event"",""trial"",""time""
""fullscreenenter"",""0"",""3369""
","
","
","""event"",""trial"",""time""
""fullscreenenter"",""0"",""3369""
","
","null","<p></p>","null","","","","","","","","","","","","","","","","","","","","","","","",""
"","do_recog","69","262072","0.0-44.0-0.0","""event"",""trial"",""time""
""fullscreenenter"",""0"",""3369""
","
","
","""event"",""trial"",""time""
""fullscreenenter"",""0"",""3369""
","
","2100.2999999970198","","","","","","","","53","","","","255","probe-165","","","","","1","[object Object]","193","4","1","","","",""
"","html-keyboard-response","70","263085","0.0-44.0-1.0","""event"",""trial"",""time""
""fullscreenenter"",""0"",""3369""
","
","
","""event"",""trial"",""time""
""fullscreenenter"",""0"",""3369""
","
","null","<p></p>","null","","","","","","","","","","","","","","","","","","","","","","","",""
"","do_trial","71","266724","0.0-45.0-0.0","""event"",""trial"",""time""
""fullscreenenter"",""0"",""3369""
","
","
","""event"",""trial"",""time""
""fullscreenenter"",""0"",""3369""
","
","1089.7999999970198","","","","","","","","51","0,1,0","6","blank","256","null","0.16202019643493185","0.5002110645478056","0.23242298880053036","0","","","","","","","","",""
"","html-keyboard-response","72","267729","0.0-45.0-1.0","""event"",""trial"",""time""
""fullscreenenter"",""0"",""3369""
","
","
","""event"",""trial"",""time""
""fullscreenenter"",""0"",""3369""
","
","null","<p></p>","null","","","","","","","","","","","","","","","","","","","","","","","",""
"","do_recog","73","271387","0.0-46.0-0.0","""event"",""trial"",""time""
""fullscreenenter"",""0"",""3369""
","
","
","""event"",""trial"",""time""
""fullscreenenter"",""0"",""3369""
","
","2144.5","","","","","","","","53","","","","257","probe-108","","","","","1","[object Object]","115","2","1","","","",""
"","html-keyboard-response","74","272391","0.0-46.0-1.0","""event"",""trial"",""time""
""fullscreenenter"",""0"",""3369""
","
","
","""event"",""trial"",""time""
""fullscreenenter"",""0"",""3369""
","
","null","<p></p>","null","","","","","","","","","","","","","","","","","","","","","","","",""
"","do_trial","75","275505","0.0-47.0-0.0","""event"",""trial"",""time""
""fullscreenenter"",""0"",""3369""
","
","
","""event"",""trial"",""time""
""fullscreenenter"",""0"",""3369""
","
","559.7000000029802","","","","","","","","49","1,0,1","6","blank","258","null","0.1130712166012624","0.4904658424805311","0.28342107990495785","1","","","","","","","","",""
"","html-keyboard-response","76","276518","0.0-47.0-1.0","""event"",""trial"",""time""
""fullscreenenter"",""0"",""3369""
","
","
","""event"",""trial"",""time""
""fullscreenenter"",""0"",""3369""
","
","null","<p></p>","null","","","","","","","","","","","","","","","","","","","","","","","",""
"","do_trial","77","279506","0.0-48.0-0.0","""event"",""trial"",""time""
""fullscreenenter"",""0"",""3369""
","
","
","""event"",""trial"",""time""
""fullscreenenter"",""0"",""3369""
","
","422.70000000298023","","","","","","","","49","1,0,0","6","blank","259","null","0.13610744988373738","0.5937222404949121","0.38715715467801465","1","","","","","","","","",""
"","html-keyboard-response","78","280515","0.0-48.0-1.0","""event"",""trial"",""time""
""fullscreenenter"",""0"",""3369""
","
","
","""event"",""trial"",""time""
""fullscreenenter"",""0"",""3369""
","
","null","<p></p>","null","","","","","","","","","","","","","","","","","","","","","","","",""
"","do_trial","79","283357","0.0-49.0-0.0","""event"",""trial"",""time""
""fullscreenenter"",""0"",""3369""
","
","
","""event"",""trial"",""time""
""fullscreenenter"",""0"",""3369""
","
","288.29999999701977","","","","","","","","49","0,1,0","6","blank","260","null","0.25633116625290736","0.6096894130116358","0.40084475567137295","0","","","","","","","","",""
"","html-keyboard-response","80","284370","0.0-49.0-1.0","""event"",""trial"",""time""
""fullscreenenter"",""0"",""3369""
","
","
","""event"",""trial"",""time""
""fullscreenenter"",""0"",""3369""
","
","null","<p></p>","null","","","","","","","","","","","","","","","","","","","","","","","",""
"","do_trial","81","287210","0.0-50.0-0.0","""event"",""trial"",""time""
""fullscreenenter"",""0"",""3369""
","
","
","""event"",""trial"",""time""
""fullscreenenter"",""0"",""3369""
","
","284.70000000298023","","","","","","","","49","0,1,1","6","blank","261","null","0.05275706917190094","0.6226586381502258","0.4224972625199547","0","","","","","","","","",""
"","html-keyboard-response","82","288212","0.0-50.0-1.0","""event"",""trial"",""time""
""fullscreenenter"",""0"",""3369""
","
","
","""event"",""trial"",""time""
""fullscreenenter"",""0"",""3369""
","
","null","<p></p>","null","","","","","","","","","","","","","","","","","","","","","","","",""
"","do_trial","83","291165","0.0-51.0-0.0","""event"",""trial"",""time""
""fullscreenenter"",""0"",""3369""
","
","
","""event"",""trial"",""time""
""fullscreenenter"",""0"",""3369""
","
","371.20000000298023","","","","","","","","49","0,1,0","6","blank","262","null","0.08253732337659224","0.41104610012089804","0.4057925979846331","0","","","","","","","","",""
"","html-keyboard-response","84","292174","0.0-51.0-1.0","""event"",""trial"",""time""
""fullscreenenter"",""0"",""3369""
","
","
","""event"",""trial"",""time""
""fullscreenenter"",""0"",""3369""
","
","null","<p></p>","null","","","","","","","","","","","","","","","","","","","","","","","",""
"","do_recog","85","295843","0.0-52.0-0.0","""event"",""trial"",""time""
""fullscreenenter"",""0"",""3369""
","
","
","""event"",""trial"",""time""
""fullscreenenter"",""0"",""3369""
","
","2142.5999999940395","","","","","","","","53","","","","263","probe-207","","","","","1","[object Object]","73","1","1","","","",""
"","html-keyboard-response","86","296853","0.0-52.0-1.0","""event"",""trial"",""time""
""fullscreenenter"",""0"",""3369""
","
","
","""event"",""trial"",""time""
""fullscreenenter"",""0"",""3369""
","
","null","<p></p>","null","","","","","","","","","","","","","","","","","","","","","","","",""
"","do_trial","87","300427","0.0-53.0-0.0","""event"",""trial"",""time""
""fullscreenenter"",""0"",""3369""
","
","
","""event"",""trial"",""time""
""fullscreenenter"",""0"",""3369""
","
","1009.6000000089407","","","","","","","","49","0,0,1","6","blank","264","null","0.21281517600463445","0.43176619900161145","0.33634051250403785","0","","","","","","","","",""
"","html-keyboard-response","88","301429","0.0-53.0-1.0","""event"",""trial"",""time""
""fullscreenenter"",""0"",""3369""
","
","
","""event"",""trial"",""time""
""fullscreenenter"",""0"",""3369""
","
","null","<p></p>","null","","","","","","","","","","","","","","","","","","","","","","","",""
"","do_trial","89","304219","0.0-54.0-0.0","""event"",""trial"",""time""
""fullscreenenter"",""0"",""3369""
","
","
","""event"",""trial"",""time""
""fullscreenenter"",""0"",""3369""
","
","238.20000000298023","","","","","","","","50","0,1,1","6","blank","265","null","0.17537056498297618","0.4770545058852211","0.27159997414932996","1","","","","","","","","",""
"","html-keyboard-response","90","305228","0.0-54.0-1.0","""event"",""trial"",""time""
""fullscreenenter"",""0"",""3369""
","
","
","""event"",""trial"",""time""
""fullscreenenter"",""0"",""3369""
","
","null","<p></p>","null","","","","","","","","","","","","","","","","","","","","","","","",""
"","do_trial","91","308192","0.0-55.0-0.0","""event"",""trial"",""time""
""fullscreenenter"",""0"",""3369""
","
","
","""event"",""trial"",""time""
""fullscreenenter"",""0"",""3369""
","
","405.59999999403954","","","","","","","","50","0,0,1","6","blank","266","null","0.0537901420941877","0.5701606120598509","0.41464813766346764","0","","","","","","","","",""
"","html-keyboard-response","92","309199","0.0-55.0-1.0","""event"",""trial"",""time""
""fullscreenenter"",""0"",""3369""
","
","
","""event"",""trial"",""time""
""fullscreenenter"",""0"",""3369""
","
","null","<p></p>","null","","","","","","","","","","","","","","","","","","","","","","","",""
"","do_trial","93","311913","0.0-56.0-0.0","""event"",""trial"",""time""
""fullscreenenter"",""0"",""3369""
","
","
","""event"",""trial"",""time""
""fullscreenenter"",""0"",""3369""
","
","155.3999999910593","","","","","","","","50","0,0,0","6","blank","267","null","0.15660084362337975","0.4671863257236865","0.29548015609559264","0","","","","","","","","",""
"","html-keyboard-response","94","312929","0.0-56.0-1.0","""event"",""trial"",""time""
""fullscreenenter"",""0"",""3369""
","
","
","""event"",""trial"",""time""
""fullscreenenter"",""0"",""3369""
","
","null","<p></p>","null","","","","","","","","","","","","","","","","","","","","","","","",""
"","do_trial","95","315861","0.0-57.0-0.0","""event"",""trial"",""time""
""fullscreenenter"",""0"",""3369""
","
","
","""event"",""trial"",""time""
""fullscreenenter"",""0"",""3369""
","
","360.3999999910593","","","","","","","","51","1,0,1","6","blank","268","null","0.2850109915395072","0.4378613085365796","0.2621761266385828","1","","","","","","","","",""
"","html-keyboard-response","96","316874","0.0-57.0-1.0","""event"",""trial"",""time""
""fullscreenenter"",""0"",""3369""
","
","
","""event"",""trial"",""time""
""fullscreenenter"",""0"",""3369""
","
","null","<p></p>","null","","","","","","","","","","","","","","","","","","","","","","","",""
"","break","97","320140","0.0-58.0-0.0","""event"",""trial"",""time""
""fullscreenenter"",""0"",""3369""
","
","
","""event"",""trial"",""time""
""fullscreenenter"",""0"",""3369""
","
","3263.7999999970198","<div class='center'><p>Time to take a quick break! You have 2 minutes to rest, but you can move on sooner if you'd like.</p><p> Press the <b>space bar</b> to continue.</p></div>","32","","","","","","","","","","","","","","","","","","","","","","","",""
"","do_recog","98","323537","0.0-58.0-1.0","""event"",""trial"",""time""
""fullscreenenter"",""0"",""3369""
","
","
","""event"",""trial"",""time""
""fullscreenenter"",""0"",""3369""
","
","1886.1000000089407","","","","","","","","53","","","","269","probe-216","","","","","1","[object Object]","158","3","1","","","",""
"","html-keyboard-response","99","324553","0.0-58.0-2.0","""event"",""trial"",""time""
""fullscreenenter"",""0"",""3369""
","
","
","""event"",""trial"",""time""
""fullscreenenter"",""0"",""3369""
","
","null","<p></p>","null","","","","","","","","","","","","","","","","","","","","","","","",""
"","do_trial","100","328758","0.0-59.0-0.0","""event"",""trial"",""time""
""fullscreenenter"",""0"",""3369""
","
","
","""event"",""trial"",""time""
""fullscreenenter"",""0"",""3369""
","
","1649.5999999940395","","","","","","","","50","0,0,0","6","blank","270","null","0.14267711468299016","0.5895101934329278","0.2728819633736873","0","","","","","","","","",""
"","html-keyboard-response","101","329767","0.0-59.0-1.0","""event"",""trial"",""time""
""fullscreenenter"",""0"",""3369""
","
","
","""event"",""trial"",""time""
""fullscreenenter"",""0"",""3369""
","
","null","<p></p>","null","","","","","","","","","","","","","","","","","","","","","","","",""
"","do_recog","102","334074","0.0-60.0-0.0","""event"",""trial"",""time""
""fullscreenenter"",""0"",""3369""
","
","
","""event"",""trial"",""time""
""fullscreenenter"",""0"",""3369""
","
","2784.699999988079","","","","","","","","54","","","","271","probe-229","","","","","1","[object Object]","71","1","1","","","",""
"","html-keyboard-response","103","335090","0.0-60.0-1.0","""event"",""trial"",""time""
""fullscreenenter"",""0"",""3369""
","
","
","""event"",""trial"",""time""
""fullscreenenter"",""0"",""3369""
","
","null","<p></p>","null","","","","","","","","","","","","","","","","","","","","","","","",""
"","do_trial","104","338925","0.0-61.0-0.0","""event"",""trial"",""time""
""fullscreenenter"",""0"",""3369""
","
","
","""event"",""trial"",""time""
""fullscreenenter"",""0"",""3369""
","
","1254.7000000029802","","","","","","","","51","0,0,1","6","blank","272","null","0.09258389556972749","0.6550009348176171","0.1368744193922071","1","","","","","","","","",""
"","html-keyboard-response","105","339932","0.0-61.0-1.0","""event"",""trial"",""time""
""fullscreenenter"",""0"",""3369""
","
","
","""event"",""trial"",""time""
""fullscreenenter"",""0"",""3369""
","
","null","<p></p>","null","","","","","","","","","","","","","","","","","","","","","","","",""
"","do_trial","106","343050","0.0-62.0-0.0","""event"",""trial"",""time""
""fullscreenenter"",""0"",""3369""
","
","
","""event"",""trial"",""time""
""fullscreenenter"",""0"",""3369""
","
","561.5999999940395","","","","","","","","51","0,1,1","6","blank","273","null","0.05690435632319556","0.7179213121558943","0.19003609470753927","1","","","","","","","","",""
"","html-keyboard-response","107","344062","0.0-62.0-1.0","""event"",""trial"",""time""
""fullscreenenter"",""0"",""3369""
","
","
","""event"",""trial"",""time""
""fullscreenenter"",""0"",""3369""
","
","null","<p></p>","null","","","","","","","","","","","","","","","","","","","","","","","",""
"","do_trial","108","347180","0.0-63.0-0.0","""event"",""trial"",""time""
""fullscreenenter"",""0"",""3369""
","
","
","""event"",""trial"",""time""
""fullscreenenter"",""0"",""3369""
","
","561.2000000029802","","","","","","","","51","0,0,0","6","blank","274","null","0.12232336518993796","0.6081735759994562","0.17054457328817652","0","","","","","","","","",""
"","html-keyboard-response","109","348183","0.0-63.0-1.0","""event"",""trial"",""time""
""fullscreenenter"",""0"",""3369""
","
","
","""event"",""trial"",""time""
""fullscreenenter"",""0"",""3369""
","
","null","<p></p>","null","","","","","","","","","","","","","","","","","","","","","","","",""
"","do_trial","110","351105","0.0-64.0-0.0","""event"",""trial"",""time""
""fullscreenenter"",""0"",""3369""
","
","
","""event"",""trial"",""time""
""fullscreenenter"",""0"",""3369""
","
","357.5","","","","","","","","51","0,1,0","6","blank","275","null","0.11271157254970614","0.7131518358446715","0.3332271713416553","0","","","","","","","","",""
"","html-keyboard-response","111","352108","0.0-64.0-1.0","""event"",""trial"",""time""
""fullscreenenter"",""0"",""3369""
","
","
","""event"",""trial"",""time""
""fullscreenenter"",""0"",""3369""
","
","null","<p></p>","null","","","","","","","","","","","","","","","","","","","","","","","",""
"","do_recog","112","356309","0.0-65.0-0.0","""event"",""trial"",""time""
""fullscreenenter"",""0"",""3369""
","
","
","""event"",""trial"",""time""
""fullscreenenter"",""0"",""3369""
","
","2683.9000000059605","","","","","","","","55","","","","276","probe-16","","","","","1","[object Object]","192","4","0","","","",""
"","html-keyboard-response","113","357314","0.0-65.0-1.0","""event"",""trial"",""time""
""fullscreenenter"",""0"",""3369""
","
","
","""event"",""trial"",""time""
""fullscreenenter"",""0"",""3369""
","
","null","<p></p>","null","","","","","","","","","","","","","","","","","","","","","","","",""
"","do_trial","114","360974","0.0-66.0-0.0","""event"",""trial"",""time""
""fullscreenenter"",""0"",""3369""
","
","
","""event"",""trial"",""time""
""fullscreenenter"",""0"",""3369""
","
","1109.8999999910593","","","","","","","","50","0,0,1","6","blank","277","null","0.09989086119097867","0.6382769543865512","0.3668981821242319","0","","","","","","","","",""
"","html-keyboard-response","115","361981","0.0-66.0-1.0","""event"",""trial"",""time""
""fullscreenenter"",""0"",""3369""
","
","
","""event"",""trial"",""time""
""fullscreenenter"",""0"",""3369""
","
","null","<p></p>","null","","","","","","","","","","","","","","","","","","","","","","","",""
"","do_trial","116","364689","0.0-67.0-0.0","""event"",""trial"",""time""
""fullscreenenter"",""0"",""3369""
","
","
","""event"",""trial"",""time""
""fullscreenenter"",""0"",""3369""
","
","161.40000000596046","","","","","","","","49","0,1,0","6","blank","278","null","0.07655094110429475","0.5897459681274695","0.23949771544019371","0","","","","","","","","",""
"","html-keyboard-response","117","365707","0.0-67.0-1.0","""event"",""trial"",""time""
""fullscreenenter"",""0"",""3369""
","
","
","""event"",""trial"",""time""
""fullscreenenter"",""0"",""3369""
","
","null","<p></p>","null","","","","","","","","","","","","","","","","","","","","","","","",""
"","do_trial","118","368597","0.0-68.0-0.0","""event"",""trial"",""time""
""fullscreenenter"",""0"",""3369""
","
","
","""event"",""trial"",""time""
""fullscreenenter"",""0"",""3369""
","
","317.40000000596046","","","","","","","","49","0,1,0","6","blank","279","null","0.07003896563030142","0.6127016094161157","0.3362063610622053","0","","","","","","","","",""
"","html-keyboard-response","119","369614","0.0-68.0-1.0","""event"",""trial"",""time""
""fullscreenenter"",""0"",""3369""
","
","
","""event"",""trial"",""time""
""fullscreenenter"",""0"",""3369""
","
","null","<p></p>","null","","","","","","","","","","","","","","","","","","","","","","","",""
"","do_recog","120","373630","0.0-69.0-0.0","""event"",""trial"",""time""
""fullscreenenter"",""0"",""3369""
","
","
","""event"",""trial"",""time""
""fullscreenenter"",""0"",""3369""
","
","2508.4000000059605","","","","","","","","54","","","","280","probe-140","","","","","1","[object Object]","70","1","1","","","",""
"","html-keyboard-response","121","374639","0.0-69.0-1.0","""event"",""trial"",""time""
""fullscreenenter"",""0"",""3369""
","
","
","""event"",""trial"",""time""
""fullscreenenter"",""0"",""3369""
","
","null","<p></p>","null","","","","","","","","","","","","","","","","","","","","","","","",""
"","do_trial","122","378672","0.0-70.0-0.0","""event"",""trial"",""time""
""fullscreenenter"",""0"",""3369""
","
","
","""event"",""trial"",""time""
""fullscreenenter"",""0"",""3369""
","
","1485.1000000089407","","","","","","","","51","0,1,0","6","blank","281","null","0.06408524258842292","0.5604024138597768","0.28208840035022703","0","","","","","","","","",""
"","html-keyboard-response","123","379675","0.0-70.0-1.0","""event"",""trial"",""time""
""fullscreenenter"",""0"",""3369""
","
","
","""event"",""trial"",""time""
""fullscreenenter"",""0"",""3369""
","
","null","<p></p>","null","","","","","","","","","","","","","","","","","","","","","","","",""
"","do_recog","124","383632","0.0-71.0-0.0","""event"",""trial"",""time""
""fullscreenenter"",""0"",""3369""
","
","
","""event"",""trial"",""time""
""fullscreenenter"",""0"",""3369""
","
","2449.2000000029802","","","","","","","","56","","","","282","probe-254","","","","","0","[object Object]","null","null","1","","","",""
"","html-keyboard-response","125","384641","0.0-71.0-1.0","""event"",""trial"",""time""
""fullscreenenter"",""0"",""3369""
","
","
","""event"",""trial"",""time""
""fullscreenenter"",""0"",""3369""
","
","null","<p></p>","null","","","","","","","","","","","","","","","","","","","","","","","",""
"","do_trial","126","389417","0.0-72.0-0.0","""event"",""trial"",""time""
""fullscreenenter"",""0"",""3369""
","
","
","""event"",""trial"",""time""
""fullscreenenter"",""0"",""3369""
","
","2223.5","","","","","","","","51","0,1,0","6","blank","283","null","0.13561104108583627","0.5849544982464966","0.300739410810634","0","","","","","","","","",""
"","html-keyboard-response","127","390429","0.0-72.0-1.0","""event"",""trial"",""time""
""fullscreenenter"",""0"",""3369""
","
","
","""event"",""trial"",""time""
""fullscreenenter"",""0"",""3369""
","
","null","<p></p>","null","","","","","","","","","","","","","","","","","","","","","","","",""
"","do_recog","128","396451","0.0-73.0-0.0","""event"",""trial"",""time""
""fullscreenenter"",""0"",""3369""
","
","
","""event"",""trial"",""time""
""fullscreenenter"",""0"",""3369""
","
","null","","","","","","","","null","","","","284","probe-242","","","","","0","[object Object]","null","null","0","","","",""
"","html-keyboard-response","129","397468","0.0-73.0-1.0","""event"",""trial"",""time""
""fullscreenenter"",""0"",""3369""
","
","
","""event"",""trial"",""time""
""fullscreenenter"",""0"",""3369""
","
","null","<p></p>","null","","","","","","","","","","","","","","","","","","","","","","","",""
"","do_trial","130","401387","0.0-74.0-0.0","""event"",""trial"",""time""
""fullscreenenter"",""0"",""3369""
","
","
","""event"",""trial"",""time""
""fullscreenenter"",""0"",""3369""
","
","1362.6000000089407","","","","","","","","50","0,0,0","6","blank","285","null","0.09578245827038248","0.6295686672745534","0.22023010866083892","0","","","","","","","","",""
"","html-keyboard-response","131","402394","0.0-74.0-1.0","""event"",""trial"",""time""
""fullscreenenter"",""0"",""3369""
","
","
","""event"",""trial"",""time""
""fullscreenenter"",""0"",""3369""
","
","null","<p></p>","null","","","","","","","","","","","","","","","","","","","","","","","",""
"","do_trial","132","405461","0.0-75.0-0.0","""event"",""trial"",""time""
""fullscreenenter"",""0"",""3369""
","
","
","""event"",""trial"",""time""
""fullscreenenter"",""0"",""3369""
","
","514.4000000059605","","","","","","","","49","0,0,0","6","blank","286","null","0.0919343540476249","0.6039024632898263","0.2965293048885616","0","","","","","","","","",""
"","html-keyboard-response","133","406464","0.0-75.0-1.0","""event"",""trial"",""time""
""fullscreenenter"",""0"",""3369""
","
","
","""event"",""trial"",""time""
""fullscreenenter"",""0"",""3369""
","
","null","<p></p>","null","","","","","","","","","","","","","","","","","","","","","","","",""
"","do_trial","134","409190","0.0-76.0-0.0","""event"",""trial"",""time""
""fullscreenenter"",""0"",""3369""
","
","
","""event"",""trial"",""time""
""fullscreenenter"",""0"",""3369""
","
","178","","","","","","","","51","0,0,0","6","blank","287","null","0.05006412890690605","0.7230799255187965","0.291237749479966","0","","","","","","","","",""
"","html-keyboard-response","135","410192","0.0-76.0-1.0","""event"",""trial"",""time""
""fullscreenenter"",""0"",""3369""
","
","
","""event"",""trial"",""time""
""fullscreenenter"",""0"",""3369""
","
","null","<p></p>","null","","","","","","","","","","","","","","","","","","","","","","","",""
"","do_trial","136","412764","0.0-77.0-0.0","""event"",""trial"",""time""
""fullscreenenter"",""0"",""3369""
","
","
","""event"",""trial"",""time""
""fullscreenenter"",""0"",""3369""
","
","0.09999999403953552","","","","","","","","51","0,1,0","6","blank","288","null","0.05867023792985414","0.8246110486116881","0.2288185459675793","0","","","","","","","","",""
"","html-keyboard-response","137","413779","0.0-77.0-1.0","""event"",""trial"",""time""
""fullscreenenter"",""0"",""3369""
","
","
","""event"",""trial"",""time""
""fullscreenenter"",""0"",""3369""
","
","null","<p></p>","null","","","","","","","","","","","","","","","","","","","","","","","",""
"","do_trial","138","416846","0.0-78.0-0.0","""event"",""trial"",""time""
""fullscreenenter"",""0"",""3369""
","
","
","""event"",""trial"",""time""
""fullscreenenter"",""0"",""3369""
","
","504.90000000596046","","","","","","","","51","0,0,1","6","blank","289","null","0.15273486903742722","0.7759240025705044","0.403284372962616","1","","","","","","","","",""
"","html-keyboard-response","139","417854","0.0-78.0-1.0","""event"",""trial"",""time""
""fullscreenenter"",""0"",""3369""
","
","
","""event"",""trial"",""time""
""fullscreenenter"",""0"",""3369""
","
","null","<p></p>","null","","","","","","","","","","","","","","","","","","","","","","","",""
"","do_recog","140","422061","0.0-79.0-0.0","""event"",""trial"",""time""
""fullscreenenter"",""0"",""3369""
","
","
","""event"",""trial"",""time""
""fullscreenenter"",""0"",""3369""
","
","2688.4000000059605","","","","","","","","55","","","","290","probe-203","","","","","1","[object Object]","197","4","0","","","",""
"","html-keyboard-response","141","423072","0.0-79.0-1.0","""event"",""trial"",""time""
""fullscreenenter"",""0"",""3369""
","
","
","""event"",""trial"",""time""
""fullscreenenter"",""0"",""3369""
","
","null","<p></p>","null","","","","","","","","","","","","","","","","","","","","","","","",""
"","do_trial","142","427135","0.0-80.0-0.0","""event"",""trial"",""time""
""fullscreenenter"",""0"",""3369""
","
","
","""event"",""trial"",""time""
""fullscreenenter"",""0"",""3369""
","
","1501.7000000029802","","","","","","","","51","0,1,0","6","blank","291","null","0.19994652290609657","0.6643814164102457","0.2178687143432733","0","","","","","","","","",""
"","html-keyboard-response","143","428145","0.0-80.0-1.0","""event"",""trial"",""time""
""fullscreenenter"",""0"",""3369""
","
","
","""event"",""trial"",""time""
""fullscreenenter"",""0"",""3369""
","
","null","<p></p>","null","","","","","","","","","","","","","","","","","","","","","","","",""
"","do_trial","144","431067","0.0-81.0-0.0","""event"",""trial"",""time""
""fullscreenenter"",""0"",""3369""
","
","
","""event"",""trial"",""time""
""fullscreenenter"",""0"",""3369""
","
","367.3999999910593","","","","","","","","50","0,1,0","6","blank","292","null","0.10439558655584795","0.49145214812283217","0.32212255646679544","1","","","","","","","","",""
"","html-keyboard-response","145","432070","0.0-81.0-1.0","""event"",""trial"",""time""
""fullscreenenter"",""0"",""3369""
","
","
","""event"",""trial"",""time""
""fullscreenenter"",""0"",""3369""
","
","null","<p></p>","null","","","","","","","","","","","","","","","","","","","","","","","",""
"","do_recog","146","436034","0.0-82.0-0.0","""event"",""trial"",""time""
""fullscreenenter"",""0"",""3369""
","
","
","""event"",""trial"",""time""
""fullscreenenter"",""0"",""3369""
","
","2445.2999999970198","","","","","","","","55","","","","293","probe-78","","","","","1","[object Object]","31","0","0","","","",""
"","html-keyboard-response","147","437037","0.0-82.0-1.0","""event"",""trial"",""time""
""fullscreenenter"",""0"",""3369""
","
","
","""event"",""trial"",""time""
""fullscreenenter"",""0"",""3369""
","
","null","<p></p>","null","","","","","","","","","","","","","","","","","","","","","","","",""
"","do_trial","148","440721","0.0-83.0-0.0","""event"",""trial"",""time""
""fullscreenenter"",""0"",""3369""
","
","
","""event"",""trial"",""time""
""fullscreenenter"",""0"",""3369""
","
","1119.3999999910593","","","","","","","","50","0,0,0","6","blank","294","null","0.14671666997702817","0.4480536031871925","0.3739921590540179","0","","","","","","","","",""
"","html-keyboard-response","149","441739","0.0-83.0-1.0","""event"",""trial"",""time""
""fullscreenenter"",""0"",""3369""
","
","
","""event"",""trial"",""time""
""fullscreenenter"",""0"",""3369""
","
","null","<p></p>","null","","","","","","","","","","","","","","","","","","","","","","","",""
"","do_recog","150","445558","0.0-84.0-0.0","""event"",""trial"",""time""
""fullscreenenter"",""0"",""3369""
","
","
","""event"",""trial"",""time""
""fullscreenenter"",""0"",""3369""
","
","2303.4000000059605","","","","","","","","56","","","","295","probe-33","","","","","1","[object Object]","74","1","0","","","",""
"","html-keyboard-response","151","446562","0.0-84.0-1.0","""event"",""trial"",""time""
""fullscreenenter"",""0"",""3369""
","
","
","""event"",""trial"",""time""
""fullscreenenter"",""0"",""3369""
","
","null","<p></p>","null","","","","","","","","","","","","","","","","","","","","","","","",""
"","do_trial","152","450213","0.0-85.0-0.0","""event"",""trial"",""time""
""fullscreenenter"",""0"",""3369""
","
","
","""event"",""trial"",""time""
""fullscreenenter"",""0"",""3369""
","
","1091.5999999940395","","","","","","","","50","0,0,0","6","blank","296","null","0.2599336055454304","0.6219816822878823","0.33863782974679646","0","","","","","","","","",""
"","html-keyboard-response","153","451220","0.0-85.0-1.0","""event"",""trial"",""time""
""fullscreenenter"",""0"",""3369""
","
","
","""event"",""trial"",""time""
""fullscreenenter"",""0"",""3369""
","
","null","<p></p>","null","","","","","","","","","","","","","","","","","","","","","","","",""
"","do_trial","154","454128","0.0-86.0-0.0","""event"",""trial"",""time""
""fullscreenenter"",""0"",""3369""
","
","
","""event"",""trial"",""time""
""fullscreenenter"",""0"",""3369""
","
","336.30000001192093","","","","","","","","49","0,1,0","6","blank","297","null","0.21579146741375352","0.5089062964767449","0.32660946395136015","0","","","","","","","","",""
"","html-keyboard-response","155","455133","0.0-86.0-1.0","""event"",""trial"",""time""
""fullscreenenter"",""0"",""3369""
","
","
","""event"",""trial"",""time""
""fullscreenenter"",""0"",""3369""
","
","null","<p></p>","null","","","","","","","","","","","","","","","","","","","","","","","",""
"","do_trial","156","457965","0.0-87.0-0.0","""event"",""trial"",""time""
""fullscreenenter"",""0"",""3369""
","
","
","""event"",""trial"",""time""
""fullscreenenter"",""0"",""3369""
","
","270.5","","","","","","","","51","1,1,1","6","blank","298","null","0.36069088475520694","0.3361585328757059","0.18271322881637594","1","","","","","","","","",""
"","html-keyboard-response","157","458974","0.0-87.0-1.0","""event"",""trial"",""time""
""fullscreenenter"",""0"",""3369""
","
","
","""event"",""trial"",""time""
""fullscreenenter"",""0"",""3369""
","
","null","<p></p>","null","","","","","","","","","","","","","","","","","","","","","","","",""
"","do_recog","158","462479","0.0-88.0-0.0","""event"",""trial"",""time""
""fullscreenenter"",""0"",""3369""
","
","
","""event"",""trial"",""time""
""fullscreenenter"",""0"",""3369""
","
","1981.5999999940395","","","","","","","","53","","","","299","probe-66","","","","","1","[object Object]","36","0","1","","","",""
"","html-keyboard-response","159","463486","0.0-88.0-1.0","""event"",""trial"",""time""
""fullscreenenter"",""0"",""3369""
","
","
","""event"",""trial"",""time""
""fullscreenenter"",""0"",""3369""
","
","null","<p></p>","null","","","","","","","","","","","","","","","","","","","","","","","",""
"","do_trial","160","466674","0.0-89.0-0.0","""event"",""trial"",""time""
""fullscreenenter"",""0"",""3369""
","
","
","""event"",""trial"",""time""
""fullscreenenter"",""0"",""3369""
","
","626.4000000059605","","","","","","","","51","0,1,1","6","blank","300","null","0.4398938024830139","0.39536473908799713","0.18342375316551568","1","","","","","","","","",""
"","html-keyboard-response","161","467689","0.0-89.0-1.0","""event"",""trial"",""time""
""fullscreenenter"",""0"",""3369""
","
","
","""event"",""trial"",""time""
""fullscreenenter"",""0"",""3369""
","
","null","<p></p>","null","","","","","","","","","","","","","","","","","","","","","","","",""
"","do_trial","162","470532","0.0-90.0-0.0","""event"",""trial"",""time""
""fullscreenenter"",""0"",""3369""
","
","
","""event"",""trial"",""time""
""fullscreenenter"",""0"",""3369""
","
","293.20000000298023","","","","","","","","51","0,0,0","6","blank","301","null","0.6282541220360088","0.4140212793456711","0.11326339727654315","0","","","","","","","","",""
"","html-keyboard-response","163","471539","0.0-90.0-1.0","""event"",""trial"",""time""
""fullscreenenter"",""0"",""3369""
","
","
","""event"",""trial"",""time""
""fullscreenenter"",""0"",""3369""
","
","null","<p></p>","null","","","","","","","","","","","","","","","","","","","","","","","",""
"","do_trial","164","474511","0.0-91.0-0.0","""event"",""trial"",""time""
""fullscreenenter"",""0"",""3369""
","
","
","""event"",""trial"",""time""
""fullscreenenter"",""0"",""3369""
","
","424.6000000089407","","","","","","","","51","1,0,0","6","blank","302","null","0.5973735795686156","0.29861827520944767","0.22138729908328209","0","","","","","","","","",""
"","html-keyboard-response","165","475513","0.0-91.0-1.0","""event"",""trial"",""time""
""fullscreenenter"",""0"",""3369""
","
","
","""event"",""trial"",""time""
""fullscreenenter"",""0"",""3369""
","
","null","<p></p>","null","","","","","","","","","","","","","","","","","","","","","","","",""
"","do_trial","166","478302","0.0-92.0-0.0","""event"",""trial"",""time""
""fullscreenenter"",""0"",""3369""
","
","
","""event"",""trial"",""time""
""fullscreenenter"",""0"",""3369""
","
","238.70000000298023","","","","","","","","51","1,1,0","6","blank","303","null","0.7038980002681338","0.44492411290073447","0.08003061290256465","0","","","","","","","","",""
"","html-keyboard-response","167","479315","0.0-92.0-1.0","""event"",""trial"",""time""
""fullscreenenter"",""0"",""3369""
","
","
","""event"",""trial"",""time""
""fullscreenenter"",""0"",""3369""
","
","null","<p></p>","null","","","","","","","","","","","","","","","","","","","","","","","",""
"","do_trial","168","482368","0.0-93.0-0.0","""event"",""trial"",""time""
""fullscreenenter"",""0"",""3369""
","
","
","""event"",""trial"",""time""
""fullscreenenter"",""0"",""3369""
","
","495.90000000596046","","","","","","","","51","1,0,1","6","blank","304","null","0.7529721890022925","0.4606681705543136","0.29336964266289256","1","","","","","","","","",""
"","html-keyboard-response","169","483370","0.0-93.0-1.0","""event"",""trial"",""time""
""fullscreenenter"",""0"",""3369""
","
","
","""event"",""trial"",""time""
""fullscreenenter"",""0"",""3369""
","
","null","<p></p>","null","","","","","","","","","","","","","","","","","","","","","","","",""
"","do_recog","170","487039","0.0-94.0-0.0","""event"",""trial"",""time""
""fullscreenenter"",""0"",""3369""
","
","
","""event"",""trial"",""time""
""fullscreenenter"",""0"",""3369""
","
","2145.5","","","","","","","","53","","","","305","probe-83","","","","","1","[object Object]","35","0","1","","","",""
"","html-keyboard-response","171","488053","0.0-94.0-1.0","""event"",""trial"",""time""
""fullscreenenter"",""0"",""3369""
","
","
","""event"",""trial"",""time""
""fullscreenenter"",""0"",""3369""
","
","null","<p></p>","null","","","","","","","","","","","","","","","","","","","","","","","",""
"","do_trial","172","491221","0.0-95.0-0.0","""event"",""trial"",""time""
""fullscreenenter"",""0"",""3369""
","
","
","""event"",""trial"",""time""
""fullscreenenter"",""0"",""3369""
","
","605.6000000089407","","","","","","","","51","0,0,0","6","blank","306","null","0.6065460028636415","0.4601362028541658","0.34326810137215935","0","","","","","","","","",""
"","html-keyboard-response","173","492223","0.0-95.0-1.0","""event"",""trial"",""time""
""fullscreenenter"",""0"",""3369""
","
","
","""event"",""trial"",""time""
""fullscreenenter"",""0"",""3369""
","
","null","<p></p>","null","","","","","","","","","","","","","","","","","","","","","","","",""
"","do_trial","174","495102","0.0-96.0-0.0","""event"",""trial"",""time""
""fullscreenenter"",""0"",""3369""
","
","
","""event"",""trial"",""time""
""fullscreenenter"",""0"",""3369""
","
","313.80000001192093","","","","","","","","51","1,0,0","6","blank","307","null","0.6382953695927944","0.40900256525503786","0.17104278093584238","0","","","","","","","","",""
"","html-keyboard-response","175","496106","0.0-96.0-1.0","""event"",""trial"",""time""
""fullscreenenter"",""0"",""3369""
","
","
","""event"",""trial"",""time""
""fullscreenenter"",""0"",""3369""
","
","null","<p></p>","null","","","","","","","","","","","","","","","","","","","","","","","",""
"","do_trial","176","499001","0.0-97.0-0.0","""event"",""trial"",""time""
""fullscreenenter"",""0"",""3369""
","
","
","""event"",""trial"",""time""
""fullscreenenter"",""0"",""3369""
","
","322.1000000089407","","","","","","","","51","1,0,0","6","blank","308","null","0.6867226927961032","0.3549295878214312","0.1987284121473028","0","","","","","","","","",""
"","html-keyboard-response","177","500003","0.0-97.0-1.0","""event"",""trial"",""time""
""fullscreenenter"",""0"",""3369""
","
","
","""event"",""trial"",""time""
""fullscreenenter"",""0"",""3369""
","
","null","<p></p>","null","","","","","","","","","","","","","","","","","","","","","","","",""
"","break","178","502150","0.0-98.0-0.0","""event"",""trial"",""time""
""fullscreenenter"",""0"",""3369""
","
","
","""event"",""trial"",""time""
""fullscreenenter"",""0"",""3369""
","
","2145.0999999940395","<div class='center'><p>Time to take a quick break! You have 2 minutes to rest, but you can move on sooner if you'd like.</p><p> Press the <b>space bar</b> to continue.</p></div>","32","","","","","","","","","","","","","","","","","","","","","","","",""
"","do_trial","179","506041","0.0-98.0-1.0","""event"",""trial"",""time""
""fullscreenenter"",""0"",""3369""
","
","
","""event"",""trial"",""time""
""fullscreenenter"",""0"",""3369""
","
","1314.1000000089407","","","","","","","","51","1,0,0","6","blank","309","null","0.5712241039122761","0.4383595838974948","0.05719223867879736","0","","","","","","","","",""
"","html-keyboard-response","180","507059","0.0-98.0-2.0","""event"",""trial"",""time""
""fullscreenenter"",""0"",""3369""
","
","
","""event"",""trial"",""time""
""fullscreenenter"",""0"",""3369""
","
","null","<p></p>","null","","","","","","","","","","","","","","","","","","","","","","","",""
"","do_trial","181","509633","0.0-99.0-0.0","""event"",""trial"",""time""
""fullscreenenter"",""0"",""3369""
","
","
","""event"",""trial"",""time""
""fullscreenenter"",""0"",""3369""
","
","24.100000008940697","","","","","","","","50","1,0,0","6","blank","310","null","0.6095577536671087","0.3753260196096776","0.1600968115382618","0","","","","","","","","",""
"","html-keyboard-response","182","510636","0.0-99.0-1.0","""event"",""trial"",""time""
""fullscreenenter"",""0"",""3369""
","
","
","""event"",""trial"",""time""
""fullscreenenter"",""0"",""3369""
","
","null","<p></p>","null","","","","","","","","","","","","","","","","","","","","","","","",""
"","do_recog","183","513963","0.0-100.0-0.0","""event"",""trial"",""time""
""fullscreenenter"",""0"",""3369""
","
","
","""event"",""trial"",""time""
""fullscreenenter"",""0"",""3369""
","
","1803.7999999970198","","","","","","","","53","","","","311","probe-166","","","","","1","[object Object]","196","4","1","","","",""
"","html-keyboard-response","184","514969","0.0-100.0-1.0","""event"",""trial"",""time""
""fullscreenenter"",""0"",""3369""
","
","
","""event"",""trial"",""time""
""fullscreenenter"",""0"",""3369""
","
","null","<p></p>","null","","","","","","","","","","","","","","","","","","","","","","","",""
"","do_trial","185","518164","0.0-101.0-0.0","""event"",""trial"",""time""
""fullscreenenter"",""0"",""3369""
","
","
","""event"",""trial"",""time""
""fullscreenenter"",""0"",""3369""
","
","630.0999999940395","","","","","","","","50","1,1,0","6","blank","312","null","0.747100435639349","0.4835702319752604","0.08511932785555289","1","","","","","","","","",""
"","html-keyboard-response","186","519181","0.0-101.0-1.0","""event"",""trial"",""time""
""fullscreenenter"",""0"",""3369""
","
","
","""event"",""trial"",""time""
""fullscreenenter"",""0"",""3369""
","
","null","<p></p>","null","","","","","","","","","","","","","","","","","","","","","","","",""
"","do_recog","187","523103","0.0-102.0-0.0","""event"",""trial"",""time""
""fullscreenenter"",""0"",""3369""
","
","
","""event"",""trial"",""time""
""fullscreenenter"",""0"",""3369""
","
","2395.2999999970198","","","","","","","","53","","","","313","probe-182","","","","","1","[object Object]","153","3","1","","","",""
"","html-keyboard-response","188","524106","0.0-102.0-1.0","""event"",""trial"",""time""
""fullscreenenter"",""0"",""3369""
","
","
","""event"",""trial"",""time""
""fullscreenenter"",""0"",""3369""
","
","null","<p></p>","null","","","","","","","","","","","","","","","","","","","","","","","",""
"","do_trial","189","527446","0.0-103.0-0.0","""event"",""trial"",""time""
""fullscreenenter"",""0"",""3369""
","
","
","""event"",""trial"",""time""
""fullscreenenter"",""0"",""3369""
","
","768.5","","","","","","","","50","0,1,0","6","blank","314","null","0.635952764548416","0.33314228212609637","0.14196772380838713","1","","","","","","","","",""
"","html-keyboard-response","190","528453","0.0-103.0-1.0","""event"",""trial"",""time""
""fullscreenenter"",""0"",""3369""
","
","
","""event"",""trial"",""time""
""fullscreenenter"",""0"",""3369""
","
","null","<p></p>","null","","","","","","","","","","","","","","","","","","","","","","","",""
"","do_trial","191","531355","0.0-104.0-0.0","""event"",""trial"",""time""
""fullscreenenter"",""0"",""3369""
","
","
","""event"",""trial"",""time""
""fullscreenenter"",""0"",""3369""
","
","337","","","","","","","","50","1,0,0","6","blank","315","null","0.678376043508545","0.33232218633020166","0.10386509426287162","0","","","","","","","","",""
"","html-keyboard-response","192","532370","0.0-104.0-1.0","""event"",""trial"",""time""
""fullscreenenter"",""0"",""3369""
","
","
","""event"",""trial"",""time""
""fullscreenenter"",""0"",""3369""
","
","null","<p></p>","null","","","","","","","","","","","","","","","","","","","","","","","",""
"","do_trial","193","535307","0.0-105.0-0.0","""event"",""trial"",""time""
""fullscreenenter"",""0"",""3369""
","
","
","""event"",""trial"",""time""
""fullscreenenter"",""0"",""3369""
","
","381.79999999701977","","","","","","","","50","1,0,1","6","blank","316","null","0.60457900535536","0.40337255519003457","0.17033834134676204","0","","","","","","","","",""
"","html-keyboard-response","194","536325","0.0-105.0-1.0","""event"",""trial"",""time""
""fullscreenenter"",""0"",""3369""
","
","
","""event"",""trial"",""time""
""fullscreenenter"",""0"",""3369""
","
","null","<p></p>","null","","","","","","","","","","","","","","","","","","","","","","","",""
"","do_recog","195","540341","0.0-106.0-0.0","""event"",""trial"",""time""
""fullscreenenter"",""0"",""3369""
","
","
","""event"",""trial"",""time""
""fullscreenenter"",""0"",""3369""
","
","2508.7000000029802","","","","","","","","53","","","","317","probe-116","","","","","1","[object Object]","110","2","1","","","",""
"","html-keyboard-response","196","541344","0.0-106.0-1.0","""event"",""trial"",""time""
""fullscreenenter"",""0"",""3369""
","
","
","""event"",""trial"",""time""
""fullscreenenter"",""0"",""3369""
","
","null","<p></p>","null","","","","","","","","","","","","","","","","","","","","","","","",""
"","do_trial","197","544624","0.0-107.0-0.0","""event"",""trial"",""time""
""fullscreenenter"",""0"",""3369""
","
","
","""event"",""trial"",""time""
""fullscreenenter"",""0"",""3369""
","
","714","","","","","","","","50","1,0,0","6","blank","318","null","0.5036619699704913","0.35665517359022775","0.16010786519279244","0","","","","","","","","",""
"","html-keyboard-response","198","545632","0.0-107.0-1.0","""event"",""trial"",""time""
""fullscreenenter"",""0"",""3369""
","
","
","""event"",""trial"",""time""
""fullscreenenter"",""0"",""3369""
","
","null","<p></p>","null","","","","","","","","","","","","","","","","","","","","","","","",""
"","do_trial","199","548329","0.0-108.0-0.0","""event"",""trial"",""time""
""fullscreenenter"",""0"",""3369""
","
","
","""event"",""trial"",""time""
""fullscreenenter"",""0"",""3369""
","
","123.79999999701977","","","","","","","","49","1,0,0","6","blank","319","null","0.5852623870500013","0.3270195986329134","0.06700811529395508","1","","","","","","","","",""
"","html-keyboard-response","200","549346","0.0-108.0-1.0","""event"",""trial"",""time""
""fullscreenenter"",""0"",""3369""
","
","
","""event"",""trial"",""time""
""fullscreenenter"",""0"",""3369""
","
","null","<p></p>","null","","","","","","","","","","","","","","","","","","","","","","","",""
"","do_trial","201","551894","0.0-109.0-0.0","""event"",""trial"",""time""
""fullscreenenter"",""0"",""3369""
","
","
","""event"",""trial"",""time""
""fullscreenenter"",""0"",""3369""
","
","0.20000000298023224","","","","","","","","49","1,0,0","6","blank","320","null","0.5903493316465671","0.29793977767998614","0.08806535501675054","1","","","","","","","","",""
"","html-keyboard-response","202","552910","0.0-109.0-1.0","""event"",""trial"",""time""
""fullscreenenter"",""0"",""3369""
","
","
","""event"",""trial"",""time""
""fullscreenenter"",""0"",""3369""
","
","null","<p></p>","null","","","","","","","","","","","","","","","","","","","","","","","",""
"","do_trial","203","555551","0.0-110.0-0.0","""event"",""trial"",""time""
""fullscreenenter"",""0"",""3369""
","
","
","""event"",""trial"",""time""
""fullscreenenter"",""0"",""3369""
","
","79.5","","","","","","","","49","1,0,0","6","blank","321","null","0.5382462860952087","0.2724826645944396","0.24970256904678187","1","","","","","","","","",""
"","html-keyboard-response","204","556555","0.0-110.0-1.0","""event"",""trial"",""time""
""fullscreenenter"",""0"",""3369""
","
","
","""event"",""trial"",""time""
""fullscreenenter"",""0"",""3369""
","
","null","<p></p>","null","","","","","","","","","","","","","","","","","","","","","","","",""
"","do_recog","205","560069","0.0-111.0-0.0","""event"",""trial"",""time""
""fullscreenenter"",""0"",""3369""
","
","
","""event"",""trial"",""time""
""fullscreenenter"",""0"",""3369""
","
","1999.7999999970198","","","","","","","","53","","","","322","probe-72","","","","","1","[object Object]","194","4","1","","","",""
"","html-keyboard-response","206","561086","0.0-111.0-1.0","""event"",""trial"",""time""
""fullscreenenter"",""0"",""3369""
","
","
","""event"",""trial"",""time""
""fullscreenenter"",""0"",""3369""
","
","null","<p></p>","null","","","","","","","","","","","","","","","","","","","","","","","",""
"","do_trial","207","564139","0.0-112.0-0.0","""event"",""trial"",""time""
""fullscreenenter"",""0"",""3369""
","
","
","""event"",""trial"",""time""
""fullscreenenter"",""0"",""3369""
","
","476","","","","","","","","49","0,0,0","6","blank","323","null","0.6331690771057864","0.20111491618281777","0.11118232472038798","0","","","","","","","","",""
"","html-keyboard-response","208","565145","0.0-112.0-1.0","""event"",""trial"",""time""
""fullscreenenter"",""0"",""3369""
","
","
","""event"",""trial"",""time""
""fullscreenenter"",""0"",""3369""
","
","null","<p></p>","null","","","","","","","","","","","","","","","","","","","","","","","",""
"","do_trial","209","567769","0.0-113.0-0.0","""event"",""trial"",""time""
""fullscreenenter"",""0"",""3369""
","
","
","""event"",""trial"",""time""
""fullscreenenter"",""0"",""3369""
","
","55.099999994039536","","","","","","","","49","1,1,0","6","blank","324","null","0.6971474011075867","0.31118021709903043","0.11510257882882474","1","","","","","","","","",""
"","html-keyboard-response","210","568777","0.0-113.0-1.0","""event"",""trial"",""time""
""fullscreenenter"",""0"",""3369""
","
","
","""event"",""trial"",""time""
""fullscreenenter"",""0"",""3369""
","
","null","<p></p>","null","","","","","","","","","","","","","","","","","","","","","","","",""
"","do_trial","211","571392","0.0-114.0-0.0","""event"",""trial"",""time""
""fullscreenenter"",""0"",""3369""
","
","
","""event"",""trial"",""time""
""fullscreenenter"",""0"",""3369""
","
","54.900000005960464","","","","","","","","49","1,0,1","6","blank","325","null","0.7982799315685553","0.18490712864301678","0.2620209861846044","1","","","","","","","","",""
"","html-keyboard-response","212","572403","0.0-114.0-1.0","""event"",""trial"",""time""
""fullscreenenter"",""0"",""3369""
","
","
","""event"",""trial"",""time""
""fullscreenenter"",""0"",""3369""
","
","null","<p></p>","null","","","","","","","","","","","","","","","","","","","","","","","",""
"","do_recog","213","578427","0.0-115.0-0.0","""event"",""trial"",""time""
""fullscreenenter"",""0"",""3369""
","
","
","""event"",""trial"",""time""
""fullscreenenter"",""0"",""3369""
","
","null","","","","","","","","null","","","","326","probe-59","","","","","1","[object Object]","30","0","0","","","",""
"","html-keyboard-response","214","579441","0.0-115.0-1.0","""event"",""trial"",""time""
""fullscreenenter"",""0"",""3369""
","
","
","""event"",""trial"",""time""
""fullscreenenter"",""0"",""3369""
","
","null","<p></p>","null","","","","","","","","","","","","","","","","","","","","","","","",""
"","do_trial","215","582547","0.0-116.0-0.0","""event"",""trial"",""time""
""fullscreenenter"",""0"",""3369""
","
","
","""event"",""trial"",""time""
""fullscreenenter"",""0"",""3369""
","
","559.9000000059605","","","","","","","","49","1,0,0","6","blank","327","null","0.7849606966307988","0.20194869525094794","0.16737643892088094","1","","","","","","","","",""
"","html-keyboard-response","216","583561","0.0-116.0-1.0","""event"",""trial"",""time""
""fullscreenenter"",""0"",""3369""
","
","
","""event"",""trial"",""time""
""fullscreenenter"",""0"",""3369""
","
","null","<p></p>","null","","","","","","","","","","","","","","","","","","","","","","","",""
"","do_recog","217","586952","0.0-117.0-0.0","""event"",""trial"",""time""
""fullscreenenter"",""0"",""3369""
","
","
","""event"",""trial"",""time""
""fullscreenenter"",""0"",""3369""
","
","1870","","","","","","","","55","","","","328","probe-246","","","","","0","[object Object]","null","null","1","","","",""
"","html-keyboard-response","218","587967","0.0-117.0-1.0","""event"",""trial"",""time""
""fullscreenenter"",""0"",""3369""
","
","
","""event"",""trial"",""time""
""fullscreenenter"",""0"",""3369""
","
","null","<p></p>","null","","","","","","","","","","","","","","","","","","","","","","","",""
"","do_trial","219","591172","0.0-118.0-0.0","""event"",""trial"",""time""
""fullscreenenter"",""0"",""3369""
","
","
","""event"",""trial"",""time""
""fullscreenenter"",""0"",""3369""
","
","646.6999999880791","","","","","","","","49","1,0,0","6","blank","329","null","0.7082148802590595","0.2133718350988342","0.11854637490201805","1","","","","","","","","",""
"","html-keyboard-response","220","592187","0.0-118.0-1.0","""event"",""trial"",""time""
""fullscreenenter"",""0"",""3369""
","
","
","""event"",""trial"",""time""
""fullscreenenter"",""0"",""3369""
","
","null","<p></p>","null","","","","","","","","","","","","","","","","","","","","","","","",""
"","do_trial","221","595512","0.0-119.0-0.0","""event"",""trial"",""time""
""fullscreenenter"",""0"",""3369""
","
","
","""event"",""trial"",""time""
""fullscreenenter"",""0"",""3369""
","
","757.0999999940395","","","","","","","","49","0,1,0","6","blank","330","null","0.6584538087489904","0.23986917911503267","0.06235512524526959","0","","","","","","","","",""
"","html-keyboard-response","222","596515","0.0-119.0-1.0","""event"",""trial"",""time""
""fullscreenenter"",""0"",""3369""
","
","
","""event"",""trial"",""time""
""fullscreenenter"",""0"",""3369""
","
","null","<p></p>","null","","","","","","","","","","","","","","","","","","","","","","","",""
"","do_trial","223","599534","0.0-120.0-0.0","""event"",""trial"",""time""
""fullscreenenter"",""0"",""3369""
","
","
","""event"",""trial"",""time""
""fullscreenenter"",""0"",""3369""
","
","464.70000000298023","","","","","","","","49","0,0,0","6","blank","331","null","0.522047595993477","0.36857720397989646","0.1382598735714681","0","","","","","","","","",""
"","html-keyboard-response","224","600541","0.0-120.0-1.0","""event"",""trial"",""time""
""fullscreenenter"",""0"",""3369""
","
","
","""event"",""trial"",""time""
""fullscreenenter"",""0"",""3369""
","
","null","<p></p>","null","","","","","","","","","","","","","","","","","","","","","","","",""
"","do_trial","225","603284","0.0-121.0-0.0","""event"",""trial"",""time""
""fullscreenenter"",""0"",""3369""
","
","
","""event"",""trial"",""time""
""fullscreenenter"",""0"",""3369""
","
","180.5","","","","","","","","49","0,0,0","6","blank","332","null","0.5830028101312481","0.22332031306828154","0.14725242352530754","0","","","","","","","","",""
"","html-keyboard-response","226","604302","0.0-121.0-1.0","""event"",""trial"",""time""
""fullscreenenter"",""0"",""3369""
","
","
","""event"",""trial"",""time""
""fullscreenenter"",""0"",""3369""
","
","null","<p></p>","null","","","","","","","","","","","","","","","","","","","","","","","",""
"","do_trial","227","607497","0.0-122.0-0.0","""event"",""trial"",""time""
""fullscreenenter"",""0"",""3369""
","
","
","""event"",""trial"",""time""
""fullscreenenter"",""0"",""3369""
","
","622.3999999910593","","","","","","","","49","1,1,0","6","blank","333","null","0.6846286283184776","0.312325203990503","0.17073603389766262","1","","","","","","","","",""
"","html-keyboard-response","228","608507","0.0-122.0-1.0","""event"",""trial"",""time""
""fullscreenenter"",""0"",""3369""
","
","
","""event"",""trial"",""time""
""fullscreenenter"",""0"",""3369""
","
","null","<p></p>","null","","","","","","","","","","","","","","","","","","","","","","","",""
"","do_trial","229","611401","0.0-123.0-0.0","""event"",""trial"",""time""
""fullscreenenter"",""0"",""3369""
","
","
","""event"",""trial"",""time""
""fullscreenenter"",""0"",""3369""
","
","333.79999999701977","","","","","","","","49","1,0,0","6","blank","334","null","0.44347206515189785","0.24406368903876005","0.05639323375408674","1","","","","","","","","",""
"","html-keyboard-response","230","612415","0.0-123.0-1.0","""event"",""trial"",""time""
""fullscreenenter"",""0"",""3369""
","
","
","""event"",""trial"",""time""
""fullscreenenter"",""0"",""3369""
","
","null","<p></p>","null","","","","","","","","","","","","","","","","","","","","","","","",""
"","do_trial","231","615205","0.0-124.0-0.0","""event"",""trial"",""time""
""fullscreenenter"",""0"",""3369""
","
","
","""event"",""trial"",""time""
""fullscreenenter"",""0"",""3369""
","
","238.5","","","","","","","","49","0,0,0","6","blank","335","null","0.5220807870029763","0.21057388025119306","0.050374739435954864","0","","","","","","","","",""
"","html-keyboard-response","232","616216","0.0-124.0-1.0","""event"",""trial"",""time""
""fullscreenenter"",""0"",""3369""
","
","
","""event"",""trial"",""time""
""fullscreenenter"",""0"",""3369""
","
","null","<p></p>","null","","","","","","","","","","","","","","","","","","","","","","","",""
"","do_recog","233","619339","0.0-125.0-0.0","""event"",""trial"",""time""
""fullscreenenter"",""0"",""3369""
","
","
","""event"",""trial"",""time""
""fullscreenenter"",""0"",""3369""
","
","1614.2000000029802","","","","","","","","53","","","","336","probe-34","","","","","1","[object Object]","117","2","1","","","",""
"","html-keyboard-response","234","620344","0.0-125.0-1.0","""event"",""trial"",""time""
""fullscreenenter"",""0"",""3369""
","
","
","""event"",""trial"",""time""
""fullscreenenter"",""0"",""3369""
","
","null","<p></p>","null","","","","","","","","","","","","","","","","","","","","","","","",""
"","do_trial","235","623239","0.0-126.0-0.0","""event"",""trial"",""time""
""fullscreenenter"",""0"",""3369""
","
","
","""event"",""trial"",""time""
""fullscreenenter"",""0"",""3369""
","
","346.79999999701977","","","","","","","","50","0,0,1","6","blank","337","null","0.4238423591495223","0.16712689767793618","0.1332321802290582","0","","","","","","","","",""
"","html-keyboard-response","236","624246","0.0-126.0-1.0","""event"",""trial"",""time""
""fullscreenenter"",""0"",""3369""
","
","
","""event"",""trial"",""time""
""fullscreenenter"",""0"",""3369""
","
","null","<p></p>","null","","","","","","","","","","","","","","","","","","","","","","","",""
"","do_recog","237","627921","0.0-127.0-0.0","""event"",""trial"",""time""
""fullscreenenter"",""0"",""3369""
","
","
","""event"",""trial"",""time""
""fullscreenenter"",""0"",""3369""
","
","2158.7000000029802","","","","","","","","55","","","","338","probe-17","","","","","1","[object Object]","155","3","0","","","",""
"","html-keyboard-response","238","628936","0.0-127.0-1.0","""event"",""trial"",""time""
""fullscreenenter"",""0"",""3369""
","
","
","""event"",""trial"",""time""
""fullscreenenter"",""0"",""3369""
","
","null","<p></p>","null","","","","","","","","","","","","","","","","","","","","","","","",""
"","do_trial","239","632060","0.0-128.0-0.0","""event"",""trial"",""time""
""fullscreenenter"",""0"",""3369""
","
","
","""event"",""trial"",""time""
""fullscreenenter"",""0"",""3369""
","
","575.5999999940395","","","","","","","","50","1,0,1","6","blank","339","null","0.5399802952999674","0.1803028512843478","0.16396711084948187","0","","","","","","","","",""
"","html-keyboard-response","240","633075","0.0-128.0-1.0","""event"",""trial"",""time""
""fullscreenenter"",""0"",""3369""
","
","
","""event"",""trial"",""time""
""fullscreenenter"",""0"",""3369""
","
","null","<p></p>","null","","","","","","","","","","","","","","","","","","","","","","","",""
"","do_recog","241","636370","0.0-129.0-0.0","""event"",""trial"",""time""
""fullscreenenter"",""0"",""3369""
","
","
","""event"",""trial"",""time""
""fullscreenenter"",""0"",""3369""
","
","1771.2000000029802","","","","","","","","53","","","","340","probe-169","","","","","1","[object Object]","75","1","1","","","",""
"","html-keyboard-response","242","637377","0.0-129.0-1.0","""event"",""trial"",""time""
""fullscreenenter"",""0"",""3369""
","
","
","""event"",""trial"",""time""
""fullscreenenter"",""0"",""3369""
","
","null","<p></p>","null","","","","","","","","","","","","","","","","","","","","","","","",""
"","do_trial","243","640360","0.0-130.0-0.0","""event"",""trial"",""time""
""fullscreenenter"",""0"",""3369""
","
","
","""event"",""trial"",""time""
""fullscreenenter"",""0"",""3369""
","
","434.20000000298023","","","","","","","","51","1,0,0","6","blank","341","null","0.5276169475727414","0.3142090364919445","0.08558663777985019","0","","","","","","","","",""
"","html-keyboard-response","244","641373","0.0-130.0-1.0","""event"",""trial"",""time""
""fullscreenenter"",""0"",""3369""
","
","
","""event"",""trial"",""time""
""fullscreenenter"",""0"",""3369""
","
","null","<p></p>","null","","","","","","","","","","","","","","","","","","","","","","","",""
"","do_trial","245","644264","0.0-131.0-0.0","""event"",""trial"",""time""
""fullscreenenter"",""0"",""3369""
","
","
","""event"",""trial"",""time""
""fullscreenenter"",""0"",""3369""
","
","339","","","","","","","","51","0,1,0","6","blank","342","null","0.5063075791689029","0.4111390237745372","0.1329413511303542","0","","","","","","","","",""
"","html-keyboard-response","246","645268","0.0-131.0-1.0","""event"",""trial"",""time""
""fullscreenenter"",""0"",""3369""
","
","
","""event"",""trial"",""time""
""fullscreenenter"",""0"",""3369""
","
","null","<p></p>","null","","","","","","","","","","","","","","","","","","","","","","","",""
"","do_trial","247","648309","0.0-132.0-0.0","""event"",""trial"",""time""
""fullscreenenter"",""0"",""3369""
","
","
","""event"",""trial"",""time""
""fullscreenenter"",""0"",""3369""
","
","485.79999999701977","","","","","","","","49","0,0,0","6","blank","343","null","0.4157335469427064","0.2932331339731596","0.14763864606216578","0","","","","","","","","",""
"","html-keyboard-response","248","649326","0.0-132.0-1.0","""event"",""trial"",""time""
""fullscreenenter"",""0"",""3369""
","
","
","""event"",""trial"",""time""
""fullscreenenter"",""0"",""3369""
","
","null","<p></p>","null","","","","","","","","","","","","","","","","","","","","","","","",""
"","do_trial","249","652126","0.0-133.0-0.0","""event"",""trial"",""time""
""fullscreenenter"",""0"",""3369""
","
","
","""event"",""trial"",""time""
""fullscreenenter"",""0"",""3369""
","
","244.70000000298023","","","","","","","","49","0,0,0","6","blank","344","null","0.5391982656318226","0.3440874163947638","0.07407951621062309","0","","","","","","","","",""
"","html-keyboard-response","250","653139","0.0-133.0-1.0","""event"",""trial"",""time""
""fullscreenenter"",""0"",""3369""
","
","
","""event"",""trial"",""time""
""fullscreenenter"",""0"",""3369""
","
","null","<p></p>","null","","","","","","","","","","","","","","","","","","","","","","","",""
"","do_trial","251","655970","0.0-134.0-0.0","""event"",""trial"",""time""
""fullscreenenter"",""0"",""3369""
","
","
","""event"",""trial"",""time""
""fullscreenenter"",""0"",""3369""
","
","283","","","","","","","","49","0,0,0","6","blank","345","null","0.3874296867327123","0.32645581976747556","0.08704552320184165","0","","","","","","","","",""
"","html-keyboard-response","252","656987","0.0-134.0-1.0","""event"",""trial"",""time""
""fullscreenenter"",""0"",""3369""
","
","
","""event"",""trial"",""time""
""fullscreenenter"",""0"",""3369""
","
","null","<p></p>","null","","","","","","","","","","","","","","","","","","","","","","","",""
"","do_recog","253","660673","0.0-135.0-0.0","""event"",""trial"",""time""
""fullscreenenter"",""0"",""3369""
","
","
","""event"",""trial"",""time""
""fullscreenenter"",""0"",""3369""
","
","2173.7999999970198","","","","","","","","55","","","","346","probe-241","","","","","0","[object Object]","null","null","1","","","",""
"","html-keyboard-response","254","661680","0.0-135.0-1.0","""event"",""trial"",""time""
""fullscreenenter"",""0"",""3369""
","
","
","""event"",""trial"",""time""
""fullscreenenter"",""0"",""3369""
","
","null","<p></p>","null","","","","","","","","","","","","","","","","","","","","","","","",""
"","do_trial","255","664558","0.0-136.0-0.0","""event"",""trial"",""time""
""fullscreenenter"",""0"",""3369""
","
","
","""event"",""trial"",""time""
""fullscreenenter"",""0"",""3369""
","
","330.79999999701977","","","","","","","","50","0,0,0","6","blank","347","null","0.3579945512989503","0.2494851500156022","0.24738468578002235","0","","","","","","","","",""
"","html-keyboard-response","256","665564","0.0-136.0-1.0","""event"",""trial"",""time""
""fullscreenenter"",""0"",""3369""
","
","
","""event"",""trial"",""time""
""fullscreenenter"",""0"",""3369""
","
","null","<p></p>","null","","","","","","","","","","","","","","","","","","","","","","","",""
"","do_trial","257","668852","0.0-137.0-0.0","""event"",""trial"",""time""
""fullscreenenter"",""0"",""3369""
","
","
","""event"",""trial"",""time""
""fullscreenenter"",""0"",""3369""
","
","723.8000000119209","","","","","","","","50","0,0,0","6","blank","348","null","0.2967259179505707","0.2635705748089161","0.1355378550102697","0","","","","","","","","",""
"","html-keyboard-response","258","669860","0.0-137.0-1.0","""event"",""trial"",""time""
""fullscreenenter"",""0"",""3369""
","
","
","""event"",""trial"",""time""
""fullscreenenter"",""0"",""3369""
","
","null","<p></p>","null","","","","","","","","","","","","","","","","","","","","","","","",""
"","break","259","671007","0.0-138.0-0.0","""event"",""trial"",""time""
""fullscreenenter"",""0"",""3369""
","
","
","""event"",""trial"",""time""
""fullscreenenter"",""0"",""3369""
","
","1145.5","<div class='center'><p>Time to take a quick break! You have 2 minutes to rest, but you can move on sooner if you'd like.</p><p> Press the <b>space bar</b> to continue.</p></div>","32","","","","","","","","","","","","","","","","","","","","","","","",""
"","do_trial","260","674530","0.0-138.0-1.0","""event"",""trial"",""time""
""fullscreenenter"",""0"",""3369""
","
","
","""event"",""trial"",""time""
""fullscreenenter"",""0"",""3369""
","
","977","","","","","","","","51","0,0,1","6","blank","349","null","0.13156789461598123","0.32599412289081187","0.4741078040747996","1","","","","","","","","",""
"","html-keyboard-response","261","675539","0.0-138.0-2.0","""event"",""trial"",""time""
""fullscreenenter"",""0"",""3369""
","
","
","""event"",""trial"",""time""
""fullscreenenter"",""0"",""3369""
","
","null","<p></p>","null","","","","","","","","","","","","","","","","","","","","","","","",""
"","do_trial","262","678088","0.0-139.0-0.0","""event"",""trial"",""time""
""fullscreenenter"",""0"",""3369""
","
","
","""event"",""trial"",""time""
""fullscreenenter"",""0"",""3369""
","
","0.20000000298023224","","","","","","","","51","0,0,1","6","blank","350","null","0.06531184538311571","0.2666415682054163","0.4468642585232583","1","","","","","","","","",""
"","html-keyboard-response","263","679092","0.0-139.0-1.0","""event"",""trial"",""time""
""fullscreenenter"",""0"",""3369""
","
","
","""event"",""trial"",""time""
""fullscreenenter"",""0"",""3369""
","
","null","<p></p>","null","","","","","","","","","","","","","","","","","","","","","","","",""
"","do_recog","264","683231","0.0-140.0-0.0","""event"",""trial"",""time""
""fullscreenenter"",""0"",""3369""
","
","
","""event"",""trial"",""time""
""fullscreenenter"",""0"",""3369""
","
","2628.8999999910593","","","","","","","","56","","","","351","probe-237","","","","","0","[object Object]","null","null","1","","","",""
"","html-keyboard-response","265","684243","0.0-140.0-1.0","""event"",""trial"",""time""
""fullscreenenter"",""0"",""3369""
","
","
","""event"",""trial"",""time""
""fullscreenenter"",""0"",""3369""
","
","null","<p></p>","null","","","","","","","","","","","","","","","","","","","","","","","",""
"","do_trial","266","687980","0.0-141.0-0.0","""event"",""trial"",""time""
""fullscreenenter"",""0"",""3369""
","
","
","""event"",""trial"",""time""
""fullscreenenter"",""0"",""3369""
","
","1189.5999999940395","","","","","","","","51","0,1,1","6","blank","352","null","0.11914083757615691","0.3763450589288812","0.5511199136940875","1","","","","","","","","",""
"","html-keyboard-response","267","688985","0.0-141.0-1.0","""event"",""trial"",""time""
""fullscreenenter"",""0"",""3369""
","
","
","""event"",""trial"",""time""
""fullscreenenter"",""0"",""3369""
","
","null","<p></p>","null","","","","","","","","","","","","","","","","","","","","","","","",""
"","do_recog","268","692589","0.0-142.0-0.0","""event"",""trial"",""time""
""fullscreenenter"",""0"",""3369""
","
","
","""event"",""trial"",""time""
""fullscreenenter"",""0"",""3369""
","
","2078.699999988079","","","","","","","","56","","","","353","probe-243","","","","","0","[object Object]","null","null","1","","","",""
"","html-keyboard-response","269","693599","0.0-142.0-1.0","""event"",""trial"",""time""
""fullscreenenter"",""0"",""3369""
","
","
","""event"",""trial"",""time""
""fullscreenenter"",""0"",""3369""
","
","null","<p></p>","null","","","","","","","","","","","","","","","","","","","","","","","",""
"","do_trial","270","696698","0.0-143.0-0.0","""event"",""trial"",""time""
""fullscreenenter"",""0"",""3369""
","
","
","""event"",""trial"",""time""
""fullscreenenter"",""0"",""3369""
","
","550.0999999940395","","","","","","","","51","0,1,1","6","blank","354","null","0.238346766147315","0.3336515498226448","0.697211862127953","1","","","","","","","","",""
"","html-keyboard-response","271","697700","0.0-143.0-1.0","""event"",""trial"",""time""
""fullscreenenter"",""0"",""3369""
","
","
","""event"",""trial"",""time""
""fullscreenenter"",""0"",""3369""
","
","null","<p></p>","null","","","","","","","","","","","","","","","","","","","","","","","",""
"","do_trial","272","700635","0.0-144.0-0.0","""event"",""trial"",""time""
""fullscreenenter"",""0"",""3369""
","
","
","""event"",""trial"",""time""
""fullscreenenter"",""0"",""3369""
","
","379.79999999701977","","","","","","","","51","1,1,1","6","blank","355","null","0.2430810478759281","0.3362989824449788","0.7444580070326997","1","","","","","","","","",""
"","html-keyboard-response","273","701637","0.0-144.0-1.0","""event"",""trial"",""time""
""fullscreenenter"",""0"",""3369""
","
","
","""event"",""trial"",""time""
""fullscreenenter"",""0"",""3369""
","
","null","<p></p>","null","","","","","","","","","","","","","","","","","","","","","","","",""
"","do_trial","274","704562","0.0-145.0-0.0","""event"",""trial"",""time""
""fullscreenenter"",""0"",""3369""
","
","
","""event"",""trial"",""time""
""fullscreenenter"",""0"",""3369""
","
","375.69999998807907","","","","","","","","51","0,0,1","6","blank","356","null","0.09408053693006306","0.2904018044929081","0.6855344628480823","1","","","","","","","","",""
"","html-keyboard-response","275","705576","0.0-145.0-1.0","""event"",""trial"",""time""
""fullscreenenter"",""0"",""3369""
","
","
","""event"",""trial"",""time""
""fullscreenenter"",""0"",""3369""
","
","null","<p></p>","null","","","","","","","","","","","","","","","","","","","","","","","",""
"","do_trial","276","708554","0.0-146.0-0.0","""event"",""trial"",""time""
""fullscreenenter"",""0"",""3369""
","
","
","""event"",""trial"",""time""
""fullscreenenter"",""0"",""3369""
","
","427","","","","","","","","51","0,0,0","6","blank","357","null","0.09010633614882309","0.2397793069093777","0.6583819376159726","0","","","","","","","","",""
"","html-keyboard-response","277","709557","0.0-146.0-1.0","""event"",""trial"",""time""
""fullscreenenter"",""0"",""3369""
","
","
