success,trial_type,trial_index,time_elapsed,internal_node_id,rt,stimulus,subject_id,key_press,response,choice_outcomes,context_n,context_img_id,trial_n,probe_img_id,pR_red,pR_white,pR_black,outcome,is_valid,image_to_show,probed_trial,probed_context,correct,context_id
TRUE,fullscreen,0,2875,0.0-0.0,,,,,,,,,,,,,,,,,,,,
,pavlovia,1,2879,0.0-1.0,,,,,,,,,,,,,,,,,,,,
,html-keyboard-response,2,18104,0.0-2.0,15224.3,"<div class='center'><p>Like yesterday,as the head captain of the ship, you have one important things to do: </p><b><p> Pick the pirate who you think will be most successful at robbing the next ship.</p></b><p>This is important in determining how much bonus money you’ll win.</p><br><p>The game will start by showing you the pirates. First pick a pirate using the <b> 1, 2, 3 </b> buttons on your keyboard. </p><p> Press <b>'1'</b> to choose red beard, <b>'2'</b> to choose white beard, and <b>'3'</b> to choose black beard</p><p> You only have 3 seconds to pick a pirate, so please make a choice quickly! If you are too slow, you’ll have to wait a bit during the time out.</p><p> Don’t feel rushed, but please do try to make a choice every time.</p><p>How good a pirate is at robbing a ship will change depending on the place they are in and how good the defenses are of the ship.</p><p><b>[Press the space bar to begin the practice game]</b></p></div>",6114c2fd65371a03354de960,32,,,,,,,,,,,,,,,,
,html-keyboard-response,3,29417,0.0-3.0,11310.6,"<div class='center'><p>You’ve arrived at the final island of your journey! Unfortunately, it’s very foggy out, so you won’t be able to see it in the distance like the previous islands you've visited.</p><p>You’ll still be deciding which pirate you want to rob a ship like before. However, because of the fog, you also won’t be able to see the ship.</p><p>This means you do not have to remember the ships you rob on this island.</p><p><b>[Press the space bar to continue]</b></p></div>",,32,,,,,,,,,,,,,,,,
,html-keyboard-response,4,36421,0.0-4.0,7003.4,"<div class='center'><p> Sometimes you’ll be shown a ship, and you will be asked if you saw this ship on a past island.</p><p> Here is an example of what you will see.</p><p><b>[Press the space bar to continue]</b></p><p><img src='run_exp/static/images/tutorial/example_recog_trial.png' height='500'></p></div>",,32,,,,,,,,,,,,,,,,
,html-keyboard-response,5,40706,0.0-5.0,4282.7,"<div class='center'><p> You will press the 5, 6, 7, 8 buttons on your keyboard to respond.</p><p>If you are very sure saw the ship, press <b>5</b> on your keyboard.</p><p> If you think you  saw it before but are not sure, then press <b>6</b>.</p><p> If you think you have not seen it before but are not sure, then press <b>7</b>.</p><p> If you are sure you did not see the ship before, then press <b>8</b>.</p><p><b>[Press the space bar to continue]</b></p><p><img src='run_exp/static/images/tutorial/example_recog_trial.png' height='500'></p></div>",,32,,,,,,,,,,,,,,,,
,html-keyboard-response,6,51926,0.0-6.0,11219,"<div class='center'><p> If you remember correctly, then you’ll get a gold coin like this: </p><p><img src='run_exp/static/images/tutorial/reward_small.png' height='200'></p><p>If you do not remember correctly, then you'll see a red x like this: </p><p><img src='run_exp/static/images/tutorial/reward_no.png' height='200'></p><p>Importantly, when you are shown a ship, take the time to remind yourself which island you saw it on. This will help you in the next part of the study.</p><p><b>[Press the space bar to continue]</b></p></div>",,32,,,,,,,,,,,,,,,,
,html-keyboard-response,7,60820,0.0-7.0,8891.4,"<div class='center'><p>Let's go over the important points again. Your job is to: </p><p>1. Pick the pirate who is best at robbing ships and will bring you back gold coins. </p><p>2. Correctly remember whether or not you saw a ship before. If you did see the ship before, remind yourself on which island you saw the ship. </p><p><b>[Press the space bar to begin the next part of the study]</b></p></div>",,32,,,,,,,,,,,,,,,,
,do_welcome,8,62333,0.0-8.0,null,,,,null,,,,,,,,,,,,,,,
,do_trial,9,66280,0.0-9.0-0.0,1398.9,,,,49,"1,0,0",6,blank,230,null,0.538961989,0.184037373,0.212705459,1,,,,,,
,html-keyboard-response,10,67284,0.0-9.0-1.0,null,<p></p>,,null,,,,,,,,,,,,,,,,
,do_trial,11,71012,0.0-10.0-0.0,1174.9,,,,50,"0,1,0",6,blank,231,null,0.544808168,0.217864121,0.209571607,1,,,,,,
,html-keyboard-response,12,72015,0.0-10.0-1.0,null,<p></p>,,null,,,,,,,,,,,,,,,,
,do_trial,13,75104,0.0-11.0-0.0,536.8999996,,,,51,"1,1,0",6,blank,232,null,0.639903696,0.162766786,0.241634052,0,,,,,,
,html-keyboard-response,14,76108,0.0-11.0-1.0,null,<p></p>,,null,,,,,,,,,,,,,,,,
,do_trial,15,78953,0.0-12.0-0.0,295.8999996,,,,50,"1,1,0",6,blank,233,null,0.567337991,0.15221893,0.265922144,1,,,,,,
,html-keyboard-response,16,79957,0.0-12.0-1.0,null,<p></p>,,null,,,,,,,,,,,,,,,,
,do_trial,17,82784,0.0-13.0-0.0,279.8000002,,,,50,"0,0,1",6,blank,234,null,0.64469931,0.244346931,0.30999428,0,,,,,,
,html-keyboard-response,18,83788,0.0-13.0-1.0,null,<p></p>,,null,,,,,,,,,,,,,,,,
,do_trial,19,86610,0.0-14.0-0.0,277.7999997,,,,49,"1,0,1",6,blank,235,null,0.564557541,0.195493627,0.361582248,1,,,,,,
,html-keyboard-response,20,87614,0.0-14.0-1.0,null,<p></p>,,null,,,,,,,,,,,,,,,,
,do_trial,21,90499,0.0-15.0-0.0,338.5,,,,49,"0,0,0",6,blank,236,null,0.56637369,0.128934266,0.207654676,0,,,,,,
,html-keyboard-response,22,91503,0.0-15.0-1.0,null,<p></p>,,null,,,,,,,,,,,,,,,,
,do_trial,23,94359,0.0-16.0-0.0,304.7000003,,,,49,"1,0,0",6,blank,237,null,0.46123206,0.075333335,0.263235283,1,,,,,,
,html-keyboard-response,24,95363,0.0-16.0-1.0,null,<p></p>,,null,,,,,,,,,,,,,,,,
,do_trial,25,98179,0.0-17.0-0.0,268.5,,,,50,"1,0,1",6,blank,238,null,0.455510056,0.162973577,0.231648893,0,,,,,,
,html-keyboard-response,26,99184,0.0-17.0-1.0,null,<p></p>,,null,,,,,,,,,,,,,,,,
,do_trial,27,102011,0.0-18.0-0.0,280.5999999,,,,51,"1,0,1",6,blank,239,null,0.580614596,0.068966382,0.231867044,1,,,,,,
,html-keyboard-response,28,103015,0.0-18.0-1.0,null,<p></p>,,null,,,,,,,,,,,,,,,,
,do_trial,29,105819,0.0-19.0-0.0,250.2999997,,,,49,"1,0,0",6,blank,240,null,0.580924744,0.16807242,0.209069976,1,,,,,,
,html-keyboard-response,30,106823,0.0-19.0-1.0,null,<p></p>,,null,,,,,,,,,,,,,,,,
,do_recog,31,112832,0.0-20.0-0.0,null,,,,null,,,,241,probe-124,,,,,1,[object Object],83,2,0,
,html-keyboard-response,32,113835,0.0-20.0-1.0,null,<p></p>,,null,,,,,,,,,,,,,,,,
,do_trial,33,117080,0.0-21.0-0.0,701.2999997,,,,49,"1,0,0",6,blank,242,null,0.546096649,0.163430859,0.128233795,1,,,,,,
,html-keyboard-response,34,118084,0.0-21.0-1.0,null,<p></p>,,null,,,,,,,,,,,,,,,,
,do_trial,35,121011,0.0-22.0-0.0,382.6999998,,,,50,"1,0,0",6,blank,243,null,0.404093363,0.303894809,0.392831854,0,,,,,,
,html-keyboard-response,36,122015,0.0-22.0-1.0,null,<p></p>,,null,,,,,,,,,,,,,,,,
,do_trial,37,125658,0.0-23.0-0.0,1091.6,,,,49,"0,0,0",6,blank,244,null,0.284508536,0.309885774,0.381121744,0,,,,,,
,html-keyboard-response,38,126660,0.0-23.0-1.0,null,<p></p>,,null,,,,,,,,,,,,,,,,
,do_trial,39,129452,0.0-24.0-0.0,242.0999999,,,,50,"1,0,0",6,blank,245,null,0.272406237,0.125011545,0.464455643,0,,,,,,
,html-keyboard-response,40,130456,0.0-24.0-1.0,null,<p></p>,,null,,,,,,,,,,,,,,,,
,do_recog,41,133666,0.0-25.0-0.0,1701.7,,,,55,,,,246,probe-169,,,,,1,[object Object],209,5,0,
,html-keyboard-response,42,134670,0.0-25.0-1.0,null,<p></p>,,null,,,,,,,,,,,,,,,,
,do_trial,43,139419,0.0-26.0-0.0,2203.4,,,,50,"0,0,0",6,blank,247,null,0.303673615,0.171621241,0.377193649,0,,,,,,
,html-keyboard-response,44,140423,0.0-26.0-1.0,null,<p></p>,,null,,,,,,,,,,,,,,,,
,do_recog,45,144350,0.0-27.0-0.0,2416.1,,,,53,,,,248,probe-85,,,,,1,[object Object],203,5,1,
,html-keyboard-response,46,145352,0.0-27.0-1.0,null,<p></p>,,null,,,,,,,,,,,,,,,,
,do_trial,47,148493,0.0-28.0-0.0,601,,,,49,"0,1,1",6,blank,249,null,0.296007352,0.194762678,0.383374269,0,,,,,,
,html-keyboard-response,48,149497,0.0-28.0-1.0,null,<p></p>,,null,,,,,,,,,,,,,,,,
,do_recog,49,152318,0.0-29.0-0.0,1313.4,,,,56,,,,250,probe-184,,,,,1,[object Object],47,1,0,
,html-keyboard-response,50,153322,0.0-29.0-1.0,null,<p></p>,,null,,,,,,,,,,,,,,,,
,do_trial,51,156591,0.0-30.0-0.0,725.5,,,,49,"0,1,1",6,blank,251,null,0.310626099,0.365217168,0.355094173,0,,,,,,
,html-keyboard-response,52,157595,0.0-30.0-1.0,null,<p></p>,,null,,,,,,,,,,,,,,,,
,do_trial,53,160620,0.0-31.0-0.0,478.5,,,,50,"1,0,1",6,blank,252,null,0.21730829,0.232976034,0.447142566,0,,,,,,
,html-keyboard-response,54,161624,0.0-31.0-1.0,null,<p></p>,,null,,,,,,,,,,,,,,,,
,do_trial,55,164555,0.0-32.0-0.0,381.7000003,,,,49,"1,0,0",6,blank,253,null,0.195420711,0.327523279,0.411511975,1,,,,,,
,html-keyboard-response,56,165559,0.0-32.0-1.0,null,<p></p>,,null,,,,,,,,,,,,,,,,
,do_trial,57,168515,0.0-33.0-0.0,408.0999999,,,,49,"0,0,0",6,blank,254,null,0.237436126,0.247823769,0.51439345,0,,,,,,
,html-keyboard-response,58,169519,0.0-33.0-1.0,null,<p></p>,,null,,,,,,,,,,,,,,,,
,do_trial,59,172479,0.0-34.0-0.0,409.6999998,,,,49,"0,0,1",6,blank,255,null,0.138835094,0.22056362,0.454384846,0,,,,,,
,html-keyboard-response,60,173484,0.0-34.0-1.0,null,<p></p>,,null,,,,,,,,,,,,,,,,
,do_trial,61,176502,0.0-35.0-0.0,471.1999998,,,,51,"0,0,0",6,blank,256,null,0.14625445,0.109203306,0.50728795,0,,,,,,
,html-keyboard-response,62,177507,0.0-35.0-1.0,null,<p></p>,,null,,,,,,,,,,,,,,,,
,do_trial,63,180438,0.0-36.0-0.0,382.8000002,,,,49,"0,0,1",6,blank,257,null,0.061004064,0.205254334,0.507183177,0,,,,,,
,html-keyboard-response,64,181443,0.0-36.0-1.0,null,<p></p>,,null,,,,,,,,,,,,,,,,
,do_recog,65,184531,0.0-37.0-0.0,1576.9,,,,55,,,,258,probe-156,,,,,1,[object Object],86,2,0,
,html-keyboard-response,66,185535,0.0-37.0-1.0,null,<p></p>,,null,,,,,,,,,,,,,,,,
,do_trial,67,188862,0.0-38.0-0.0,776.7000003,,,,49,"1,1,1",6,blank,259,null,0.237764692,0.369883973,0.647081061,1,,,,,,
,html-keyboard-response,68,189866,0.0-38.0-1.0,null,<p></p>,,null,,,,,,,,,,,,,,,,
,do_recog,69,193082,0.0-39.0-0.0,1705.8,,,,53,,,,260,probe-217,,,,,1,[object Object],161,4,1,
,html-keyboard-response,70,194086,0.0-39.0-1.0,null,<p></p>,,null,,,,,,,,,,,,,,,,
,do_trial,71,197041,0.0-40.0-0.0,413.7000003,,,,49,"0,0,0",6,blank,261,null,0.13715634,0.212350939,0.556542617,0,,,,,,
,html-keyboard-response,72,198045,0.0-40.0-1.0,null,<p></p>,,null,,,,,,,,,,,,,,,,
,do_recog,73,201180,0.0-41.0-0.0,1627.3,,,,53,,,,262,probe-46,,,,,1,[object Object],126,3,1,
,html-keyboard-response,74,202185,0.0-41.0-1.0,null,<p></p>,,null,,,,,,,,,,,,,,,,
,do_trial,75,205139,0.0-42.0-0.0,408.3000002,,,,49,"0,0,1",6,blank,263,null,0.281533211,0.130938797,0.701493369,0,,,,,,
,html-keyboard-response,76,206144,0.0-42.0-1.0,null,<p></p>,,null,,,,,,,,,,,,,,,,
,do_trial,77,209145,0.0-43.0-0.0,451.5,,,,49,"0,1,1",6,blank,264,null,0.223199962,0.152666923,0.435887715,0,,,,,,
,html-keyboard-response,78,210149,0.0-43.0-1.0,null,<p></p>,,null,,,,,,,,,,,,,,,,
,do_trial,79,213064,0.0-44.0-0.0,365.5999999,,,,50,"0,0,0",6,blank,265,null,0.175926443,0.347074151,0.321654219,0,,,,,,
,html-keyboard-response,80,214067,0.0-44.0-1.0,null,<p></p>,,null,,,,,,,,,,,,,,,,
,do_trial,81,216845,0.0-45.0-0.0,231.5,,,,49,"0,0,1",6,blank,266,null,0.116495027,0.304573161,0.429794317,0,,,,,,
,html-keyboard-response,82,217847,0.0-45.0-1.0,null,<p></p>,,null,,,,,,,,,,,,,,,,
,do_trial,83,220802,0.0-46.0-0.0,412.8999996,,,,51,"0,0,0",6,blank,267,null,0.130558911,0.321291844,0.505636384,0,,,,,,
,html-keyboard-response,84,221806,0.0-46.0-1.0,null,<p></p>,,null,,,,,,,,,,,,,,,,
,do_trial,85,224750,0.0-47.0-0.0,396.9000001,,,,49,"0,0,1",6,blank,268,null,0.161424064,0.418857114,0.632762855,0,,,,,,
,html-keyboard-response,86,225754,0.0-47.0-1.0,null,<p></p>,,null,,,,,,,,,,,,,,,,
,do_recog,87,228645,0.0-48.0-0.0,1383.7,,,,53,,,,269,probe-130,,,,,1,[object Object],82,2,1,
,html-keyboard-response,88,229649,0.0-48.0-1.0,null,<p></p>,,null,,,,,,,,,,,,,,,,
,do_trial,89,232562,0.0-49.0-0.0,367.3000002,,,,49,"0,0,0",6,blank,270,null,0.104857543,0.324357026,0.622336344,0,,,,,,
,html-keyboard-response,90,233567,0.0-49.0-1.0,null,<p></p>,,null,,,,,,,,,,,,,,,,
,do_trial,91,236696,0.0-50.0-0.0,580.4000001,,,,50,"0,0,0",6,blank,271,null,0.144654923,0.287882023,0.539986875,0,,,,,,
,html-keyboard-response,92,237700,0.0-50.0-1.0,null,<p></p>,,null,,,,,,,,,,,,,,,,
,do_trial,93,240539,0.0-51.0-0.0,290.2999997,,,,50,"0,0,1",6,blank,272,null,0.107696783,0.149835269,0.632807725,0,,,,,,
,html-keyboard-response,94,241543,0.0-51.0-1.0,null,<p></p>,,null,,,,,,,,,,,,,,,,
,do_trial,95,244457,0.0-52.0-0.0,369.4000001,,,,49,"0,0,0",6,blank,273,null,0.12086529,0.299297827,0.692736096,0,,,,,,
,html-keyboard-response,96,245462,0.0-52.0-1.0,null,<p></p>,,null,,,,,,,,,,,,,,,,
,do_recog,97,248724,0.0-53.0-0.0,1752,,,,56,,,,274,probe-216,,,,,1,[object Object],167,4,0,
,html-keyboard-response,98,249729,0.0-53.0-1.0,null,<p></p>,,null,,,,,,,,,,,,,,,,
,do_trial,99,253015,0.0-54.0-0.0,740,,,,49,"0,0,1",6,blank,275,null,0.114437568,0.224172835,0.607938011,0,,,,,,
,html-keyboard-response,100,254019,0.0-54.0-1.0,null,<p></p>,,null,,,,,,,,,,,,,,,,
,do_recog,101,256858,0.0-55.0-0.0,1326.3,,,,53,,,,276,probe-90,,,,,1,[object Object],120,3,1,
,html-keyboard-response,102,257862,0.0-55.0-1.0,null,<p></p>,,null,,,,,,,,,,,,,,,,
,do_trial,103,260846,0.0-56.0-0.0,434.5,,,,49,"0,0,1",6,blank,277,null,0.158497834,0.318348531,0.72394257,0,,,,,,
,html-keyboard-response,104,261849,0.0-56.0-1.0,null,<p></p>,,null,,,,,,,,,,,,,,,,
,do_recog,105,265171,0.0-57.0-0.0,1810.6,,,,53,,,,278,probe-103,,,,,1,[object Object],204,5,1,
,html-keyboard-response,106,266175,0.0-57.0-1.0,null,<p></p>,,null,,,,,,,,,,,,,,,,
,do_trial,107,269379,0.0-58.0-0.0,659,,,,49,"1,0,0",6,blank,279,null,0.20198446,0.253025675,0.659257875,1,,,,,,
,html-keyboard-response,108,270384,0.0-58.0-1.0,null,<p></p>,,null,,,,,,,,,,,,,,,,
,do_trial,109,273396,0.0-59.0-0.0,465.9000001,,,,49,"0,0,0",6,blank,280,null,0.116055561,0.216615773,0.486590365,0,,,,,,
,html-keyboard-response,110,274401,0.0-59.0-1.0,null,<p></p>,,null,,,,,,,,,,,,,,,,
,do_recog,111,276821,0.0-60.0-0.0,912,,,,53,,,,281,probe-147,,,,,1,[object Object],123,3,1,
,html-keyboard-response,112,277826,0.0-60.0-1.0,null,<p></p>,,null,,,,,,,,,,,,,,,,
,do_trial,113,280694,0.0-61.0-0.0,325.7999997,,,,49,"0,0,0",6,blank,282,null,0.197384491,0.166073174,0.463076484,0,,,,,,
,html-keyboard-response,114,281698,0.0-61.0-1.0,null,<p></p>,,null,,,,,,,,,,,,,,,,
,do_trial,115,284699,0.0-62.0-0.0,453.9000001,,,,49,"0,0,1",6,blank,283,null,0.26211778,0.403915175,0.478686881,0,,,,,,
,html-keyboard-response,116,285703,0.0-62.0-1.0,null,<p></p>,,null,,,,,,,,,,,,,,,,
,do_trial,117,288728,0.0-63.0-0.0,476.4000001,,,,49,"1,1,0",6,blank,284,null,0.241650042,0.38167515,0.549344223,1,,,,,,
,html-keyboard-response,118,289732,0.0-63.0-1.0,null,<p></p>,,null,,,,,,,,,,,,,,,,
,do_recog,119,292373,0.0-64.0-0.0,1133.6,,,,53,,,,285,probe-12,,,,,1,[object Object],48,1,1,
,html-keyboard-response,120,293378,0.0-64.0-1.0,null,<p></p>,,null,,,,,,,,,,,,,,,,
,do_trial,121,296356,0.0-65.0-0.0,428.5,,,,49,"0,0,0",6,blank,286,null,0.172119286,0.228638621,0.549020867,0,,,,,,
,html-keyboard-response,122,297360,0.0-65.0-1.0,null,<p></p>,,null,,,,,,,,,,,,,,,,
,do_trial,123,300373,0.0-66.0-0.0,469.5999999,,,,49,"0,0,0",6,blank,287,null,0.132801938,0.260993585,0.509870555,0,,,,,,
,html-keyboard-response,124,301377,0.0-66.0-1.0,null,<p></p>,,null,,,,,,,,,,,,,,,,
,do_trial,125,304280,0.0-67.0-0.0,352.9000001,,,,49,"0,0,0",6,blank,288,null,0.240890412,0.338136776,0.562783889,0,,,,,,
,html-keyboard-response,126,305284,0.0-67.0-1.0,null,<p></p>,,null,,,,,,,,,,,,,,,,
,do_recog,127,307606,0.0-68.0-0.0,813.4000001,,,,53,,,,289,probe-17,,,,,1,[object Object],166,4,1,
,html-keyboard-response,128,308611,0.0-68.0-1.0,null,<p></p>,,null,,,,,,,,,,,,,,,,
,do_trial,129,312006,0.0-69.0-0.0,848.2000003,,,,49,"0,0,1",6,blank,290,null,0.072064314,0.253291139,0.50820435,0,,,,,,
,html-keyboard-response,130,313011,0.0-69.0-1.0,null,<p></p>,,null,,,,,,,,,,,,,,,,
,do_recog,131,315403,0.0-70.0-0.0,882.9000001,,,,53,,,,291,probe-19,,,,,1,[object Object],205,5,1,
,html-keyboard-response,132,316407,0.0-70.0-1.0,null,<p></p>,,null,,,,,,,,,,,,,,,,
,do_trial,133,319547,0.0-71.0-0.0,591.2000003,,,,50,"0,0,1",6,blank,292,null,0.099671124,0.14598298,0.562275321,0,,,,,,
,html-keyboard-response,134,320552,0.0-71.0-1.0,null,<p></p>,,null,,,,,,,,,,,,,,,,
,do_trial,135,323640,0.0-72.0-0.0,540.8000002,,,,51,"0,0,0",6,blank,293,null,0.162731356,0.197247857,0.561749303,0,,,,,,
,html-keyboard-response,136,324644,0.0-72.0-1.0,null,<p></p>,,null,,,,,,,,,,,,,,,,
,do_recog,137,326938,0.0-73.0-0.0,781.7999997,,,,53,,,,294,probe-99,,,,,1,[object Object],162,4,1,
,html-keyboard-response,138,327942,0.0-73.0-1.0,null,<p></p>,,null,,,,,,,,,,,,,,,,
,do_trial,139,331007,0.0-74.0-0.0,517.5,,,,49,"0,0,1",6,blank,295,null,0.083838097,0.080361353,0.532422162,0,,,,,,
,html-keyboard-response,140,332011,0.0-74.0-1.0,null,<p></p>,,null,,,,,,,,,,,,,,,,
,do_recog,141,334275,0.0-75.0-0.0,753.4000001,,,,53,,,,296,probe-201,,,,,1,[object Object],46,1,1,
,html-keyboard-response,142,335279,0.0-75.0-1.0,null,<p></p>,,null,,,,,,,,,,,,,,,,
,do_trial,143,338704,0.0-76.0-0.0,871.6999998,,,,50,"0,0,0",6,blank,297,null,0.083978682,0.253407686,0.430599628,0,,,,,,
,html-keyboard-response,144,339709,0.0-76.0-1.0,null,<p></p>,,null,,,,,,,,,,,,,,,,
,do_trial,145,342629,0.0-77.0-0.0,370.5,,,,49,"0,0,1",6,blank,298,null,0.099226197,0.18056887,0.426653335,0,,,,,,
,html-keyboard-response,146,343633,0.0-77.0-1.0,null,<p></p>,,null,,,,,,,,,,,,,,,,
,do_recog,147,345880,0.0-78.0-0.0,738.4000001,,,,53,,,,299,probe-28,,,,,1,[object Object],168,4,1,
,html-keyboard-response,148,346884,0.0-78.0-1.0,null,<p></p>,,null,,,,,,,,,,,,,,,,
,do_trial,149,349850,0.0-79.0-0.0,421.4000001,,,,50,"0,1,1",6,blank,300,null,0.335121843,0.249478312,0.422117612,1,,,,,,
,html-keyboard-response,150,350854,0.0-79.0-1.0,null,<p></p>,,null,,,,,,,,,,,,,,,,
,do_trial,151,353850,0.0-80.0-0.0,452.9000001,,,,49,"1,1,1",6,blank,301,null,0.415248438,0.38729875,0.260953649,1,,,,,,
,html-keyboard-response,152,354854,0.0-80.0-1.0,null,<p></p>,,null,,,,,,,,,,,,,,,,
,do_recog,153,357026,0.0-81.0-0.0,661,,,,54,,,,302,probe-132,,,,,1,[object Object],84,2,1,
,html-keyboard-response,154,358030,0.0-81.0-1.0,null,<p></p>,,null,,,,,,,,,,,,,,,,
,do_trial,155,361048,0.0-82.0-0.0,467.6000004,,,,49,"0,0,0",6,blank,303,null,0.351981677,0.286377517,0.350540939,0,,,,,,
,html-keyboard-response,156,362053,0.0-82.0-1.0,null,<p></p>,,null,,,,,,,,,,,,,,,,
,do_trial,157,365571,0.0-83.0-0.0,972.2999997,,,,49,"0,0,0",6,blank,304,null,0.533807384,0.271801003,0.234946851,0,,,,,,
,html-keyboard-response,158,366575,0.0-83.0-1.0,null,<p></p>,,null,,,,,,,,,,,,,,,,
,do_trial,159,369622,0.0-84.0-0.0,501.5999999,,,,50,"0,0,0",6,blank,305,null,0.695470747,0.247489931,0.247691403,0,,,,,,
,html-keyboard-response,160,370627,0.0-84.0-1.0,null,<p></p>,,null,,,,,,,,,,,,,,,,
,do_trial,161,373553,0.0-85.0-0.0,380.5,,,,50,"1,0,0",6,blank,306,null,0.686257673,0.247750947,0.065631439,0,,,,,,
,html-keyboard-response,162,374557,0.0-85.0-1.0,null,<p></p>,,null,,,,,,,,,,,,,,,,
,do_trial,163,377459,0.0-86.0-0.0,356.1999998,,,,51,"1,0,0",6,blank,307,null,0.642733827,0.230276653,0.070198643,0,,,,,,
,html-keyboard-response,164,378464,0.0-86.0-1.0,null,<p></p>,,null,,,,,,,,,,,,,,,,
,do_trial,165,381436,0.0-87.0-0.0,427.5,,,,51,"1,0,0",6,blank,308,null,0.610735766,0.080396642,0.118914052,0,,,,,,
,html-keyboard-response,166,382441,0.0-87.0-1.0,null,<p></p>,,null,,,,,,,,,,,,,,,,
,do_recog,167,384689,0.0-88.0-0.0,738.0999999,,,,53,,,,309,probe-219,,,,,1,[object Object],163,4,1,
,html-keyboard-response,168,385691,0.0-88.0-1.0,null,<p></p>,,null,,,,,,,,,,,,,,,,
,do_trial,169,388803,0.0-89.0-0.0,564.0999999,,,,49,"1,1,0",6,blank,310,null,0.63863349,0.212061855,0.062414367,1,,,,,,
,html-keyboard-response,170,389807,0.0-89.0-1.0,null,<p></p>,,null,,,,,,,,,,,,,,,,
,do_trial,171,392727,0.0-90.0-0.0,374.1999998,,,,49,"1,0,0",6,blank,311,null,0.530500498,0.272752156,0.104776904,1,,,,,,
,html-keyboard-response,172,393732,0.0-90.0-1.0,null,<p></p>,,null,,,,,,,,,,,,,,,,
,do_trial,173,396692,0.0-91.0-0.0,414.5,,,,49,"0,0,0",6,blank,312,null,0.662825545,0.251501264,0.172426002,0,,,,,,
,html-keyboard-response,174,397696,0.0-91.0-1.0,null,<p></p>,,null,,,,,,,,,,,,,,,,
,do_trial,175,401029,0.0-92.0-0.0,784.5,,,,50,"1,1,0",6,blank,313,null,0.645203093,0.282260526,0.091613219,1,,,,,,
,html-keyboard-response,176,402033,0.0-92.0-1.0,null,<p></p>,,null,,,,,,,,,,,,,,,,
,do_trial,177,404988,0.0-93.0-0.0,404.3999996,,,,49,"1,0,0",6,blank,314,null,0.726705327,0.210760772,0.15176871,1,,,,,,
,html-keyboard-response,178,405992,0.0-93.0-1.0,null,<p></p>,,null,,,,,,,,,,,,,,,,
,do_recog,179,408274,0.0-94.0-0.0,769.4000001,,,,53,,,,315,probe-121,,,,,1,[object Object],80,2,1,
,html-keyboard-response,180,409278,0.0-94.0-1.0,null,<p></p>,,null,,,,,,,,,,,,,,,,
,do_trial,181,412227,0.0-95.0-0.0,396.0999999,,,,49,"1,0,0",6,blank,316,null,0.637302396,0.415464461,0.118024604,1,,,,,,
,html-keyboard-response,182,413231,0.0-95.0-1.0,null,<p></p>,,null,,,,,,,,,,,,,,,,
,do_recog,183,415536,0.0-96.0-0.0,796.0999999,,,,53,,,,317,probe-110,,,,,1,[object Object],128,3,1,
,html-keyboard-response,184,416541,0.0-96.0-1.0,null,<p></p>,,null,,,,,,,,,,,,,,,,
,do_trial,185,419440,0.0-97.0-0.0,343.4000001,,,,49,"0,0,1",6,blank,318,null,0.551784032,0.413113308,0.2520384,0,,,,,,
,html-keyboard-response,186,420444,0.0-97.0-1.0,null,<p></p>,,null,,,,,,,,,,,,,,,,
,do_trial,187,423296,0.0-98.0-0.0,303.7999997,,,,51,"1,0,0",6,blank,319,null,0.496600581,0.3605622,0.189164075,0,,,,,,
,html-keyboard-response,188,424301,0.0-98.0-1.0,null,<p></p>,,null,,,,,,,,,,,,,,,,
,do_trial,189,427687,0.0-99.0-0.0,837.9000001,,,,50,"1,0,0",6,blank,320,null,0.493298952,0.305006722,0.180063031,0,,,,,,
,html-keyboard-response,190,428692,0.0-99.0-1.0,null,<p></p>,,null,,,,,,,,,,,,,,,,
,do_trial,191,431761,0.0-100.0-0.0,520.5,,,,49,"0,0,0",6,blank,321,null,0.425000341,0.212344627,0.189685581,0,,,,,,
,html-keyboard-response,192,432766,0.0-100.0-1.0,null,<p></p>,,null,,,,,,,,,,,,,,,,
,do_trial,193,435654,0.0-101.0-0.0,338.2000003,,,,51,"0,1,0",6,blank,322,null,0.343163887,0.266120235,0.155473799,0,,,,,,
,html-keyboard-response,194,436658,0.0-101.0-1.0,null,<p></p>,,null,,,,,,,,,,,,,,,,
,do_recog,195,439062,0.0-102.0-0.0,892.0999999,,,,53,,,,323,probe-177,,,,,1,[object Object],200,5,1,
,html-keyboard-response,196,440067,0.0-102.0-1.0,null,<p></p>,,null,,,,,,,,,,,,,,,,
,do_trial,197,443643,0.0-103.0-0.0,1027.8,,,,49,"1,0,1",6,blank,324,null,0.414248743,0.054527897,0.210049042,1,,,,,,
,html-keyboard-response,198,444648,0.0-103.0-1.0,null,<p></p>,,null,,,,,,,,,,,,,,,,
,do_trial,199,448067,0.0-104.0-0.0,873,,,,51,"1,1,0",6,blank,325,null,0.577287007,0.096405259,0.085298817,0,,,,,,
,html-keyboard-response,200,449072,0.0-104.0-1.0,null,<p></p>,,null,,,,,,,,,,,,,,,,
,do_trial,201,452153,0.0-105.0-0.0,536.5,,,,50,"0,1,0",6,blank,326,null,0.524331076,0.197738969,0.134977292,1,,,,,,
,html-keyboard-response,202,453159,0.0-105.0-1.0,null,<p></p>,,null,,,,,,,,,,,,,,,,
,do_trial,203,456061,0.0-106.0-0.0,357.4000001,,,,50,"1,0,0",6,blank,327,null,0.502943909,0.13696619,0.148768699,0,,,,,,
,html-keyboard-response,204,457066,0.0-106.0-1.0,null,<p></p>,,null,,,,,,,,,,,,,,,,
,do_recog,205,459365,0.0-107.0-0.0,794,,,,53,,,,328,probe-61,,,,,1,[object Object],87,2,1,
,html-keyboard-response,206,460369,0.0-107.0-1.0,null,<p></p>,,null,,,,,,,,,,,,,,,,
,do_trial,207,463585,0.0-108.0-0.0,671.8000002,,,,50,"0,0,0",6,blank,329,null,0.498390371,0.31096866,0.147545112,0,,,,,,
,html-keyboard-response,208,464589,0.0-108.0-1.0,null,<p></p>,,null,,,,,,,,,,,,,,,,
,do_trial,209,467405,0.0-109.0-0.0,270.7000003,,,,49,"1,0,0",6,blank,330,null,0.639098959,0.140491867,0.107537636,1,,,,,,
,html-keyboard-response,210,468409,0.0-109.0-1.0,null,<p></p>,,null,,,,,,,,,,,,,,,,
,do_trial,211,471428,0.0-110.0-0.0,472.8000002,,,,49,"1,0,0",6,blank,331,null,0.711264882,0.290086001,0.201251368,1,,,,,,
,html-keyboard-response,212,472432,0.0-110.0-1.0,null,<p></p>,,null,,,,,,,,,,,,,,,,
,do_trial,213,475301,0.0-111.0-0.0,323.9000001,,,,50,"1,0,1",6,blank,332,null,0.68778866,0.331520826,0.297670486,0,,,,,,
,html-keyboard-response,214,476305,0.0-111.0-1.0,null,<p></p>,,null,,,,,,,,,,,,,,,,
,do_trial,215,479434,0.0-112.0-0.0,577.2999997,,,,49,"1,0,0",6,blank,333,null,0.528680825,0.400355486,0.180187496,1,,,,,,
,html-keyboard-response,216,480438,0.0-112.0-1.0,null,<p></p>,,null,,,,,,,,,,,,,,,,
,do_recog,217,482627,0.0-113.0-0.0,676.8999996,,,,53,,,,334,probe-97,,,,,1,[object Object],165,4,1,
,html-keyboard-response,218,483631,0.0-113.0-1.0,null,<p></p>,,null,,,,,,,,,,,,,,,,
,do_trial,219,486852,0.0-114.0-0.0,674.9000001,,,,49,"1,0,0",6,blank,335,null,0.582862487,0.156192916,0.094335407,1,,,,,,
,html-keyboard-response,220,487857,0.0-114.0-1.0,null,<p></p>,,null,,,,,,,,,,,,,,,,
,do_recog,221,490203,0.0-115.0-0.0,836.5999999,,,,53,,,,336,probe-225,,,,,1,[object Object],124,3,1,
,html-keyboard-response,222,491207,0.0-115.0-1.0,null,<p></p>,,null,,,,,,,,,,,,,,,,
,do_trial,223,494609,0.0-116.0-0.0,857.2000003,,,,49,"1,0,1",6,blank,337,null,0.580201973,0.312233234,0.173748881,1,,,,,,
,html-keyboard-response,224,495613,0.0-116.0-1.0,null,<p></p>,,null,,,,,,,,,,,,,,,,
,do_trial,225,498658,0.0-117.0-0.0,503,,,,49,"0,0,1",6,blank,338,null,0.481976817,0.2219207,0.094024393,0,,,,,,
,html-keyboard-response,226,499659,0.0-117.0-1.0,null,<p></p>,,null,,,,,,,,,,,,,,,,
,do_recog,227,502085,0.0-118.0-0.0,916.7999997,,,,53,,,,339,probe-195,,,,,1,[object Object],127,3,1,
,html-keyboard-response,228,503090,0.0-118.0-1.0,null,<p></p>,,null,,,,,,,,,,,,,,,,
,do_trial,229,506184,0.0-119.0-0.0,551.0999999,,,,49,"1,1,0",6,blank,340,null,0.588548414,0.354267302,0.109711714,1,,,,,,
,html-keyboard-response,230,507189,0.0-119.0-1.0,null,<p></p>,,null,,,,,,,,,,,,,,,,
,do_trial,231,510143,0.0-120.0-0.0,405.2000003,,,,50,"1,1,0",6,blank,341,null,0.560375598,0.176976184,0.119463583,1,,,,,,
,html-keyboard-response,232,511148,0.0-120.0-1.0,null,<p></p>,,null,,,,,,,,,,,,,,,,
,do_trial,233,514045,0.0-121.0-0.0,348.8000002,,,,49,"1,0,0",6,blank,342,null,0.646578747,0.198573009,0.206700634,1,,,,,,
,html-keyboard-response,234,515049,0.0-121.0-1.0,null,<p></p>,,null,,,,,,,,,,,,,,,,
,do_trial,235,517957,0.0-122.0-0.0,355.3000002,,,,50,"1,0,0",6,blank,343,null,0.408713661,0.291497114,0.105766239,0,,,,,,
,html-keyboard-response,236,518961,0.0-122.0-1.0,null,<p></p>,,null,,,,,,,,,,,,,,,,
,do_recog,237,521238,0.0-123.0-0.0,765.0999999,,,,53,,,,344,probe-86,,,,,1,[object Object],85,2,1,
,html-keyboard-response,238,522241,0.0-123.0-1.0,null,<p></p>,,null,,,,,,,,,,,,,,,,
,do_trial,239,525487,0.0-124.0-0.0,697.0999999,,,,49,"1,0,0",6,blank,345,null,0.490033848,0.321534859,0.051344447,1,,,,,,
,html-keyboard-response,240,526491,0.0-124.0-1.0,null,<p></p>,,null,,,,,,,,,,,,,,,,
,do_trial,241,529974,0.0-125.0-0.0,936.3000002,,,,51,"0,1,0",6,blank,346,null,0.57392863,0.236289923,0.115028781,0,,,,,,
,html-keyboard-response,242,530978,0.0-125.0-1.0,null,<p></p>,,null,,,,,,,,,,,,,,,,
,do_trial,243,533916,0.0-126.0-0.0,389.5,,,,49,"0,0,0",6,blank,347,null,0.636786478,0.35046527,0.106160182,0,,,,,,
,html-keyboard-response,244,534920,0.0-126.0-1.0,null,<p></p>,,null,,,,,,,,,,,,,,,,
,do_trial,245,538052,0.0-127.0-0.0,587.0999999,,,,50,"0,0,0",6,blank,348,null,0.617116094,0.316813076,0.11125251,0,,,,,,
,html-keyboard-response,246,539056,0.0-127.0-1.0,null,<p></p>,,null,,,,,,,,,,,,,,,,
,do_trial,247,542014,0.0-128.0-0.0,407.8000002,,,,49,"1,0,0",6,blank,349,null,0.694731336,0.342621351,0.181824142,1,,,,,,
,html-keyboard-response,248,543018,0.0-128.0-1.0,null,<p></p>,,null,,,,,,,,,,,,,,,,
,do_trial,249,547912,0.0-129.0-0.0,2344.6,,,,49,"1,0,1",6,blank,350,null,0.450656043,0.371067899,0.326307913,1,,,,,,
,html-keyboard-response,250,548916,0.0-129.0-1.0,null,<p></p>,,null,,,,,,,,,,,,,,,,
,do_recog,251,551256,0.0-130.0-0.0,827.0999999,,,,53,,,,351,probe-134,,,,,1,[object Object],122,3,1,
,html-keyboard-response,252,552260,0.0-130.0-1.0,null,<p></p>,,null,,,,,,,,,,,,,,,,
,do_trial,253,555110,0.0-131.0-0.0,301.1999998,,,,49,"0,1,0",6,blank,352,null,0.41837386,0.232620926,0.395002341,0,,,,,,
,html-keyboard-response,254,556114,0.0-131.0-1.0,null,<p></p>,,null,,,,,,,,,,,,,,,,
,do_trial,255,558947,0.0-132.0-0.0,291.5,,,,49,"1,1,1",6,blank,353,null,0.405921998,0.123277088,0.417867239,1,,,,,,
,html-keyboard-response,256,559952,0.0-132.0-1.0,null,<p></p>,,null,,,,,,,,,,,,,,,,
,do_trial,257,562836,0.0-133.0-0.0,336,,,,49,"0,0,1",6,blank,354,null,0.506478005,0.188269588,0.585880671,0,,,,,,
,html-keyboard-response,258,563840,0.0-133.0-1.0,null,<p></p>,,null,,,,,,,,,,,,,,,,
,do_trial,259,567858,0.0-134.0-0.0,1470.8,,,,49,"0,0,1",6,blank,355,null,0.319103836,0.067405675,0.585255925,0,,,,,,
,html-keyboard-response,260,568863,0.0-134.0-1.0,null,<p></p>,,null,,,,,,,,,,,,,,,,
,do_trial,261,571707,0.0-135.0-0.0,303,,,,50,"1,0,1",6,blank,356,null,0.298888749,0.050894135,0.682777861,0,,,,,,
,html-keyboard-response,262,572712,0.0-135.0-1.0,null,<p></p>,,null,,,,,,,,,,,,,,,,
,do_trial,263,575556,0.0-136.0-0.0,294.5,,,,49,"0,0,1",6,blank,357,null,0.301481605,0.059731107,0.60560596,0,,,,,,
,html-keyboard-response,264,576560,0.0-136.0-1.0,null,<p></p>,,null,,,,,,,,,,,,,,,,
,do_trial,265,579370,0.0-137.0-0.0,259.2000003,,,,50,"1,0,0",6,blank,358,null,0.391466076,0.138933282,0.640013838,0,,,,,,
,html-keyboard-response,266,580374,0.0-137.0-1.0,null,<p></p>,,null,,,,,,,,,,,,,,,,
,do_recog,267,582546,0.0-138.0-0.0,665,,,,53,,,,359,probe-222,,,,,1,[object Object],207,5,1,
,html-keyboard-response,268,583550,0.0-138.0-1.0,null,<p></p>,,null,,,,,,,,,,,,,,,,
,do_trial,269,586539,0.0-139.0-0.0,437.2999997,,,,49,"0,1,1",6,blank,360,null,0.350458925,0.117063445,0.765802306,0,,,,,,
,html-keyboard-response,270,587544,0.0-139.0-1.0,null,<p></p>,,null,,,,,,,,,,,,,,,,
,do_trial,271,591503,0.0-140.0-0.0,1406.4,,,,49,"0,0,1",6,blank,361,null,0.4635403,0.098978306,0.766377424,0,,,,,,
,html-keyboard-response,272,592507,0.0-140.0-1.0,null,<p></p>,,null,,,,,,,,,,,,,,,,
,do_trial,273,595438,0.0-141.0-0.0,383,,,,50,"1,0,0",6,blank,362,null,0.429389285,0.13205509,0.646283737,0,,,,,,
,html-keyboard-response,274,596443,0.0-141.0-1.0,null,<p></p>,,null,,,,,,,,,,,,,,,,
,do_trial,275,599398,0.0-142.0-0.0,406.8000002,,,,50,"1,0,1",6,blank,363,null,0.534996602,0.089965481,0.489501318,0,,,,,,
,html-keyboard-response,276,600403,0.0-142.0-1.0,null,<p></p>,,null,,,,,,,,,,,,,,,,
,do_trial,277,603914,0.0-143.0-0.0,962,,,,51,"1,1,0",6,blank,364,null,0.300928298,0.211808989,0.400276463,0,,,,,,
,html-keyboard-response,278,604919,0.0-143.0-1.0,null,<p></p>,,null,,,,,,,,,,,,,,,,
,do_recog,279,607247,0.0-144.0-0.0,816.1000004,,,,53,,,,365,probe-27,,,,,1,[object Object],169,4,1,
,html-keyboard-response,280,608251,0.0-144.0-1.0,null,<p></p>,,null,,,,,,,,,,,,,,,,
,do_trial,281,611444,0.0-145.0-0.0,647.9000001,,,,49,"0,1,0",6,blank,366,null,0.373322266,0.191552308,0.514579073,0,,,,,,
,html-keyboard-response,282,612448,0.0-145.0-1.0,null,<p></p>,,null,,,,,,,,,,,,,,,,
,do_trial,283,616316,0.0-146.0-0.0,1321.5,,,,49,"1,0,1",6,blank,367,null,0.245525739,0.316496974,0.4354519,1,,,,,,
,html-keyboard-response,284,617319,0.0-146.0-1.0,null,<p></p>,,null,,,,,,,,,,,,,,,,
,do_recog,285,619745,0.0-147.0-0.0,917.0999999,,,,53,,,,368,probe-165,,,,,1,[object Object],42,1,1,
,html-keyboard-response,286,620749,0.0-147.0-1.0,null,<p></p>,,null,,,,,,,,,,,,,,,,
,do_trial,287,623942,0.0-148.0-0.0,645.7999997,,,,51,"1,0,1",6,blank,369,null,0.354187269,0.339183219,0.471724666,1,,,,,,
,html-keyboard-response,288,624946,0.0-148.0-1.0,null,<p></p>,,null,,,,,,,,,,,,,,,,
,do_recog,289,627634,0.0-149.0-0.0,1179.8,,,,53,,,,370,probe-160,,,,,1,[object Object],206,5,1,
,html-keyboard-response,290,628638,0.0-149.0-1.0,null,<p></p>,,null,,,,,,,,,,,,,,,,
,do_trial,291,631569,0.0-150.0-0.0,381.1999998,,,,50,"1,0,0",6,blank,371,null,0.390164929,0.215189417,0.500599676,0,,,,,,
,html-keyboard-response,292,632574,0.0-150.0-1.0,null,<p></p>,,null,,,,,,,,,,,,,,,,
,do_trial,293,635825,0.0-151.0-0.0,706.5,,,,49,"0,0,0",6,blank,372,null,0.38369038,0.095875595,0.58867561,0,,,,,,
,html-keyboard-response,294,636829,0.0-151.0-1.0,null,<p></p>,,null,,,,,,,,,,,,,,,,
,do_trial,295,639889,0.0-152.0-0.0,514.4000001,,,,49,"1,0,0",6,blank,373,null,0.308390212,0.107265501,0.667482877,1,,,,,,
,html-keyboard-response,296,640893,0.0-152.0-1.0,null,<p></p>,,null,,,,,,,,,,,,,,,,
,do_trial,297,643976,0.0-153.0-0.0,534.8000002,,,,50,"0,0,1",6,blank,374,null,0.212544684,0.128281643,0.673737896,0,,,,,,
,html-keyboard-response,298,644980,0.0-153.0-1.0,null,<p></p>,,null,,,,,,,,,,,,,,,,
,do_trial,299,649897,0.0-154.0-0.0,2367.8,,,,50,"1,0,1",6,blank,375,null,0.273710351,0.059717825,0.667056917,0,,,,,,
,html-keyboard-response,300,650901,0.0-154.0-1.0,null,<p></p>,,null,,,,,,,,,,,,,,,,
,do_trial,301,654442,0.0-155.0-0.0,993.5,,,,51,"0,0,1",6,blank,376,null,0.272566622,0.163591623,0.544232051,1,,,,,,
,html-keyboard-response,302,655447,0.0-155.0-1.0,null,<p></p>,,null,,,,,,,,,,,,,,,,
,do_recog,303,657821,0.0-156.0-0.0,864.5,,,,53,,,,377,probe-173,,,,,1,[object Object],45,1,1,
,html-keyboard-response,304,658825,0.0-156.0-1.0,null,<p></p>,,null,,,,,,,,,,,,,,,,
,do_trial,305,662523,0.0-157.0-0.0,1150,,,,49,"0,0,1",6,blank,378,null,0.319616593,0.091182341,0.580796498,0,,,,,,
,html-keyboard-response,306,663527,0.0-157.0-1.0,null,<p></p>,,null,,,,,,,,,,,,,,,,
,do_trial,307,666378,0.0-158.0-0.0,300.3000002,,,,50,"0,0,1",6,blank,379,null,0.311600215,0.129934935,0.626875789,0,,,,,,
,html-keyboard-response,308,667382,0.0-158.0-1.0,null,<p></p>,,null,,,,,,,,,,,,,,,,
,do_trial,309,670163,0.0-159.0-0.0,234.7000003,,,,49,"0,0,1",6,blank,380,null,0.390084878,0.105002546,0.707131862,0,,,,,,
,html-keyboard-response,310,671167,0.0-159.0-1.0,null,<p></p>,,null,,,,,,,,,,,,,,,,
,do_trial,311,674064,0.0-160.0-0.0,349.1999998,,,,51,"1,0,1",6,blank,381,null,0.478685646,0.072138917,0.736609636,1,,,,,,
,html-keyboard-response,312,675068,0.0-160.0-1.0,null,<p></p>,,null,,,,,,,,,,,,,,,,
,do_trial,313,678023,0.0-161.0-0.0,406.7999997,,,,51,"1,0,1",6,blank,382,null,0.545080513,0.128461422,0.610478706,1,,,,,,
,html-keyboard-response,314,679027,0.0-161.0-1.0,null,<p></p>,,null,,,,,,,,,,,,,,,,
,do_trial,315,681941,0.0-162.0-0.0,366.5999999,,,,51,"0,0,0",6,blank,383,null,0.44270261,0.088255683,0.61449485,0,,,,,,
,html-keyboard-response,316,682946,0.0-162.0-1.0,null,<p></p>,,null,,,,,,,,,,,,,,,,
,do_recog,317,685210,0.0-163.0-0.0,756.5999999,,,,53,,,,384,probe-80,,,,,1,[object Object],43,1,1,
,html-keyboard-response,318,686214,0.0-163.0-1.0,null,<p></p>,,null,,,,,,,,,,,,,,,,
,do_trial,319,689109,0.0-164.0-0.0,346.9000001,,,,51,"0,0,1",6,blank,385,null,0.35356607,0.118137545,0.579103644,1,,,,,,
,html-keyboard-response,320,690113,0.0-164.0-1.0,null,<p></p>,,null,,,,,,,,,,,,,,,,
,do_recog,321,692617,0.0-165.0-0.0,995,,,,53,,,,386,probe-116,,,,,1,[object Object],201,5,1,
,html-keyboard-response,322,693621,0.0-165.0-1.0,null,<p></p>,,null,,,,,,,,,,,,,,,,
,do_trial,323,696664,0.0-166.0-0.0,503,,,,51,"1,0,1",6,blank,387,null,0.376740841,0.094541624,0.521750447,1,,,,,,
,html-keyboard-response,324,697668,0.0-166.0-1.0,null,<p></p>,,null,,,,,,,,,,,,,,,,
,do_trial,325,701946,0.0-167.0-0.0,1729,,,,49,"1,0,0",6,blank,388,null,0.369637837,0.144687804,0.499345568,1,,,,,,
,html-keyboard-response,326,702950,0.0-167.0-1.0,null,<p></p>,,null,,,,,,,,,,,,,,,,
,do_trial,327,706132,0.0-168.0-0.0,636.2000003,,,,51,"0,0,0",6,blank,389,null,0.243796521,0.277106587,0.711436917,0,,,,,,
,html-keyboard-response,328,707136,0.0-168.0-1.0,null,<p></p>,,null,,,,,,,,,,,,,,,,
,do_trial,329,710236,0.0-169.0-0.0,551.6999998,,,,51,"0,0,0",6,blank,390,null,0.162620063,0.156108904,0.751850223,0,,,,,,
,html-keyboard-response,330,711240,0.0-169.0-1.0,null,<p></p>,,null,,,,,,,,,,,,,,,,
,do_trial,331,714160,0.0-170.0-0.0,373,,,,49,"0,0,1",6,blank,391,null,0.321312985,0.066512086,0.75180668,0,,,,,,
,html-keyboard-response,332,715164,0.0-170.0-1.0,null,<p></p>,,null,,,,,,,,,,,,,,,,
,do_recog,333,717643,0.0-171.0-0.0,969.3000002,,,,53,,,,392,probe-15,,,,,1,[object Object],208,5,1,
,html-keyboard-response,334,718647,0.0-171.0-1.0,null,<p></p>,,null,,,,,,,,,,,,,,,,
,do_trial,335,722340,0.0-172.0-0.0,1147.6,,,,50,"0,0,1",6,blank,393,null,0.202212711,0.107838541,0.658070713,0,,,,,,
,html-keyboard-response,336,723343,0.0-172.0-1.0,null,<p></p>,,null,,,,,,,,,,,,,,,,
,do_trial,337,726194,0.0-173.0-0.0,304.9000001,,,,49,"1,0,0",6,blank,394,null,0.158957027,0.17197297,0.56640668,1,,,,,,
,html-keyboard-response,338,727199,0.0-173.0-1.0,null,<p></p>,,null,,,,,,,,,,,,,,,,
,do_trial,339,730008,0.0-174.0-0.0,260.3999996,,,,49,"0,0,0",6,blank,395,null,0.112948277,0.186097654,0.424981208,0,,,,,,
,html-keyboard-response,340,731013,0.0-174.0-1.0,null,<p></p>,,null,,,,,,,,,,,,,,,,
,do_trial,341,733927,0.0-175.0-0.0,368.5,,,,51,"0,0,0",6,blank,396,null,0.163916313,0.175814095,0.359473665,0,,,,,,
,html-keyboard-response,342,734931,0.0-175.0-1.0,null,<p></p>,,null,,,,,,,,,,,,,,,,
,do_trial,343,737766,0.0-176.0-0.0,285.9000001,,,,50,"0,0,0",6,blank,397,null,0.161644726,0.072288747,0.18280927,0,,,,,,
,html-keyboard-response,344,738768,0.0-176.0-1.0,null,<p></p>,,null,,,,,,,,,,,,,,,,
,do_trial,345,741752,0.0-177.0-0.0,439.8000002,,,,50,"0,0,0",6,blank,398,null,0.132083755,0.094676984,0.281021025,0,,,,,,
,html-keyboard-response,346,742756,0.0-177.0-1.0,null,<p></p>,,null,,,,,,,,,,,,,,,,
,do_recog,347,745560,0.0-178.0-0.0,1291,,,,53,,,,399,probe-41,,,,,1,[object Object],41,1,1,
,html-keyboard-response,348,746564,0.0-178.0-1.0,null,<p></p>,,null,,,,,,,,,,,,,,,,
,do_trial,349,749903,0.0-179.0-0.0,791.4000001,,,,50,"0,0,0",6,blank,400,null,0.209066577,0.241730362,0.196860972,0,,,,,,
,html-keyboard-response,350,750907,0.0-179.0-1.0,null,<p></p>,,null,,,,,,,,,,,,,,,,
,do_trial,351,753963,0.0-180.0-0.0,510.5999999,,,,51,"0,0,0",6,blank,401,null,0.354636838,0.3637533,0.166083138,0,,,,,,
,html-keyboard-response,352,754965,0.0-180.0-1.0,null,<p></p>,,null,,,,,,,,,,,,,,,,
,do_trial,353,758227,0.0-181.0-0.0,715.3000002,,,,49,"0,0,0",6,blank,402,null,0.393992734,0.477801982,0.090686089,0,,,,,,
,html-keyboard-response,354,759231,0.0-181.0-1.0,null,<p></p>,,null,,,,,,,,,,,,,,,,
,do_trial,355,762578,0.0-182.0-0.0,799.3999996,,,,49,"1,1,0",6,blank,403,null,0.218023332,0.582131132,0.13652015,1,,,,,,
,html-keyboard-response,356,763579,0.0-182.0-1.0,null,<p></p>,,null,,,,,,,,,,,,,,,,
,do_trial,357,766662,0.0-183.0-0.0,539.6000004,,,,49,"0,1,0",6,blank,404,null,0.340697911,0.631954847,0.109910023,0,,,,,,
,html-keyboard-response,358,767666,0.0-183.0-1.0,null,<p></p>,,null,,,,,,,,,,,,,,,,
,do_trial,359,770755,0.0-184.0-0.0,538.6999998,,,,50,"0,1,1",6,blank,405,null,0.349949018,0.601848728,0.100390827,1,,,,,,
,html-keyboard-response,360,771759,0.0-184.0-1.0,null,<p></p>,,null,,,,,,,,,,,,,,,,
,do_trial,361,774887,0.0-185.0-0.0,578.2000003,,,,49,"1,0,0",6,blank,406,null,0.273931156,0.620311802,0.083311712,1,,,,,,
,html-keyboard-response,362,775892,0.0-185.0-1.0,null,<p></p>,,null,,,,,,,,,,,,,,,,
,do_recog,363,778534,0.0-186.0-0.0,1134.8,,,,53,,,,407,probe-62,,,,,1,[object Object],129,3,1,
,html-keyboard-response,364,779538,0.0-186.0-1.0,null,<p></p>,,null,,,,,,,,,,,,,,,,
,do_trial,365,782440,0.0-187.0-0.0,354.4000001,,,,49,"0,0,0",6,blank,408,null,0.276070676,0.522991605,0.208624545,0,,,,,,
,html-keyboard-response,366,783445,0.0-187.0-1.0,null,<p></p>,,null,,,,,,,,,,,,,,,,
,do_recog,367,786376,0.0-188.0-0.0,1423.9,,,,53,,,,409,probe-185,,,,,1,[object Object],40,1,1,
,html-keyboard-response,368,787380,0.0-188.0-1.0,null,<p></p>,,null,,,,,,,,,,,,,,,,
,do_trial,369,790266,0.0-189.0-0.0,343.0999999,,,,49,"0,0,0",6,blank,410,null,0.438613194,0.541249317,0.120421767,0,,,,,,
,html-keyboard-response,370,791270,0.0-189.0-1.0,null,<p></p>,,null,,,,,,,,,,,,,,,,
,do_trial,371,794097,0.0-190.0-0.0,281,,,,51,"0,0,0",6,blank,411,null,0.413607034,0.499347982,0.181893944,0,,,,,,
,html-keyboard-response,372,795101,0.0-190.0-1.0,null,<p></p>,,null,,,,,,,,,,,,,,,,
,do_trial,373,797859,0.0-191.0-0.0,213.7999997,,,,49,"0,1,0",6,blank,412,null,0.490372554,0.526228578,0.163734778,0,,,,,,
,html-keyboard-response,374,798863,0.0-191.0-1.0,null,<p></p>,,null,,,,,,,,,,,,,,,,
,do_trial,375,801778,0.0-192.0-0.0,368.3000002,,,,50,"0,0,0",6,blank,413,null,0.274806924,0.498378209,0.301844331,0,,,,,,
,html-keyboard-response,376,802782,0.0-192.0-1.0,null,<p></p>,,null,,,,,,,,,,,,,,,,
,do_trial,377,805731,0.0-193.0-0.0,398.3000002,,,,49,"1,1,0",6,blank,414,null,0.230763265,0.490641504,0.179797919,1,,,,,,
,html-keyboard-response,378,806735,0.0-193.0-1.0,null,<p></p>,,null,,,,,,,,,,,,,,,,
,do_recog,379,809620,0.0-194.0-0.0,1374.8,,,,53,,,,415,probe-152,,,,,1,[object Object],81,2,1,
,html-keyboard-response,380,810624,0.0-194.0-1.0,null,<p></p>,,null,,,,,,,,,,,,,,,,
,do_trial,381,813498,0.0-195.0-0.0,333.5,,,,49,"0,0,0",6,blank,416,null,0.201160712,0.640528661,0.077942191,0,,,,,,
,html-keyboard-response,382,814502,0.0-195.0-1.0,null,<p></p>,,null,,,,,,,,,,,,,,,,
,do_recog,383,817486,0.0-196.0-0.0,1472.1,,,,53,,,,417,probe-94,,,,,1,[object Object],44,1,1,
,html-keyboard-response,384,818490,0.0-196.0-1.0,null,<p></p>,,null,,,,,,,,,,,,,,,,
,do_trial,385,821451,0.0-197.0-0.0,411.3999996,,,,49,"0,0,1",6,blank,418,null,0.134962055,0.678554572,0.087788901,0,,,,,,
,html-keyboard-response,386,822455,0.0-197.0-1.0,null,<p></p>,,null,,,,,,,,,,,,,,,,
,do_recog,387,825289,0.0-198.0-0.0,1325.7,,,,53,,,,419,probe-107,,,,,1,[object Object],49,1,1,
,html-keyboard-response,388,826293,0.0-198.0-1.0,null,<p></p>,,null,,,,,,,,,,,,,,,,
,do_trial,389,829404,0.0-199.0-0.0,563.4000001,,,,49,"0,1,0",6,blank,420,null,0.131262582,0.755374412,0.350880688,0,,,,,,
,html-keyboard-response,390,830408,0.0-199.0-1.0,null,<p></p>,,null,,,,,,,,,,,,,,,,
,do_trial,391,833741,0.0-200.0-0.0,784.5,,,,50,"0,0,0",6,blank,421,null,0.123743842,0.604582419,0.090913064,0,,,,,,
,html-keyboard-response,392,834745,0.0-200.0-1.0,null,<p></p>,,null,,,,,,,,,,,,,,,,
,do_trial,393,837845,0.0-201.0-0.0,550.3000002,,,,51,"1,1,0",6,blank,422,null,0.181940518,0.760993897,0.086993019,0,,,,,,
,html-keyboard-response,394,838849,0.0-201.0-1.0,null,<p></p>,,null,,,,,,,,,,,,,,,,
,do_trial,395,841713,0.0-202.0-0.0,320.2999997,,,,51,"0,1,0",6,blank,423,null,0.219769713,0.574462424,0.123095311,0,,,,,,
,html-keyboard-response,396,842715,0.0-202.0-1.0,null,<p></p>,,null,,,,,,,,,,,,,,,,
,do_trial,397,846332,0.0-203.0-0.0,1067.1,,,,49,"0,0,0",6,blank,424,null,0.233121098,0.59187603,0.148219158,0,,,,,,
,html-keyboard-response,398,847336,0.0-203.0-1.0,null,<p></p>,,null,,,,,,,,,,,,,,,,
,do_recog,399,850553,0.0-204.0-0.0,1707.4,,,,53,,,,425,probe-209,,,,,1,[object Object],88,2,1,
,html-keyboard-response,400,851557,0.0-204.0-1.0,null,<p></p>,,null,,,,,,,,,,,,,,,,
,do_trial,401,854633,0.0-205.0-0.0,523.4000001,,,,50,"0,0,1",6,blank,426,null,0.315704151,0.538132419,0.063870934,0,,,,,,
,html-keyboard-response,402,855638,0.0-205.0-1.0,null,<p></p>,,null,,,,,,,,,,,,,,,,
,do_trial,403,858662,0.0-206.0-0.0,479.6999998,,,,49,"0,1,0",6,blank,427,null,0.123054781,0.639389262,0.062737208,0,,,,,,
,html-keyboard-response,404,859667,0.0-206.0-1.0,null,<p></p>,,null,,,,,,,,,,,,,,,,
,do_recog,405,862656,0.0-207.0-0.0,1478,,,,53,,,,428,probe-49,,,,,1,[object Object],164,4,1,
,html-keyboard-response,406,863660,0.0-207.0-1.0,null,<p></p>,,null,,,,,,,,,,,,,,,,
,do_trial,407,866755,0.0-208.0-0.0,546.7000003,,,,49,"0,0,0",6,blank,429,null,0.310259905,0.53566396,0.227936572,0,,,,,,
,html-keyboard-response,408,867759,0.0-208.0-1.0,null,<p></p>,,null,,,,,,,,,,,,,,,,
,do_recog,409,870459,0.0-209.0-0.0,1191.1,,,,53,,,,430,probe-131,,,,,1,[object Object],89,2,1,
,html-keyboard-response,410,871463,0.0-209.0-1.0,null,<p></p>,,null,,,,,,,,,,,,,,,,
,do_trial,411,874278,0.0-210.0-0.0,265.3999996,,,,49,"0,0,0",6,blank,431,null,0.471303406,0.73224188,0.125808303,0,,,,,,
,html-keyboard-response,412,875282,0.0-210.0-1.0,null,<p></p>,,null,,,,,,,,,,,,,,,,
,do_recog,413,877895,0.0-211.0-0.0,1104.3,,,,53,,,,432,probe-114,,,,,1,[object Object],121,3,1,
,html-keyboard-response,414,878899,0.0-211.0-1.0,null,<p></p>,,null,,,,,,,,,,,,,,,,
,do_trial,415,882057,0.0-212.0-0.0,608.7000003,,,,49,"0,0,0",6,blank,433,null,0.362222797,0.708601734,0.092371502,0,,,,,,
,html-keyboard-response,416,883061,0.0-212.0-1.0,null,<p></p>,,null,,,,,,,,,,,,,,,,
,do_trial,417,885987,0.0-213.0-0.0,375,,,,51,"0,1,0",6,blank,434,null,0.235680644,0.782344417,0.07723547,0,,,,,,
,html-keyboard-response,418,886991,0.0-213.0-1.0,null,<p></p>,,null,,,,,,,,,,,,,,,,
,do_trial,419,889923,0.0-214.0-0.0,383.3000002,,,,50,"1,0,0",6,blank,435,null,0.236597652,0.74258548,0.050403151,0,,,,,,
,html-keyboard-response,420,890927,0.0-214.0-1.0,null,<p></p>,,null,,,,,,,,,,,,,,,,
,do_trial,421,893830,0.0-215.0-0.0,354.2999997,,,,51,"0,1,1",6,blank,436,null,0.11738034,0.743047544,0.124637917,1,,,,,,
,html-keyboard-response,422,894834,0.0-215.0-1.0,null,<p></p>,,null,,,,,,,,,,,,,,,,
,do_recog,423,898016,0.0-216.0-0.0,1674,,,,53,,,,437,probe-50,,,,,1,[object Object],160,4,1,
,html-keyboard-response,424,899020,0.0-216.0-1.0,null,<p></p>,,null,,,,,,,,,,,,,,,,
,do_trial,425,901957,0.0-217.0-0.0,388.8000002,,,,49,"0,0,0",6,blank,438,null,0.13152347,0.621906042,0.100834546,0,,,,,,
,html-keyboard-response,426,902961,0.0-217.0-1.0,null,<p></p>,,null,,,,,,,,,,,,,,,,
,do_recog,427,905678,0.0-218.0-0.0,1205.4,,,,53,,,,439,probe-59,,,,,1,[object Object],125,3,1,
,html-keyboard-response,428,906683,0.0-218.0-1.0,null,<p></p>,,null,,,,,,,,,,,,,,,,
,do_trial,429,909608,0.0-219.0-0.0,378.5,,,,50,"0,0,0",6,blank,440,null,0.169251883,0.602912092,0.193445967,0,,,,,,
,html-keyboard-response,430,910612,0.0-219.0-1.0,null,<p></p>,,null,,,,,,,,,,,,,,,,
,do_recog,431,913329,0.0-220.0-0.0,1208.6,,,,53,,,,441,probe-102,,,,,1,[object Object],202,5,1,
,html-keyboard-response,432,914334,0.0-220.0-1.0,null,<p></p>,,null,,,,,,,,,,,,,,,,
,do_trial,433,917407,0.0-221.0-0.0,525,,,,49,"1,0,0",6,blank,442,null,0.220631961,0.613879187,0.130875184,1,,,,,,
,html-keyboard-response,434,918412,0.0-221.0-1.0,null,<p></p>,,null,,,,,,,,,,,,,,,,
,do_recog,435,921106,0.0-222.0-0.0,1184.6,,,,53,,,,443,probe-252,,,,,0,[object Object],null,null,0,
,html-keyboard-response,436,922109,0.0-222.0-1.0,null,<p></p>,,null,,,,,,,,,,,,,,,,
,do_trial,437,925288,0.0-223.0-0.0,633.8000002,,,,50,"0,0,1",6,blank,444,null,0.256458444,0.516125033,0.162880017,0,,,,,,
,html-keyboard-response,438,926292,0.0-223.0-1.0,null,<p></p>,,null,,,,,,,,,,,,,,,,
,do_trial,439,929378,0.0-224.0-0.0,536,,,,49,"0,0,0",6,blank,445,null,0.237375368,0.428941041,0.315735999,0,,,,,,
,html-keyboard-response,440,930382,0.0-224.0-1.0,null,<p></p>,,null,,,,,,,,,,,,,,,,
,do_trial,441,933740,0.0-225.0-0.0,817.6999998,,,,49,"0,0,0",6,blank,446,null,0.242430724,0.460308447,0.181656457,0,,,,,,
,html-keyboard-response,442,934745,0.0-225.0-1.0,null,<p></p>,,null,,,,,,,,,,,,,,,,
,do_trial,443,938123,0.0-226.0-0.0,829.7000003,,,,49,"0,1,0",6,blank,447,null,0.139889678,0.559172624,0.135090181,0,,,,,,
,html-keyboard-response,444,939127,0.0-226.0-1.0,null,<p></p>,,null,,,,,,,,,,,,,,,,
,do_recog,445,941351,0.0-227.0-0.0,714,,,,56,,,,448,probe-249,,,,,0,[object Object],null,null,1,
,html-keyboard-response,446,942355,0.0-227.0-1.0,null,<p></p>,,null,,,,,,,,,,,,,,,,
,do_trial,447,945316,0.0-228.0-0.0,417.6999998,,,,50,"0,0,0",6,blank,449,null,0.194271183,0.556717555,0.111709478,0,,,,,,
,html-keyboard-response,448,946320,0.0-228.0-1.0,null,<p></p>,,null,,,,,,,,,,,,,,,,
,do_recog,449,949206,0.0-229.0-0.0,1376.9,,,,56,,,,450,probe-240,,,,,0,[object Object],null,null,1,
,html-keyboard-response,450,950210,0.0-229.0-1.0,null,<p></p>,,null,,,,,,,,,,,,,,,,
,do_trial,451,953106,0.0-230.0-0.0,351.1999998,,,,49,"0,0,0",6,blank,451,null,0.232139125,0.665259663,0.07080517,0,,,,,,
,html-keyboard-response,452,954110,0.0-230.0-1.0,null,<p></p>,,null,,,,,,,,,,,,,,,,
,do_trial,453,957077,0.0-231.0-0.0,425.8000002,,,,49,"0,1,0",6,blank,452,null,0.07258889,0.63819928,0.091949921,0,,,,,,
,html-keyboard-response,454,958081,0.0-231.0-1.0,null,<p></p>,,null,,,,,,,,,,,,,,,,
,do_trial,455,961025,0.0-232.0-0.0,395.7000003,,,,50,"0,1,0",6,blank,453,null,0.167994494,0.572917445,0.162869116,1,,,,,,
,html-keyboard-response,456,962029,0.0-232.0-1.0,null,<p></p>,,null,,,,,,,,,,,,,,,,
,do_recog,457,964856,0.0-233.0-0.0,1316.5,,,,56,,,,454,probe-248,,,,,0,[object Object],null,null,1,
,html-keyboard-response,458,965860,0.0-233.0-1.0,null,<p></p>,,null,,,,,,,,,,,,,,,,
,do_trial,459,968833,0.0-234.0-0.0,429.9000001,,,,50,"0,1,0",6,blank,455,null,0.13689,0.615782188,0.12505115,1,,,,,,
,html-keyboard-response,460,969837,0.0-234.0-1.0,null,<p></p>,,null,,,,,,,,,,,,,,,,
,do_recog,461,972809,0.0-235.0-0.0,1466.6,,,,56,,,,456,probe-246,,,,,0,[object Object],null,null,1,
,html-keyboard-response,462,973813,0.0-235.0-1.0,null,<p></p>,,null,,,,,,,,,,,,,,,,
,do_trial,463,977325,0.0-236.0-0.0,959.1000004,,,,51,"0,0,1",6,blank,457,null,0.254730287,0.373896157,0.318836523,1,,,,,,
,html-keyboard-response,464,978330,0.0-236.0-1.0,null,<p></p>,,null,,,,,,,,,,,,,,,,
,do_trial,465,981650,0.0-237.0-0.0,775.2000003,,,,51,"0,1,0",6,blank,458,null,0.370195311,0.346359494,0.30996967,0,,,,,,
,html-keyboard-response,466,982655,0.0-237.0-1.0,null,<p></p>,,null,,,,,,,,,,,,,,,,
,do_trial,467,986091,0.0-238.0-0.0,890.8000002,,,,51,"0,1,0",6,blank,459,null,0.526187107,0.302404017,0.307238004,0,,,,,,
,html-keyboard-response,468,987096,0.0-238.0-1.0,null,<p></p>,,null,,,,,,,,,,,,,,,,
,do_trial,469,990120,0.0-239.0-0.0,481,,,,50,"1,0,0",6,blank,460,null,0.596604015,0.149185087,0.236663587,0,,,,,,
,html-keyboard-response,470,991124,0.0-239.0-1.0,null,<p></p>,,null,,,,,,,,,,,,,,,,
,do_recog,471,993795,0.0-240.0-0.0,1160.6,,,,56,,,,461,probe-232,,,,,0,[object Object],null,null,1,
,html-keyboard-response,472,994799,0.0-240.0-1.0,null,<p></p>,,null,,,,,,,,,,,,,,,,
,do_trial,473,998213,0.0-241.0-0.0,862.1999998,,,,49,"1,0,0",6,blank,462,null,0.560428542,0.123304664,0.218096127,1,,,,,,
,html-keyboard-response,474,999217,0.0-241.0-1.0,null,<p></p>,,null,,,,,,,,,,,,,,,,
,do_trial,475,1002485,0.0-242.0-0.0,718.6999998,,,,49,"1,0,1",6,blank,463,null,0.584045056,0.194774512,0.269234049,1,,,,,,
,html-keyboard-response,476,1003489,0.0-242.0-1.0,null,<p></p>,,null,,,,,,,,,,,,,,,,
,do_trial,477,1006546,0.0-243.0-0.0,510.4000001,,,,49,"1,0,0",6,blank,464,null,0.651702386,0.136696079,0.255685253,1,,,,,,
,html-keyboard-response,478,1007549,0.0-243.0-1.0,null,<p></p>,,null,,,,,,,,,,,,,,,,
,do_trial,479,1010384,0.0-244.0-0.0,282.8000002,,,,50,"1,0,0",6,blank,465,null,0.568106619,0.113580358,0.160979619,0,,,,,,
,html-keyboard-response,480,1011388,0.0-244.0-1.0,null,<p></p>,,null,,,,,,,,,,,,,,,,
,do_trial,481,1014350,0.0-245.0-0.0,419.7000003,,,,50,"0,1,1",6,blank,466,null,0.674253899,0.170114655,0.214577229,1,,,,,,
,html-keyboard-response,482,1015355,0.0-245.0-1.0,null,<p></p>,,null,,,,,,,,,,,,,,,,
,do_trial,483,1018246,0.0-246.0-0.0,345.2999997,,,,50,"1,0,0",6,blank,467,null,0.891135067,0.10916148,0.275290847,0,,,,,,
,html-keyboard-response,484,1019250,0.0-246.0-1.0,null,<p></p>,,null,,,,,,,,,,,,,,,,
,do_recog,485,1022260,0.0-247.0-0.0,1501.8,,,,56,,,,468,probe-245,,,,,0,[object Object],null,null,1,
,html-keyboard-response,486,1023262,0.0-247.0-1.0,null,<p></p>,,null,,,,,,,,,,,,,,,,
,do_trial,487,1026124,0.0-248.0-0.0,312.5999999,,,,51,"1,0,1",6,blank,469,null,0.85507779,0.131228082,0.33788319,1,,,,,,
,html-keyboard-response,488,1027128,0.0-248.0-1.0,null,<p></p>,,null,,,,,,,,,,,,,,,,
,do_recog,489,1030444,0.0-249.0-0.0,1809.9,,,,56,,,,470,probe-235,,,,,0,[object Object],null,null,1,
,html-keyboard-response,490,1031447,0.0-249.0-1.0,null,<p></p>,,null,,,,,,,,,,,,,,,,
,do_trial,491,1034384,0.0-250.0-0.0,389.1000004,,,,49,"1,0,0",6,blank,471,null,0.830179622,0.252131828,0.293402154,1,,,,,,
,html-keyboard-response,492,1035388,0.0-250.0-1.0,null,<p></p>,,null,,,,,,,,,,,,,,,,
,do_recog,493,1038524,0.0-251.0-0.0,1626.3,,,,56,,,,472,probe-237,,,,,0,[object Object],null,null,1,
,html-keyboard-response,494,1039528,0.0-251.0-1.0,null,<p></p>,,null,,,,,,,,,,,,,,,,
,do_trial,495,1042590,0.0-252.0-0.0,515.7999997,,,,49,"1,1,0",6,blank,473,null,0.80002616,0.208390623,0.156344508,1,,,,,,
,html-keyboard-response,496,1043591,0.0-252.0-1.0,null,<p></p>,,null,,,,,,,,,,,,,,,,
,do_trial,497,1046639,0.0-253.0-0.0,499.0999999,,,,49,"1,1,1",6,blank,474,null,0.760548345,0.09264546,0.098360406,1,,,,,,
,html-keyboard-response,498,1047643,0.0-253.0-1.0,null,<p></p>,,null,,,,,,,,,,,,,,,,
,do_trial,499,1050796,0.0-254.0-0.0,604.6000004,,,,49,"1,0,0",6,blank,475,null,0.685530285,0.08105342,0.287785128,1,,,,,,
,html-keyboard-response,500,1051800,0.0-254.0-1.0,null,<p></p>,,null,,,,,,,,,,,,,,,,
,do_trial,501,1054738,0.0-255.0-0.0,385.0999999,,,,49,"1,0,0",6,blank,476,null,0.732121833,0.092834615,0.202638298,1,,,,,,
,html-keyboard-response,502,1055742,0.0-255.0-1.0,null,<p></p>,,null,,,,,,,,,,,,,,,,
,do_trial,503,1058621,0.0-256.0-0.0,333.7000003,,,,49,"1,0,1",6,blank,477,null,0.607627162,0.136156661,0.224213271,1,,,,,,
,html-keyboard-response,504,1059627,0.0-256.0-1.0,null,<p></p>,,null,,,,,,,,,,,,,,,,
,do_trial,505,1062575,0.0-257.0-0.0,407.3000002,,,,49,"0,0,1",6,blank,478,null,0.506300573,0.148380668,0.21547389,0,,,,,,
,html-keyboard-response,506,1063579,0.0-257.0-1.0,null,<p></p>,,null,,,,,,,,,,,,,,,,
,do_recog,507,1066505,0.0-258.0-0.0,1417.3,,,,56,,,,479,probe-247,,,,,0,[object Object],null,null,1,
,html-keyboard-response,508,1067509,0.0-258.0-1.0,null,<p></p>,,null,,,,,,,,,,,,,,,,
,do_pick_best_pirate,509,1081591,0.0-259.0-0.0,13070.3,,,,49,,,,,,,,,,,,,,,
,do_pick_best_pirate,510,1084338,0.0-260.0-0.0,1742,,,,50,,,,,,,,,,,,,,,
,do_pick_best_pirate,511,1086474,0.0-261.0-0.0,1126.4,,,,51,,,,,,,,,,,,,,,
,do_pick_best_pirate,512,1089429,0.0-262.0-0.0,1943.2,,,,49,,,,,,,,,,,,,,,
,do_pick_best_pirate,513,1095803,0.0-263.0-0.0,5363.1,,,,51,,,,,,,,,,,,,,,
,do_pick_best_pirate,514,1098304,0.0-264.0-0.0,1488.6,,,,49,,,,,,,,,,,,,,,
,html-keyboard-response,515,1105858,0.0-265.0-0.0,7552.2,<p>You are all done with the experiment!</p><p> You made $15 plus $3 in bonus payment!</p><p>Thank you for participating. You will recieve your payment within 3 days.<p><b>[Press the space bar to end the experiment]</b></p></div>,,32,,,,,,,,,,,,,,,,