"success","trial_type","trial_index","time_elapsed","internal_node_id","interactions","blur_events","focus_events","fullscreenenter_events","fullscreenexit_events","rt","stimulus","key_press","subject_id","participant_id","age","gender","prompt","response","choice_outcomes","context_n","context_img_id","trial_n","probe_img_id","pR_red","pR_white","pR_black","outcome","is_valid","image_to_show","probed_trial","probed_context","correct","probe","probed_trial_n","probed_context_n","context_im"
"true","fullscreen","0","7218","0.0-0.0","""event"",""trial"",""time""
""fullscreenenter"",""0"",""6228""
","
","
","""event"",""trial"",""time""
""fullscreenenter"",""0"",""6228""
","
","","","","","","","","","","","","","","","","","","","","","","","","","","",""
"","pavlovia","1","7226","0.0-1.0","""event"",""trial"",""time""
""fullscreenenter"",""0"",""6228""
","
","
","""event"",""trial"",""time""
""fullscreenenter"",""0"",""6228""
","
","","","","","","","","","","","","","","","","","","","","","","","","","","",""
"","welc_back","2","17277","0.0-2.0","""event"",""trial"",""time""
""fullscreenenter"",""0"",""6228""
","
","
","""event"",""trial"",""time""
""fullscreenenter"",""0"",""6228""
","
","null","run_exp/static/audio/clip_29_welcome_back.m4a","null","471","844","12","Male","<div class='center'><p>Welcome to day 2!</p><p> Yesterday, you were the head captain of a pirate ship. You asked your fellow pirates to rob other ships of their gold across six different islands.</p></div>","","","","","","","","","","","","","","","","","","",""
"","html-keyboard-response","3","39137","0.0-3.0","""event"",""trial"",""time""
""fullscreenenter"",""0"",""6228""
","
","
","""event"",""trial"",""time""
""fullscreenenter"",""0"",""6228""
","
","21856.199999928474","<div class='center'><p>Welcome to day 2!</p><p> Yesterday, you were the head captain of a pirate ship. You asked your fellow pirates to rob other ships of their gold across six different islands.</p><p><b>[Press the space bar to continue]</b></p></div>","32","","","","","","","","","","","","","","","","","","","","","","","",""
"","day_1_summary_goal","4","56611","0.0-4.0","""event"",""trial"",""time""
""fullscreenenter"",""0"",""6228""
","
","
","""event"",""trial"",""time""
""fullscreenenter"",""0"",""6228""
","
","null","run_exp/static/audio/clip_30_goal_of_game.m4a","null","","","","","<div class='center'><p>Today, like yesterday, you get to pick which pirate you want to rob the next ship.</p><p>If the pirate is successful in robbing a ship, you get gold coins that look like this: </p><p><img src='run_exp/static/images/tutorial/reward.png' height='150'></p><p> If they were not successful in robbing the ship, then you will get no gold coins and you'll see a big red x like this: </p><p><img src='run_exp/static/images/tutorial/reward_no.png' height='150'></p></div>","","","","","","","","","","","","","","","","","","",""
"","html-keyboard-response","5","59416","0.0-5.0","""event"",""trial"",""time""
""fullscreenenter"",""0"",""6228""
","
","
","""event"",""trial"",""time""
""fullscreenenter"",""0"",""6228""
","
","2802.2000000476837","<div class='center'><p>Today, like yesterday, you get to pick which pirate you want to rob the next ship.</p><p>If the pirate is successful in robbing a ship, you get gold coins that look like this: </p><p><img src='run_exp/static/images/tutorial/reward.png' height='150'></p><p> If they were not successful in robbing the ship, then you will get no gold coins and you'll see a big red x like this: </p><p><img src='run_exp/static/images/tutorial/reward_no.png' height='150'></p><p><b>[Press the space bar to continue]</b></p></div>","32","","","","","","","","","","","","","","","","","","","","","","","",""
"","day_1_summary_pick","6","74132","0.0-6.0","""event"",""trial"",""time""
""fullscreenenter"",""0"",""6228""
","
","
","""event"",""trial"",""time""
""fullscreenenter"",""0"",""6228""
","
","null","run_exp/static/audio/clip_31_how_to_pick_a_pirate.m4a","null","","","","","<div class='center'><p>Also, just like yesterday, you will use the 1,2,3 keys on your keyboard to pick a pirate. Press '1' to choose red beard, '2' to choose white beard, and '3' to choose black beard . You only have 3 seconds to pick a pirate, so please make a choice quickly!</p></div>","","","","","","","","","","","","","","","","","","",""
"","html-keyboard-response","7","75704","0.0-7.0","""event"",""trial"",""time""
""fullscreenenter"",""0"",""6228""
","
","
","""event"",""trial"",""time""
""fullscreenenter"",""0"",""6228""
","
","1570.0999999046326","<div class='center'><p>Also, just like yesterday, you will use the 1,2,3 keys on your keyboard to pick a pirate. Press '1' to choose red beard, '2' to choose white beard, and '3' to choose black beard . You only have 3 seconds to pick a pirate, so please make a choice quickly!</p><p><b>[Press the space bar to continue]</b></p></div>","32","","","","","","","","","","","","","","","","","","","","","","","",""
"","test_phase_begin","8","106114","0.0-8.0","""event"",""trial"",""time""
""fullscreenenter"",""0"",""6228""
","
","
","""event"",""trial"",""time""
""fullscreenenter"",""0"",""6228""
","
","null","run_exp/static/audio/clip_32_final_place.m4a","null","","","","","<div class='center'><p>You’ve arrived at the final island of your journey! Unfortunately, it’s very foggy out, so you won’t be able to see it in the distance like the other islands you've visited.</p><p>You’ll still be deciding which pirate you want to rob a ship like before. However, because of the fog, you also won’t be able to see the ship.</p><p>This means you do not have to remember the ships you rob on this island.</p><p>Unlike yesterday, you won't be visiting multiple islands today. You will stay on this island for the entire game. This game will last ~30 minutes.</p></div>","","","","","","","","","","","","","","","","","","",""
"","html-keyboard-response","9","111080","0.0-9.0","""event"",""trial"",""time""
""fullscreenenter"",""0"",""6228""
","
","
","""event"",""trial"",""time""
""fullscreenenter"",""0"",""6228""
","
","4964.399999976158","<div class='center'><p>You’ve arrived at the final island of your journey! Unfortunately, it’s very foggy out, so you won’t be able to see it in the distance like the other islands you've visited.</p><p>You’ll still be deciding which pirate you want to rob a ship like before. However, because of the fog, you also won’t be able to see the ship.</p><p>This means you do not have to remember the ships you rob on this island.</p><p>Unlike yesterday, you won't be visiting multiple islands today. You will stay on this island for the entire game. This game will last ~30 minutes.</p><p><b>[Press the space bar to continue]</b></p></div>","32","","","","","","","","","","","","","","","","","","","","","","","",""
"","explain_probe_1","10","118812","0.0-10.0","""event"",""trial"",""time""
""fullscreenenter"",""0"",""6228""
","
","
","""event"",""trial"",""time""
""fullscreenenter"",""0"",""6228""
","
","null","run_exp/static/audio/clip_33_recognition_1.m4a","null","","","","","<div class='center'><p> Sometimes you’ll be shown a ship, and you will be asked if you saw this ship on a past island.</p><p> Here is an example of what you will see.</p><p><img src='run_exp/static/images/tutorial/example_recog_trial.png' height='500'></p></div>","","","","","","","","","","","","","","","","","","",""
"","html-keyboard-response","11","131269","0.0-11.0","""event"",""trial"",""time""
""fullscreenenter"",""0"",""6228""
","
","
","""event"",""trial"",""time""
""fullscreenenter"",""0"",""6228""
","
","12455","<div class='center'><p> Sometimes you’ll be shown a ship, and you will be asked if you saw this ship on a past island.</p><p> Here is an example of what you will see.</p><p><img src='run_exp/static/images/tutorial/example_recog_trial.png' height='500'></p><p><b>[Press the space bar to continue]</b></p></div>","32","","","","","","","","","","","","","","","","","","","","","","","",""
"","explain_probe_2","12","152987","0.0-12.0","""event"",""trial"",""time""
""fullscreenenter"",""0"",""6228""
","
","
","""event"",""trial"",""time""
""fullscreenenter"",""0"",""6228""
","
","null","run_exp/static/audio/clip_34_recognition_2.m4a","null","","","","","<div class='center'><p> You will press the 5, 6, 7, 8 keys on your keyboard to respond.</p><p>If you are sure you saw the ship, press <b>5</b> on your keyboard.</p><p> If you think you saw it before but aren't sure, then press <b>6</b>.</p><p> If you think you have <b>not</b> seen it before but aren't sure, then press <b>7</b>.</p><p> If you are sure you did <b>not</b> see the ship before, then press <b>8</b>.</p><p><img src='run_exp/static/images/tutorial/example_recog_trial.png' height='500'></p></div>","","","","","","","","","","","","","","","","","","",""
"","html-keyboard-response","13","153908","0.0-13.0","""event"",""trial"",""time""
""fullscreenenter"",""0"",""6228""
","
","
","""event"",""trial"",""time""
""fullscreenenter"",""0"",""6228""
","
","919","<div class='center'><p> You will press the 5, 6, 7, 8 keys on your keyboard to respond.</p><p>If you are sure you saw the ship, press <b>5</b> on your keyboard.</p><p> If you think you saw it before but aren't sure, then press <b>6</b>.</p><p> If you think you have <b>not</b> seen it before but aren't sure, then press <b>7</b>.</p><p> If you are sure you did <b>not</b> see the ship before, then press <b>8</b>.</p><p><img src='run_exp/static/images/tutorial/example_recog_trial.png' height='500'></p><p><b>[Press the space bar to continue]</b></p></div>","32","","","","","","","","","","","","","","","","","","","","","","","",""
"","explain_outcome","14","171125","0.0-14.0","""event"",""trial"",""time""
""fullscreenenter"",""0"",""6228""
","
","
","""event"",""trial"",""time""
""fullscreenenter"",""0"",""6228""
","
","null","run_exp/static/audio/clip_35_recognition_3.m4a","null","","","","","<div class='center'><p> If you remember correctly, then you’ll get a gold coin like this: </p><p><img src='run_exp/static/images/tutorial/reward_small.png' height='200'></p><p>If you do not remember correctly, then you'll see a red x like this: </p><p><img src='run_exp/static/images/tutorial/reward_no.png' height='200'></p><p>Importantly, when you are shown a ship, take the time to remind yourself which island you saw it on. This will help you in the next part of the study.</p></div>","","","","","","","","","","","","","","","","","","",""
"","html-keyboard-response","15","173366","0.0-15.0","""event"",""trial"",""time""
""fullscreenenter"",""0"",""6228""
","
","
","""event"",""trial"",""time""
""fullscreenenter"",""0"",""6228""
","
","2237.7999999523163","<div class='center'><p> If you remember correctly, then you’ll get a gold coin like this: </p><p><img src='run_exp/static/images/tutorial/reward_small.png' height='200'></p><p>If you do not remember correctly, then you'll see a red x like this: </p><p><img src='run_exp/static/images/tutorial/reward_no.png' height='200'></p><p>Importantly, when you are shown a ship, take the time to remind yourself which island you saw it on. This will help you in the next part of the study.</p><p><b>[Press the space bar to continue]</b></p></div>","32","","","","","","","","","","","","","","","","","","","","","","","",""
"","begin_test_phase","16","189204","0.0-16.0","""event"",""trial"",""time""
""fullscreenenter"",""0"",""6228""
","
","
","""event"",""trial"",""time""
""fullscreenenter"",""0"",""6228""
","
","null","run_exp/static/audio/clip_36_begin_final.m4a","null","","","","","<div class='center'><p>Let's go over the important points again. Your job is to: </p><p>1. Pick the pirate who is best at robbing ships and will bring you back gold coins. </p><p>2. Correctly remember whether or not you saw a ship before. If you did see the ship before, remind yourself on which island you saw it. </p></div>","","","","","","","","","","","","","","","","","","",""
"","html-keyboard-response","17","191766","0.0-17.0","""event"",""trial"",""time""
""fullscreenenter"",""0"",""6228""
","
","
","""event"",""trial"",""time""
""fullscreenenter"",""0"",""6228""
","
","2493.5","<div class='center'><p>Let's go over the important points again. Your job is to: </p><p>1. Pick the pirate who is best at robbing ships and will bring you back gold coins. </p><p>2. Correctly remember whether or not you saw a ship before. If you did see the ship before, remind yourself on which island you saw it. </p><p><b>[Press the space bar to continue]</b></p></div>","32","","","","","","","","","","","","","","","","","","","","","","","",""
"","do_welcome","18","195793","0.0-18.0","""event"",""trial"",""time""
""fullscreenenter"",""0"",""6228""
","
","
","""event"",""trial"",""time""
""fullscreenenter"",""0"",""6228""
","
","null","","","","","","","","null","","","","","","","","","","","","","","","","","",""
"","do_trial","19","200264","0.0-19.0-0.0","""event"",""trial"",""time""
""fullscreenenter"",""0"",""6228""
","
","
","""event"",""trial"",""time""
""fullscreenenter"",""0"",""6228""
","
","1901.3999999761581","","","","","","","","51","1,0,1","6","blank","230","null","0.4952990055964939","0.08668969256265918","0.30316886337216814","1","","","","","","","","",""
"","html-keyboard-response","20","201270","0.0-19.0-1.0","""event"",""trial"",""time""
""fullscreenenter"",""0"",""6228""
","
","
","""event"",""trial"",""time""
""fullscreenenter"",""0"",""6228""
","
","null","<p></p>","null","","","","","","","","","","","","","","","","","","","","","","","",""
"","do_trial","21","204192","0.0-20.0-0.0","""event"",""trial"",""time""
""fullscreenenter"",""0"",""6228""
","
","
","""event"",""trial"",""time""
""fullscreenenter"",""0"",""6228""
","
","348","","","","","","","","49","0,0,0","6","blank","231","null","0.3478287802330662","0.09197870444904163","0.302684275127597","0","","","","","","","","",""
"","html-keyboard-response","22","205194","0.0-20.0-1.0","""event"",""trial"",""time""
""fullscreenenter"",""0"",""6228""
","
","
","""event"",""trial"",""time""
""fullscreenenter"",""0"",""6228""
","
","null","<p></p>","null","","","","","","","","","","","","","","","","","","","","","","","",""
"","do_trial","23","207974","0.0-21.0-0.0","""event"",""trial"",""time""
""fullscreenenter"",""0"",""6228""
","
","
","""event"",""trial"",""time""
""fullscreenenter"",""0"",""6228""
","
","198.39999997615814","","","","","","","","51","1,0,0","6","blank","232","null","0.565579441490874","0.0834977285702397","0.43058621037991474","0","","","","","","","","",""
"","html-keyboard-response","24","208977","0.0-21.0-1.0","""event"",""trial"",""time""
""fullscreenenter"",""0"",""6228""
","
","
","""event"",""trial"",""time""
""fullscreenenter"",""0"",""6228""
","
","null","<p></p>","null","","","","","","","","","","","","","","","","","","","","","","","",""
"","do_trial","25","211727","0.0-22.0-0.0","""event"",""trial"",""time""
""fullscreenenter"",""0"",""6228""
","
","
","""event"",""trial"",""time""
""fullscreenenter"",""0"",""6228""
","
","172.60000002384186","","","","","","","","51","1,0,1","6","blank","233","null","0.43093357935765597","0.09670692307350588","0.4299645575173848","1","","","","","","","","",""
"","html-keyboard-response","26","212736","0.0-22.0-1.0","""event"",""trial"",""time""
""fullscreenenter"",""0"",""6228""
","
","
","""event"",""trial"",""time""
""fullscreenenter"",""0"",""6228""
","
","null","<p></p>","null","","","","","","","","","","","","","","","","","","","","","","","",""
"","do_trial","27","215405","0.0-23.0-0.0","""event"",""trial"",""time""
""fullscreenenter"",""0"",""6228""
","
","
","""event"",""trial"",""time""
""fullscreenenter"",""0"",""6228""
","
","112","","","","","","","","51","0,0,0","6","blank","234","null","0.40278501042992815","0.1431563908440543","0.48184014175369627","0","","","","","","","","",""
"","html-keyboard-response","28","216417","0.0-23.0-1.0","""event"",""trial"",""time""
""fullscreenenter"",""0"",""6228""
","
","
","""event"",""trial"",""time""
""fullscreenenter"",""0"",""6228""
","
","null","<p></p>","null","","","","","","","","","","","","","","","","","","","","","","","",""
"","do_trial","29","219071","0.0-24.0-0.0","""event"",""trial"",""time""
""fullscreenenter"",""0"",""6228""
","
","
","""event"",""trial"",""time""
""fullscreenenter"",""0"",""6228""
","
","105.10000002384186","","","","","","","","51","1,0,0","6","blank","235","null","0.5805107190316943","0.09559620884458873","0.3500588361373501","0","","","","","","","","",""
"","html-keyboard-response","30","220084","0.0-24.0-1.0","""event"",""trial"",""time""
""fullscreenenter"",""0"",""6228""
","
","
","""event"",""trial"",""time""
""fullscreenenter"",""0"",""6228""
","
","null","<p></p>","null","","","","","","","","","","","","","","","","","","","","","","","",""
"","do_trial","31","222720","0.0-25.0-0.0","""event"",""trial"",""time""
""fullscreenenter"",""0"",""6228""
","
","
","""event"",""trial"",""time""
""fullscreenenter"",""0"",""6228""
","
","59.60000002384186","","","","","","","","51","0,0,0","6","blank","236","null","0.6534420837568135","0.11249922132739412","0.34120292038996575","0","","","","","","","","",""
"","html-keyboard-response","32","223726","0.0-25.0-1.0","""event"",""trial"",""time""
""fullscreenenter"",""0"",""6228""
","
","
","""event"",""trial"",""time""
""fullscreenenter"",""0"",""6228""
","
","null","<p></p>","null","","","","","","","","","","","","","","","","","","","","","","","",""
"","do_trial","33","226291","0.0-26.0-0.0","""event"",""trial"",""time""
""fullscreenenter"",""0"",""6228""
","
","
","""event"",""trial"",""time""
""fullscreenenter"",""0"",""6228""
","
","0.19999992847442627","","","","","","","","51","0,0,0","6","blank","237","null","0.737761252597615","0.10018823771924071","0.35595179821498085","0","","","","","","","","",""
"","html-keyboard-response","34","227302","0.0-26.0-1.0","""event"",""trial"",""time""
""fullscreenenter"",""0"",""6228""
","
","
","""event"",""trial"",""time""
""fullscreenenter"",""0"",""6228""
","
","null","<p></p>","null","","","","","","","","","","","","","","","","","","","","","","","",""
"","do_trial","35","230760","0.0-27.0-0.0","""event"",""trial"",""time""
""fullscreenenter"",""0"",""6228""
","
","
","""event"",""trial"",""time""
""fullscreenenter"",""0"",""6228""
","
","883.6000000238419","","","","","","","","51","1,0,1","6","blank","238","null","0.6002577445023876","0.1258624061018237","0.3488239224349468","1","","","","","","","","",""
"","html-keyboard-response","36","231770","0.0-27.0-1.0","""event"",""trial"",""time""
""fullscreenenter"",""0"",""6228""
","
","
","""event"",""trial"",""time""
""fullscreenenter"",""0"",""6228""
","
","null","<p></p>","null","","","","","","","","","","","","","","","","","","","","","","","",""
"","do_trial","37","234335","0.0-28.0-0.0","""event"",""trial"",""time""
""fullscreenenter"",""0"",""6228""
","
","
","""event"",""trial"",""time""
""fullscreenenter"",""0"",""6228""
","
","0.10000002384185791","","","","","","","","51","0,0,0","6","blank","239","null","0.5190142414420109","0.06681663704321789","0.22907931238336549","0","","","","","","","","",""
"","html-keyboard-response","38","235351","0.0-28.0-1.0","""event"",""trial"",""time""
""fullscreenenter"",""0"",""6228""
","
","
","""event"",""trial"",""time""
""fullscreenenter"",""0"",""6228""
","
","null","<p></p>","null","","","","","","","","","","","","","","","","","","","","","","","",""
"","do_trial","39","238127","0.0-29.0-0.0","""event"",""trial"",""time""
""fullscreenenter"",""0"",""6228""
","
","
","""event"",""trial"",""time""
""fullscreenenter"",""0"",""6228""
","
","208","","","","","","","","50","0,0,0","6","blank","240","null","0.5534520109203825","0.11130546840113353","0.25686910248529987","0","","","","","","","","",""
"","html-keyboard-response","40","239139","0.0-29.0-1.0","""event"",""trial"",""time""
""fullscreenenter"",""0"",""6228""
","
","
","""event"",""trial"",""time""
""fullscreenenter"",""0"",""6228""
","
","null","<p></p>","null","","","","","","","","","","","","","","","","","","","","","","","",""
"","do_recog","41","245168","0.0-30.0-0.0","""event"",""trial"",""time""
""fullscreenenter"",""0"",""6228""
","
","
","""event"",""trial"",""time""
""fullscreenenter"",""0"",""6228""
","
","null","","","","","","","","null","","","","241","probe-82","","","","","1","[object Object]","153","3","0","","","",""
"","html-keyboard-response","42","246186","0.0-30.0-1.0","""event"",""trial"",""time""
""fullscreenenter"",""0"",""6228""
","
","
","""event"",""trial"",""time""
""fullscreenenter"",""0"",""6228""
","
","null","<p></p>","null","","","","","","","","","","","","","","","","","","","","","","","",""
"","do_trial","43","252270","0.0-31.0-0.0","""event"",""trial"",""time""
""fullscreenenter"",""0"",""6228""
""blur"",""44"",""253186""
""fullscreenexit"",""44"",""253187""
","""event"",""trial"",""time""
""blur"",""44"",""253186""
","
","""event"",""trial"",""time""
""fullscreenenter"",""0"",""6228""
","""event"",""trial"",""time""
""fullscreenexit"",""44"",""253187""
","null","","","","","","","","null","1,0,0","6","blank","242","null","0.3654859704925867","0.05967760260752389","0.14132802230727348","","","","","","","","","",""
"","html-keyboard-response","44","253504","0.0-31.0-1.0","""event"",""trial"",""time""
""fullscreenenter"",""0"",""6228""
""blur"",""44"",""253186""
""fullscreenexit"",""44"",""253187""
""focus"",""45"",""256698""
""blur"",""45"",""257574""
","""event"",""trial"",""time""
""blur"",""44"",""253186""
""blur"",""45"",""257574""
","""event"",""trial"",""time""
""focus"",""45"",""256698""
","""event"",""trial"",""time""
""fullscreenenter"",""0"",""6228""
","""event"",""trial"",""time""
""fullscreenexit"",""44"",""253187""
","null","<p></p>","null","","","","","","","","","","","","","","","","","","","","","","","",""
"","do_recog","45","264162","0.0-32.0-0.0","""event"",""trial"",""time""
""fullscreenenter"",""0"",""6228""
""blur"",""44"",""253186""
""fullscreenexit"",""44"",""253187""
""focus"",""45"",""256698""
""blur"",""45"",""257574""
","""event"",""trial"",""time""
""blur"",""44"",""253186""
""blur"",""45"",""257574""
","""event"",""trial"",""time""
""focus"",""45"",""256698""
","""event"",""trial"",""time""
""fullscreenenter"",""0"",""6228""
","""event"",""trial"",""time""
""fullscreenexit"",""44"",""253187""
","null","","","","","","","","null","","","","243","probe-83","","","","","1","[object Object]","116","2","0","","","",""
"","html-keyboard-response","46","265502","0.0-32.0-1.0","""event"",""trial"",""time""
""fullscreenenter"",""0"",""6228""
""blur"",""44"",""253186""
""fullscreenexit"",""44"",""253187""
""focus"",""45"",""256698""
""blur"",""45"",""257574""
""focus"",""47"",""272222""
","""event"",""trial"",""time""
""blur"",""44"",""253186""
""blur"",""45"",""257574""
","""event"",""trial"",""time""
""focus"",""45"",""256698""
""focus"",""47"",""272222""
","""event"",""trial"",""time""
""fullscreenenter"",""0"",""6228""
","""event"",""trial"",""time""
""fullscreenexit"",""44"",""253187""
","null","<p></p>","null","","","","","","","","","","","","","","","","","","","","","","","",""
"","do_trial","47","272522","0.0-33.0-0.0","""event"",""trial"",""time""
""fullscreenenter"",""0"",""6228""
""blur"",""44"",""253186""
""fullscreenexit"",""44"",""253187""
""focus"",""45"",""256698""
""blur"",""45"",""257574""
""focus"",""47"",""272222""
","""event"",""trial"",""time""
""blur"",""44"",""253186""
""blur"",""45"",""257574""
","""event"",""trial"",""time""
""focus"",""45"",""256698""
""focus"",""47"",""272222""
","""event"",""trial"",""time""
""fullscreenenter"",""0"",""6228""
","""event"",""trial"",""time""
""fullscreenexit"",""44"",""253187""
","null","","","","","","","","null","1,1,0","6","blank","244","null","0.312362890170118","0.3523267490300052","0.10475694730487778","","","","","","","","","",""
"","html-keyboard-response","48","273524","0.0-33.0-1.0","""event"",""trial"",""time""
""fullscreenenter"",""0"",""6228""
""blur"",""44"",""253186""
""fullscreenexit"",""44"",""253187""
""focus"",""45"",""256698""
""blur"",""45"",""257574""
""focus"",""47"",""272222""
","""event"",""trial"",""time""
""blur"",""44"",""253186""
""blur"",""45"",""257574""
","""event"",""trial"",""time""
""focus"",""45"",""256698""
""focus"",""47"",""272222""
","""event"",""trial"",""time""
""fullscreenenter"",""0"",""6228""
","""event"",""trial"",""time""
""fullscreenexit"",""44"",""253187""
","null","<p></p>","null","","","","","","","","","","","","","","","","","","","","","","","",""
"","do_recog","49","277747","0.0-34.0-0.0","""event"",""trial"",""time""
""fullscreenenter"",""0"",""6228""
""blur"",""44"",""253186""
""fullscreenexit"",""44"",""253187""
""focus"",""45"",""256698""
""blur"",""45"",""257574""
""focus"",""47"",""272222""
","""event"",""trial"",""time""
""blur"",""44"",""253186""
""blur"",""45"",""257574""
","""event"",""trial"",""time""
""focus"",""45"",""256698""
""focus"",""47"",""272222""
","""event"",""trial"",""time""
""fullscreenenter"",""0"",""6228""
","""event"",""trial"",""time""
""fullscreenexit"",""44"",""253187""
","2709.5","","","","","","","","56","","","","245","probe-55","","","","","1","[object Object]","72","1","0","","","",""
"","html-keyboard-response","50","278761","0.0-34.0-1.0","""event"",""trial"",""time""
""fullscreenenter"",""0"",""6228""
""blur"",""44"",""253186""
""fullscreenexit"",""44"",""253187""
""focus"",""45"",""256698""
""blur"",""45"",""257574""
""focus"",""47"",""272222""
","""event"",""trial"",""time""
""blur"",""44"",""253186""
""blur"",""45"",""257574""
","""event"",""trial"",""time""
""focus"",""45"",""256698""
""focus"",""47"",""272222""
","""event"",""trial"",""time""
""fullscreenenter"",""0"",""6228""
","""event"",""trial"",""time""
""fullscreenexit"",""44"",""253187""
","null","<p></p>","null","","","","","","","","","","","","","","","","","","","","","","","",""
"","do_trial","51","284841","0.0-35.0-0.0","""event"",""trial"",""time""
""fullscreenenter"",""0"",""6228""
""blur"",""44"",""253186""
""fullscreenexit"",""44"",""253187""
""focus"",""45"",""256698""
""blur"",""45"",""257574""
""focus"",""47"",""272222""
","""event"",""trial"",""time""
""blur"",""44"",""253186""
""blur"",""45"",""257574""
","""event"",""trial"",""time""
""focus"",""45"",""256698""
""focus"",""47"",""272222""
","""event"",""trial"",""time""
""fullscreenenter"",""0"",""6228""
","""event"",""trial"",""time""
""fullscreenexit"",""44"",""253187""
","null","","","","","","","","null","0,0,0","6","blank","246","null","0.28665879397757926","0.5041988944066372","0.18430791030081345","","","","","","","","","",""
"","html-keyboard-response","52","285848","0.0-35.0-1.0","""event"",""trial"",""time""
""fullscreenenter"",""0"",""6228""
""blur"",""44"",""253186""
""fullscreenexit"",""44"",""253187""
""focus"",""45"",""256698""
""blur"",""45"",""257574""
""focus"",""47"",""272222""
","""event"",""trial"",""time""
""blur"",""44"",""253186""
""blur"",""45"",""257574""
","""event"",""trial"",""time""
""focus"",""45"",""256698""
""focus"",""47"",""272222""
","""event"",""trial"",""time""
""fullscreenenter"",""0"",""6228""
","""event"",""trial"",""time""
""fullscreenexit"",""44"",""253187""
","null","<p></p>","null","","","","","","","","","","","","","","","","","","","","","","","",""
"","do_trial","53","288647","0.0-36.0-0.0","""event"",""trial"",""time""
""fullscreenenter"",""0"",""6228""
""blur"",""44"",""253186""
""fullscreenexit"",""44"",""253187""
""focus"",""45"",""256698""
""blur"",""45"",""257574""
""focus"",""47"",""272222""
","""event"",""trial"",""time""
""blur"",""44"",""253186""
""blur"",""45"",""257574""
","""event"",""trial"",""time""
""focus"",""45"",""256698""
""focus"",""47"",""272222""
","""event"",""trial"",""time""
""fullscreenenter"",""0"",""6228""
","""event"",""trial"",""time""
""fullscreenexit"",""44"",""253187""
","247.70000004768372","","","","","","","","51","0,1,1","6","blank","247","null","0.286684267042415","0.6102230576542579","0.3280115233831409","1","","","","","","","","",""
"","html-keyboard-response","54","289658","0.0-36.0-1.0","""event"",""trial"",""time""
""fullscreenenter"",""0"",""6228""
""blur"",""44"",""253186""
""fullscreenexit"",""44"",""253187""
""focus"",""45"",""256698""
""blur"",""45"",""257574""
""focus"",""47"",""272222""
","""event"",""trial"",""time""
""blur"",""44"",""253186""
""blur"",""45"",""257574""
","""event"",""trial"",""time""
""focus"",""45"",""256698""
""focus"",""47"",""272222""
","""event"",""trial"",""time""
""fullscreenenter"",""0"",""6228""
","""event"",""trial"",""time""
""fullscreenexit"",""44"",""253187""
","null","<p></p>","null","","","","","","","","","","","","","","","","","","","","","","","",""
"","do_recog","55","292828","0.0-37.0-0.0","""event"",""trial"",""time""
""fullscreenenter"",""0"",""6228""
""blur"",""44"",""253186""
""fullscreenexit"",""44"",""253187""
""focus"",""45"",""256698""
""blur"",""45"",""257574""
""focus"",""47"",""272222""
","""event"",""trial"",""time""
""blur"",""44"",""253186""
""blur"",""45"",""257574""
","""event"",""trial"",""time""
""focus"",""45"",""256698""
""focus"",""47"",""272222""
","""event"",""trial"",""time""
""fullscreenenter"",""0"",""6228""
","""event"",""trial"",""time""
""fullscreenexit"",""44"",""253187""
","1658.2000000476837","","","","","","","","56","","","","248","probe-201","","","","","1","[object Object]","113","2","0","","","",""
"","html-keyboard-response","56","293837","0.0-37.0-1.0","""event"",""trial"",""time""
""fullscreenenter"",""0"",""6228""
""blur"",""44"",""253186""
""fullscreenexit"",""44"",""253187""
""focus"",""45"",""256698""
""blur"",""45"",""257574""
""focus"",""47"",""272222""
""blur"",""57"",""297035""
""focus"",""57"",""299110""
","""event"",""trial"",""time""
""blur"",""44"",""253186""
""blur"",""45"",""257574""
""blur"",""57"",""297035""
","""event"",""trial"",""time""
""focus"",""45"",""256698""
""focus"",""47"",""272222""
""focus"",""57"",""299110""
","""event"",""trial"",""time""
""fullscreenenter"",""0"",""6228""
","""event"",""trial"",""time""
""fullscreenexit"",""44"",""253187""
","null","<p></p>","null","","","","","","","","","","","","","","","","","","","","","","","",""
"","do_trial","57","299895","0.0-38.0-0.0","""event"",""trial"",""time""
""fullscreenenter"",""0"",""6228""
""blur"",""44"",""253186""
""fullscreenexit"",""44"",""253187""
""focus"",""45"",""256698""
""blur"",""45"",""257574""
""focus"",""47"",""272222""
""blur"",""57"",""297035""
""focus"",""57"",""299110""
","""event"",""trial"",""time""
""blur"",""44"",""253186""
""blur"",""45"",""257574""
""blur"",""57"",""297035""
","""event"",""trial"",""time""
""focus"",""45"",""256698""
""focus"",""47"",""272222""
""focus"",""57"",""299110""
","""event"",""trial"",""time""
""fullscreenenter"",""0"",""6228""
","""event"",""trial"",""time""
""fullscreenexit"",""44"",""253187""
","null","","","","","","","","null","1,1,0","6","blank","249","null","0.13209327119057776","0.6200941174090029","0.4232402490024307","","","","","","","","","",""
"","html-keyboard-response","58","300901","0.0-38.0-1.0","""event"",""trial"",""time""
""fullscreenenter"",""0"",""6228""
""blur"",""44"",""253186""
""fullscreenexit"",""44"",""253187""
""focus"",""45"",""256698""
""blur"",""45"",""257574""
""focus"",""47"",""272222""
""blur"",""57"",""297035""
""focus"",""57"",""299110""
""blur"",""59"",""301164""
""focus"",""59"",""302592""
""blur"",""59"",""305092""
","""event"",""trial"",""time""
""blur"",""44"",""253186""
""blur"",""45"",""257574""
""blur"",""57"",""297035""
""blur"",""59"",""301164""
""blur"",""59"",""305092""
","""event"",""trial"",""time""
""focus"",""45"",""256698""
""focus"",""47"",""272222""
""focus"",""57"",""299110""
""focus"",""59"",""302592""
","""event"",""trial"",""time""
""fullscreenenter"",""0"",""6228""
","""event"",""trial"",""time""
""fullscreenexit"",""44"",""253187""
","null","<p></p>","null","","","","","","","","","","","","","","","","","","","","","","","",""
"","do_recog","59","306920","0.0-39.0-0.0","""event"",""trial"",""time""
""fullscreenenter"",""0"",""6228""
""blur"",""44"",""253186""
""fullscreenexit"",""44"",""253187""
""focus"",""45"",""256698""
""blur"",""45"",""257574""
""focus"",""47"",""272222""
""blur"",""57"",""297035""
""focus"",""57"",""299110""
""blur"",""59"",""301164""
""focus"",""59"",""302592""
""blur"",""59"",""305092""
""focus"",""60"",""307675""
","""event"",""trial"",""time""
""blur"",""44"",""253186""
""blur"",""45"",""257574""
""blur"",""57"",""297035""
""blur"",""59"",""301164""
""blur"",""59"",""305092""
","""event"",""trial"",""time""
""focus"",""45"",""256698""
""focus"",""47"",""272222""
""focus"",""57"",""299110""
""focus"",""59"",""302592""
""focus"",""60"",""307675""
","""event"",""trial"",""time""
""fullscreenenter"",""0"",""6228""
","""event"",""trial"",""time""
""fullscreenexit"",""44"",""253187""
","null","","","","","","","","null","","","","250","probe-36","","","","","1","[object Object]","36","0","0","","","",""
"","html-keyboard-response","60","307922","0.0-39.0-1.0","""event"",""trial"",""time""
""fullscreenenter"",""0"",""6228""
""blur"",""44"",""253186""
""fullscreenexit"",""44"",""253187""
""focus"",""45"",""256698""
""blur"",""45"",""257574""
""focus"",""47"",""272222""
""blur"",""57"",""297035""
""focus"",""57"",""299110""
""blur"",""59"",""301164""
""focus"",""59"",""302592""
""blur"",""59"",""305092""
""focus"",""60"",""307675""
","""event"",""trial"",""time""
""blur"",""44"",""253186""
""blur"",""45"",""257574""
""blur"",""57"",""297035""
""blur"",""59"",""301164""
""blur"",""59"",""305092""
","""event"",""trial"",""time""
""focus"",""45"",""256698""
""focus"",""47"",""272222""
""focus"",""57"",""299110""
""focus"",""59"",""302592""
""focus"",""60"",""307675""
","""event"",""trial"",""time""
""fullscreenenter"",""0"",""6228""
","""event"",""trial"",""time""
""fullscreenexit"",""44"",""253187""
","null","<p></p>","null","","","","","","","","","","","","","","","","","","","","","","","",""
"","do_trial","61","312229","0.0-40.0-0.0","""event"",""trial"",""time""
""fullscreenenter"",""0"",""6228""
""blur"",""44"",""253186""
""fullscreenexit"",""44"",""253187""
""focus"",""45"",""256698""
""blur"",""45"",""257574""
""focus"",""47"",""272222""
""blur"",""57"",""297035""
""focus"",""57"",""299110""
""blur"",""59"",""301164""
""focus"",""59"",""302592""
""blur"",""59"",""305092""
""focus"",""60"",""307675""
","""event"",""trial"",""time""
""blur"",""44"",""253186""
""blur"",""45"",""257574""
""blur"",""57"",""297035""
""blur"",""59"",""301164""
""blur"",""59"",""305092""
","""event"",""trial"",""time""
""focus"",""45"",""256698""
""focus"",""47"",""272222""
""focus"",""57"",""299110""
""focus"",""59"",""302592""
""focus"",""60"",""307675""
","""event"",""trial"",""time""
""fullscreenenter"",""0"",""6228""
","""event"",""trial"",""time""
""fullscreenexit"",""44"",""253187""
","1738.5999999046326","","","","","","","","51","0,0,0","6","blank","251","null","0.11964536884451095","0.4955429618521205","0.3608916563182521","0","","","","","","","","",""
"","html-keyboard-response","62","313244","0.0-40.0-1.0","""event"",""trial"",""time""
""fullscreenenter"",""0"",""6228""
""blur"",""44"",""253186""
""fullscreenexit"",""44"",""253187""
""focus"",""45"",""256698""
""blur"",""45"",""257574""
""focus"",""47"",""272222""
""blur"",""57"",""297035""
""focus"",""57"",""299110""
""blur"",""59"",""301164""
""focus"",""59"",""302592""
""blur"",""59"",""305092""
""focus"",""60"",""307675""
","""event"",""trial"",""time""
""blur"",""44"",""253186""
""blur"",""45"",""257574""
""blur"",""57"",""297035""
""blur"",""59"",""301164""
""blur"",""59"",""305092""
","""event"",""trial"",""time""
""focus"",""45"",""256698""
""focus"",""47"",""272222""
""focus"",""57"",""299110""
""focus"",""59"",""302592""
""focus"",""60"",""307675""
","""event"",""trial"",""time""
""fullscreenenter"",""0"",""6228""
","""event"",""trial"",""time""
""fullscreenexit"",""44"",""253187""
","null","<p></p>","null","","","","","","","","","","","","","","","","","","","","","","","",""
"","do_recog","63","317733","0.0-41.0-0.0","""event"",""trial"",""time""
""fullscreenenter"",""0"",""6228""
""blur"",""44"",""253186""
""fullscreenexit"",""44"",""253187""
""focus"",""45"",""256698""
""blur"",""45"",""257574""
""focus"",""47"",""272222""
""blur"",""57"",""297035""
""focus"",""57"",""299110""
""blur"",""59"",""301164""
""focus"",""59"",""302592""
""blur"",""59"",""305092""
""focus"",""60"",""307675""
","""event"",""trial"",""time""
""blur"",""44"",""253186""
""blur"",""45"",""257574""
""blur"",""57"",""297035""
""blur"",""59"",""301164""
""blur"",""59"",""305092""
","""event"",""trial"",""time""
""focus"",""45"",""256698""
""focus"",""47"",""272222""
""focus"",""57"",""299110""
""focus"",""59"",""302592""
""focus"",""60"",""307675""
","""event"",""trial"",""time""
""fullscreenenter"",""0"",""6228""
","""event"",""trial"",""time""
""fullscreenexit"",""44"",""253187""
","2968.2999999523163","","","","","","","","53","","","","252","probe-213","","","","","1","[object Object]","33","0","1","","","",""
"","html-keyboard-response","64","318739","0.0-41.0-1.0","""event"",""trial"",""time""
""fullscreenenter"",""0"",""6228""
""blur"",""44"",""253186""
""fullscreenexit"",""44"",""253187""
""focus"",""45"",""256698""
""blur"",""45"",""257574""
""focus"",""47"",""272222""
""blur"",""57"",""297035""
""focus"",""57"",""299110""
""blur"",""59"",""301164""
""focus"",""59"",""302592""
""blur"",""59"",""305092""
""focus"",""60"",""307675""
","""event"",""trial"",""time""
""blur"",""44"",""253186""
""blur"",""45"",""257574""
""blur"",""57"",""297035""
""blur"",""59"",""301164""
""blur"",""59"",""305092""
","""event"",""trial"",""time""
""focus"",""45"",""256698""
""focus"",""47"",""272222""
""focus"",""57"",""299110""
""focus"",""59"",""302592""
""focus"",""60"",""307675""
","""event"",""trial"",""time""
""fullscreenenter"",""0"",""6228""
","""event"",""trial"",""time""
""fullscreenexit"",""44"",""253187""
","null","<p></p>","null","","","","","","","","","","","","","","","","","","","","","","","",""
"","do_trial","65","322583","0.0-42.0-0.0","""event"",""trial"",""time""
""fullscreenenter"",""0"",""6228""
""blur"",""44"",""253186""
""fullscreenexit"",""44"",""253187""
""focus"",""45"",""256698""
""blur"",""45"",""257574""
""focus"",""47"",""272222""
""blur"",""57"",""297035""
""focus"",""57"",""299110""
""blur"",""59"",""301164""
""focus"",""59"",""302592""
""blur"",""59"",""305092""
""focus"",""60"",""307675""
","""event"",""trial"",""time""
""blur"",""44"",""253186""
""blur"",""45"",""257574""
""blur"",""57"",""297035""
""blur"",""59"",""301164""
""blur"",""59"",""305092""
","""event"",""trial"",""time""
""focus"",""45"",""256698""
""focus"",""47"",""272222""
""focus"",""57"",""299110""
""focus"",""59"",""302592""
""focus"",""60"",""307675""
","""event"",""trial"",""time""
""fullscreenenter"",""0"",""6228""
","""event"",""trial"",""time""
""fullscreenexit"",""44"",""253187""
","1279.1000000238419","","","","","","","","49","0,0,1","6","blank","253","null","0.09172224289900084","0.5171097185457039","0.38571951535678056","0","","","","","","","","",""
"","html-keyboard-response","66","323587","0.0-42.0-1.0","""event"",""trial"",""time""
""fullscreenenter"",""0"",""6228""
""blur"",""44"",""253186""
""fullscreenexit"",""44"",""253187""
""focus"",""45"",""256698""
""blur"",""45"",""257574""
""focus"",""47"",""272222""
""blur"",""57"",""297035""
""focus"",""57"",""299110""
""blur"",""59"",""301164""
""focus"",""59"",""302592""
""blur"",""59"",""305092""
""focus"",""60"",""307675""
","""event"",""trial"",""time""
""blur"",""44"",""253186""
""blur"",""45"",""257574""
""blur"",""57"",""297035""
""blur"",""59"",""301164""
""blur"",""59"",""305092""
","""event"",""trial"",""time""
""focus"",""45"",""256698""
""focus"",""47"",""272222""
""focus"",""57"",""299110""
""focus"",""59"",""302592""
""focus"",""60"",""307675""
","""event"",""trial"",""time""
""fullscreenenter"",""0"",""6228""
","""event"",""trial"",""time""
""fullscreenexit"",""44"",""253187""
","null","<p></p>","null","","","","","","","","","","","","","","","","","","","","","","","",""
"","do_recog","67","326785","0.0-43.0-0.0","""event"",""trial"",""time""
""fullscreenenter"",""0"",""6228""
""blur"",""44"",""253186""
""fullscreenexit"",""44"",""253187""
""focus"",""45"",""256698""
""blur"",""45"",""257574""
""focus"",""47"",""272222""
""blur"",""57"",""297035""
""focus"",""57"",""299110""
""blur"",""59"",""301164""
""focus"",""59"",""302592""
""blur"",""59"",""305092""
""focus"",""60"",""307675""
","""event"",""trial"",""time""
""blur"",""44"",""253186""
""blur"",""45"",""257574""
""blur"",""57"",""297035""
""blur"",""59"",""301164""
""blur"",""59"",""305092""
","""event"",""trial"",""time""
""focus"",""45"",""256698""
""focus"",""47"",""272222""
""focus"",""57"",""299110""
""focus"",""59"",""302592""
""focus"",""60"",""307675""
","""event"",""trial"",""time""
""fullscreenenter"",""0"",""6228""
","""event"",""trial"",""time""
""fullscreenexit"",""44"",""253187""
","1676.8999999761581","","","","","","","","53","","","","254","probe-142","","","","","1","[object Object]","118","2","1","","","",""
"","html-keyboard-response","68","327786","0.0-43.0-1.0","""event"",""trial"",""time""
""fullscreenenter"",""0"",""6228""
""blur"",""44"",""253186""
""fullscreenexit"",""44"",""253187""
""focus"",""45"",""256698""
""blur"",""45"",""257574""
""focus"",""47"",""272222""
""blur"",""57"",""297035""
""focus"",""57"",""299110""
""blur"",""59"",""301164""
""focus"",""59"",""302592""
""blur"",""59"",""305092""
""focus"",""60"",""307675""
","""event"",""trial"",""time""
""blur"",""44"",""253186""
""blur"",""45"",""257574""
""blur"",""57"",""297035""
""blur"",""59"",""301164""
""blur"",""59"",""305092""
","""event"",""trial"",""time""
""focus"",""45"",""256698""
""focus"",""47"",""272222""
""focus"",""57"",""299110""
""focus"",""59"",""302592""
""focus"",""60"",""307675""
","""event"",""trial"",""time""
""fullscreenenter"",""0"",""6228""
","""event"",""trial"",""time""
""fullscreenexit"",""44"",""253187""
","null","<p></p>","null","","","","","","","","","","","","","","","","","","","","","","","",""
"","do_trial","69","330945","0.0-44.0-0.0","""event"",""trial"",""time""
""fullscreenenter"",""0"",""6228""
""blur"",""44"",""253186""
""fullscreenexit"",""44"",""253187""
""focus"",""45"",""256698""
""blur"",""45"",""257574""
""focus"",""47"",""272222""
""blur"",""57"",""297035""
""focus"",""57"",""299110""
""blur"",""59"",""301164""
""focus"",""59"",""302592""
""blur"",""59"",""305092""
""focus"",""60"",""307675""
","""event"",""trial"",""time""
""blur"",""44"",""253186""
""blur"",""45"",""257574""
""blur"",""57"",""297035""
""blur"",""59"",""301164""
""blur"",""59"",""305092""
","""event"",""trial"",""time""
""focus"",""45"",""256698""
""focus"",""47"",""272222""
""focus"",""57"",""299110""
""focus"",""59"",""302592""
""focus"",""60"",""307675""
","""event"",""trial"",""time""
""fullscreenenter"",""0"",""6228""
","""event"",""trial"",""time""
""fullscreenexit"",""44"",""253187""
","615.3000000715256","","","","","","","","51","0,0,0","6","blank","255","null","0.10441346746076406","0.5724524344091232","0.3861471001601923","0","","","","","","","","",""
"","html-keyboard-response","70","331956","0.0-44.0-1.0","""event"",""trial"",""time""
""fullscreenenter"",""0"",""6228""
""blur"",""44"",""253186""
""fullscreenexit"",""44"",""253187""
""focus"",""45"",""256698""
""blur"",""45"",""257574""
""focus"",""47"",""272222""
""blur"",""57"",""297035""
""focus"",""57"",""299110""
""blur"",""59"",""301164""
""focus"",""59"",""302592""
""blur"",""59"",""305092""
""focus"",""60"",""307675""
","""event"",""trial"",""time""
""blur"",""44"",""253186""
""blur"",""45"",""257574""
""blur"",""57"",""297035""
""blur"",""59"",""301164""
""blur"",""59"",""305092""
","""event"",""trial"",""time""
""focus"",""45"",""256698""
""focus"",""47"",""272222""
""focus"",""57"",""299110""
""focus"",""59"",""302592""
""focus"",""60"",""307675""
","""event"",""trial"",""time""
""fullscreenenter"",""0"",""6228""
","""event"",""trial"",""time""
""fullscreenexit"",""44"",""253187""
","null","<p></p>","null","","","","","","","","","","","","","","","","","","","","","","","",""
"","do_recog","71","334185","0.0-45.0-0.0","""event"",""trial"",""time""
""fullscreenenter"",""0"",""6228""
""blur"",""44"",""253186""
""fullscreenexit"",""44"",""253187""
""focus"",""45"",""256698""
""blur"",""45"",""257574""
""focus"",""47"",""272222""
""blur"",""57"",""297035""
""focus"",""57"",""299110""
""blur"",""59"",""301164""
""focus"",""59"",""302592""
""blur"",""59"",""305092""
""focus"",""60"",""307675""
","""event"",""trial"",""time""
""blur"",""44"",""253186""
""blur"",""45"",""257574""
""blur"",""57"",""297035""
""blur"",""59"",""301164""
""blur"",""59"",""305092""
","""event"",""trial"",""time""
""focus"",""45"",""256698""
""focus"",""47"",""272222""
""focus"",""57"",""299110""
""focus"",""59"",""302592""
""focus"",""60"",""307675""
","""event"",""trial"",""time""
""fullscreenenter"",""0"",""6228""
","""event"",""trial"",""time""
""fullscreenexit"",""44"",""253187""
","715.6000000238419","","","","","","","","53","","","","256","probe-246","","","","","0","[object Object]","null","null","0","","","",""
"","html-keyboard-response","72","335198","0.0-45.0-1.0","""event"",""trial"",""time""
""fullscreenenter"",""0"",""6228""
""blur"",""44"",""253186""
""fullscreenexit"",""44"",""253187""
""focus"",""45"",""256698""
""blur"",""45"",""257574""
""focus"",""47"",""272222""
""blur"",""57"",""297035""
""focus"",""57"",""299110""
""blur"",""59"",""301164""
""focus"",""59"",""302592""
""blur"",""59"",""305092""
""focus"",""60"",""307675""
","""event"",""trial"",""time""
""blur"",""44"",""253186""
""blur"",""45"",""257574""
""blur"",""57"",""297035""
""blur"",""59"",""301164""
""blur"",""59"",""305092""
","""event"",""trial"",""time""
""focus"",""45"",""256698""
""focus"",""47"",""272222""
""focus"",""57"",""299110""
""focus"",""59"",""302592""
""focus"",""60"",""307675""
","""event"",""trial"",""time""
""fullscreenenter"",""0"",""6228""
","""event"",""trial"",""time""
""fullscreenexit"",""44"",""253187""
","null","<p></p>","null","","","","","","","","","","","","","","","","","","","","","","","",""
"","do_trial","73","339397","0.0-46.0-0.0","""event"",""trial"",""time""
""fullscreenenter"",""0"",""6228""
""blur"",""44"",""253186""
""fullscreenexit"",""44"",""253187""
""focus"",""45"",""256698""
""blur"",""45"",""257574""
""focus"",""47"",""272222""
""blur"",""57"",""297035""
""focus"",""57"",""299110""
""blur"",""59"",""301164""
""focus"",""59"",""302592""
""blur"",""59"",""305092""
""focus"",""60"",""307675""
","""event"",""trial"",""time""
""blur"",""44"",""253186""
""blur"",""45"",""257574""
""blur"",""57"",""297035""
""blur"",""59"",""301164""
""blur"",""59"",""305092""
","""event"",""trial"",""time""
""focus"",""45"",""256698""
""focus"",""47"",""272222""
""focus"",""57"",""299110""
""focus"",""59"",""302592""
""focus"",""60"",""307675""
","""event"",""trial"",""time""
""fullscreenenter"",""0"",""6228""
","""event"",""trial"",""time""
""fullscreenexit"",""44"",""253187""
","1657.7000000476837","","","","","","","","50","0,1,0","6","blank","257","null","0.16748609145091592","0.532389434407375","0.29047382945261524","1","","","","","","","","",""
"","html-keyboard-response","74","340403","0.0-46.0-1.0","""event"",""trial"",""time""
""fullscreenenter"",""0"",""6228""
""blur"",""44"",""253186""
""fullscreenexit"",""44"",""253187""
""focus"",""45"",""256698""
""blur"",""45"",""257574""
""focus"",""47"",""272222""
""blur"",""57"",""297035""
""focus"",""57"",""299110""
""blur"",""59"",""301164""
""focus"",""59"",""302592""
""blur"",""59"",""305092""
""focus"",""60"",""307675""
","""event"",""trial"",""time""
""blur"",""44"",""253186""
""blur"",""45"",""257574""
""blur"",""57"",""297035""
""blur"",""59"",""301164""
""blur"",""59"",""305092""
","""event"",""trial"",""time""
""focus"",""45"",""256698""
""focus"",""47"",""272222""
""focus"",""57"",""299110""
""focus"",""59"",""302592""
""focus"",""60"",""307675""
","""event"",""trial"",""time""
""fullscreenenter"",""0"",""6228""
","""event"",""trial"",""time""
""fullscreenexit"",""44"",""253187""
","null","<p></p>","null","","","","","","","","","","","","","","","","","","","","","","","",""
"","do_recog","75","342743","0.0-47.0-0.0","""event"",""trial"",""time""
""fullscreenenter"",""0"",""6228""
""blur"",""44"",""253186""
""fullscreenexit"",""44"",""253187""
""focus"",""45"",""256698""
""blur"",""45"",""257574""
""focus"",""47"",""272222""
""blur"",""57"",""297035""
""focus"",""57"",""299110""
""blur"",""59"",""301164""
""focus"",""59"",""302592""
""blur"",""59"",""305092""
""focus"",""60"",""307675""
","""event"",""trial"",""time""
""blur"",""44"",""253186""
""blur"",""45"",""257574""
""blur"",""57"",""297035""
""blur"",""59"",""301164""
""blur"",""59"",""305092""
","""event"",""trial"",""time""
""focus"",""45"",""256698""
""focus"",""47"",""272222""
""focus"",""57"",""299110""
""focus"",""59"",""302592""
""focus"",""60"",""307675""
","""event"",""trial"",""time""
""fullscreenenter"",""0"",""6228""
","""event"",""trial"",""time""
""fullscreenexit"",""44"",""253187""
","825.3999999761581","","","","","","","","53","","","","258","probe-122","","","","","1","[object Object]","39","0","1","","","",""
"","html-keyboard-response","76","343750","0.0-47.0-1.0","""event"",""trial"",""time""
""fullscreenenter"",""0"",""6228""
""blur"",""44"",""253186""
""fullscreenexit"",""44"",""253187""
""focus"",""45"",""256698""
""blur"",""45"",""257574""
""focus"",""47"",""272222""
""blur"",""57"",""297035""
""focus"",""57"",""299110""
""blur"",""59"",""301164""
""focus"",""59"",""302592""
""blur"",""59"",""305092""
""focus"",""60"",""307675""
","""event"",""trial"",""time""
""blur"",""44"",""253186""
""blur"",""45"",""257574""
""blur"",""57"",""297035""
""blur"",""59"",""301164""
""blur"",""59"",""305092""
","""event"",""trial"",""time""
""focus"",""45"",""256698""
""focus"",""47"",""272222""
""focus"",""57"",""299110""
""focus"",""59"",""302592""
""focus"",""60"",""307675""
","""event"",""trial"",""time""
""fullscreenenter"",""0"",""6228""
","""event"",""trial"",""time""
""fullscreenexit"",""44"",""253187""
","null","<p></p>","null","","","","","","","","","","","","","","","","","","","","","","","",""
"","do_trial","77","347926","0.0-48.0-0.0","""event"",""trial"",""time""
""fullscreenenter"",""0"",""6228""
""blur"",""44"",""253186""
""fullscreenexit"",""44"",""253187""
""focus"",""45"",""256698""
""blur"",""45"",""257574""
""focus"",""47"",""272222""
""blur"",""57"",""297035""
""focus"",""57"",""299110""
""blur"",""59"",""301164""
""focus"",""59"",""302592""
""blur"",""59"",""305092""
""focus"",""60"",""307675""
","""event"",""trial"",""time""
""blur"",""44"",""253186""
""blur"",""45"",""257574""
""blur"",""57"",""297035""
""blur"",""59"",""301164""
""blur"",""59"",""305092""
","""event"",""trial"",""time""
""focus"",""45"",""256698""
""focus"",""47"",""272222""
""focus"",""57"",""299110""
""focus"",""59"",""302592""
""focus"",""60"",""307675""
","""event"",""trial"",""time""
""fullscreenenter"",""0"",""6228""
","""event"",""trial"",""time""
""fullscreenexit"",""44"",""253187""
","1620.1999999284744","","","","","","","","50","0,1,0","6","blank","259","null","0.26636877113137836","0.6026941552956874","0.1790499029983235","1","","","","","","","","",""
"","html-keyboard-response","78","348936","0.0-48.0-1.0","""event"",""trial"",""time""
""fullscreenenter"",""0"",""6228""
""blur"",""44"",""253186""
""fullscreenexit"",""44"",""253187""
""focus"",""45"",""256698""
""blur"",""45"",""257574""
""focus"",""47"",""272222""
""blur"",""57"",""297035""
""focus"",""57"",""299110""
""blur"",""59"",""301164""
""focus"",""59"",""302592""
""blur"",""59"",""305092""
""focus"",""60"",""307675""
""blur"",""79"",""349981""
","""event"",""trial"",""time""
""blur"",""44"",""253186""
""blur"",""45"",""257574""
""blur"",""57"",""297035""
""blur"",""59"",""301164""
""blur"",""59"",""305092""
""blur"",""79"",""349981""
","""event"",""trial"",""time""
""focus"",""45"",""256698""
""focus"",""47"",""272222""
""focus"",""57"",""299110""
""focus"",""59"",""302592""
""focus"",""60"",""307675""
","""event"",""trial"",""time""
""fullscreenenter"",""0"",""6228""
","""event"",""trial"",""time""
""fullscreenexit"",""44"",""253187""
","null","<p></p>","null","","","","","","","","","","","","","","","","","","","","","","","",""
"","do_trial","79","355020","0.0-49.0-0.0","""event"",""trial"",""time""
""fullscreenenter"",""0"",""6228""
""blur"",""44"",""253186""
""fullscreenexit"",""44"",""253187""
""focus"",""45"",""256698""
""blur"",""45"",""257574""
""focus"",""47"",""272222""
""blur"",""57"",""297035""
""focus"",""57"",""299110""
""blur"",""59"",""301164""
""focus"",""59"",""302592""
""blur"",""59"",""305092""
""focus"",""60"",""307675""
""blur"",""79"",""349981""
""focus"",""80"",""355830""
","""event"",""trial"",""time""
""blur"",""44"",""253186""
""blur"",""45"",""257574""
""blur"",""57"",""297035""
""blur"",""59"",""301164""
""blur"",""59"",""305092""
""blur"",""79"",""349981""
","""event"",""trial"",""time""
""focus"",""45"",""256698""
""focus"",""47"",""272222""
""focus"",""57"",""299110""
""focus"",""59"",""302592""
""focus"",""60"",""307675""
""focus"",""80"",""355830""
","""event"",""trial"",""time""
""fullscreenenter"",""0"",""6228""
","""event"",""trial"",""time""
""fullscreenexit"",""44"",""253187""
","null","","","","","","","","null","0,1,0","6","blank","260","null","0.22287204383598755","0.43843588721801885","0.11082366029201303","","","","","","","","","",""
"","html-keyboard-response","80","356024","0.0-49.0-1.0","""event"",""trial"",""time""
""fullscreenenter"",""0"",""6228""
""blur"",""44"",""253186""
""fullscreenexit"",""44"",""253187""
""focus"",""45"",""256698""
""blur"",""45"",""257574""
""focus"",""47"",""272222""
""blur"",""57"",""297035""
""focus"",""57"",""299110""
""blur"",""59"",""301164""
""focus"",""59"",""302592""
""blur"",""59"",""305092""
""focus"",""60"",""307675""
""blur"",""79"",""349981""
""focus"",""80"",""355830""
","""event"",""trial"",""time""
""blur"",""44"",""253186""
""blur"",""45"",""257574""
""blur"",""57"",""297035""
""blur"",""59"",""301164""
""blur"",""59"",""305092""
""blur"",""79"",""349981""
","""event"",""trial"",""time""
""focus"",""45"",""256698""
""focus"",""47"",""272222""
""focus"",""57"",""299110""
""focus"",""59"",""302592""
""focus"",""60"",""307675""
""focus"",""80"",""355830""
","""event"",""trial"",""time""
""fullscreenenter"",""0"",""6228""
","""event"",""trial"",""time""
""fullscreenexit"",""44"",""253187""
","null","<p></p>","null","","","","","","","","","","","","","","","","","","","","","","","",""
"","do_recog","81","362029","0.0-50.0-0.0","""event"",""trial"",""time""
""fullscreenenter"",""0"",""6228""
""blur"",""44"",""253186""
""fullscreenexit"",""44"",""253187""
""focus"",""45"",""256698""
""blur"",""45"",""257574""
""focus"",""47"",""272222""
""blur"",""57"",""297035""
""focus"",""57"",""299110""
""blur"",""59"",""301164""
""focus"",""59"",""302592""
""blur"",""59"",""305092""
""focus"",""60"",""307675""
""blur"",""79"",""349981""
""focus"",""80"",""355830""
","""event"",""trial"",""time""
""blur"",""44"",""253186""
""blur"",""45"",""257574""
""blur"",""57"",""297035""
""blur"",""59"",""301164""
""blur"",""59"",""305092""
""blur"",""79"",""349981""
","""event"",""trial"",""time""
""focus"",""45"",""256698""
""focus"",""47"",""272222""
""focus"",""57"",""299110""
""focus"",""59"",""302592""
""focus"",""60"",""307675""
""focus"",""80"",""355830""
","""event"",""trial"",""time""
""fullscreenenter"",""0"",""6228""
","""event"",""trial"",""time""
""fullscreenexit"",""44"",""253187""
","null","","","","","","","","null","","","","261","probe-61","","","","","1","[object Object]","119","2","0","","","",""
"","html-keyboard-response","82","363031","0.0-50.0-1.0","""event"",""trial"",""time""
""fullscreenenter"",""0"",""6228""
""blur"",""44"",""253186""
""fullscreenexit"",""44"",""253187""
""focus"",""45"",""256698""
""blur"",""45"",""257574""
""focus"",""47"",""272222""
""blur"",""57"",""297035""
""focus"",""57"",""299110""
""blur"",""59"",""301164""
""focus"",""59"",""302592""
""blur"",""59"",""305092""
""focus"",""60"",""307675""
""blur"",""79"",""349981""
""focus"",""80"",""355830""
","""event"",""trial"",""time""
""blur"",""44"",""253186""
""blur"",""45"",""257574""
""blur"",""57"",""297035""
""blur"",""59"",""301164""
""blur"",""59"",""305092""
""blur"",""79"",""349981""
","""event"",""trial"",""time""
""focus"",""45"",""256698""
""focus"",""47"",""272222""
""focus"",""57"",""299110""
""focus"",""59"",""302592""
""focus"",""60"",""307675""
""focus"",""80"",""355830""
","""event"",""trial"",""time""
""fullscreenenter"",""0"",""6228""
","""event"",""trial"",""time""
""fullscreenexit"",""44"",""253187""
","null","<p></p>","null","","","","","","","","","","","","","","","","","","","","","","","",""
"","do_trial","83","369100","0.0-51.0-0.0","""event"",""trial"",""time""
""fullscreenenter"",""0"",""6228""
""blur"",""44"",""253186""
""fullscreenexit"",""44"",""253187""
""focus"",""45"",""256698""
""blur"",""45"",""257574""
""focus"",""47"",""272222""
""blur"",""57"",""297035""
""focus"",""57"",""299110""
""blur"",""59"",""301164""
""focus"",""59"",""302592""
""blur"",""59"",""305092""
""focus"",""60"",""307675""
""blur"",""79"",""349981""
""focus"",""80"",""355830""
","""event"",""trial"",""time""
""blur"",""44"",""253186""
""blur"",""45"",""257574""
""blur"",""57"",""297035""
""blur"",""59"",""301164""
""blur"",""59"",""305092""
""blur"",""79"",""349981""
","""event"",""trial"",""time""
""focus"",""45"",""256698""
""focus"",""47"",""272222""
""focus"",""57"",""299110""
""focus"",""59"",""302592""
""focus"",""60"",""307675""
""focus"",""80"",""355830""
","""event"",""trial"",""time""
""fullscreenenter"",""0"",""6228""
","""event"",""trial"",""time""
""fullscreenexit"",""44"",""253187""
","null","","","","","","","","null","0,0,1","6","blank","262","null","0.22241385618451212","0.4745613784311864","0.16234935627483008","","","","","","","","","",""
"","html-keyboard-response","84","370111","0.0-51.0-1.0","""event"",""trial"",""time""
""fullscreenenter"",""0"",""6228""
""blur"",""44"",""253186""
""fullscreenexit"",""44"",""253187""
""focus"",""45"",""256698""
""blur"",""45"",""257574""
""focus"",""47"",""272222""
""blur"",""57"",""297035""
""focus"",""57"",""299110""
""blur"",""59"",""301164""
""focus"",""59"",""302592""
""blur"",""59"",""305092""
""focus"",""60"",""307675""
""blur"",""79"",""349981""
""focus"",""80"",""355830""
","""event"",""trial"",""time""
""blur"",""44"",""253186""
""blur"",""45"",""257574""
""blur"",""57"",""297035""
""blur"",""59"",""301164""
""blur"",""59"",""305092""
""blur"",""79"",""349981""
","""event"",""trial"",""time""
""focus"",""45"",""256698""
""focus"",""47"",""272222""
""focus"",""57"",""299110""
""focus"",""59"",""302592""
""focus"",""60"",""307675""
""focus"",""80"",""355830""
","""event"",""trial"",""time""
""fullscreenenter"",""0"",""6228""
","""event"",""trial"",""time""
""fullscreenexit"",""44"",""253187""
","null","<p></p>","null","","","","","","","","","","","","","","","","","","","","","","","",""
"","do_trial","85","373142","0.0-52.0-0.0","""event"",""trial"",""time""
""fullscreenenter"",""0"",""6228""
""blur"",""44"",""253186""
""fullscreenexit"",""44"",""253187""
""focus"",""45"",""256698""
""blur"",""45"",""257574""
""focus"",""47"",""272222""
""blur"",""57"",""297035""
""focus"",""57"",""299110""
""blur"",""59"",""301164""
""focus"",""59"",""302592""
""blur"",""59"",""305092""
""focus"",""60"",""307675""
""blur"",""79"",""349981""
""focus"",""80"",""355830""
","""event"",""trial"",""time""
""blur"",""44"",""253186""
""blur"",""45"",""257574""
""blur"",""57"",""297035""
""blur"",""59"",""301164""
""blur"",""59"",""305092""
""blur"",""79"",""349981""
","""event"",""trial"",""time""
""focus"",""45"",""256698""
""focus"",""47"",""272222""
""focus"",""57"",""299110""
""focus"",""59"",""302592""
""focus"",""60"",""307675""
""focus"",""80"",""355830""
","""event"",""trial"",""time""
""fullscreenenter"",""0"",""6228""
","""event"",""trial"",""time""
""fullscreenexit"",""44"",""253187""
","450.89999997615814","","","","","","","","49","0,1,0","6","blank","263","null","0.14102760997035915","0.5923615008759577","0.23169866187392554","0","","","","","","","","",""
"","html-keyboard-response","86","374150","0.0-52.0-1.0","""event"",""trial"",""time""
""fullscreenenter"",""0"",""6228""
""blur"",""44"",""253186""
""fullscreenexit"",""44"",""253187""
""focus"",""45"",""256698""
""blur"",""45"",""257574""
""focus"",""47"",""272222""
""blur"",""57"",""297035""
""focus"",""57"",""299110""
""blur"",""59"",""301164""
""focus"",""59"",""302592""
""blur"",""59"",""305092""
""focus"",""60"",""307675""
""blur"",""79"",""349981""
""focus"",""80"",""355830""
","""event"",""trial"",""time""
""blur"",""44"",""253186""
""blur"",""45"",""257574""
""blur"",""57"",""297035""
""blur"",""59"",""301164""
""blur"",""59"",""305092""
""blur"",""79"",""349981""
","""event"",""trial"",""time""
""focus"",""45"",""256698""
""focus"",""47"",""272222""
""focus"",""57"",""299110""
""focus"",""59"",""302592""
""focus"",""60"",""307675""
""focus"",""80"",""355830""
","""event"",""trial"",""time""
""fullscreenenter"",""0"",""6228""
","""event"",""trial"",""time""
""fullscreenexit"",""44"",""253187""
","null","<p></p>","null","","","","","","","","","","","","","","","","","","","","","","","",""
"","do_trial","87","377519","0.0-53.0-0.0","""event"",""trial"",""time""
""fullscreenenter"",""0"",""6228""
""blur"",""44"",""253186""
""fullscreenexit"",""44"",""253187""
""focus"",""45"",""256698""
""blur"",""45"",""257574""
""focus"",""47"",""272222""
""blur"",""57"",""297035""
""focus"",""57"",""299110""
""blur"",""59"",""301164""
""focus"",""59"",""302592""
""blur"",""59"",""305092""
""focus"",""60"",""307675""
""blur"",""79"",""349981""
""focus"",""80"",""355830""
","""event"",""trial"",""time""
""blur"",""44"",""253186""
""blur"",""45"",""257574""
""blur"",""57"",""297035""
""blur"",""59"",""301164""
""blur"",""59"",""305092""
""blur"",""79"",""349981""
","""event"",""trial"",""time""
""focus"",""45"",""256698""
""focus"",""47"",""272222""
""focus"",""57"",""299110""
""focus"",""59"",""302592""
""focus"",""60"",""307675""
""focus"",""80"",""355830""
","""event"",""trial"",""time""
""fullscreenenter"",""0"",""6228""
","""event"",""trial"",""time""
""fullscreenexit"",""44"",""253187""
","800.8000000715256","","","","","","","","51","1,1,0","6","blank","264","null","0.316124498969671","0.47112427900784326","0.18644125264728156","0","","","","","","","","",""
"","html-keyboard-response","88","378534","0.0-53.0-1.0","""event"",""trial"",""time""
""fullscreenenter"",""0"",""6228""
""blur"",""44"",""253186""
""fullscreenexit"",""44"",""253187""
""focus"",""45"",""256698""
""blur"",""45"",""257574""
""focus"",""47"",""272222""
""blur"",""57"",""297035""
""focus"",""57"",""299110""
""blur"",""59"",""301164""
""focus"",""59"",""302592""
""blur"",""59"",""305092""
""focus"",""60"",""307675""
""blur"",""79"",""349981""
""focus"",""80"",""355830""
","""event"",""trial"",""time""
""blur"",""44"",""253186""
""blur"",""45"",""257574""
""blur"",""57"",""297035""
""blur"",""59"",""301164""
""blur"",""59"",""305092""
""blur"",""79"",""349981""
","""event"",""trial"",""time""
""focus"",""45"",""256698""
""focus"",""47"",""272222""
""focus"",""57"",""299110""
""focus"",""59"",""302592""
""focus"",""60"",""307675""
""focus"",""80"",""355830""
","""event"",""trial"",""time""
""fullscreenenter"",""0"",""6228""
","""event"",""trial"",""time""
""fullscreenexit"",""44"",""253187""
","null","<p></p>","null","","","","","","","","","","","","","","","","","","","","","","","",""
"","do_trial","89","381393","0.0-54.0-0.0","""event"",""trial"",""time""
""fullscreenenter"",""0"",""6228""
""blur"",""44"",""253186""
""fullscreenexit"",""44"",""253187""
""focus"",""45"",""256698""
""blur"",""45"",""257574""
""focus"",""47"",""272222""
""blur"",""57"",""297035""
""focus"",""57"",""299110""
""blur"",""59"",""301164""
""focus"",""59"",""302592""
""blur"",""59"",""305092""
""focus"",""60"",""307675""
""blur"",""79"",""349981""
""focus"",""80"",""355830""
","""event"",""trial"",""time""
""blur"",""44"",""253186""
""blur"",""45"",""257574""
""blur"",""57"",""297035""
""blur"",""59"",""301164""
""blur"",""59"",""305092""
""blur"",""79"",""349981""
","""event"",""trial"",""time""
""focus"",""45"",""256698""
""focus"",""47"",""272222""
""focus"",""57"",""299110""
""focus"",""59"",""302592""
""focus"",""60"",""307675""
""focus"",""80"",""355830""
","""event"",""trial"",""time""
""fullscreenenter"",""0"",""6228""
","""event"",""trial"",""time""
""fullscreenexit"",""44"",""253187""
","276.40000009536743","","","","","","","","50","1,1,1","6","blank","265","null","0.28937019612428927","0.5329766742438183","0.24682110543168775","1","","","","","","","","",""
"","html-keyboard-response","90","382406","0.0-54.0-1.0","""event"",""trial"",""time""
""fullscreenenter"",""0"",""6228""
""blur"",""44"",""253186""
""fullscreenexit"",""44"",""253187""
""focus"",""45"",""256698""
""blur"",""45"",""257574""
""focus"",""47"",""272222""
""blur"",""57"",""297035""
""focus"",""57"",""299110""
""blur"",""59"",""301164""
""focus"",""59"",""302592""
""blur"",""59"",""305092""
""focus"",""60"",""307675""
""blur"",""79"",""349981""
""focus"",""80"",""355830""
","""event"",""trial"",""time""
""blur"",""44"",""253186""
""blur"",""45"",""257574""
""blur"",""57"",""297035""
""blur"",""59"",""301164""
""blur"",""59"",""305092""
""blur"",""79"",""349981""
","""event"",""trial"",""time""
""focus"",""45"",""256698""
""focus"",""47"",""272222""
""focus"",""57"",""299110""
""focus"",""59"",""302592""
""focus"",""60"",""307675""
""focus"",""80"",""355830""
","""event"",""trial"",""time""
""fullscreenenter"",""0"",""6228""
","""event"",""trial"",""time""
""fullscreenexit"",""44"",""253187""
","null","<p></p>","null","","","","","","","","","","","","","","","","","","","","","","","",""
"","do_recog","91","385272","0.0-55.0-0.0","""event"",""trial"",""time""
""fullscreenenter"",""0"",""6228""
""blur"",""44"",""253186""
""fullscreenexit"",""44"",""253187""
""focus"",""45"",""256698""
""blur"",""45"",""257574""
""focus"",""47"",""272222""
""blur"",""57"",""297035""
""focus"",""57"",""299110""
""blur"",""59"",""301164""
""focus"",""59"",""302592""
""blur"",""59"",""305092""
""focus"",""60"",""307675""
""blur"",""79"",""349981""
""focus"",""80"",""355830""
","""event"",""trial"",""time""
""blur"",""44"",""253186""
""blur"",""45"",""257574""
""blur"",""57"",""297035""
""blur"",""59"",""301164""
""blur"",""59"",""305092""
""blur"",""79"",""349981""
","""event"",""trial"",""time""
""focus"",""45"",""256698""
""focus"",""47"",""272222""
""focus"",""57"",""299110""
""focus"",""59"",""302592""
""focus"",""60"",""307675""
""focus"",""80"",""355830""
","""event"",""trial"",""time""
""fullscreenenter"",""0"",""6228""
","""event"",""trial"",""time""
""fullscreenexit"",""44"",""253187""
","1350","","","","","","","","53","","","","266","probe-87","","","","","1","[object Object]","35","0","1","","","",""
"","html-keyboard-response","92","386285","0.0-55.0-1.0","""event"",""trial"",""time""
""fullscreenenter"",""0"",""6228""
""blur"",""44"",""253186""
""fullscreenexit"",""44"",""253187""
""focus"",""45"",""256698""
""blur"",""45"",""257574""
""focus"",""47"",""272222""
""blur"",""57"",""297035""
""focus"",""57"",""299110""
""blur"",""59"",""301164""
""focus"",""59"",""302592""
""blur"",""59"",""305092""
""focus"",""60"",""307675""
""blur"",""79"",""349981""
""focus"",""80"",""355830""
","""event"",""trial"",""time""
""blur"",""44"",""253186""
""blur"",""45"",""257574""
""blur"",""57"",""297035""
""blur"",""59"",""301164""
""blur"",""59"",""305092""
""blur"",""79"",""349981""
","""event"",""trial"",""time""
""focus"",""45"",""256698""
""focus"",""47"",""272222""
""focus"",""57"",""299110""
""focus"",""59"",""302592""
""focus"",""60"",""307675""
""focus"",""80"",""355830""
","""event"",""trial"",""time""
""fullscreenenter"",""0"",""6228""
","""event"",""trial"",""time""
""fullscreenexit"",""44"",""253187""
","null","<p></p>","null","","","","","","","","","","","","","","","","","","","","","","","",""
"","do_trial","93","389914","0.0-56.0-0.0","""event"",""trial"",""time""
""fullscreenenter"",""0"",""6228""
""blur"",""44"",""253186""
""fullscreenexit"",""44"",""253187""
""focus"",""45"",""256698""
""blur"",""45"",""257574""
""focus"",""47"",""272222""
""blur"",""57"",""297035""
""focus"",""57"",""299110""
""blur"",""59"",""301164""
""focus"",""59"",""302592""
""blur"",""59"",""305092""
""focus"",""60"",""307675""
""blur"",""79"",""349981""
""focus"",""80"",""355830""
","""event"",""trial"",""time""
""blur"",""44"",""253186""
""blur"",""45"",""257574""
""blur"",""57"",""297035""
""blur"",""59"",""301164""
""blur"",""59"",""305092""
""blur"",""79"",""349981""
","""event"",""trial"",""time""
""focus"",""45"",""256698""
""focus"",""47"",""272222""
""focus"",""57"",""299110""
""focus"",""59"",""302592""
""focus"",""60"",""307675""
""focus"",""80"",""355830""
","""event"",""trial"",""time""
""fullscreenenter"",""0"",""6228""
","""event"",""trial"",""time""
""fullscreenexit"",""44"",""253187""
","1069.5","","","","","","","","50","0,0,0","6","blank","267","null","0.18881931824949638","0.6138174425371965","0.17356451489804228","0","","","","","","","","",""
"","html-keyboard-response","94","390928","0.0-56.0-1.0","""event"",""trial"",""time""
""fullscreenenter"",""0"",""6228""
""blur"",""44"",""253186""
""fullscreenexit"",""44"",""253187""
""focus"",""45"",""256698""
""blur"",""45"",""257574""
""focus"",""47"",""272222""
""blur"",""57"",""297035""
""focus"",""57"",""299110""
""blur"",""59"",""301164""
""focus"",""59"",""302592""
""blur"",""59"",""305092""
""focus"",""60"",""307675""
""blur"",""79"",""349981""
""focus"",""80"",""355830""
","""event"",""trial"",""time""
""blur"",""44"",""253186""
""blur"",""45"",""257574""
""blur"",""57"",""297035""
""blur"",""59"",""301164""
""blur"",""59"",""305092""
""blur"",""79"",""349981""
","""event"",""trial"",""time""
""focus"",""45"",""256698""
""focus"",""47"",""272222""
""focus"",""57"",""299110""
""focus"",""59"",""302592""
""focus"",""60"",""307675""
""focus"",""80"",""355830""
","""event"",""trial"",""time""
""fullscreenenter"",""0"",""6228""
","""event"",""trial"",""time""
""fullscreenexit"",""44"",""253187""
","null","<p></p>","null","","","","","","","","","","","","","","","","","","","","","","","",""
"","do_trial","95","393771","0.0-57.0-0.0","""event"",""trial"",""time""
""fullscreenenter"",""0"",""6228""
""blur"",""44"",""253186""
""fullscreenexit"",""44"",""253187""
""focus"",""45"",""256698""
""blur"",""45"",""257574""
""focus"",""47"",""272222""
""blur"",""57"",""297035""
""focus"",""57"",""299110""
""blur"",""59"",""301164""
""focus"",""59"",""302592""
""blur"",""59"",""305092""
""focus"",""60"",""307675""
""blur"",""79"",""349981""
""focus"",""80"",""355830""
","""event"",""trial"",""time""
""blur"",""44"",""253186""
""blur"",""45"",""257574""
""blur"",""57"",""297035""
""blur"",""59"",""301164""
""blur"",""59"",""305092""
""blur"",""79"",""349981""
","""event"",""trial"",""time""
""focus"",""45"",""256698""
""focus"",""47"",""272222""
""focus"",""57"",""299110""
""focus"",""59"",""302592""
""focus"",""60"",""307675""
""focus"",""80"",""355830""
","""event"",""trial"",""time""
""fullscreenenter"",""0"",""6228""
","""event"",""trial"",""time""
""fullscreenexit"",""44"",""253187""
","271.2000000476837","","","","","","","","50","0,1,0","6","blank","268","null","0.21033730017921945","0.5951829126544809","0.255617133497009","1","","","","","","","","",""
"","html-keyboard-response","96","394773","0.0-57.0-1.0","""event"",""trial"",""time""
""fullscreenenter"",""0"",""6228""
""blur"",""44"",""253186""
""fullscreenexit"",""44"",""253187""
""focus"",""45"",""256698""
""blur"",""45"",""257574""
""focus"",""47"",""272222""
""blur"",""57"",""297035""
""focus"",""57"",""299110""
""blur"",""59"",""301164""
""focus"",""59"",""302592""
""blur"",""59"",""305092""
""focus"",""60"",""307675""
""blur"",""79"",""349981""
""focus"",""80"",""355830""
","""event"",""trial"",""time""
""blur"",""44"",""253186""
""blur"",""45"",""257574""
""blur"",""57"",""297035""
""blur"",""59"",""301164""
""blur"",""59"",""305092""
""blur"",""79"",""349981""
","""event"",""trial"",""time""
""focus"",""45"",""256698""
""focus"",""47"",""272222""
""focus"",""57"",""299110""
""focus"",""59"",""302592""
""focus"",""60"",""307675""
""focus"",""80"",""355830""
","""event"",""trial"",""time""
""fullscreenenter"",""0"",""6228""
","""event"",""trial"",""time""
""fullscreenexit"",""44"",""253187""
","null","<p></p>","null","","","","","","","","","","","","","","","","","","","","","","","",""
"","break","97","422505","0.0-58.0-0.0","""event"",""trial"",""time""
""fullscreenenter"",""0"",""6228""
""blur"",""44"",""253186""
""fullscreenexit"",""44"",""253187""
""focus"",""45"",""256698""
""blur"",""45"",""257574""
""focus"",""47"",""272222""
""blur"",""57"",""297035""
""focus"",""57"",""299110""
""blur"",""59"",""301164""
""focus"",""59"",""302592""
""blur"",""59"",""305092""
""focus"",""60"",""307675""
""blur"",""79"",""349981""
""focus"",""80"",""355830""
","""event"",""trial"",""time""
""blur"",""44"",""253186""
""blur"",""45"",""257574""
""blur"",""57"",""297035""
""blur"",""59"",""301164""
""blur"",""59"",""305092""
""blur"",""79"",""349981""
","""event"",""trial"",""time""
""focus"",""45"",""256698""
""focus"",""47"",""272222""
""focus"",""57"",""299110""
""focus"",""59"",""302592""
""focus"",""60"",""307675""
""focus"",""80"",""355830""
","""event"",""trial"",""time""
""fullscreenenter"",""0"",""6228""
","""event"",""trial"",""time""
""fullscreenexit"",""44"",""253187""
","27728.799999952316","<div class='center'><p>Time to take a quick break! You have 2 minutes to rest, but you can move on sooner if you'd like.</p><p> Press the <b>space bar</b> to continue.</p></div>","32","","","","","","","","","","","","","","","","","","","","","","","",""
"","do_trial","98","426019","0.0-58.0-1.0","""event"",""trial"",""time""
""fullscreenenter"",""0"",""6228""
""blur"",""44"",""253186""
""fullscreenexit"",""44"",""253187""
""focus"",""45"",""256698""
""blur"",""45"",""257574""
""focus"",""47"",""272222""
""blur"",""57"",""297035""
""focus"",""57"",""299110""
""blur"",""59"",""301164""
""focus"",""59"",""302592""
""blur"",""59"",""305092""
""focus"",""60"",""307675""
""blur"",""79"",""349981""
""focus"",""80"",""355830""
","""event"",""trial"",""time""
""blur"",""44"",""253186""
""blur"",""45"",""257574""
""blur"",""57"",""297035""
""blur"",""59"",""301164""
""blur"",""59"",""305092""
""blur"",""79"",""349981""
","""event"",""trial"",""time""
""focus"",""45"",""256698""
""focus"",""47"",""272222""
""focus"",""57"",""299110""
""focus"",""59"",""302592""
""focus"",""60"",""307675""
""focus"",""80"",""355830""
","""event"",""trial"",""time""
""fullscreenenter"",""0"",""6228""
","""event"",""trial"",""time""
""fullscreenexit"",""44"",""253187""
","955.5","","","","","","","","50","0,1,1","6","blank","269","null","0.15910166102806325","0.5850341977858765","0.3357881236743546","1","","","","","","","","",""
"","html-keyboard-response","99","427035","0.0-58.0-2.0","""event"",""trial"",""time""
""fullscreenenter"",""0"",""6228""
""blur"",""44"",""253186""
""fullscreenexit"",""44"",""253187""
""focus"",""45"",""256698""
""blur"",""45"",""257574""
""focus"",""47"",""272222""
""blur"",""57"",""297035""
""focus"",""57"",""299110""
""blur"",""59"",""301164""
""focus"",""59"",""302592""
""blur"",""59"",""305092""
""focus"",""60"",""307675""
""blur"",""79"",""349981""
""focus"",""80"",""355830""
","""event"",""trial"",""time""
""blur"",""44"",""253186""
""blur"",""45"",""257574""
""blur"",""57"",""297035""
""blur"",""59"",""301164""
""blur"",""59"",""305092""
""blur"",""79"",""349981""
","""event"",""trial"",""time""
""focus"",""45"",""256698""
""focus"",""47"",""272222""
""focus"",""57"",""299110""
""focus"",""59"",""302592""
""focus"",""60"",""307675""
""focus"",""80"",""355830""
","""event"",""trial"",""time""
""fullscreenenter"",""0"",""6228""
","""event"",""trial"",""time""
""fullscreenexit"",""44"",""253187""
","null","<p></p>","null","","","","","","","","","","","","","","","","","","","","","","","",""
"","do_trial","100","430340","0.0-59.0-0.0","""event"",""trial"",""time""
""fullscreenenter"",""0"",""6228""
""blur"",""44"",""253186""
""fullscreenexit"",""44"",""253187""
""focus"",""45"",""256698""
""blur"",""45"",""257574""
""focus"",""47"",""272222""
""blur"",""57"",""297035""
""focus"",""57"",""299110""
""blur"",""59"",""301164""
""focus"",""59"",""302592""
""blur"",""59"",""305092""
""focus"",""60"",""307675""
""blur"",""79"",""349981""
""focus"",""80"",""355830""
","""event"",""trial"",""time""
""blur"",""44"",""253186""
""blur"",""45"",""257574""
""blur"",""57"",""297035""
""blur"",""59"",""301164""
""blur"",""59"",""305092""
""blur"",""79"",""349981""
","""event"",""trial"",""time""
""focus"",""45"",""256698""
""focus"",""47"",""272222""
""focus"",""57"",""299110""
""focus"",""59"",""302592""
""focus"",""60"",""307675""
""focus"",""80"",""355830""
","""event"",""trial"",""time""
""fullscreenenter"",""0"",""6228""
","""event"",""trial"",""time""
""fullscreenexit"",""44"",""253187""
","737.8999999761581","","","","","","","","50","0,0,1","6","blank","270","null","0.10189304307567257","0.643812554925647","0.3361459420795743","0","","","","","","","","",""
"","html-keyboard-response","101","431356","0.0-59.0-1.0","""event"",""trial"",""time""
""fullscreenenter"",""0"",""6228""
""blur"",""44"",""253186""
""fullscreenexit"",""44"",""253187""
""focus"",""45"",""256698""
""blur"",""45"",""257574""
""focus"",""47"",""272222""
""blur"",""57"",""297035""
""focus"",""57"",""299110""
""blur"",""59"",""301164""
""focus"",""59"",""302592""
""blur"",""59"",""305092""
""focus"",""60"",""307675""
""blur"",""79"",""349981""
""focus"",""80"",""355830""
","""event"",""trial"",""time""
""blur"",""44"",""253186""
""blur"",""45"",""257574""
""blur"",""57"",""297035""
""blur"",""59"",""301164""
""blur"",""59"",""305092""
""blur"",""79"",""349981""
","""event"",""trial"",""time""
""focus"",""45"",""256698""
""focus"",""47"",""272222""
""focus"",""57"",""299110""
""focus"",""59"",""302592""
""focus"",""60"",""307675""
""focus"",""80"",""355830""
","""event"",""trial"",""time""
""fullscreenenter"",""0"",""6228""
","""event"",""trial"",""time""
""fullscreenexit"",""44"",""253187""
","null","<p></p>","null","","","","","","","","","","","","","","","","","","","","","","","",""
"","do_trial","102","433934","0.0-60.0-0.0","""event"",""trial"",""time""
""fullscreenenter"",""0"",""6228""
""blur"",""44"",""253186""
""fullscreenexit"",""44"",""253187""
""focus"",""45"",""256698""
""blur"",""45"",""257574""
""focus"",""47"",""272222""
""blur"",""57"",""297035""
""focus"",""57"",""299110""
""blur"",""59"",""301164""
""focus"",""59"",""302592""
""blur"",""59"",""305092""
""focus"",""60"",""307675""
""blur"",""79"",""349981""
""focus"",""80"",""355830""
","""event"",""trial"",""time""
""blur"",""44"",""253186""
""blur"",""45"",""257574""
""blur"",""57"",""297035""
""blur"",""59"",""301164""
""blur"",""59"",""305092""
""blur"",""79"",""349981""
","""event"",""trial"",""time""
""focus"",""45"",""256698""
""focus"",""47"",""272222""
""focus"",""57"",""299110""
""focus"",""59"",""302592""
""focus"",""60"",""307675""
""focus"",""80"",""355830""
","""event"",""trial"",""time""
""fullscreenenter"",""0"",""6228""
","""event"",""trial"",""time""
""fullscreenexit"",""44"",""253187""
","19","","","","","","","","50","1,1,0","6","blank","271","null","0.25631053425524103","0.6506304924849083","0.31570472714754355","1","","","","","","","","",""
"","html-keyboard-response","103","434943","0.0-60.0-1.0","""event"",""trial"",""time""
""fullscreenenter"",""0"",""6228""
""blur"",""44"",""253186""
""fullscreenexit"",""44"",""253187""
""focus"",""45"",""256698""
""blur"",""45"",""257574""
""focus"",""47"",""272222""
""blur"",""57"",""297035""
""focus"",""57"",""299110""
""blur"",""59"",""301164""
""focus"",""59"",""302592""
""blur"",""59"",""305092""
""focus"",""60"",""307675""
""blur"",""79"",""349981""
""focus"",""80"",""355830""
","""event"",""trial"",""time""
""blur"",""44"",""253186""
""blur"",""45"",""257574""
""blur"",""57"",""297035""
""blur"",""59"",""301164""
""blur"",""59"",""305092""
""blur"",""79"",""349981""
","""event"",""trial"",""time""
""focus"",""45"",""256698""
""focus"",""47"",""272222""
""focus"",""57"",""299110""
""focus"",""59"",""302592""
""focus"",""60"",""307675""
""focus"",""80"",""355830""
","""event"",""trial"",""time""
""fullscreenenter"",""0"",""6228""
","""event"",""trial"",""time""
""fullscreenexit"",""44"",""253187""
","null","<p></p>","null","","","","","","","","","","","","","","","","","","","","","","","",""
"","do_recog","104","438028","0.0-61.0-0.0","""event"",""trial"",""time""
""fullscreenenter"",""0"",""6228""
""blur"",""44"",""253186""
""fullscreenexit"",""44"",""253187""
""focus"",""45"",""256698""
""blur"",""45"",""257574""
""focus"",""47"",""272222""
""blur"",""57"",""297035""
""focus"",""57"",""299110""
""blur"",""59"",""301164""
""focus"",""59"",""302592""
""blur"",""59"",""305092""
""focus"",""60"",""307675""
""blur"",""79"",""349981""
""focus"",""80"",""355830""
","""event"",""trial"",""time""
""blur"",""44"",""253186""
""blur"",""45"",""257574""
""blur"",""57"",""297035""
""blur"",""59"",""301164""
""blur"",""59"",""305092""
""blur"",""79"",""349981""
","""event"",""trial"",""time""
""focus"",""45"",""256698""
""focus"",""47"",""272222""
""focus"",""57"",""299110""
""focus"",""59"",""302592""
""focus"",""60"",""307675""
""focus"",""80"",""355830""
","""event"",""trial"",""time""
""fullscreenenter"",""0"",""6228""
","""event"",""trial"",""time""
""fullscreenexit"",""44"",""253187""
","1572.8999999761581","","","","","","","","54","","","","272","probe-186","","","","","1","[object Object]","154","3","1","","","",""
"","html-keyboard-response","105","439034","0.0-61.0-1.0","""event"",""trial"",""time""
""fullscreenenter"",""0"",""6228""
""blur"",""44"",""253186""
""fullscreenexit"",""44"",""253187""
""focus"",""45"",""256698""
""blur"",""45"",""257574""
""focus"",""47"",""272222""
""blur"",""57"",""297035""
""focus"",""57"",""299110""
""blur"",""59"",""301164""
""focus"",""59"",""302592""
""blur"",""59"",""305092""
""focus"",""60"",""307675""
""blur"",""79"",""349981""
""focus"",""80"",""355830""
","""event"",""trial"",""time""
""blur"",""44"",""253186""
""blur"",""45"",""257574""
""blur"",""57"",""297035""
""blur"",""59"",""301164""
""blur"",""59"",""305092""
""blur"",""79"",""349981""
","""event"",""trial"",""time""
""focus"",""45"",""256698""
""focus"",""47"",""272222""
""focus"",""57"",""299110""
""focus"",""59"",""302592""
""focus"",""60"",""307675""
""focus"",""80"",""355830""
","""event"",""trial"",""time""
""fullscreenenter"",""0"",""6228""
","""event"",""trial"",""time""
""fullscreenexit"",""44"",""253187""
","null","<p></p>","null","","","","","","","","","","","","","","","","","","","","","","","",""
"","do_trial","106","441609","0.0-62.0-0.0","""event"",""trial"",""time""
""fullscreenenter"",""0"",""6228""
""blur"",""44"",""253186""
""fullscreenexit"",""44"",""253187""
""focus"",""45"",""256698""
""blur"",""45"",""257574""
""focus"",""47"",""272222""
""blur"",""57"",""297035""
""focus"",""57"",""299110""
""blur"",""59"",""301164""
""focus"",""59"",""302592""
""blur"",""59"",""305092""
""focus"",""60"",""307675""
""blur"",""79"",""349981""
""focus"",""80"",""355830""
","""event"",""trial"",""time""
""blur"",""44"",""253186""
""blur"",""45"",""257574""
""blur"",""57"",""297035""
""blur"",""59"",""301164""
""blur"",""59"",""305092""
""blur"",""79"",""349981""
","""event"",""trial"",""time""
""focus"",""45"",""256698""
""focus"",""47"",""272222""
""focus"",""57"",""299110""
""focus"",""59"",""302592""
""focus"",""60"",""307675""
""focus"",""80"",""355830""
","""event"",""trial"",""time""
""fullscreenenter"",""0"",""6228""
","""event"",""trial"",""time""
""fullscreenexit"",""44"",""253187""
","19.399999976158142","","","","","","","","50","0,0,0","6","blank","273","null","0.15011574917937195","0.6261397267458734","0.20294727596513482","0","","","","","","","","",""
"","html-keyboard-response","107","442618","0.0-62.0-1.0","""event"",""trial"",""time""
""fullscreenenter"",""0"",""6228""
""blur"",""44"",""253186""
""fullscreenexit"",""44"",""253187""
""focus"",""45"",""256698""
""blur"",""45"",""257574""
""focus"",""47"",""272222""
""blur"",""57"",""297035""
""focus"",""57"",""299110""
""blur"",""59"",""301164""
""focus"",""59"",""302592""
""blur"",""59"",""305092""
""focus"",""60"",""307675""
""blur"",""79"",""349981""
""focus"",""80"",""355830""
","""event"",""trial"",""time""
""blur"",""44"",""253186""
""blur"",""45"",""257574""
""blur"",""57"",""297035""
""blur"",""59"",""301164""
""blur"",""59"",""305092""
""blur"",""79"",""349981""
","""event"",""trial"",""time""
""focus"",""45"",""256698""
""focus"",""47"",""272222""
""focus"",""57"",""299110""
""focus"",""59"",""302592""
""focus"",""60"",""307675""
""focus"",""80"",""355830""
","""event"",""trial"",""time""
""fullscreenenter"",""0"",""6228""
","""event"",""trial"",""time""
""fullscreenexit"",""44"",""253187""
","null","<p></p>","null","","","","","","","","","","","","","","","","","","","","","","","",""
"","do_trial","108","445666","0.0-63.0-0.0","""event"",""trial"",""time""
""fullscreenenter"",""0"",""6228""
""blur"",""44"",""253186""
""fullscreenexit"",""44"",""253187""
""focus"",""45"",""256698""
""blur"",""45"",""257574""
""focus"",""47"",""272222""
""blur"",""57"",""297035""
""focus"",""57"",""299110""
""blur"",""59"",""301164""
""focus"",""59"",""302592""
""blur"",""59"",""305092""
""focus"",""60"",""307675""
""blur"",""79"",""349981""
""focus"",""80"",""355830""
","""event"",""trial"",""time""
""blur"",""44"",""253186""
""blur"",""45"",""257574""
""blur"",""57"",""297035""
""blur"",""59"",""301164""
""blur"",""59"",""305092""
""blur"",""79"",""349981""
","""event"",""trial"",""time""
""focus"",""45"",""256698""
""focus"",""47"",""272222""
""focus"",""57"",""299110""
""focus"",""59"",""302592""
""focus"",""60"",""307675""
""focus"",""80"",""355830""
","""event"",""trial"",""time""
""fullscreenenter"",""0"",""6228""
","""event"",""trial"",""time""
""fullscreenexit"",""44"",""253187""
","481.60000002384186","","","","","","","","50","1,1,0","6","blank","274","null","0.18097628720997175","0.6360602057972998","0.06348918368548144","1","","","","","","","","",""
"","html-keyboard-response","109","446669","0.0-63.0-1.0","""event"",""trial"",""time""
""fullscreenenter"",""0"",""6228""
""blur"",""44"",""253186""
""fullscreenexit"",""44"",""253187""
""focus"",""45"",""256698""
""blur"",""45"",""257574""
""focus"",""47"",""272222""
""blur"",""57"",""297035""
""focus"",""57"",""299110""
""blur"",""59"",""301164""
""focus"",""59"",""302592""
""blur"",""59"",""305092""
""focus"",""60"",""307675""
""blur"",""79"",""349981""
""focus"",""80"",""355830""
","""event"",""trial"",""time""
""blur"",""44"",""253186""
""blur"",""45"",""257574""
""blur"",""57"",""297035""
""blur"",""59"",""301164""
""blur"",""59"",""305092""
""blur"",""79"",""349981""
","""event"",""trial"",""time""
""focus"",""45"",""256698""
""focus"",""47"",""272222""
""focus"",""57"",""299110""
""focus"",""59"",""302592""
""focus"",""60"",""307675""
""focus"",""80"",""355830""
","""event"",""trial"",""time""
""fullscreenenter"",""0"",""6228""
","""event"",""trial"",""time""
""fullscreenexit"",""44"",""253187""
","null","<p></p>","null","","","","","","","","","","","","","","","","","","","","","","","",""
"","do_trial","110","449652","0.0-64.0-0.0","""event"",""trial"",""time""
""fullscreenenter"",""0"",""6228""
""blur"",""44"",""253186""
""fullscreenexit"",""44"",""253187""
""focus"",""45"",""256698""
""blur"",""45"",""257574""
""focus"",""47"",""272222""
""blur"",""57"",""297035""
""focus"",""57"",""299110""
""blur"",""59"",""301164""
""focus"",""59"",""302592""
""blur"",""59"",""305092""
""focus"",""60"",""307675""
""blur"",""79"",""349981""
""focus"",""80"",""355830""
","""event"",""trial"",""time""
""blur"",""44"",""253186""
""blur"",""45"",""257574""
""blur"",""57"",""297035""
""blur"",""59"",""301164""
""blur"",""59"",""305092""
""blur"",""79"",""349981""
","""event"",""trial"",""time""
""focus"",""45"",""256698""
""focus"",""47"",""272222""
""focus"",""57"",""299110""
""focus"",""59"",""302592""
""focus"",""60"",""307675""
""focus"",""80"",""355830""
","""event"",""trial"",""time""
""fullscreenenter"",""0"",""6228""
","""event"",""trial"",""time""
""fullscreenexit"",""44"",""253187""
","401.39999997615814","","","","","","","","50","0,0,0","6","blank","275","null","0.1706314201096265","0.6424505204079933","0.14045039128254333","0","","","","","","","","",""
"","html-keyboard-response","111","450661","0.0-64.0-1.0","""event"",""trial"",""time""
""fullscreenenter"",""0"",""6228""
""blur"",""44"",""253186""
""fullscreenexit"",""44"",""253187""
""focus"",""45"",""256698""
""blur"",""45"",""257574""
""focus"",""47"",""272222""
""blur"",""57"",""297035""
""focus"",""57"",""299110""
""blur"",""59"",""301164""
""focus"",""59"",""302592""
""blur"",""59"",""305092""
""focus"",""60"",""307675""
""blur"",""79"",""349981""
""focus"",""80"",""355830""
","""event"",""trial"",""time""
""blur"",""44"",""253186""
""blur"",""45"",""257574""
""blur"",""57"",""297035""
""blur"",""59"",""301164""
""blur"",""59"",""305092""
""blur"",""79"",""349981""
","""event"",""trial"",""time""
""focus"",""45"",""256698""
""focus"",""47"",""272222""
""focus"",""57"",""299110""
""focus"",""59"",""302592""
""focus"",""60"",""307675""
""focus"",""80"",""355830""
","""event"",""trial"",""time""
""fullscreenenter"",""0"",""6228""
","""event"",""trial"",""time""
""fullscreenexit"",""44"",""253187""
","null","<p></p>","null","","","","","","","","","","","","","","","","","","","","","","","",""
"","do_trial","112","453336","0.0-65.0-0.0","""event"",""trial"",""time""
""fullscreenenter"",""0"",""6228""
""blur"",""44"",""253186""
""fullscreenexit"",""44"",""253187""
""focus"",""45"",""256698""
""blur"",""45"",""257574""
""focus"",""47"",""272222""
""blur"",""57"",""297035""
""focus"",""57"",""299110""
""blur"",""59"",""301164""
""focus"",""59"",""302592""
""blur"",""59"",""305092""
""focus"",""60"",""307675""
""blur"",""79"",""349981""
""focus"",""80"",""355830""
","""event"",""trial"",""time""
""blur"",""44"",""253186""
""blur"",""45"",""257574""
""blur"",""57"",""297035""
""blur"",""59"",""301164""
""blur"",""59"",""305092""
""blur"",""79"",""349981""
","""event"",""trial"",""time""
""focus"",""45"",""256698""
""focus"",""47"",""272222""
""focus"",""57"",""299110""
""focus"",""59"",""302592""
""focus"",""60"",""307675""
""focus"",""80"",""355830""
","""event"",""trial"",""time""
""fullscreenenter"",""0"",""6228""
","""event"",""trial"",""time""
""fullscreenexit"",""44"",""253187""
","74.79999995231628","","","","","","","","50","0,1,0","6","blank","276","null","0.10663032242819562","0.6780607002409669","0.07134761720025211","1","","","","","","","","",""
"","html-keyboard-response","113","454351","0.0-65.0-1.0","""event"",""trial"",""time""
""fullscreenenter"",""0"",""6228""
""blur"",""44"",""253186""
""fullscreenexit"",""44"",""253187""
""focus"",""45"",""256698""
""blur"",""45"",""257574""
""focus"",""47"",""272222""
""blur"",""57"",""297035""
""focus"",""57"",""299110""
""blur"",""59"",""301164""
""focus"",""59"",""302592""
""blur"",""59"",""305092""
""focus"",""60"",""307675""
""blur"",""79"",""349981""
""focus"",""80"",""355830""
","""event"",""trial"",""time""
""blur"",""44"",""253186""
""blur"",""45"",""257574""
""blur"",""57"",""297035""
""blur"",""59"",""301164""
""blur"",""59"",""305092""
""blur"",""79"",""349981""
","""event"",""trial"",""time""
""focus"",""45"",""256698""
""focus"",""47"",""272222""
""focus"",""57"",""299110""
""focus"",""59"",""302592""
""focus"",""60"",""307675""
""focus"",""80"",""355830""
","""event"",""trial"",""time""
""fullscreenenter"",""0"",""6228""
","""event"",""trial"",""time""
""fullscreenexit"",""44"",""253187""
","null","<p></p>","null","","","","","","","","","","","","","","","","","","","","","","","",""
"","do_recog","114","457276","0.0-66.0-0.0","""event"",""trial"",""time""
""fullscreenenter"",""0"",""6228""
""blur"",""44"",""253186""
""fullscreenexit"",""44"",""253187""
""focus"",""45"",""256698""
""blur"",""45"",""257574""
""focus"",""47"",""272222""
""blur"",""57"",""297035""
""focus"",""57"",""299110""
""blur"",""59"",""301164""
""focus"",""59"",""302592""
""blur"",""59"",""305092""
""focus"",""60"",""307675""
""blur"",""79"",""349981""
""focus"",""80"",""355830""
","""event"",""trial"",""time""
""blur"",""44"",""253186""
""blur"",""45"",""257574""
""blur"",""57"",""297035""
""blur"",""59"",""301164""
""blur"",""59"",""305092""
""blur"",""79"",""349981""
","""event"",""trial"",""time""
""focus"",""45"",""256698""
""focus"",""47"",""272222""
""focus"",""57"",""299110""
""focus"",""59"",""302592""
""focus"",""60"",""307675""
""focus"",""80"",""355830""
","""event"",""trial"",""time""
""fullscreenenter"",""0"",""6228""
","""event"",""trial"",""time""
""fullscreenexit"",""44"",""253187""
","1399","","","","","","","","53","","","","277","probe-141","","","","","1","[object Object]","31","0","1","","","",""
"","html-keyboard-response","115","458284","0.0-66.0-1.0","""event"",""trial"",""time""
""fullscreenenter"",""0"",""6228""
""blur"",""44"",""253186""
""fullscreenexit"",""44"",""253187""
""focus"",""45"",""256698""
""blur"",""45"",""257574""
""focus"",""47"",""272222""
""blur"",""57"",""297035""
""focus"",""57"",""299110""
""blur"",""59"",""301164""
""focus"",""59"",""302592""
""blur"",""59"",""305092""
""focus"",""60"",""307675""
""blur"",""79"",""349981""
""focus"",""80"",""355830""
","""event"",""trial"",""time""
""blur"",""44"",""253186""
""blur"",""45"",""257574""
""blur"",""57"",""297035""
""blur"",""59"",""301164""
""blur"",""59"",""305092""
""blur"",""79"",""349981""
","""event"",""trial"",""time""
""focus"",""45"",""256698""
""focus"",""47"",""272222""
""focus"",""57"",""299110""
""focus"",""59"",""302592""
""focus"",""60"",""307675""
""focus"",""80"",""355830""
","""event"",""trial"",""time""
""fullscreenenter"",""0"",""6228""
","""event"",""trial"",""time""
""fullscreenexit"",""44"",""253187""
","null","<p></p>","null","","","","","","","","","","","","","","","","","","","","","","","",""
"","do_trial","116","461939","0.0-67.0-0.0","""event"",""trial"",""time""
""fullscreenenter"",""0"",""6228""
""blur"",""44"",""253186""
""fullscreenexit"",""44"",""253187""
""focus"",""45"",""256698""
""blur"",""45"",""257574""
""focus"",""47"",""272222""
""blur"",""57"",""297035""
""focus"",""57"",""299110""
""blur"",""59"",""301164""
""focus"",""59"",""302592""
""blur"",""59"",""305092""
""focus"",""60"",""307675""
""blur"",""79"",""349981""
""focus"",""80"",""355830""
","""event"",""trial"",""time""
""blur"",""44"",""253186""
""blur"",""45"",""257574""
""blur"",""57"",""297035""
""blur"",""59"",""301164""
""blur"",""59"",""305092""
""blur"",""79"",""349981""
","""event"",""trial"",""time""
""focus"",""45"",""256698""
""focus"",""47"",""272222""
""focus"",""57"",""299110""
""focus"",""59"",""302592""
""focus"",""60"",""307675""
""focus"",""80"",""355830""
","""event"",""trial"",""time""
""fullscreenenter"",""0"",""6228""
","""event"",""trial"",""time""
""fullscreenexit"",""44"",""253187""
","1094.6000000238419","","","","","","","","50","0,1,0","6","blank","278","null","0.06949573361362531","0.722836860220397","0.23581072575160872","1","","","","","","","","",""
"","html-keyboard-response","117","462953","0.0-67.0-1.0","""event"",""trial"",""time""
""fullscreenenter"",""0"",""6228""
""blur"",""44"",""253186""
""fullscreenexit"",""44"",""253187""
""focus"",""45"",""256698""
""blur"",""45"",""257574""
""focus"",""47"",""272222""
""blur"",""57"",""297035""
""focus"",""57"",""299110""
""blur"",""59"",""301164""
""focus"",""59"",""302592""
""blur"",""59"",""305092""
""focus"",""60"",""307675""
""blur"",""79"",""349981""
""focus"",""80"",""355830""
","""event"",""trial"",""time""
""blur"",""44"",""253186""
""blur"",""45"",""257574""
""blur"",""57"",""297035""
""blur"",""59"",""301164""
""blur"",""59"",""305092""
""blur"",""79"",""349981""
","""event"",""trial"",""time""
""focus"",""45"",""256698""
""focus"",""47"",""272222""
""focus"",""57"",""299110""
""focus"",""59"",""302592""
""focus"",""60"",""307675""
""focus"",""80"",""355830""
","""event"",""trial"",""time""
""fullscreenenter"",""0"",""6228""
","""event"",""trial"",""time""
""fullscreenexit"",""44"",""253187""
