"success","trial_type","trial_index","time_elapsed","internal_node_id","interactions","blur_events","focus_events","fullscreenenter_events","fullscreenexit_events","rt","stimulus","key_press","subject_id","participant_id","age","gender","prompt","response","choice_outcomes","context_n","context_img_id","trial_n","probe_img_id","pR_red","pR_white","pR_black","outcome","is_valid","image_to_show","probed_trial","probed_context","correct","probe","probed_trial_n","probed_context_n","context_im"
"true","fullscreen","0","5421","0.0-0.0","""event"",""trial"",""time""
""fullscreenenter"",""0"",""4435""
","
","
","""event"",""trial"",""time""
""fullscreenenter"",""0"",""4435""
","
","","","","","","","","","","","","","","","","","","","","","","","","","","",""
"","pavlovia","1","5424","0.0-1.0","""event"",""trial"",""time""
""fullscreenenter"",""0"",""4435""
","
","
","""event"",""trial"",""time""
""fullscreenenter"",""0"",""4435""
","
","","","","","","","","","","","","","","","","","","","","","","","","","","",""
"","welc_back","2","15650","0.0-2.0","""event"",""trial"",""time""
""fullscreenenter"",""0"",""4435""
","
","
","""event"",""trial"",""time""
""fullscreenenter"",""0"",""4435""
","
","null","run_exp/static/audio/clip_29_welcome_back.m4a","null","546","787","22","Female","<div class='center'><p>Welcome to day 2!</p><p> Yesterday, you were the head captain of a pirate ship. You asked your fellow pirates to rob other ships of their gold across six different islands.</p></div>","","","","","","","","","","","","","","","","","","",""
"","html-keyboard-response","3","16812","0.0-3.0","""event"",""trial"",""time""
""fullscreenenter"",""0"",""4435""
","
","
","""event"",""trial"",""time""
""fullscreenenter"",""0"",""4435""
","
","1161.5","<div class='center'><p>Welcome to day 2!</p><p> Yesterday, you were the head captain of a pirate ship. You asked your fellow pirates to rob other ships of their gold across six different islands.</p><p><b>[Press the space bar to continue]</b></p></div>","32","","","","","","","","","","","","","","","","","","","","","","","",""
"","day_1_summary_goal","4","34009","0.0-4.0","""event"",""trial"",""time""
""fullscreenenter"",""0"",""4435""
","
","
","""event"",""trial"",""time""
""fullscreenenter"",""0"",""4435""
","
","null","run_exp/static/audio/clip_30_goal_of_game.m4a","null","","","","","<div class='center'><p>Today, like yesterday, you get to pick which pirate you want to rob the next ship.</p><p>If the pirate is successful in robbing a ship, you get gold coins that look like this: </p><p><img src='run_exp/static/images/tutorial/reward.png' height='150'></p><p> If they were not successful in robbing the ship, then you will get no gold coins and you'll see a big red x like this: </p><p><img src='run_exp/static/images/tutorial/reward_no.png' height='150'></p></div>","","","","","","","","","","","","","","","","","","",""
"","html-keyboard-response","5","35135","0.0-5.0","""event"",""trial"",""time""
""fullscreenenter"",""0"",""4435""
","
","
","""event"",""trial"",""time""
""fullscreenenter"",""0"",""4435""
","
","1124","<div class='center'><p>Today, like yesterday, you get to pick which pirate you want to rob the next ship.</p><p>If the pirate is successful in robbing a ship, you get gold coins that look like this: </p><p><img src='run_exp/static/images/tutorial/reward.png' height='150'></p><p> If they were not successful in robbing the ship, then you will get no gold coins and you'll see a big red x like this: </p><p><img src='run_exp/static/images/tutorial/reward_no.png' height='150'></p><p><b>[Press the space bar to continue]</b></p></div>","32","","","","","","","","","","","","","","","","","","","","","","","",""
"","day_1_summary_pick","6","49829","0.0-6.0","""event"",""trial"",""time""
""fullscreenenter"",""0"",""4435""
","
","
","""event"",""trial"",""time""
""fullscreenenter"",""0"",""4435""
","
","null","run_exp/static/audio/clip_31_how_to_pick_a_pirate.m4a","null","","","","","<div class='center'><p>Also, just like yesterday, you will use the 1,2,3 keys on your keyboard to pick a pirate. Press '1' to choose red beard, '2' to choose white beard, and '3' to choose black beard . You only have 3 seconds to pick a pirate, so please make a choice quickly!</p></div>","","","","","","","","","","","","","","","","","","",""
"","html-keyboard-response","7","50625","0.0-7.0","""event"",""trial"",""time""
""fullscreenenter"",""0"",""4435""
","
","
","""event"",""trial"",""time""
""fullscreenenter"",""0"",""4435""
","
","795.1000000238419","<div class='center'><p>Also, just like yesterday, you will use the 1,2,3 keys on your keyboard to pick a pirate. Press '1' to choose red beard, '2' to choose white beard, and '3' to choose black beard . You only have 3 seconds to pick a pirate, so please make a choice quickly!</p><p><b>[Press the space bar to continue]</b></p></div>","32","","","","","","","","","","","","","","","","","","","","","","","",""
"","test_phase_begin","8","81008","0.0-8.0","""event"",""trial"",""time""
""fullscreenenter"",""0"",""4435""
","
","
","""event"",""trial"",""time""
""fullscreenenter"",""0"",""4435""
","
","null","run_exp/static/audio/clip_32_final_place.m4a","null","","","","","<div class='center'><p>You’ve arrived at the final island of your journey! Unfortunately, it’s very foggy out, so you won’t be able to see it in the distance like the other islands you've visited.</p><p>You’ll still be deciding which pirate you want to rob a ship like before. However, because of the fog, you also won’t be able to see the ship.</p><p>This means you do not have to remember the ships you rob on this island.</p><p>Unlike yesterday, you won't be visiting multiple islands today. You will stay on this island for the entire game. This game will last ~30 minutes.</p></div>","","","","","","","","","","","","","","","","","","",""
"","html-keyboard-response","9","81361","0.0-9.0","""event"",""trial"",""time""
""fullscreenenter"",""0"",""4435""
","
","
","""event"",""trial"",""time""
""fullscreenenter"",""0"",""4435""
","
","351.7999999523163","<div class='center'><p>You’ve arrived at the final island of your journey! Unfortunately, it’s very foggy out, so you won’t be able to see it in the distance like the other islands you've visited.</p><p>You’ll still be deciding which pirate you want to rob a ship like before. However, because of the fog, you also won’t be able to see the ship.</p><p>This means you do not have to remember the ships you rob on this island.</p><p>Unlike yesterday, you won't be visiting multiple islands today. You will stay on this island for the entire game. This game will last ~30 minutes.</p><p><b>[Press the space bar to continue]</b></p></div>","32","","","","","","","","","","","","","","","","","","","","","","","",""
"","explain_probe_1","10","89069","0.0-10.0","""event"",""trial"",""time""
""fullscreenenter"",""0"",""4435""
","
","
","""event"",""trial"",""time""
""fullscreenenter"",""0"",""4435""
","
","null","run_exp/static/audio/clip_33_recognition_1.m4a","null","","","","","<div class='center'><p> Sometimes you’ll be shown a ship, and you will be asked if you saw this ship on a past island.</p><p> Here is an example of what you will see.</p><p><img src='run_exp/static/images/tutorial/example_recog_trial.png' height='500'></p></div>","","","","","","","","","","","","","","","","","","",""
"","html-keyboard-response","11","91776","0.0-11.0","""event"",""trial"",""time""
""fullscreenenter"",""0"",""4435""
","
","
","""event"",""trial"",""time""
""fullscreenenter"",""0"",""4435""
","
","2706.2999999523163","<div class='center'><p> Sometimes you’ll be shown a ship, and you will be asked if you saw this ship on a past island.</p><p> Here is an example of what you will see.</p><p><img src='run_exp/static/images/tutorial/example_recog_trial.png' height='500'></p><p><b>[Press the space bar to continue]</b></p></div>","32","","","","","","","","","","","","","","","","","","","","","","","",""
"","explain_probe_2","12","113488","0.0-12.0","""event"",""trial"",""time""
""fullscreenenter"",""0"",""4435""
","
","
","""event"",""trial"",""time""
""fullscreenenter"",""0"",""4435""
","
","null","run_exp/static/audio/clip_34_recognition_2.m4a","null","","","","","<div class='center'><p> You will press the 5, 6, 7, 8 keys on your keyboard to respond.</p><p>If you are sure you saw the ship, press <b>5</b> on your keyboard.</p><p> If you think you saw it before but aren't sure, then press <b>6</b>.</p><p> If you think you have <b>not</b> seen it before but aren't sure, then press <b>7</b>.</p><p> If you are sure you did <b>not</b> see the ship before, then press <b>8</b>.</p><p><img src='run_exp/static/images/tutorial/example_recog_trial.png' height='500'></p></div>","","","","","","","","","","","","","","","","","","",""
"","html-keyboard-response","13","115584","0.0-13.0","""event"",""trial"",""time""
""fullscreenenter"",""0"",""4435""
","
","
","""event"",""trial"",""time""
""fullscreenenter"",""0"",""4435""
","
","2094.5","<div class='center'><p> You will press the 5, 6, 7, 8 keys on your keyboard to respond.</p><p>If you are sure you saw the ship, press <b>5</b> on your keyboard.</p><p> If you think you saw it before but aren't sure, then press <b>6</b>.</p><p> If you think you have <b>not</b> seen it before but aren't sure, then press <b>7</b>.</p><p> If you are sure you did <b>not</b> see the ship before, then press <b>8</b>.</p><p><img src='run_exp/static/images/tutorial/example_recog_trial.png' height='500'></p><p><b>[Press the space bar to continue]</b></p></div>","32","","","","","","","","","","","","","","","","","","","","","","","",""
"","explain_outcome","14","132768","0.0-14.0","""event"",""trial"",""time""
""fullscreenenter"",""0"",""4435""
","
","
","""event"",""trial"",""time""
""fullscreenenter"",""0"",""4435""
","
","null","run_exp/static/audio/clip_35_recognition_3.m4a","null","","","","","<div class='center'><p> If you remember correctly, then you’ll get a gold coin like this: </p><p><img src='run_exp/static/images/tutorial/reward_small.png' height='200'></p><p>If you do not remember correctly, then you'll see a red x like this: </p><p><img src='run_exp/static/images/tutorial/reward_no.png' height='200'></p><p>Importantly, when you are shown a ship, take the time to remind yourself which island you saw it on. This will help you in the next part of the study.</p></div>","","","","","","","","","","","","","","","","","","",""
"","html-keyboard-response","15","133972","0.0-15.0","""event"",""trial"",""time""
""fullscreenenter"",""0"",""4435""
","
","
","""event"",""trial"",""time""
""fullscreenenter"",""0"",""4435""
","
","1203.1000000238419","<div class='center'><p> If you remember correctly, then you’ll get a gold coin like this: </p><p><img src='run_exp/static/images/tutorial/reward_small.png' height='200'></p><p>If you do not remember correctly, then you'll see a red x like this: </p><p><img src='run_exp/static/images/tutorial/reward_no.png' height='200'></p><p>Importantly, when you are shown a ship, take the time to remind yourself which island you saw it on. This will help you in the next part of the study.</p><p><b>[Press the space bar to continue]</b></p></div>","32","","","","","","","","","","","","","","","","","","","","","","","",""
"","begin_test_phase","16","149788","0.0-16.0","""event"",""trial"",""time""
""fullscreenenter"",""0"",""4435""
","
","
","""event"",""trial"",""time""
""fullscreenenter"",""0"",""4435""
","
","null","run_exp/static/audio/clip_36_begin_final.m4a","null","","","","","<div class='center'><p>Let's go over the important points again. Your job is to: </p><p>1. Pick the pirate who is best at robbing ships and will bring you back gold coins. </p><p>2. Correctly remember whether or not you saw a ship before. If you did see the ship before, remind yourself on which island you saw it. </p></div>","","","","","","","","","","","","","","","","","","",""
"","html-keyboard-response","17","151006","0.0-17.0","""event"",""trial"",""time""
""fullscreenenter"",""0"",""4435""
","
","
","""event"",""trial"",""time""
""fullscreenenter"",""0"",""4435""
","
","1191.3000000715256","<div class='center'><p>Let's go over the important points again. Your job is to: </p><p>1. Pick the pirate who is best at robbing ships and will bring you back gold coins. </p><p>2. Correctly remember whether or not you saw a ship before. If you did see the ship before, remind yourself on which island you saw it. </p><p><b>[Press the space bar to continue]</b></p></div>","32","","","","","","","","","","","","","","","","","","","","","","","",""
"","do_welcome","18","155017","0.0-18.0","""event"",""trial"",""time""
""fullscreenenter"",""0"",""4435""
","
","
","""event"",""trial"",""time""
""fullscreenenter"",""0"",""4435""
","
","null","","","","","","","","null","","","","","","","","","","","","","","","","","",""
"","do_trial","19","159647","0.0-19.0-0.0","""event"",""trial"",""time""
""fullscreenenter"",""0"",""4435""
","
","
","""event"",""trial"",""time""
""fullscreenenter"",""0"",""4435""
","
","2096.5","","","","","","","","49","1,0,0","6","blank","230","null","0.2594814426552704","0.5737915648124995","0.21884416699269715","1","","","","","","","","",""
"","html-keyboard-response","20","160657","0.0-19.0-1.0","""event"",""trial"",""time""
""fullscreenenter"",""0"",""4435""
","
","
","""event"",""trial"",""time""
""fullscreenenter"",""0"",""4435""
","
","null","<p></p>","null","","","","","","","","","","","","","","","","","","","","","","","",""
"","do_trial","21","163477","0.0-20.0-0.0","""event"",""trial"",""time""
""fullscreenenter"",""0"",""4435""
","
","
","""event"",""trial"",""time""
""fullscreenenter"",""0"",""4435""
","
","275.09999990463257","","","","","","","","50","0,1,1","6","blank","231","null","0.27821739900154063","0.6853350086496882","0.23009877141678686","1","","","","","","","","",""
"","html-keyboard-response","22","164497","0.0-20.0-1.0","""event"",""trial"",""time""
""fullscreenenter"",""0"",""4435""
","
","
","""event"",""trial"",""time""
""fullscreenenter"",""0"",""4435""
","
","null","<p></p>","null","","","","","","","","","","","","","","","","","","","","","","","",""
"","do_trial","23","167278","0.0-21.0-0.0","""event"",""trial"",""time""
""fullscreenenter"",""0"",""4435""
","
","
","""event"",""trial"",""time""
""fullscreenenter"",""0"",""4435""
","
","252.20000004768372","","","","","","","","51","1,1,0","6","blank","232","null","0.2573013929804574","0.6841477894556975","0.16816741087136153","0","","","","","","","","",""
"","html-keyboard-response","24","168280","0.0-21.0-1.0","""event"",""trial"",""time""
""fullscreenenter"",""0"",""4435""
","
","
","""event"",""trial"",""time""
""fullscreenenter"",""0"",""4435""
","
","null","<p></p>","null","","","","","","","","","","","","","","","","","","","","","","","",""
"","do_trial","25","170882","0.0-22.0-0.0","""event"",""trial"",""time""
""fullscreenenter"",""0"",""4435""
","
","
","""event"",""trial"",""time""
""fullscreenenter"",""0"",""4435""
","
","72.20000004768372","","","","","","","","49","0,1,0","6","blank","233","null","0.404835309425106","0.5852523429469407","0.16465508250365496","0","","","","","","","","",""
"","html-keyboard-response","26","171890","0.0-22.0-1.0","""event"",""trial"",""time""
""fullscreenenter"",""0"",""4435""
","
","
","""event"",""trial"",""time""
""fullscreenenter"",""0"",""4435""
","
","null","<p></p>","null","","","","","","","","","","","","","","","","","","","","","","","",""
"","do_trial","27","174724","0.0-23.0-0.0","""event"",""trial"",""time""
""fullscreenenter"",""0"",""4435""
","
","
","""event"",""trial"",""time""
""fullscreenenter"",""0"",""4435""
","
","292.89999997615814","","","","","","","","49","1,0,0","6","blank","234","null","0.3355248336148048","0.6037747108159112","0.13599111325648006","1","","","","","","","","",""
"","html-keyboard-response","28","175731","0.0-23.0-1.0","""event"",""trial"",""time""
""fullscreenenter"",""0"",""4435""
","
","
","""event"",""trial"",""time""
""fullscreenenter"",""0"",""4435""
","
","null","<p></p>","null","","","","","","","","","","","","","","","","","","","","","","","",""
"","do_trial","29","178582","0.0-24.0-0.0","""event"",""trial"",""time""
""fullscreenenter"",""0"",""4435""
","
","
","""event"",""trial"",""time""
""fullscreenenter"",""0"",""4435""
","
","314","","","","","","","","49","0,1,0","6","blank","235","null","0.32437251625757485","0.7302666833330347","0.14352538094005465","0","","","","","","","","",""
"","html-keyboard-response","30","179585","0.0-24.0-1.0","""event"",""trial"",""time""
""fullscreenenter"",""0"",""4435""
","
","
","""event"",""trial"",""time""
""fullscreenenter"",""0"",""4435""
","
","null","<p></p>","null","","","","","","","","","","","","","","","","","","","","","","","",""
"","do_trial","31","182447","0.0-25.0-0.0","""event"",""trial"",""time""
""fullscreenenter"",""0"",""4435""
","
","
","""event"",""trial"",""time""
""fullscreenenter"",""0"",""4435""
","
","328.5","","","","","","","","49","0,1,0","6","blank","236","null","0.3272833350019775","0.6940937203370108","0.1181989298847173","0","","","","","","","","",""
"","html-keyboard-response","32","183449","0.0-25.0-1.0","""event"",""trial"",""time""
""fullscreenenter"",""0"",""4435""
","
","
","""event"",""trial"",""time""
""fullscreenenter"",""0"",""4435""
","
","null","<p></p>","null","","","","","","","","","","","","","","","","","","","","","","","",""
"","do_trial","33","186395","0.0-26.0-0.0","""event"",""trial"",""time""
""fullscreenenter"",""0"",""4435""
","
","
","""event"",""trial"",""time""
""fullscreenenter"",""0"",""4435""
","
","412.2000000476837","","","","","","","","50","0,1,0","6","blank","237","null","0.24051233829850302","0.5830809613061594","0.09135710123411876","1","","","","","","","","",""
"","html-keyboard-response","34","187397","0.0-26.0-1.0","""event"",""trial"",""time""
""fullscreenenter"",""0"",""4435""
","
","
","""event"",""trial"",""time""
""fullscreenenter"",""0"",""4435""
","
","null","<p></p>","null","","","","","","","","","","","","","","","","","","","","","","","",""
"","do_trial","35","190371","0.0-27.0-0.0","""event"",""trial"",""time""
""fullscreenenter"",""0"",""4435""
","
","
","""event"",""trial"",""time""
""fullscreenenter"",""0"",""4435""
","
","444","","","","","","","","50","0,1,0","6","blank","238","null","0.22488778112000074","0.5698948431152894","0.1815155611190011","1","","","","","","","","",""
"","html-keyboard-response","36","191379","0.0-27.0-1.0","""event"",""trial"",""time""
""fullscreenenter"",""0"",""4435""
","
","
","""event"",""trial"",""time""
""fullscreenenter"",""0"",""4435""
","
","null","<p></p>","null","","","","","","","","","","","","","","","","","","","","","","","",""
"","do_trial","37","194248","0.0-28.0-0.0","""event"",""trial"",""time""
""fullscreenenter"",""0"",""4435""
","
","
","""event"",""trial"",""time""
""fullscreenenter"",""0"",""4435""
","
","289.39999997615814","","","","","","","","50","0,1,0","6","blank","239","null","0.3768303381951509","0.5771137237571184","0.06183322809797043","1","","","","","","","","",""
"","html-keyboard-response","38","195264","0.0-28.0-1.0","""event"",""trial"",""time""
""fullscreenenter"",""0"",""4435""
","
","
","""event"",""trial"",""time""
""fullscreenenter"",""0"",""4435""
","
","null","<p></p>","null","","","","","","","","","","","","","","","","","","","","","","","",""
"","do_trial","39","198102","0.0-29.0-0.0","""event"",""trial"",""time""
""fullscreenenter"",""0"",""4435""
","
","
","""event"",""trial"",""time""
""fullscreenenter"",""0"",""4435""
","
","245.10000002384186","","","","","","","","51","1,1,0","6","blank","240","null","0.34487961527377314","0.41081242438574456","0.2171364444347569","0","","","","","","","","",""
"","html-keyboard-response","40","199114","0.0-29.0-1.0","""event"",""trial"",""time""
""fullscreenenter"",""0"",""4435""
","
","
","""event"",""trial"",""time""
""fullscreenenter"",""0"",""4435""
","
","null","<p></p>","null","","","","","","","","","","","","","","","","","","","","","","","",""
"","do_trial","41","202035","0.0-30.0-0.0","""event"",""trial"",""time""
""fullscreenenter"",""0"",""4435""
","
","
","""event"",""trial"",""time""
""fullscreenenter"",""0"",""4435""
","
","331.7999999523163","","","","","","","","51","1,0,0","6","blank","241","null","0.32104086817551675","0.49022031751890077","0.3225061657911685","0","","","","","","","","",""
"","html-keyboard-response","42","203048","0.0-30.0-1.0","""event"",""trial"",""time""
""fullscreenenter"",""0"",""4435""
","
","
","""event"",""trial"",""time""
""fullscreenenter"",""0"",""4435""
","
","null","<p></p>","null","","","","","","","","","","","","","","","","","","","","","","","",""
"","do_trial","43","205984","0.0-31.0-0.0","""event"",""trial"",""time""
""fullscreenenter"",""0"",""4435""
","
","
","""event"",""trial"",""time""
""fullscreenenter"",""0"",""4435""
","
","349.39999997615814","","","","","","","","51","1,0,1","6","blank","242","null","0.4874243551640987","0.3752356486984847","0.24852294406670475","1","","","","","","","","",""
"","html-keyboard-response","44","207000","0.0-31.0-1.0","""event"",""trial"",""time""
""fullscreenenter"",""0"",""4435""
","
","
","""event"",""trial"",""time""
""fullscreenenter"",""0"",""4435""
","
","null","<p></p>","null","","","","","","","","","","","","","","","","","","","","","","","",""
"","do_trial","45","209994","0.0-32.0-0.0","""event"",""trial"",""time""
""fullscreenenter"",""0"",""4435""
","
","
","""event"",""trial"",""time""
""fullscreenenter"",""0"",""4435""
","
","412.1999999284744","","","","","","","","51","0,1,0","6","blank","243","null","0.527802299726294","0.39596066752083503","0.14426752208913973","0","","","","","","","","",""
"","html-keyboard-response","46","211001","0.0-32.0-1.0","""event"",""trial"",""time""
""fullscreenenter"",""0"",""4435""
","
","
","""event"",""trial"",""time""
""fullscreenenter"",""0"",""4435""
","
","null","<p></p>","null","","","","","","","","","","","","","","","","","","","","","","","",""
"","do_trial","47","213802","0.0-33.0-0.0","""event"",""trial"",""time""
""fullscreenenter"",""0"",""4435""
","
","
","""event"",""trial"",""time""
""fullscreenenter"",""0"",""4435""
","
","266.09999990463257","","","","","","","","49","1,0,1","6","blank","244","null","0.6151090372268344","0.3033362674463229","0.16791579166159906","1","","","","","","","","",""
"","html-keyboard-response","48","214808","0.0-33.0-1.0","""event"",""trial"",""time""
""fullscreenenter"",""0"",""4435""
","
","
","""event"",""trial"",""time""
""fullscreenenter"",""0"",""4435""
","
","null","<p></p>","null","","","","","","","","","","","","","","","","","","","","","","","",""
"","do_trial","49","217600","0.0-34.0-0.0","""event"",""trial"",""time""
""fullscreenenter"",""0"",""4435""
","
","
","""event"",""trial"",""time""
""fullscreenenter"",""0"",""4435""
","
","252.39999997615814","","","","","","","","49","1,0,0","6","blank","245","null","0.695534432763408","0.3349396498456118","0.16434620810687534","1","","","","","","","","",""
"","html-keyboard-response","50","218611","0.0-34.0-1.0","""event"",""trial"",""time""
""fullscreenenter"",""0"",""4435""
","
","
","""event"",""trial"",""time""
""fullscreenenter"",""0"",""4435""
","
","null","<p></p>","null","","","","","","","","","","","","","","","","","","","","","","","",""
"","do_recog","51","224621","0.0-35.0-0.0","""event"",""trial"",""time""
""fullscreenenter"",""0"",""4435""
","
","
","""event"",""trial"",""time""
""fullscreenenter"",""0"",""4435""
","
","null","","","","","","","","null","","","","246","probe-145","","","","","1","[object Object]","117","2","0","","","",""
"","html-keyboard-response","52","225623","0.0-35.0-1.0","""event"",""trial"",""time""
""fullscreenenter"",""0"",""4435""
","
","
","""event"",""trial"",""time""
""fullscreenenter"",""0"",""4435""
","
","null","<p></p>","null","","","","","","","","","","","","","","","","","","","","","","","",""
"","do_trial","53","229140","0.0-36.0-0.0","""event"",""trial"",""time""
""fullscreenenter"",""0"",""4435""
","
","
","""event"",""trial"",""time""
""fullscreenenter"",""0"",""4435""
","
","984.7000000476837","","","","","","","","49","0,0,0","6","blank","247","null","0.5265347572560904","0.2940053204207352","0.14973658707801413","0","","","","","","","","",""
"","html-keyboard-response","54","230144","0.0-36.0-1.0","""event"",""trial"",""time""
""fullscreenenter"",""0"",""4435""
","
","
","""event"",""trial"",""time""
""fullscreenenter"",""0"",""4435""
","
","null","<p></p>","null","","","","","","","","","","","","","","","","","","","","","","","",""
"","do_trial","55","233011","0.0-37.0-0.0","""event"",""trial"",""time""
""fullscreenenter"",""0"",""4435""
","
","
","""event"",""trial"",""time""
""fullscreenenter"",""0"",""4435""
","
","332.1999999284744","","","","","","","","50","0,1,0","6","blank","248","null","0.5389357782381099","0.34523593801637714","0.1121784276954988","1","","","","","","","","",""
"","html-keyboard-response","56","234014","0.0-37.0-1.0","""event"",""trial"",""time""
""fullscreenenter"",""0"",""4435""
","
","
","""event"",""trial"",""time""
""fullscreenenter"",""0"",""4435""
","
","null","<p></p>","null","","","","","","","","","","","","","","","","","","","","","","","",""
"","do_trial","57","236993","0.0-38.0-0.0","""event"",""trial"",""time""
""fullscreenenter"",""0"",""4435""
","
","
","""event"",""trial"",""time""
""fullscreenenter"",""0"",""4435""
","
","444.59999990463257","","","","","","","","50","1,1,0","6","blank","249","null","0.6445711101476362","0.3482375901554013","0.18713442979832912","1","","","","","","","","",""
"","html-keyboard-response","58","238008","0.0-38.0-1.0","""event"",""trial"",""time""
""fullscreenenter"",""0"",""4435""
","
","
","""event"",""trial"",""time""
""fullscreenenter"",""0"",""4435""
","
","null","<p></p>","null","","","","","","","","","","","","","","","","","","","","","","","",""
"","do_trial","59","240760","0.0-39.0-0.0","""event"",""trial"",""time""
""fullscreenenter"",""0"",""4435""
","
","
","""event"",""trial"",""time""
""fullscreenenter"",""0"",""4435""
","
","202.90000009536743","","","","","","","","49","1,1,0","6","blank","250","null","0.6665964001367662","0.4066806273542549","0.07898934425401449","1","","","","","","","","",""
"","html-keyboard-response","60","241762","0.0-39.0-1.0","""event"",""trial"",""time""
""fullscreenenter"",""0"",""4435""
","
","
","""event"",""trial"",""time""
""fullscreenenter"",""0"",""4435""
","
","null","<p></p>","null","","","","","","","","","","","","","","","","","","","","","","","",""
"","do_recog","61","245024","0.0-40.0-0.0","""event"",""trial"",""time""
""fullscreenenter"",""0"",""4435""
","
","
","""event"",""trial"",""time""
""fullscreenenter"",""0"",""4435""
","
","1748.8000000715256","","","","","","","","53","","","","251","probe-203","","","","","1","[object Object]","111","2","1","","","",""
"","html-keyboard-response","62","246035","0.0-40.0-1.0","""event"",""trial"",""time""
""fullscreenenter"",""0"",""4435""
","
","
","""event"",""trial"",""time""
""fullscreenenter"",""0"",""4435""
","
","null","<p></p>","null","","","","","","","","","","","","","","","","","","","","","","","",""
"","do_trial","63","249546","0.0-41.0-0.0","""event"",""trial"",""time""
""fullscreenenter"",""0"",""4435""
","
","
","""event"",""trial"",""time""
""fullscreenenter"",""0"",""4435""
","
","979.2000000476837","","","","","","","","50","1,1,0","6","blank","252","null","0.7141543998740972","0.25886562082183284","0.08742187023766534","1","","","","","","","","",""
"","html-keyboard-response","64","250548","0.0-41.0-1.0","""event"",""trial"",""time""
""fullscreenenter"",""0"",""4435""
","
","
","""event"",""trial"",""time""
""fullscreenenter"",""0"",""4435""
","
","null","<p></p>","null","","","","","","","","","","","","","","","","","","","","","","","",""
"","do_trial","65","253546","0.0-42.0-0.0","""event"",""trial"",""time""
""fullscreenenter"",""0"",""4435""
","
","
","""event"",""trial"",""time""
""fullscreenenter"",""0"",""4435""
","
","457.7000000476837","","","","","","","","50","0,0,0","6","blank","253","null","0.7255737766562821","0.18218452721266637","0.09443647329408812","0","","","","","","","","",""
"","html-keyboard-response","66","254548","0.0-42.0-1.0","""event"",""trial"",""time""
""fullscreenenter"",""0"",""4435""
","
","
","""event"",""trial"",""time""
""fullscreenenter"",""0"",""4435""
","
","null","<p></p>","null","","","","","","","","","","","","","","","","","","","","","","","",""
"","do_trial","67","257348","0.0-43.0-0.0","""event"",""trial"",""time""
""fullscreenenter"",""0"",""4435""
","
","
","""event"",""trial"",""time""
""fullscreenenter"",""0"",""4435""
","
","272","","","","","","","","49","1,0,0","6","blank","254","null","0.8157978721581376","0.076633061773117","0.10688887706479586","1","","","","","","","","",""
"","html-keyboard-response","68","258350","0.0-43.0-1.0","""event"",""trial"",""time""
""fullscreenenter"",""0"",""4435""
","
","
","""event"",""trial"",""time""
""fullscreenenter"",""0"",""4435""
","
","null","<p></p>","null","","","","","","","","","","","","","","","","","","","","","","","",""
"","do_trial","69","261165","0.0-44.0-0.0","""event"",""trial"",""time""
""fullscreenenter"",""0"",""4435""
","
","
","""event"",""trial"",""time""
""fullscreenenter"",""0"",""4435""
","
","278.89999997615814","","","","","","","","49","1,1,0","6","blank","255","null","0.7668995294761737","0.23917788807911997","0.23973495808664125","1","","","","","","","","",""
"","html-keyboard-response","70","262172","0.0-44.0-1.0","""event"",""trial"",""time""
""fullscreenenter"",""0"",""4435""
","
","
","""event"",""trial"",""time""
""fullscreenenter"",""0"",""4435""
","
","null","<p></p>","null","","","","","","","","","","","","","","","","","","","","","","","",""
"","do_trial","71","265377","0.0-45.0-0.0","""event"",""trial"",""time""
""fullscreenenter"",""0"",""4435""
","
","
","""event"",""trial"",""time""
""fullscreenenter"",""0"",""4435""
","
","673","","","","","","","","49","1,0,0","6","blank","256","null","0.6389611611927888","0.29019821269034496","0.126602677838165","1","","","","","","","","",""
"","html-keyboard-response","72","266385","0.0-45.0-1.0","""event"",""trial"",""time""
""fullscreenenter"",""0"",""4435""
","
","
","""event"",""trial"",""time""
""fullscreenenter"",""0"",""4435""
","
","null","<p></p>","null","","","","","","","","","","","","","","","","","","","","","","","",""
"","do_trial","73","269285","0.0-46.0-0.0","""event"",""trial"",""time""
""fullscreenenter"",""0"",""4435""
","
","
","""event"",""trial"",""time""
""fullscreenenter"",""0"",""4435""
","
","362.5","","","","","","","","49","1,0,0","6","blank","257","null","0.6702334371120203","0.10726880583566889","0.1311158401073769","1","","","","","","","","",""
"","html-keyboard-response","74","270287","0.0-46.0-1.0","""event"",""trial"",""time""
""fullscreenenter"",""0"",""4435""
","
","
","""event"",""trial"",""time""
""fullscreenenter"",""0"",""4435""
","
","null","<p></p>","null","","","","","","","","","","","","","","","","","","","","","","","",""
"","do_trial","75","273135","0.0-47.0-0.0","""event"",""trial"",""time""
""fullscreenenter"",""0"",""4435""
","
","
","""event"",""trial"",""time""
""fullscreenenter"",""0"",""4435""
","
","317.89999997615814","","","","","","","","51","0,1,0","6","blank","258","null","0.6181722071229473","0.11771374070574556","0.128515015468183","0","","","","","","","","",""
"","html-keyboard-response","76","274149","0.0-47.0-1.0","""event"",""trial"",""time""
""fullscreenenter"",""0"",""4435""
","
","
","""event"",""trial"",""time""
""fullscreenenter"",""0"",""4435""
","
","null","<p></p>","null","","","","","","","","","","","","","","","","","","","","","","","",""
"","do_recog","77","276285","0.0-48.0-0.0","""event"",""trial"",""time""
""fullscreenenter"",""0"",""4435""
","
","
","""event"",""trial"",""time""
""fullscreenenter"",""0"",""4435""
","
","624.3000000715256","","","","","","","","54","","","","259","probe-239","","","","","0","[object Object]","null","null","0","","","",""
"","html-keyboard-response","78","277295","0.0-48.0-1.0","""event"",""trial"",""time""
""fullscreenenter"",""0"",""4435""
","
","
","""event"",""trial"",""time""
""fullscreenenter"",""0"",""4435""
","
","null","<p></p>","null","","","","","","","","","","","","","","","","","","","","","","","",""
"","do_trial","79","280136","0.0-49.0-0.0","""event"",""trial"",""time""
""fullscreenenter"",""0"",""4435""
","
","
","""event"",""trial"",""time""
""fullscreenenter"",""0"",""4435""
","
","299","","","","","","","","49","1,0,0","6","blank","260","null","0.5898602520729304","0.211892360681338","0.07336162818522393","1","","","","","","","","",""
"","html-keyboard-response","80","281148","0.0-49.0-1.0","""event"",""trial"",""time""
""fullscreenenter"",""0"",""4435""
","
","
","""event"",""trial"",""time""
""fullscreenenter"",""0"",""4435""
","
","null","<p></p>","null","","","","","","","","","","","","","","","","","","","","","","","",""
"","do_trial","81","284327","0.0-50.0-0.0","""event"",""trial"",""time""
""fullscreenenter"",""0"",""4435""
","
","
","""event"",""trial"",""time""
""fullscreenenter"",""0"",""4435""
","
","646.5","","","","","","","","49","0,0,0","6","blank","261","null","0.5365485239941576","0.25625208494697344","0.19030147554382681","0","","","","","","","","",""
"","html-keyboard-response","82","285338","0.0-50.0-1.0","""event"",""trial"",""time""
""fullscreenenter"",""0"",""4435""
","
","
","""event"",""trial"",""time""
""fullscreenenter"",""0"",""4435""
","
","null","<p></p>","null","","","","","","","","","","","","","","","","","","","","","","","",""
"","do_trial","83","288175","0.0-51.0-0.0","""event"",""trial"",""time""
""fullscreenenter"",""0"",""4435""
","
","
","""event"",""trial"",""time""
""fullscreenenter"",""0"",""4435""
","
","303","","","","","","","","49","0,0,0","6","blank","262","null","0.4370788463566004","0.21907505582234074","0.12056680684374191","0","","","","","","","","",""
"","html-keyboard-response","84","289181","0.0-51.0-1.0","""event"",""trial"",""time""
""fullscreenenter"",""0"",""4435""
","
","
","""event"",""trial"",""time""
""fullscreenenter"",""0"",""4435""
","
","null","<p></p>","null","","","","","","","","","","","","","","","","","","","","","","","",""
"","do_trial","85","291958","0.0-52.0-0.0","""event"",""trial"",""time""
""fullscreenenter"",""0"",""4435""
","
","
","""event"",""trial"",""time""
""fullscreenenter"",""0"",""4435""
","
","240.5","","","","","","","","50","0,0,0","6","blank","263","null","0.4529103758318099","0.12580329302740806","0.4056576758651916","0","","","","","","","","",""
"","html-keyboard-response","86","292960","0.0-52.0-1.0","""event"",""trial"",""time""
""fullscreenenter"",""0"",""4435""
","
","
","""event"",""trial"",""time""
""fullscreenenter"",""0"",""4435""
","
","null","<p></p>","null","","","","","","","","","","","","","","","","","","","","","","","",""
"","do_trial","87","295775","0.0-53.0-0.0","""event"",""trial"",""time""
""fullscreenenter"",""0"",""4435""
","
","
","""event"",""trial"",""time""
""fullscreenenter"",""0"",""4435""
","
","277.5","","","","","","","","50","1,0,0","6","blank","264","null","0.4206717277815972","0.2602402212388292","0.26494387820462584","0","","","","","","","","",""
"","html-keyboard-response","88","296778","0.0-53.0-1.0","""event"",""trial"",""time""
""fullscreenenter"",""0"",""4435""
","
","
","""event"",""trial"",""time""
""fullscreenenter"",""0"",""4435""
","
","null","<p></p>","null","","","","","","","","","","","","","","","","","","","","","","","",""
"","do_trial","89","299615","0.0-54.0-0.0","""event"",""trial"",""time""
""fullscreenenter"",""0"",""4435""
","
","
","""event"",""trial"",""time""
""fullscreenenter"",""0"",""4435""
","
","300.1999999284744","","","","","","","","51","0,0,1","6","blank","265","null","0.36833807458263834","0.2746530456639592","0.2418565072331756","1","","","","","","","","",""
"","html-keyboard-response","90","300621","0.0-54.0-1.0","""event"",""trial"",""time""
""fullscreenenter"",""0"",""4435""
","
","
","""event"",""trial"",""time""
""fullscreenenter"",""0"",""4435""
","
","null","<p></p>","null","","","","","","","","","","","","","","","","","","","","","","","",""
"","do_recog","91","303413","0.0-55.0-0.0","""event"",""trial"",""time""
""fullscreenenter"",""0"",""4435""
","
","
","""event"",""trial"",""time""
""fullscreenenter"",""0"",""4435""
","
","1286.8999999761581","","","","","","","","56","","","","266","probe-131","","","","","1","[object Object]","36","0","0","","","",""
"","html-keyboard-response","92","304419","0.0-55.0-1.0","""event"",""trial"",""time""
""fullscreenenter"",""0"",""4435""
","
","
","""event"",""trial"",""time""
""fullscreenenter"",""0"",""4435""
","
","null","<p></p>","null","","","","","","","","","","","","","","","","","","","","","","","",""
"","do_trial","93","307263","0.0-56.0-0.0","""event"",""trial"",""time""
""fullscreenenter"",""0"",""4435""
","
","
","""event"",""trial"",""time""
""fullscreenenter"",""0"",""4435""
","
","308.60000002384186","","","","","","","","51","0,0,0","6","blank","267","null","0.39093870588678903","0.2217429814467173","0.09876812603650774","0","","","","","","","","",""
"","html-keyboard-response","94","308276","0.0-56.0-1.0","""event"",""trial"",""time""
""fullscreenenter"",""0"",""4435""
","
","
","""event"",""trial"",""time""
""fullscreenenter"",""0"",""4435""
","
","null","<p></p>","null","","","","","","","","","","","","","","","","","","","","","","","",""
"","do_trial","95","311044","0.0-57.0-0.0","""event"",""trial"",""time""
""fullscreenenter"",""0"",""4435""
","
","
","""event"",""trial"",""time""
""fullscreenenter"",""0"",""4435""
","
","225.29999995231628","","","","","","","","51","0,1,0","6","blank","268","null","0.45294679582316755","0.37144375203696073","0.1123269769622497","0","","","","","","","","",""
"","html-keyboard-response","96","312056","0.0-57.0-1.0","""event"",""trial"",""time""
""fullscreenenter"",""0"",""4435""
","
","
","""event"",""trial"",""time""
""fullscreenenter"",""0"",""4435""
","
","null","<p></p>","null","","","","","","","","","","","","","","","","","","","","","","","",""
"","break","97","313954","0.0-58.0-0.0","""event"",""trial"",""time""
""fullscreenenter"",""0"",""4435""
","
","
","""event"",""trial"",""time""
""fullscreenenter"",""0"",""4435""
","
","1896.1999999284744","<div class='center'><p>Time to take a quick break! You have 2 minutes to rest, but you can move on sooner if you'd like.</p><p> Press the <b>space bar</b> to continue.</p></div>","32","","","","","","","","","","","","","","","","","","","","","","","",""
"","do_trial","98","317135","0.0-58.0-1.0","""event"",""trial"",""time""
""fullscreenenter"",""0"",""4435""
","
","
","""event"",""trial"",""time""
""fullscreenenter"",""0"",""4435""
","
","651.9000000953674","","","","","","","","50","1,0,0","6","blank","269","null","0.3925527084710434","0.3383598257706534","0.08908105373181523","0","","","","","","","","",""
"","html-keyboard-response","99","318143","0.0-58.0-2.0","""event"",""trial"",""time""
""fullscreenenter"",""0"",""4435""
","
","
","""event"",""trial"",""time""
""fullscreenenter"",""0"",""4435""
","
","null","<p></p>","null","","","","","","","","","","","","","","","","","","","","","","","",""
"","do_trial","100","320690","0.0-59.0-0.0","""event"",""trial"",""time""
""fullscreenenter"",""0"",""4435""
","
","
","""event"",""trial"",""time""
""fullscreenenter"",""0"",""4435""
","
","13.5","","","","","","","","50","0,1,0","6","blank","270","null","0.43407127215023095","0.4084190610821548","0.12700907522337082","1","","","","","","","","",""
"","html-keyboard-response","101","321697","0.0-59.0-1.0","""event"",""trial"",""time""
""fullscreenenter"",""0"",""4435""
","
","
","""event"",""trial"",""time""
""fullscreenenter"",""0"",""4435""
","
","null","<p></p>","null","","","","","","","","","","","","","","","","","","","","","","","",""
"","do_trial","102","324614","0.0-60.0-0.0","""event"",""trial"",""time""
""fullscreenenter"",""0"",""4435""
","
","
","""event"",""trial"",""time""
""fullscreenenter"",""0"",""4435""
","
","378.10000002384186","","","","","","","","50","1,1,0","6","blank","271","null","0.40080940520778074","0.3341324038706262","0.09284959200930548","1","","","","","","","","",""
"","html-keyboard-response","103","325616","0.0-60.0-1.0","""event"",""trial"",""time""
""fullscreenenter"",""0"",""4435""
","
","
","""event"",""trial"",""time""
""fullscreenenter"",""0"",""4435""
","
","null","<p></p>","null","","","","","","","","","","","","","","","","","","","","","","","",""
"","do_trial","104","328522","0.0-61.0-0.0","""event"",""trial"",""time""
""fullscreenenter"",""0"",""4435""
","
","
","""event"",""trial"",""time""
""fullscreenenter"",""0"",""4435""
","
","367.60000002384186","","","","","","","","50","1,1,0","6","blank","272","null","0.4781074699632636","0.36329936962569004","0.0874619882794818","1","","","","","","","","",""
"","html-keyboard-response","105","329523","0.0-61.0-1.0","""event"",""trial"",""time""
""fullscreenenter"",""0"",""4435""
","
","
","""event"",""trial"",""time""
""fullscreenenter"",""0"",""4435""
","
","null","<p></p>","null","","","","","","","","","","","","","","","","","","","","","","","",""
"","do_recog","106","332146","0.0-62.0-0.0","""event"",""trial"",""time""
""fullscreenenter"",""0"",""4435""
","
","
","""event"",""trial"",""time""
""fullscreenenter"",""0"",""4435""
","
","1114.6999999284744","","","","","","","","56","","","","273","probe-243","","","","","0","[object Object]","null","null","1","","","",""
"","html-keyboard-response","107","333158","0.0-62.0-1.0","""event"",""trial"",""time""
""fullscreenenter"",""0"",""4435""
","
","
","""event"",""trial"",""time""
""fullscreenenter"",""0"",""4435""
","
","null","<p></p>","null","","","","","","","","","","","","","","","","","","","","","","","",""
"","do_trial","108","336035","0.0-63.0-0.0","""event"",""trial"",""time""
""fullscreenenter"",""0"",""4435""
","
","
","""event"",""trial"",""time""
""fullscreenenter"",""0"",""4435""
","
","338.5","","","","","","","","50","0,1,0","6","blank","274","null","0.3363762146312274","0.4658096657178602","0.06722254327038936","1","","","","","","","","",""
"","html-keyboard-response","109","337037","0.0-63.0-1.0","""event"",""trial"",""time""
""fullscreenenter"",""0"",""4435""
","
","
","""event"",""trial"",""time""
""fullscreenenter"",""0"",""4435""
","
","null","<p></p>","null","","","","","","","","","","","","","","","","","","","","","","","",""
"","do_trial","110","340018","0.0-64.0-0.0","""event"",""trial"",""time""
""fullscreenenter"",""0"",""4435""
","
","
","""event"",""trial"",""time""
""fullscreenenter"",""0"",""4435""
","
","448.39999997615814","","","","","","","","50","1,1,0","6","blank","275","null","0.5666532080850499","0.45632517621917934","0.0600422228830827","1","","","","","","","","",""
"","html-keyboard-response","111","341027","0.0-64.0-1.0","""event"",""trial"",""time""
""fullscreenenter"",""0"",""4435""
","
","
","""event"",""trial"",""time""
""fullscreenenter"",""0"",""4435""
","
","null","<p></p>","null","","","","","","","","","","","","","","","","","","","","","","","",""
"","do_recog","112","344707","0.0-65.0-0.0","""event"",""trial"",""time""
""fullscreenenter"",""0"",""4435""
","
","
","""event"",""trial"",""time""
""fullscreenenter"",""0"",""4435""
","
","2170.5","","","","","","","","54","","","","276","probe-165","","","","","1","[object Object]","31","0","1","","","",""
"","html-keyboard-response","113","345717","0.0-65.0-1.0","""event"",""trial"",""time""
""fullscreenenter"",""0"",""4435""
","
","
","""event"",""trial"",""time""
""fullscreenenter"",""0"",""4435""
","
","null","<p></p>","null","","","","","","","","","","","","","","","","","","","","","","","",""
"","do_trial","114","348628","0.0-66.0-0.0","""event"",""trial"",""time""
""fullscreenenter"",""0"",""4435""
","
","
","""event"",""trial"",""time""
""fullscreenenter"",""0"",""4435""
","
","376.7999999523163","","","","","","","","49","0,1,0","6","blank","277","null","0.5097701758733566","0.41936662825556936","0.12623464479310775","0","","","","","","","","",""
"","html-keyboard-response","115","349636","0.0-66.0-1.0","""event"",""trial"",""time""
""fullscreenenter"",""0"",""4435""
","
","
","""event"",""trial"",""time""
""fullscreenenter"",""0"",""4435""
","
","null","<p></p>","null","","","","","","","","","","","","","","","","","","","","","","","",""
"","do_trial","116","352439","0.0-67.0-0.0","""event"",""trial"",""time""
""fullscreenenter"",""0"",""4435""
","
","
","""event"",""trial"",""time""
""fullscreenenter"",""0"",""4435""
","
","263.60000002384186","","","","","","","","49","1,0,0","6","blank","278","null","0.5901254331387112","0.3889835271739671","0.05834880159629528","1","","","","","","","","",""
"","html-keyboard-response","117","353441","0.0-67.0-1.0","""event"",""trial"",""time""
""fullscreenenter"",""0"",""4435""
","
","
","""event"",""trial"",""time""
""fullscreenenter"",""0"",""4435""
","
","null","<p></p>","null","","","","","","","","","","","","","","","","","","","","","","","",""
"","do_trial","118","356389","0.0-68.0-0.0","""event"",""trial"",""time""
""fullscreenenter"",""0"",""4435""
","
","
","""event"",""trial"",""time""
""fullscreenenter"",""0"",""4435""
","
","418.59999990463257","","","","","","","","49","0,0,0","6","blank","279","null","0.6064046842520694","0.2695442327641866","0.053197121108669684","0","","","","","","","","",""
"","html-keyboard-response","119","357392","0.0-68.0-1.0","""event"",""trial"",""time""
""fullscreenenter"",""0"",""4435""
","
","
","""event"",""trial"",""time""
""fullscreenenter"",""0"",""4435""
","
","null","<p></p>","null","","","","","","","","","","","","","","","","","","","","","","","",""
"","do_trial","120","360495","0.0-69.0-0.0","""event"",""trial"",""time""
""fullscreenenter"",""0"",""4435""
","
","
","""event"",""trial"",""time""
""fullscreenenter"",""0"",""4435""
","
","571.3999999761581","","","","","","","","50","0,0,0","6","blank","280","null","0.5554882571444724","0.20288621024569928","0.0551843755452762","0","","","","","","","","",""
"","html-keyboard-response","121","361503","0.0-69.0-1.0","""event"",""trial"",""time""
""fullscreenenter"",""0"",""4435""
","
","
","""event"",""trial"",""time""
""fullscreenenter"",""0"",""4435""
","
","null","<p></p>","null","","","","","","","","","","","","","","","","","","","","","","","",""
"","do_trial","122","364474","0.0-70.0-0.0","""event"",""trial"",""time""
""fullscreenenter"",""0"",""4435""
","
","
","""event"",""trial"",""time""
""fullscreenenter"",""0"",""4435""
","
","432.2999999523163","","","","","","","","51","1,0,0","6","blank","281","null","0.5745264291577258","0.2309840993205087","0.13315741204736337","0","","","","","","","","",""
"","html-keyboard-response","123","365480","0.0-70.0-1.0","""event"",""trial"",""time""
""fullscreenenter"",""0"",""4435""
","
","
","""event"",""trial"",""time""
""fullscreenenter"",""0"",""4435""
","
","null","<p></p>","null","","","","","","","","","","","","","","","","","","","","","","","",""
"","do_trial","124","368611","0.0-71.0-0.0","""event"",""trial"",""time""
""fullscreenenter"",""0"",""4435""
","
","
","""event"",""trial"",""time""
""fullscreenenter"",""0"",""4435""
","
","595.7000000476837","","","","","","","","49","1,0,1","6","blank","282","null","0.5715747456750957","0.22135653929401888","0.11209442703464474","1","","","","","","","","",""
"","html-keyboard-response","125","369614","0.0-71.0-1.0","""event"",""trial"",""time""
""fullscreenenter"",""0"",""4435""
","
","
","""event"",""trial"",""time""
""fullscreenenter"",""0"",""4435""
","
","null","<p></p>","null","","","","","","","","","","","","","","","","","","","","","","","",""
"","do_trial","126","372612","0.0-72.0-0.0","""event"",""trial"",""time""
""fullscreenenter"",""0"",""4435""
","
","
","""event"",""trial"",""time""
""fullscreenenter"",""0"",""4435""
","
","461.3000000715256","","","","","","","","49","1,1,0","6","blank","283","null","0.4537637744628995","0.2875277830724297","0.05596250307437429","1","","","","","","","","",""
"","html-keyboard-response","127","373616","0.0-72.0-1.0","""event"",""trial"",""time""
""fullscreenenter"",""0"",""4435""
","
","
","""event"",""trial"",""time""
""fullscreenenter"",""0"",""4435""
","
","null","<p></p>","null","","","","","","","","","","","","","","","","","","","","","","","",""
"","do_recog","128","376184","0.0-73.0-0.0","""event"",""trial"",""time""
""fullscreenenter"",""0"",""4435""
","
","
","""event"",""trial"",""time""
""fullscreenenter"",""0"",""4435""
","
","1057.1999999284744","","","","","","","","53","","","","284","probe-246","","","","","0","[object Object]","null","null","0","","","",""
"","html-keyboard-response","129","377195","0.0-73.0-1.0","""event"",""trial"",""time""
""fullscreenenter"",""0"",""4435""
","
","
","""event"",""trial"",""time""
""fullscreenenter"",""0"",""4435""
","
","null","<p></p>","null","","","","","","","","","","","","","","","","","","","","","","","",""
"","do_trial","130","380065","0.0-74.0-0.0","""event"",""trial"",""time""
""fullscreenenter"",""0"",""4435""
","
","
","""event"",""trial"",""time""
""fullscreenenter"",""0"",""4435""
","
","323.6999999284744","","","","","","","","49","1,1,0","6","blank","285","null","0.6703960377045233","0.17827439230979766","0.05492329573597369","1","","","","","","","","",""
"","html-keyboard-response","131","381070","0.0-74.0-1.0","""event"",""trial"",""time""
""fullscreenenter"",""0"",""4435""
","
","
","""event"",""trial"",""time""
""fullscreenenter"",""0"",""4435""
","
","null","<p></p>","null","","","","","","","","","","","","","","","","","","","","","","","",""
"","do_recog","132","383481","0.0-75.0-0.0","""event"",""trial"",""time""
""fullscreenenter"",""0"",""4435""
","
","
","""event"",""trial"",""time""
""fullscreenenter"",""0"",""4435""
","
","906.2000000476837","","","","","","","","53","","","","286","probe-170","","","","","1","[object Object]","35","0","1","","","",""
"","html-keyboard-response","133","384483","0.0-75.0-1.0","""event"",""trial"",""time""
""fullscreenenter"",""0"",""4435""
","
","
","""event"",""trial"",""time""
""fullscreenenter"",""0"",""4435""
","
","null","<p></p>","null","","","","","","","","","","","","","","","","","","","","","","","",""
"","do_trial","134","387488","0.0-76.0-0.0","""event"",""trial"",""time""
""fullscreenenter"",""0"",""4435""
","
","
","""event"",""trial"",""time""
""fullscreenenter"",""0"",""4435""
","
","462.2999999523163","","","","","","","","49","0,0,0","6","blank","287","null","0.6112156381955457","0.18118760540577797","0.1316212637620812","0","","","","","","","","",""
"","html-keyboard-response","135","388497","0.0-76.0-1.0","""event"",""trial"",""time""
""fullscreenenter"",""0"",""4435""
","
","
","""event"",""trial"",""time""
""fullscreenenter"",""0"",""4435""
","
","null","<p></p>","null","","","","","","","","","","","","","","","","","","","","","","","",""
"","do_recog","136","391004","0.0-77.0-0.0","""event"",""trial"",""time""
""fullscreenenter"",""0"",""4435""
","
","
","""event"",""trial"",""time""
""fullscreenenter"",""0"",""4435""
","
","1001.2999999523163","","","","","","","","56","","","","288","probe-233","","","","","0","[object Object]","null","null","1","","","",""
"","html-keyboard-response","137","392013","0.0-77.0-1.0","""event"",""trial"",""time""
""fullscreenenter"",""0"",""4435""
","
","
","""event"",""trial"",""time""
""fullscreenenter"",""0"",""4435""
","
","null","<p></p>","null","","","","","","","","","","","","","","","","","","","","","","","",""
"","do_trial","138","394867","0.0-78.0-0.0","""event"",""trial"",""time""
""fullscreenenter"",""0"",""4435""
","
","
","""event"",""trial"",""time""
""fullscreenenter"",""0"",""4435""
","
","324","","","","","","","","49","1,0,0","6","blank","289","null","0.5438685452683092","0.20685874115707767","0.15935005266127752","1","","","","","","","","",""
"","html-keyboard-response","139","395870","0.0-78.0-1.0","""event"",""trial"",""time""
""fullscreenenter"",""0"",""4435""
","
","
","""event"",""trial"",""time""
""fullscreenenter"",""0"",""4435""
","
","null","<p></p>","null","","","","","","","","","","","","","","","","","","","","","","","",""
"","do_trial","140","398858","0.0-79.0-0.0","""event"",""trial"",""time""
""fullscreenenter"",""0"",""4435""
","
","
","""event"",""trial"",""time""
""fullscreenenter"",""0"",""4435""
","
","456.7000000476837","","","","","","","","49","1,0,1","6","blank","290","null","0.5969022399814897","0.27727060836177797","0.0682146113207552","1","","","","","","","","",""
"","html-keyboard-response","141","399863","0.0-79.0-1.0","""event"",""trial"",""time""
""fullscreenenter"",""0"",""4435""
","
","
","""event"",""trial"",""time""
""fullscreenenter"",""0"",""4435""
","
","null","<p></p>","null","","","","","","","","","","","","","","","","","","","","","","","",""
"","do_trial","142","402828","0.0-80.0-0.0","""event"",""trial"",""time""
""fullscreenenter"",""0"",""4435""
","
","
","""event"",""trial"",""time""
""fullscreenenter"",""0"",""4435""
","
","426.5","","","","","","","","49","1,1,0","6","blank","291","null","0.3715684422484071","0.39744414084626767","0.08796508267752011","1","","","","","","","","",""
"","html-keyboard-response","143","403835","0.0-80.0-1.0","""event"",""trial"",""time""
""fullscreenenter"",""0"",""4435""
","
","
","""event"",""trial"",""time""
""fullscreenenter"",""0"",""4435""
","
","null","<p></p>","null","","","","","","","","","","","","","","","","","","","","","","","",""
"","do_recog","144","406506","0.0-81.0-0.0","""event"",""trial"",""time""
""fullscreenenter"",""0"",""4435""
","
","
","""event"",""trial"",""time""
""fullscreenenter"",""0"",""4435""
","
","1158.3999999761581","","","","","","","","53","","","","292","probe-171","","","","","1","[object Object]","32","0","1","","","",""
"","html-keyboard-response","145","407508","0.0-81.0-1.0","""event"",""trial"",""time""
""fullscreenenter"",""0"",""4435""
","
","
","""event"",""trial"",""time""
""fullscreenenter"",""0"",""4435""
","
","null","<p></p>","null","","","","","","","","","","","","","","","","","","","","","","","",""
"","do_trial","146","410427","0.0-82.0-0.0","""event"",""trial"",""time""
""fullscreenenter"",""0"",""4435""
","
","
","""event"",""trial"",""time""
""fullscreenenter"",""0"",""4435""
","
","384","","","","","","","","49","1,0,0","6","blank","293","null","0.3556660632922122","0.4200106008115917","0.12099444881604511","1","","","","","","","","",""
"","html-keyboard-response","147","411437","0.0-82.0-1.0","""event"",""trial"",""time""
""fullscreenenter"",""0"",""4435""
","
","
","""event"",""trial"",""time""
""fullscreenenter"",""0"",""4435""
","
","null","<p></p>","null","","","","","","","","","","","","","","","","","","","","","","","",""
"","do_recog","148","414139","0.0-83.0-0.0","""event"",""trial"",""time""
""fullscreenenter"",""0"",""4435""
","
","
","""event"",""trial"",""time""
""fullscreenenter"",""0"",""4435""
","
","1195.7999999523163","","","","","","","","53","","","","294","probe-76","","","","","1","[object Object]","71","1","1","","","",""
"","html-keyboard-response","149","415141","0.0-83.0-1.0","""event"",""trial"",""time""
""fullscreenenter"",""0"",""4435""
","
","
","""event"",""trial"",""time""
""fullscreenenter"",""0"",""4435""
","
","null","<p></p>","null","","","","","","","","","","","","","","","","","","","","","","","",""
"","do_trial","150","418276","0.0-84.0-0.0","""event"",""trial"",""time""
""fullscreenenter"",""0"",""4435""
","
","
","""event"",""trial"",""time""
""fullscreenenter"",""0"",""4435""
","
","596.8999999761581","","","","","","","","50","0,1,0","6","blank","295","null","0.3544096343291341","0.3637648566246913","0.1500588266033469","1","","","","","","","","",""
"","html-keyboard-response","151","419279","0.0-84.0-1.0","""event"",""trial"",""time""
""fullscreenenter"",""0"",""4435""
","
","
","""event"",""trial"",""time""
""fullscreenenter"",""0"",""4435""
","
","null","<p></p>","null","","","","","","","","","","","","","","","","","","","","","","","",""
"","do_trial","152","422133","0.0-85.0-0.0","""event"",""trial"",""time""
""fullscreenenter"",""0"",""4435""
","
","
","""event"",""trial"",""time""
""fullscreenenter"",""0"",""4435""
","
","311.5","","","","","","","","50","0,1,0","6","blank","296","null","0.24352337988773212","0.5037504255874835","0.12187570592753533","1","","","","","","","","",""
"","html-keyboard-response","153","423140","0.0-85.0-1.0","""event"",""trial"",""time""
""fullscreenenter"",""0"",""4435""
","
","
","""event"",""trial"",""time""
""fullscreenenter"",""0"",""4435""
","
","null","<p></p>","null","","","","","","","","","","","","","","","","","","","","","","","",""
"","do_trial","154","426044","0.0-86.0-0.0","""event"",""trial"",""time""
""fullscreenenter"",""0"",""4435""
","
","
","""event"",""trial"",""time""
""fullscreenenter"",""0"",""4435""
","
","373.39999997615814","","","","","","","","50","0,1,1","6","blank","297","null","0.26101384745459916","0.4916757144598234","0.0859754961780916","1","","","","","","","","",""
"","html-keyboard-response","155","427047","0.0-86.0-1.0","""event"",""trial"",""time""
""fullscreenenter"",""0"",""4435""
","
","
","""event"",""trial"",""time""
""fullscreenenter"",""0"",""4435""
","
","null","<p></p>","null","","","","","","","","","","","","","","","","","","","","","","","",""
"","do_recog","156","429675","0.0-87.0-0.0","""event"",""trial"",""time""
""fullscreenenter"",""0"",""4435""
","
","
","""event"",""trial"",""time""
""fullscreenenter"",""0"",""4435""
","
","1115.5","","","","","","","","53","","","","298","probe-101","","","","","1","[object Object]","155","3","1","","","",""
"","html-keyboard-response","157","430677","0.0-87.0-1.0","""event"",""trial"",""time""
""fullscreenenter"",""0"",""4435""
","
","
","""event"",""trial"",""time""
""fullscreenenter"",""0"",""4435""
","
","null","<p></p>","null","","","","","","","","","","","","","","","","","","","","","","","",""
"","do_trial","158","433561","0.0-88.0-0.0","""event"",""trial"",""time""
""fullscreenenter"",""0"",""4435""
","
","
","""event"",""trial"",""time""
""fullscreenenter"",""0"",""4435""
","
","343.60000002384186","","","","","","","","50","0,0,0","6","blank","299","null","0.3062450717374619","0.5303400369661214","0.09776802684505825","0","","","","","","","","",""
"","html-keyboard-response","159","434564","0.0-88.0-1.0","""event"",""trial"",""time""
""fullscreenenter"",""0"",""4435""
","
","
","""event"",""trial"",""time""
""fullscreenenter"",""0"",""4435""
","
","null","<p></p>","null","","","","","","","","","","","","","","","","","","","","","","","",""
"","do_trial","160","437343","0.0-89.0-0.0","""event"",""trial"",""time""
""fullscreenenter"",""0"",""4435""
","
","
","""event"",""trial"",""time""
""fullscreenenter"",""0"",""4435""
","
","240","","","","","","","","51","0,1,0","6","blank","300","null","0.14348534024638274","0.5452689646784473","0.10867314822216052","0","","","","","","","","",""
"","html-keyboard-response","161","438346","0.0-89.0-1.0","""event"",""trial"",""time""
""fullscreenenter"",""0"",""4435""
","
","
","""event"",""trial"",""time""
""fullscreenenter"",""0"",""4435""
","
","null","<p></p>","null","","","","","","","","","","","","","","","","","","","","","","","",""
"","do_trial","162","441178","0.0-90.0-0.0","""event"",""trial"",""time""
""fullscreenenter"",""0"",""4435""
","
","
","""event"",""trial"",""time""
""fullscreenenter"",""0"",""4435""
","
","289.2999999523163","","","","","","","","51","0,1,0","6","blank","301","null","0.2502426761003012","0.6447889476036711","0.1303705738456547","0","","","","","","","","",""
"","html-keyboard-response","163","442189","0.0-90.0-1.0","""event"",""trial"",""time""
""fullscreenenter"",""0"",""4435""
","
","
","""event"",""trial"",""time""
""fullscreenenter"",""0"",""4435""
","
","null","<p></p>","null","","","","","","","","","","","","","","","","","","","","","","","",""
"","do_trial","164","445082","0.0-91.0-0.0","""event"",""trial"",""time""
""fullscreenenter"",""0"",""4435""
","
","
","""event"",""trial"",""time""
""fullscreenenter"",""0"",""4435""
","
","360.8000000715256","","","","","","","","49","0,1,1","6","blank","302","null","0.2399023931125213","0.5836036739186187","0.18037445809384028","0","","","","","","","","",""
"","html-keyboard-response","165","446086","0.0-91.0-1.0","""event"",""trial"",""time""
""fullscreenenter"",""0"",""4435""
","
","
","""event"",""trial"",""time""
""fullscreenenter"",""0"",""4435""
","
","null","<p></p>","null","","","","","","","","","","","","","","","","","","","","","","","",""
"","do_trial","166","448883","0.0-92.0-0.0","""event"",""trial"",""time""
""fullscreenenter"",""0"",""4435""
","
","
","""event"",""trial"",""time""
""fullscreenenter"",""0"",""4435""
","
","266.3000000715256","","","","","","","","49","0,1,0","6","blank","303","null","0.21504232195790757","0.6361034913124212","0.08344622699530399","0","","","","","","","","",""
"","html-keyboard-response","167","449885","0.0-92.0-1.0","""event"",""trial"",""time""
""fullscreenenter"",""0"",""4435""
","
","
","""event"",""trial"",""time""
""fullscreenenter"",""0"",""4435""
","
","null","<p></p>","null","","","","","","","","","","","","","","","","","","","","","","","",""
"","do_trial","168","452798","0.0-93.0-0.0","""event"",""trial"",""time""
""fullscreenenter"",""0"",""4435""
","
","
","""event"",""trial"",""time""
""fullscreenenter"",""0"",""4435""
","
","380.5","","","","","","","","49","0,0,0","6","blank","304","null","0.3864796660961832","0.6136286522099093","0.15679894935481425","0","","","","","","","","",""
"","html-keyboard-response","169","453800","0.0-93.0-1.0","""event"",""trial"",""time""
""fullscreenenter"",""0"",""4435""
","
","
","""event"",""trial"",""time""
""fullscreenenter"",""0"",""4435""
","
","null","<p></p>","null","","","","","","","","","","","","","","","","","","","","","","","",""
"","do_recog","170","456250","0.0-94.0-0.0","""event"",""trial"",""time""
""fullscreenenter"",""0"",""4435""
","
","
","""event"",""trial"",""time""
""fullscreenenter"",""0"",""4435""
","
","930.7999999523163","","","","","","","","53","","","","305","probe-21","","","","","1","[object Object]","37","0","1","","","",""
"","html-keyboard-response","171","457252","0.0-94.0-1.0","""event"",""trial"",""time""
""fullscreenenter"",""0"",""4435""
","
","
","""event"",""trial"",""time""
""fullscreenenter"",""0"",""4435""
","
","null","<p></p>","null","","","","","","","","","","","","","","","","","","","","","","","",""
"","do_trial","172","460053","0.0-95.0-0.0","""event"",""trial"",""time""
""fullscreenenter"",""0"",""4435""
","
","
","""event"",""trial"",""time""
""fullscreenenter"",""0"",""4435""
","
","269.10000002384186","","","","","","","","50","0,1,0","6","blank","306","null","0.3435238270386553","0.7193220646916809","0.15936820017834502","1","","","","","","","","",""
"","html-keyboard-response","173","461056","0.0-95.0-1.0","""event"",""trial"",""time""
""fullscreenenter"",""0"",""4435""
","
","
","""event"",""trial"",""time""
""fullscreenenter"",""0"",""4435""
","
","null","<p></p>","null","","","","","","","","","","","","","","","","","","","","","","","",""
"","do_recog","174","463449","0.0-96.0-0.0","""event"",""trial"",""time""
""fullscreenenter"",""0"",""4435""
","
","
","""event"",""trial"",""time""
""fullscreenenter"",""0"",""4435""
","
","883.3000000715256","","","","","","","","56","","","","307","probe-144","","","","","1","[object Object]","119","2","0","","","",""
"","html-keyboard-response","175","464454","0.0-96.0-1.0","""event"",""trial"",""time""
""fullscreenenter"",""0"",""4435""
","
","
","""event"",""trial"",""time""
""fullscreenenter"",""0"",""4435""
","
","null","<p></p>","null","","","","","","","","","","","","","","","","","","","","","","","",""
"","do_trial","176","467334","0.0-97.0-0.0","""event"",""trial"",""time""
""fullscreenenter"",""0"",""4435""
","
","
","""event"",""trial"",""time""
""fullscreenenter"",""0"",""4435""
","
","336.5","","","","","","","","50","0,0,0","6","blank","308","null","0.36372067701511235","0.5893805131402798","0.10737994707754381","0","","","","","","","","",""
"","html-keyboard-response","177","468337","0.0-97.0-1.0","""event"",""trial"",""time""
""fullscreenenter"",""0"",""4435""
","
","
","""event"",""trial"",""time""
""fullscreenenter"",""0"",""4435""
","
","null","<p></p>","null","","","","","","","","","","","","","","","","","","","","","","","",""
"","break","178","470474","0.0-98.0-0.0","""event"",""trial"",""time""
""fullscreenenter"",""0"",""4435""
","
","
","""event"",""trial"",""time""
""fullscreenenter"",""0"",""4435""
","
","2136.399999976158","<div class='center'><p>Time to take a quick break! You have 2 minutes to rest, but you can move on sooner if you'd like.</p><p> Press the <b>space bar</b> to continue.</p></div>","32","","","","","","","","","","","","","","","","","","","","","","","",""
"","do_trial","179","473590","0.0-98.0-1.0","""event"",""trial"",""time""
""fullscreenenter"",""0"",""4435""
","
","
","""event"",""trial"",""time""
""fullscreenenter"",""0"",""4435""
","
","576","","","","","","","","49","0,0,0","6","blank","309","null","0.3644459609364373","0.5042298679947406","0.10375718978110143","0","","","","","","","","",""
"","html-keyboard-response","180","474594","0.0-98.0-2.0","""event"",""trial"",""time""
""fullscreenenter"",""0"",""4435""
","
","
","""event"",""trial"",""time""
""fullscreenenter"",""0"",""4435""
","
","null","<p></p>","null","","","","","","","","","","","","","","","","","","","","","","","",""
"","do_trial","181","477536","0.0-99.0-0.0","""event"",""trial"",""time""
""fullscreenenter"",""0"",""4435""
","
","
","""event"",""trial"",""time""
""fullscreenenter"",""0"",""4435""
","
","403.2000000476837","","","","","","","","50","0,1,0","6","blank","310","null","0.2345983256299332","0.5377915936069022","0.1709749991039666","1","","","","","","","","",""
"","html-keyboard-response","182","478540","0.0-99.0-1.0","""event"",""trial"",""time""
""fullscreenenter"",""0"",""4435""
","
","
","""event"",""trial"",""time""
""fullscreenenter"",""0"",""4435""
","
","null","<p></p>","null","","","","","","","","","","","","","","","","","","","","","","","",""
"","do_trial","183","481738","0.0-100.0-0.0","""event"",""trial"",""time""
""fullscreenenter"",""0"",""4435""
","
","
","""event"",""trial"",""time""
""fullscreenenter"",""0"",""4435""
","
","656.7000000476837","","","","","","","","50","0,1,0","6","blank","311","null","0.26759254458749304","0.5577756969963527","0.11898063968755924","1","","","","","","","","",""
"","html-keyboard-response","184","482741","0.0-100.0-1.0","""event"",""trial"",""time""
""fullscreenenter"",""0"",""4435""
","
","
","""event"",""trial"",""time""
""fullscreenenter"",""0"",""4435""
","
","null","<p></p>","null","","","","","","","","","","","","","","","","","","","","","","","",""
"","do_trial","185","485654","0.0-101.0-0.0","""event"",""trial"",""time""
""fullscreenenter"",""0"",""4435""
","
","
","""event"",""trial"",""time""
""fullscreenenter"",""0"",""4435""
","
","371","","","","","","","","50","1,1,0","6","blank","312","null","0.27734145194066157","0.6257416412397124","0.16560182630288428","1","","","","","","","","",""
"","html-keyboard-response","186","486665","0.0-101.0-1.0","""event"",""trial"",""time""
""fullscreenenter"",""0"",""4435""
","
","
","""event"",""trial"",""time""
""fullscreenenter"",""0"",""4435""
","
","null","<p></p>","null","","","","","","","","","","","","","","","","","","","","","","","",""
"","do_trial","187","489592","0.0-102.0-0.0","""event"",""trial"",""time""
""fullscreenenter"",""0"",""4435""
","
","
","""event"",""trial"",""time""
""fullscreenenter"",""0"",""4435""
","
","387.89999997615814","","","","","","","","51","0,1,0","6","blank","313","null","0.24047454286245631","0.531683315373925","0.11526704313923883","0","","","","","","","","",""
"","html-keyboard-response","188","490606","0.0-102.0-1.0","""event"",""trial"",""time""
""fullscreenenter"",""0"",""4435""
","
","
","""event"",""trial"",""time""
""fullscreenenter"",""0"",""4435""
","
","null","<p></p>","null","","","","","","","","","","","","","","","","","","","","","","","",""
"","do_recog","189","493107","0.0-103.0-0.0","""event"",""trial"",""time""
""fullscreenenter"",""0"",""4435""
","
","
","""event"",""trial"",""time""
""fullscreenenter"",""0"",""4435""
","
","988.7000000476837","","","","","","","","53","","","","314","probe-218","","","","","1","[object Object]","79","1","1","","","",""
"","html-keyboard-response","190","494114","0.0-103.0-1.0","""event"",""trial"",""time""
""fullscreenenter"",""0"",""4435""
","
","
","""event"",""trial"",""time""
""fullscreenenter"",""0"",""4435""
","
","null","<p></p>","null","","","","","","","","","","","","","","","","","","","","","","","",""
"","do_trial","191","497077","0.0-104.0-0.0","""event"",""trial"",""time""
""fullscreenenter"",""0"",""4435""
","
","
","""event"",""trial"",""time""
""fullscreenenter"",""0"",""4435""
","
","429.7000000476837","","","","","","","","51","0,0,0","6","blank","315","null","0.21421555185344177","0.624394663500741","0.16692499403364777","0","","","","","","","","",""
"","html-keyboard-response","192","498082","0.0-104.0-1.0","""event"",""trial"",""time""
""fullscreenenter"",""0"",""4435""
","
","
","""event"",""trial"",""time""
""fullscreenenter"",""0"",""4435""
","
","null","<p></p>","null","","","","","","","","","","","","","","","","","","","","","","","",""
"","do_trial","193","500928","0.0-105.0-0.0","""event"",""trial"",""time""
""fullscreenenter"",""0"",""4435""
","
","
","""event"",""trial"",""time""
""fullscreenenter"",""0"",""4435""
","
","306.1999999284744","","","","","","","","49","0,0,0","6","blank","316","null","0.23307258531918704","0.6312186000878885","0.24157033635485117","0","","","","","","","","",""
"","html-keyboard-response","194","501934","0.0-105.0-1.0","""event"",""trial"",""time""
""fullscreenenter"",""0"",""4435""
","
","
","""event"",""trial"",""time""
""fullscreenenter"",""0"",""4435""
","
","null","<p></p>","null","","","","","","","","","","","","","","","","","","","","","","","",""
"","do_trial","195","504846","0.0-106.0-0.0","""event"",""trial"",""time""
""fullscreenenter"",""0"",""4435""
","
","
","""event"",""trial"",""time""
""fullscreenenter"",""0"",""4435""
","
","383.39999997615814","","","","","","","","49","0,0,0","6","blank","317","null","0.27074226977954","0.7511099880673119","0.16155604978302981","0","","","","","","","","",""
"","html-keyboard-response","196","505850","0.0-106.0-1.0","""event"",""trial"",""time""
""fullscreenenter"",""0"",""4435""
","
","
","""event"",""trial"",""time""
""fullscreenenter"",""0"",""4435""
","
","null","<p></p>","null","","","","","","","","","","","","","","","","","","","","","","","",""
"","do_recog","197","509187","0.0-107.0-0.0","""event"",""trial"",""time""
""fullscreenenter"",""0"",""4435""
","
","
","""event"",""trial"",""time""
""fullscreenenter"",""0"",""4435""
","
","1824.3999999761581","","","","","","","","55","","","","318","probe-100","","","","","1","[object Object]","191","4","0","","","",""
"","html-keyboard-response","198","510198","0.0-107.0-1.0","""event"",""trial"",""time""
""fullscreenenter"",""0"",""4435""
","
","
","""event"",""trial"",""time""
""fullscreenenter"",""0"",""4435""
","
","null","<p></p>","null","","","","","","","","","","","","","","","","","","","","","","","",""
"","do_trial","199","513027","0.0-108.0-0.0","""event"",""trial"",""time""
""fullscreenenter"",""0"",""4435""
","
","
","""event"",""trial"",""time""
""fullscreenenter"",""0"",""4435""
","
","291.6999999284744","","","","","","","","49","0,1,0","6","blank","319","null","0.34735631648446474","0.795260361245378","0.07880319054031273","0","","","","","","","","",""
"","html-keyboard-response","200","514031","0.0-108.0-1.0","""event"",""trial"",""time""
""fullscreenenter"",""0"",""4435""
","
","
","""event"",""trial"",""time""
""fullscreenenter"",""0"",""4435""
","
","null","<p></p>","null","","","","","","","","","","","","","","","","","","","","","","","",""
"","do_recog","201","516813","0.0-109.0-0.0","""event"",""trial"",""time""
""fullscreenenter"",""0"",""4435""
","
","
","""event"",""trial"",""time""
""fullscreenenter"",""0"",""4435""
","
","1268","","","","","","","","53","","","","320","probe-59","","","","","1","[object Object]","195","4","1","","","",""
"","html-keyboard-response","202","517815","0.0-109.0-1.0","""event"",""trial"",""time""
""fullscreenenter"",""0"",""4435""
","
","
","""event"",""trial"",""time""
""fullscreenenter"",""0"",""4435""
","
","null","<p></p>","null","","","","","","","","","","","","","","","","","","","","","","","",""
"","do_trial","203","520767","0.0-110.0-0.0","""event"",""trial"",""time""
""fullscreenenter"",""0"",""4435""
","
","
","""event"",""trial"",""time""
""fullscreenenter"",""0"",""4435""
","
","420.89999997615814","","","","","","","","49","0,1,0","6","blank","321","null","0.3775085743811464","0.6400361485774309","0.10134382257359863","0","","","","","","","","",""
"","html-keyboard-response","204","521772","0.0-110.0-1.0","""event"",""trial"",""time""
""fullscreenenter"",""0"",""4435""
","
","
","""event"",""trial"",""time""
""fullscreenenter"",""0"",""4435""
","
","null","<p></p>","null","","","","","","","","","","","","","","","","","","","","","","","",""
"","do_trial","205","524569","0.0-111.0-0.0","""event"",""trial"",""time""
""fullscreenenter"",""0"",""4435""
","
","
","""event"",""trial"",""time""
""fullscreenenter"",""0"",""4435""
","
","261.5","","","","","","","","50","0,1,0","6","blank","322","null","0.3068950847705532","0.5142473422598044","0.20990473817556485","1","","","","","","","","",""
"","html-keyboard-response","206","525571","0.0-111.0-1.0","""event"",""trial"",""time""
""fullscreenenter"",""0"",""4435""
","
","
","""event"",""trial"",""time""
""fullscreenenter"",""0"",""4435""
","
","null","<p></p>","null","","","","","","","","","","","","","","","","","","","","","","","",""
"","do_trial","207","528455","0.0-112.0-0.0","""event"",""trial"",""time""
""fullscreenenter"",""0"",""4435""
","
","
","""event"",""trial"",""time""
""fullscreenenter"",""0"",""4435""
","
","350.89999997615814","","","","","","","","50","0,1,0","6","blank","323","null","0.30383550178462826","0.4910887898885201","0.1428565233772999","1","","","","","","","","",""
"","html-keyboard-response","208","529457","0.0-112.0-1.0","""event"",""trial"",""time""
""fullscreenenter"",""0"",""4435""
","
","
","""event"",""trial"",""time""
""fullscreenenter"",""0"",""4435""
","
","null","<p></p>","null","","","","","","","","","","","","","","","","","","","","","","","",""
"","do_trial","209","532271","0.0-113.0-0.0","""event"",""trial"",""time""
""fullscreenenter"",""0"",""4435""
","
","
","""event"",""trial"",""time""
""fullscreenenter"",""0"",""4435""
","
","274.40000009536743","","","","","","","","50","0,1,0","6","blank","324","null","0.36338266989822315","0.5347274585053916","0.11637247246576558","1","","","","","","","","",""
"","html-keyboard-response","210","533274","0.0-113.0-1.0","""event"",""trial"",""time""
""fullscreenenter"",""0"",""4435""
","
","
","""event"",""trial"",""time""
""fullscreenenter"",""0"",""4435""
","
","null","<p></p>","null","","","","","","","","","","","","","","","","","","","","","","","",""
"","do_recog","211","535770","0.0-114.0-0.0","""event"",""trial"",""time""
""fullscreenenter"",""0"",""4435""
","
","
","""event"",""trial"",""time""
""fullscreenenter"",""0"",""4435""
","
","982","","","","","","","","53","","","","325","probe-169","","","","","1","[object Object]","152","3","1","","","",""
"","html-keyboard-response","212","536774","0.0-114.0-1.0","""event"",""trial"",""time""
""fullscreenenter"",""0"",""4435""
","
","
","""event"",""trial"",""time""
""fullscreenenter"",""0"",""4435""
","
","null","<p></p>","null","","","","","","","","","","","","","","","","","","","","","","","",""
"","do_trial","213","539637","0.0-115.0-0.0","""event"",""trial"",""time""
""fullscreenenter"",""0"",""4435""
","
","
","""event"",""trial"",""time""
""fullscreenenter"",""0"",""4435""
","
","333.6999999284744","","","","","","","","51","0,0,0","6","blank","326","null","0.19210697122871176","0.5092988000017208","0.311996316860528","0","","","","","","","","",""
"","html-keyboard-response","214","540639","0.0-115.0-1.0","""event"",""trial"",""time""
""fullscreenenter"",""0"",""4435""
","
","
","""event"",""trial"",""time""
""fullscreenenter"",""0"",""4435""
","
","null","<p></p>","null","","","","","","","","","","","","","","","","","","","","","","","",""
"","do_recog","215","543237","0.0-116.0-0.0","""event"",""trial"",""time""
""fullscreenenter"",""0"",""4435""
","
","
","""event"",""trial"",""time""
""fullscreenenter"",""0"",""4435""
","
","1087.6000000238419","","","","","","","","53","","","","327","probe-48","","","","","1","[object Object]","151","3","1","","","",""
"","html-keyboard-response","216","544244","0.0-116.0-1.0","""event"",""trial"",""time""
""fullscreenenter"",""0"",""4435""
","
","
","""event"",""trial"",""time""
""fullscreenenter"",""0"",""4435""
","
","null","<p></p>","null","","","","","","","","","","","","","","","","","","","","","","","",""
"","do_trial","217","547038","0.0-117.0-0.0","""event"",""trial"",""time""
""fullscreenenter"",""0"",""4435""
","
","
","""event"",""trial"",""time""
""fullscreenenter"",""0"",""4435""
","
","262.5","","","","","","","","51","1,1,0","6","blank","328","null","0.28841434629455215","0.6654330544018504","0.22780792531102798","0","","","","","","","","",""
"","html-keyboard-response","218","548048","0.0-117.0-1.0","""event"",""trial"",""time""
""fullscreenenter"",""0"",""4435""
","
","
","""event"",""trial"",""time""
""fullscreenenter"",""0"",""4435""
","
","null","<p></p>","null","","","","","","","","","","","","","","","","","","","","","","","",""
"","do_trial","219","550906","0.0-118.0-0.0","""event"",""trial"",""time""
""fullscreenenter"",""0"",""4435""
","
","
","""event"",""trial"",""time""
""fullscreenenter"",""0"",""4435""
","
","319.10000002384186","","","","","","","","50","0,1,0","6","blank","329","null","0.27783483537042025","0.6548650223367207","0.19114648559056274","1","","","","","","","","",""
"","html-keyboard-response","220","551908","0.0-118.0-1.0","""event"",""trial"",""time""
""fullscreenenter"",""0"",""4435""
","
","
","""event"",""trial"",""time""
""fullscreenenter"",""0"",""4435""
","
","null","<p></p>","null","","","","","","","","","","","","","","","","","","","","","","","",""
"","do_trial","221","554841","0.0-119.0-0.0","""event"",""trial"",""time""
""fullscreenenter"",""0"",""4435""
","
","
","""event"",""trial"",""time""
""fullscreenenter"",""0"",""4435""
","
","403.7000000476837","","","","","","","","49","0,1,0","6","blank","330","null","0.20994302451712266","0.6607773977647295","0.08945185639677543","0","","","","","","","","",""
"","html-keyboard-response","222","555843","0.0-119.0-1.0","""event"",""trial"",""time""
""fullscreenenter"",""0"",""4435""
","
","
","""event"",""trial"",""time""
""fullscreenenter"",""0"",""4435""
","
","null","<p></p>","null","","","","","","","","","","","","","","","","","","","","","","","",""
"","do_recog","223","558179","0.0-120.0-0.0","""event"",""trial"",""time""
""fullscreenenter"",""0"",""4435""
","
","
","""event"",""trial"",""time""
""fullscreenenter"",""0"",""4435""
","
","830.8999999761581","","","","","","","","53","","","","331","probe-190","","","","","1","[object Object]","118","2","1","","","",""
"","html-keyboard-response","224","559182","0.0-120.0-1.0","""event"",""trial"",""time""
""fullscreenenter"",""0"",""4435""
","
","
","""event"",""trial"",""time""
""fullscreenenter"",""0"",""4435""
","
","null","<p></p>","null","","","","","","","","","","","","","","","","","","","","","","","",""
"","do_trial","225","562142","0.0-121.0-0.0","""event"",""trial"",""time""
""fullscreenenter"",""0"",""4435""
","
","
","""event"",""trial"",""time""
""fullscreenenter"",""0"",""4435""
","
","418.89999997615814","","","","","","","","49","0,1,0","6","blank","332","null","0.17604747676916468","0.590702219264422","0.13556796213167474","0","","","","","","","","",""
"","html-keyboard-response","226","563144","0.0-121.0-1.0","""event"",""trial"",""time""
""fullscreenenter"",""0"",""4435""
","
","
","""event"",""trial"",""time""
""fullscreenenter"",""0"",""4435""
","
","null","<p></p>","null","","","","","","","","","","","","","","","","","","","","","","","",""
"","do_recog","227","565732","0.0-122.0-0.0","""event"",""trial"",""time""
""fullscreenenter"",""0"",""4435""
","
","
","""event"",""trial"",""time""
""fullscreenenter"",""0"",""4435""
","
","1083","","","","","","","","53","","","","333","probe-163","","","","","1","[object Object]","192","4","1","","","",""
"","html-keyboard-response","228","566735","0.0-122.0-1.0","""event"",""trial"",""time""
""fullscreenenter"",""0"",""4435""
","
","
","""event"",""trial"",""time""
""fullscreenenter"",""0"",""4435""
","
","null","<p></p>","null","","","","","","","","","","","","","","","","","","","","","","","",""
"","do_trial","229","569584","0.0-123.0-0.0","""event"",""trial"",""time""
""fullscreenenter"",""0"",""4435""
","
","
","""event"",""trial"",""time""
""fullscreenenter"",""0"",""4435""
","
","314.7999999523163","","","","","","","","50","1,0,0","6","blank","334","null","0.2142506024004931","0.5315114754705222","0.13556592433126832","0","","","","","","","","",""
"","html-keyboard-response","230","570594","0.0-123.0-1.0","""event"",""trial"",""time""
""fullscreenenter"",""0"",""4435""
","
","
","""event"",""trial"",""time""
""fullscreenenter"",""0"",""4435""
","
","null","<p></p>","null","","","","","","","","","","","","","","","","","","","","","","","",""
"","do_trial","231","573432","0.0-124.0-0.0","""event"",""trial"",""time""
""fullscreenenter"",""0"",""4435""
","
","
","""event"",""trial"",""time""
""fullscreenenter"",""0"",""4435""
","
","306","","","","","","","","51","0,1,0","6","blank","335","null","0.2472176883510672","0.6667640051607642","0.0930685594923951","0","","","","","","","","",""
"","html-keyboard-response","232","574434","0.0-124.0-1.0","""event"",""trial"",""time""
""fullscreenenter"",""0"",""4435""
","
","
","""event"",""trial"",""time""
""fullscreenenter"",""0"",""4435""
","
","null","<p></p>","null","","","","","","","","","","","","","","","","","","","","","","","",""
"","do_trial","233","577298","0.0-125.0-0.0","""event"",""trial"",""time""
""fullscreenenter"",""0"",""4435""
","
","
","""event"",""trial"",""time""
""fullscreenenter"",""0"",""4435""
","
","324.7999999523163","","","","","","","","51","0,0,0","6","blank","336","null","0.28648778111958206","0.6280191734110772","0.21932627264203397","0","","","","","","","","",""
"","html-keyboard-response","234","578300","0.0-125.0-1.0","""event"",""trial"",""time""
""fullscreenenter"",""0"",""4435""
","
","
","""event"",""trial"",""time""
""fullscreenenter"",""0"",""4435""
","
","null","<p></p>","null","","","","","","","","","","","","","","","","","","","","","","","",""
"","do_trial","235","581184","0.0-126.0-0.0","""event"",""trial"",""time""
""fullscreenenter"",""0"",""4435""
","
","
","""event"",""trial"",""time""
""fullscreenenter"",""0"",""4435""
","
","352.39999997615814","","","","","","","","49","1,0,0","6","blank","337","null","0.3484225160370449","0.7546618520027748","0.0952131343269232","1","","","","","","","","",""
"","html-keyboard-response","236","582187","0.0-126.0-1.0","""event"",""trial"",""time""
""fullscreenenter"",""0"",""4435""
","
","
","""event"",""trial"",""time""
""fullscreenenter"",""0"",""4435""
","
","null","<p></p>","null","","","","","","","","","","","","","","","","","","","","","","","",""
"","do_trial","237","585100","0.0-127.0-0.0","""event"",""trial"",""time""
""fullscreenenter"",""0"",""4435""
","
","
","""event"",""trial"",""time""
""fullscreenenter"",""0"",""4435""
","
","376.09999990463257","","","","","","","","49","1,1,0","6","blank","338","null","0.22082932910977668","0.6389754848443113","0.1469504676614533","1","","","","","","","","",""
"","html-keyboard-response","238","586112","0.0-127.0-1.0","""event"",""trial"",""time""
""fullscreenenter"",""0"",""4435""
","
","
","""event"",""trial"",""time""
""fullscreenenter"",""0"",""4435""
","
","null","<p></p>","null","","","","","","","","","","","","","","","","","","","","","","","",""
"","do_trial","239","589000","0.0-128.0-0.0","""event"",""trial"",""time""
""fullscreenenter"",""0"",""4435""
","
","
","""event"",""trial"",""time""
""fullscreenenter"",""0"",""4435""
","
","354.39999997615814","","","","","","","","49","0,1,0","6","blank","339","null","0.15744844612326409","0.5951648634434159","0.16562710243518372","0","","","","","","","","",""
"","html-keyboard-response","240","590002","0.0-128.0-1.0","""event"",""trial"",""time""
""fullscreenenter"",""0"",""4435""
","
","
","""event"",""trial"",""time""
""fullscreenenter"",""0"",""4435""
","
","null","<p></p>","null","","","","","","","","","","","","","","","","","","","","","","","",""
"","do_recog","241","592557","0.0-129.0-0.0","""event"",""trial"",""time""
""fullscreenenter"",""0"",""4435""
","
","
","""event"",""trial"",""time""
""fullscreenenter"",""0"",""4435""
","
","1041.2000000476837","","","","","","","","56","","","","340","probe-124","","","","","1","[object Object]","196","4","0","","","",""
"","html-keyboard-response","242","593568","0.0-129.0-1.0","""event"",""trial"",""time""
""fullscreenenter"",""0"",""4435""
","
","
","""event"",""trial"",""time""
""fullscreenenter"",""0"",""4435""
","
","null","<p></p>","null","","","","","","","","","","","","","","","","","","","","","","","",""
"","do_trial","243","596456","0.0-130.0-0.0","""event"",""trial"",""time""
""fullscreenenter"",""0"",""4435""
","
","
","""event"",""trial"",""time""
""fullscreenenter"",""0"",""4435""
","
","357.2000000476837","","","","","","","","50","0,0,0","6","blank","341","null","0.2498104725400825","0.6029048453788255","0.07782466404880772","0","","","","","","","","",""
"","html-keyboard-response","244","597459","0.0-130.0-1.0","""event"",""trial"",""time""
""fullscreenenter"",""0"",""4435""
","
","
","""event"",""trial"",""time""
""fullscreenenter"",""0"",""4435""
","
","null","<p></p>","null","","","","","","","","","","","","","","","","","","","","","","","",""
"","do_recog","245","600296","0.0-131.0-0.0","""event"",""trial"",""time""
""fullscreenenter"",""0"",""4435""
","
","
","""event"",""trial"",""time""
""fullscreenenter"",""0"",""4435""
","
","1322.5","","","","","","","","53","","","","342","probe-61","","","","","1","[object Object]","115","2","1","","","",""
"","html-keyboard-response","246","601306","0.0-131.0-1.0","""event"",""trial"",""time""
""fullscreenenter"",""0"",""4435""
","
","
","""event"",""trial"",""time""
""fullscreenenter"",""0"",""4435""
","
","null","<p></p>","null","","","","","","","","","","","","","","","","","","","","","","","",""
"","do_trial","247","604274","0.0-132.0-0.0","""event"",""trial"",""time""
""fullscreenenter"",""0"",""4435""
","
","
","""event"",""trial"",""time""
""fullscreenenter"",""0"",""4435""
","
","433.10000002384186","","","","","","","","50","0,0,0","6","blank","343","null","0.27659271068503666","0.5324346728181596","0.061565261308701595","0","","","","","","","","",""
"","html-keyboard-response","248","605276","0.0-132.0-1.0","""event"",""trial"",""time""
""fullscreenenter"",""0"",""4435""
","
","
","""event"",""trial"",""time""
""fullscreenenter"",""0"",""4435""
","
","null","<p></p>","null","","","","","","","","","","","","","","","","","","","","","","","",""
"","do_trial","249","608089","0.0-133.0-0.0","""event"",""trial"",""time""
""fullscreenenter"",""0"",""4435""
","
","
","""event"",""trial"",""time""
""fullscreenenter"",""0"",""4435""
","
","272.10000002384186","","","","","","","","50","0,0,0","6","blank","344","null","0.3671668884078275","0.6500804254118401","0.10030442041210297","0","","","","","","","","",""
"","html-keyboard-response","250","609104","0.0-133.0-1.0","""event"",""trial"",""time""
""fullscreenenter"",""0"",""4435""
","
","
","""event"",""trial"",""time""
""fullscreenenter"",""0"",""4435""
","
","null","<p></p>","null","","","","","","","","","","","","","","","","","","","","","","","",""
"","do_recog","251","611495","0.0-134.0-0.0","""event"",""trial"",""time""
""fullscreenenter"",""0"",""4435""
","
","
","""event"",""trial"",""time""
""fullscreenenter"",""0"",""4435""
","
","884.1000000238419","","","","","","","","53","","","","345","probe-211","","","","","1","[object Object]","75","1","1","","","",""
"","html-keyboard-response","252","612505","0.0-134.0-1.0","""event"",""trial"",""time""
""fullscreenenter"",""0"",""4435""
","
","
","""event"",""trial"",""time""
""fullscreenenter"",""0"",""4435""
","
","null","<p></p>","null","","","","","","","","","","","","","","","","","","","","","","","",""
"","do_trial","253","615306","0.0-135.0-0.0","""event"",""trial"",""time""
""fullscreenenter"",""0"",""4435""
","
","
","""event"",""trial"",""time""
""fullscreenenter"",""0"",""4435""
","
","262","","","","","","","","50","0,1,0","6","blank","346","null","0.5749533344737853","0.5139813237173195","0.20115272866742998","1","","","","","","","","",""
"","html-keyboard-response","254","616308","0.0-135.0-1.0","""event"",""trial"",""time""
""fullscreenenter"",""0"",""4435""
","
","
","""event"",""trial"",""time""
""fullscreenenter"",""0"",""4435""
","
","null","<p></p>","null","","","","","","","","","","","","","","","","","","","","","","","",""
"","do_recog","255","618687","0.0-136.0-0.0","""event"",""trial"",""time""
""fullscreenenter"",""0"",""4435""
","
","
","""event"",""trial"",""time""
""fullscreenenter"",""0"",""4435""
","
","870.2999999523163","","","","","","","","53","","","","347","probe-85","","","","","1","[object Object]","33","0","1","","","",""
"","html-keyboard-response","256","619692","0.0-136.0-1.0","""event"",""trial"",""time""
""fullscreenenter"",""0"",""4435""
","
","
","""event"",""trial"",""time""
""fullscreenenter"",""0"",""4435""
","
","null","<p></p>","null","","","","","","","","","","","","","","","","","","","","","","","",""
"","do_trial","257","622558","0.0-137.0-0.0","""event"",""trial"",""time""
""fullscreenenter"",""0"",""4435""
","
","
","""event"",""trial"",""time""
""fullscreenenter"",""0"",""4435""
","
","336.1999999284744","","","","","","","","50","1,1,1","6","blank","348","null","0.614579963109822","0.3284534681942357","0.23145693841151765","1","","","","","","","","",""
"","html-keyboard-response","258","623561","0.0-137.0-1.0","""event"",""trial"",""time""
""fullscreenenter"",""0"",""4435""
","
","
","""event"",""trial"",""time""
""fullscreenenter"",""0"",""4435""
","
","null","<p></p>","null","","","","","","","","","","","","","","","","","","","","","","","",""
"","break","259","625131","0.0-138.0-0.0","""event"",""trial"",""time""
""fullscreenenter"",""0"",""4435""
","
","
","""event"",""trial"",""time""
""fullscreenenter"",""0"",""4435""
","
","1569.2999999523163","<div class='center'><p>Time to take a quick break! You have 2 minutes to rest, but you can move on sooner if you'd like.</p><p> Press the <b>space bar</b> to continue.</p></div>","32","","","","","","","","","","","","","","","","","","","","","","","",""
"","do_recog","260","628067","0.0-138.0-1.0","""event"",""trial"",""time""
""fullscreenenter"",""0"",""4435""
","
","
","""event"",""trial"",""time""
""fullscreenenter"",""0"",""4435""
","
","1431.3999999761581","","","","","","","","53","","","","349","probe-106","","","","","1","[object Object]","159","3","1","","","",""
"","html-keyboard-response","261","629069","0.0-138.0-2.0","""event"",""trial"",""time""
""fullscreenenter"",""0"",""4435""
","
","
","""event"",""trial"",""time""
""fullscreenenter"",""0"",""4435""
","
","null","<p></p>","null","","","","","","","","","","","","","","","","","","","","","","","",""
"","do_trial","262","631901","0.0-139.0-0.0","""event"",""trial"",""time""
""fullscreenenter"",""0"",""4435""
","
","
","""event"",""trial"",""time""
""fullscreenenter"",""0"",""4435""
","
","302.60000002384186","","","","","","","","49","1,0,0","6","blank","350","null","0.5934703601388446","0.387013928105543","0.23196982233288382","1","","","","","","","","",""
"","html-keyboard-response","263","632911","0.0-139.0-1.0","""event"",""trial"",""time""
""fullscreenenter"",""0"",""4435""
","
","
","""event"",""trial"",""time""
""fullscreenenter"",""0"",""4435""
","
","null","<p></p>","null","","","","","","","","","","","","","","","","","","","","","","","",""
"","do_recog","264","636117","0.0-140.0-0.0","""event"",""trial"",""time""
""fullscreenenter"",""0"",""4435""
","
","
","""event"",""trial"",""time""
""fullscreenenter"",""0"",""4435""
","
","1700.3999999761581","","","","","","","","54","","","","351","probe-136","","","","","1","[object Object]","74","1","1","","","",""
"","html-keyboard-response","265","637120","0.0-140.0-1.0","""event"",""trial"",""time""
""fullscreenenter"",""0"",""4435""
","
","
","""event"",""trial"",""time""
""fullscreenenter"",""0"",""4435""
","
","null","<p></p>","null","","","","","","","","","","","","","","","","","","","","","","","",""
"","do_trial","266","639947","0.0-141.0-0.0","""event"",""trial"",""time""
""fullscreenenter"",""0"",""4435""
","
","
","""event"",""trial"",""time""
""fullscreenenter"",""0"",""4435""
","
","294.09999990463257","","","","","","","","49","0,0,0","6","blank","352","null","0.6217646659891533","0.3091568816238725","0.1191703228972456","0","","","","","","","","",""
"","html-keyboard-response","267","640949","0.0-141.0-1.0","""event"",""trial"",""time""
""fullscreenenter"",""0"",""4435""
","
","
","""event"",""trial"",""time""
""fullscreenenter"",""0"",""4435""
","
","null","<p></p>","null","","","","","","","","","","","","","","","","","","","","","","","",""
"","do_recog","268","643616","0.0-142.0-0.0","""event"",""trial"",""time""
""fullscreenenter"",""0"",""4435""
","
","
","""event"",""trial"",""time""
""fullscreenenter"",""0"",""4435""
","
","1162.2000000476837","","","","","","","","55","","","","353","probe-245","","","","","0","[object Object]","null","null","1","","","",""
"","html-keyboard-response","269","644622","0.0-142.0-1.0","""event"",""trial"",""time""
""fullscreenenter"",""0"",""4435""
","
","
","""event"",""trial"",""time""
""fullscreenenter"",""0"",""4435""
","
","null","<p></p>","null","","","","","","","","","","","","","","","","","","","","","","","",""
"","do_trial","270","647434","0.0-143.0-0.0","""event"",""trial"",""time""
""fullscreenenter"",""0"",""4435""
","
","
","""event"",""trial"",""time""
""fullscreenenter"",""0"",""4435""
","
","276.7999999523163","","","","","","","","49","0,1,0","6","blank","354","null","0.5819824337454346","0.27548637274660503","0.10876753528626301","0","","","","","","","","",""
"","html-keyboard-response","271","648439","0.0-143.0-1.0","""event"",""trial"",""time""
""fullscreenenter"",""0"",""4435""
","
","
","""event"",""trial"",""time""
""fullscreenenter"",""0"",""4435""
","
","null","<p></p>","null","","","","","","","","","","","","","","","","","","","","","","","",""
"","do_trial","272","651235","0.0-144.0-0.0","""event"",""trial"",""time""
""fullscreenenter"",""0"",""4435""
","
","
","""event"",""trial"",""time""
""fullscreenenter"",""0"",""4435""
","
","254.39999997615814","","","","","","","","50","1,1,0","6","blank","355","null","0.6458649430998402","0.3298309311929387","0.0811194184856021","1","","","","","","","","",""
"","html-keyboard-response","273","652237","0.0-144.0-1.0","""event"",""trial"",""time""
""fullscreenenter"",""0"",""4435""
","
","
","""event"",""trial"",""time""
""fullscreenenter"",""0"",""4435""
","
","null","<p></p>","null","","","","","","","","","","","","","","","","","","","","","","","",""
"","do_trial","274","655033","0.0-145.0-0.0","""event"",""trial"",""time""
""fullscreenenter"",""0"",""4435""
","
","
","""event"",""trial"",""time""
""fullscreenenter"",""0"",""4435""
","
","256.90000009536743","","","","","","","","50","1,0,0","6","blank","356","null","0.6744085554441245","0.348318856753124","0.18374157166306163","0","","","","","","","","",""
"","html-keyboard-response","275","656035","0.0-145.0-1.0","""event"",""trial"",""time""
""fullscreenenter"",""0"",""4435""
","
","
","""event"",""trial"",""time""
""fullscreenenter"",""0"",""4435""
","
","null","<p></p>","null","","","","","","","","","","","","","","","","","","","","","","","",""
"","do_trial","276","658874","0.0-146.0-0.0","""event"",""trial"",""time""
""fullscreenenter"",""0"",""4435""
","
","
","""event"",""trial"",""time""
""fullscreenenter"",""0"",""4435""
","
","298.7999999523163","","","","","","","","50","1,0,0","6","blank","357","null","0.6336649217683044","0.25515125898027924","0.2200692883512936","0","","","","","","","","",""
"","html-keyboard-response","277","659884","0.0-146.0-1.0","""event"",""trial"",""time""
""fullscreenenter"",""0"",""4435""
","
","
","""event"",""trial"",""time""
""fullscreenenter"",""0"",""4435""
","
