success,trial_type,trial_index,time_elapsed,internal_node_id,rt,stimulus,subject_id,key_press,response,choice_outcomes,context_n,context_img_id,trial_n,probe_img_id,pR_red,pR_white,pR_black,outcome,is_valid,image_to_show,probed_trial,probed_context,correct,context_id
TRUE,fullscreen,0,7723,0.0-0.0,,,,,,,,,,,,,,,,,,,,
,pavlovia,1,7729,0.0-1.0,,,,,,,,,,,,,,,,,,,,
,html-keyboard-response,2,19846,0.0-2.0,12116,"<div class='center'><p>Like yesterday,as the head captain of the ship, you have one important things to do: </p><b><p> Pick the pirate who you think will be most successful at robbing the next ship.</p></b><p>This is important in determining how much bonus money you’ll win.</p><br><p>The game will start by showing you the pirates. First pick a pirate using the <b> 1, 2, 3 </b> buttons on your keyboard. </p><p> Press <b>'1'</b> to choose red beard, <b>'2'</b> to choose white beard, and <b>'3'</b> to choose black beard</p><p> You only have 3 seconds to pick a pirate, so please make a choice quickly! If you are too slow, you’ll have to wait a bit during the time out.</p><p> Don’t feel rushed, but please do try to make a choice every time.</p><p>How good a pirate is at robbing a ship will change depending on the place they are in and how good the defenses are of the ship.</p><p><b>[Press the space bar to begin the practice game]</b></p></div>",6100890590897b8377a08eac,32,,,,,,,,,,,,,,,,
,html-keyboard-response,3,30932,0.0-3.0,11085.2,"<div class='center'><p>You’ve arrived at the final island of your journey! Unfortunately, it’s very foggy out, so you won’t be able to see it in the distance like the previous islands you've visited.</p><p>You’ll still be deciding which pirate you want to rob a ship like before. However, because of the fog, you also won’t be able to see the ship.</p><p>This means you do not have to remember the ships you rob on this island.</p><p><b>[Press the space bar to continue]</b></p></div>",,32,,,,,,,,,,,,,,,,
,html-keyboard-response,4,39827,0.0-4.0,8894.2,"<div class='center'><p> Sometimes you’ll be shown a ship, and you will be asked if you saw this ship on a past island.</p><p> Here is an example of what you will see.</p><p><b>[Press the space bar to continue]</b></p><p><img src='run_exp/static/images/tutorial/example_recog_trial.png' height='500'></p></div>",,32,,,,,,,,,,,,,,,,
,html-keyboard-response,5,46019,0.0-5.0,6190.3,"<div class='center'><p> You will press the 5, 6, 7, 8 buttons on your keyboard to respond.</p><p>If you are very sure saw the ship, press <b>5</b> on your keyboard.</p><p> If you think you  saw it before but are not sure, then press <b>6</b>.</p><p> If you think you have not seen it before but are not sure, then press <b>7</b>.</p><p> If you are sure you did not see the ship before, then press <b>8</b>.</p><p><b>[Press the space bar to continue]</b></p><p><img src='run_exp/static/images/tutorial/example_recog_trial.png' height='500'></p></div>",,32,,,,,,,,,,,,,,,,
,html-keyboard-response,6,47778,0.0-6.0,1757.7,"<div class='center'><p> If you remember correctly, then you’ll get a gold coin like this: </p><p><img src='run_exp/static/images/tutorial/reward_small.png' height='200'></p><p>If you do not remember correctly, then you'll see a red x like this: </p><p><img src='run_exp/static/images/tutorial/reward_no.png' height='200'></p><p>Importantly, when you are shown a ship, take the time to remind yourself which island you saw it on. This will help you in the next part of the study.</p><p><b>[Press the space bar to continue]</b></p></div>",,32,,,,,,,,,,,,,,,,
,html-keyboard-response,7,52434,0.0-7.0,4654.7,"<div class='center'><p>Let's go over the important points again. Your job is to: </p><p>1. Pick the pirate who is best at robbing ships and will bring you back gold coins. </p><p>2. Correctly remember whether or not you saw a ship before. If you did see the ship before, remind yourself on which island you saw the ship. </p><p><b>[Press the space bar to begin the next part of the study]</b></p></div>",,32,,,,,,,,,,,,,,,,
,do_welcome,8,53957,0.0-8.0,null,,,,null,,,,,,,,,,,,,,,
,do_trial,9,59255,0.0-9.0-0.0,2715.5,,,,49,"1,0,0",6,blank,230,null,0.606462342,0.065155363,0.322513924,1,,,,,,
,html-keyboard-response,10,60271,0.0-9.0-1.0,null,<p></p>,,null,,,,,,,,,,,,,,,,
,do_trial,11,64490,0.0-10.0-0.0,1653.7,,,,49,"0,0,1",6,blank,231,null,0.593643997,0.120100608,0.251608237,0,,,,,,
,html-keyboard-response,12,65499,0.0-10.0-1.0,null,<p></p>,,null,,,,,,,,,,,,,,,,
,do_trial,13,68832,0.0-11.0-0.0,767.4,,,,50,"1,1,0",6,blank,232,null,0.677054785,0.087379475,0.163349759,1,,,,,,
,html-keyboard-response,14,69847,0.0-11.0-1.0,null,<p></p>,,null,,,,,,,,,,,,,,,,
,do_trial,15,73738,0.0-12.0-0.0,1313.8,,,,50,"1,0,0",6,blank,233,null,0.746894267,0.190994571,0.269043426,0,,,,,,
,html-keyboard-response,16,74754,0.0-12.0-1.0,null,<p></p>,,null,,,,,,,,,,,,,,,,
,do_trial,17,78680,0.0-13.0-0.0,1353.8,,,,50,"1,1,1",6,blank,234,null,0.622373925,0.202546052,0.162198108,1,,,,,,
,html-keyboard-response,18,79691,0.0-13.0-1.0,null,<p></p>,,null,,,,,,,,,,,,,,,,
,do_trial,19,84515,0.0-14.0-0.0,2246.5,,,,50,"1,0,0",6,blank,235,null,0.692365373,0.303006037,0.371344812,0,,,,,,
,html-keyboard-response,20,85528,0.0-14.0-1.0,null,<p></p>,,null,,,,,,,,,,,,,,,,
,do_trial,21,88558,0.0-15.0-0.0,460.4,,,,50,"1,0,0",6,blank,236,null,0.668206861,0.274517733,0.268139349,0,,,,,,
,html-keyboard-response,22,89566,0.0-15.0-1.0,null,<p></p>,,null,,,,,,,,,,,,,,,,
,do_trial,23,92978,0.0-16.0-0.0,838.1,,,,50,"0,0,0",6,blank,237,null,0.692841916,0.278754158,0.486941849,0,,,,,,
,html-keyboard-response,24,93981,0.0-16.0-1.0,null,<p></p>,,null,,,,,,,,,,,,,,,,
,do_trial,25,97280,0.0-17.0-0.0,727.2,,,,50,"1,0,1",6,blank,238,null,0.664140459,0.18941095,0.199524119,0,,,,,,
,html-keyboard-response,26,98284,0.0-17.0-1.0,null,<p></p>,,null,,,,,,,,,,,,,,,,
,do_trial,27,103084,0.0-18.0-0.0,2207.8,,,,50,"0,0,1",6,blank,239,null,0.635325068,0.168900832,0.300783952,0,,,,,,
,html-keyboard-response,28,104100,0.0-18.0-1.0,null,<p></p>,,null,,,,,,,,,,,,,,,,
,do_trial,29,106907,0.0-19.0-0.0,243.6,,,,51,"0,1,0",6,blank,240,null,0.700850566,0.241471593,0.210668679,0,,,,,,
,html-keyboard-response,30,107923,0.0-19.0-1.0,null,<p></p>,,null,,,,,,,,,,,,,,,,
,do_trial,31,110575,0.0-20.0-0.0,75.60000002,,,,51,"1,0,1",6,blank,241,null,0.741991977,0.136184856,0.133001597,1,,,,,,
,html-keyboard-response,32,111582,0.0-20.0-1.0,null,<p></p>,,null,,,,,,,,,,,,,,,,
,do_trial,33,114879,0.0-21.0-0.0,731.1,,,,51,"0,0,0",6,blank,242,null,0.494606596,0.224970107,0.319482348,0,,,,,,
,html-keyboard-response,34,115882,0.0-21.0-1.0,null,<p></p>,,null,,,,,,,,,,,,,,,,
,do_recog,35,121892,0.0-22.0-0.0,null,,,,null,,,,243,probe-67,,,,,1,[object Object],169,4,0,
,html-keyboard-response,36,122896,0.0-22.0-1.0,null,<p></p>,,null,,,,,,,,,,,,,,,,
,do_trial,37,126419,0.0-23.0-0.0,953.5,,,,50,"1,0,0",6,blank,244,null,0.390786341,0.17601656,0.410854702,0,,,,,,
,html-keyboard-response,38,127435,0.0-23.0-1.0,null,<p></p>,,null,,,,,,,,,,,,,,,,
,do_recog,39,129830,0.0-24.0-0.0,873.7,,,,54,,,,245,probe-08,,,,,1,[object Object],46,1,1,
,html-keyboard-response,40,130846,0.0-24.0-1.0,null,<p></p>,,null,,,,,,,,,,,,,,,,
,do_trial,41,136923,0.0-25.0-0.0,null,,,,null,"1,0,1",6,blank,246,null,0.334114328,0.069037275,0.436945265,,,,,,,
,html-keyboard-response,42,137932,0.0-25.0-1.0,null,<p></p>,,null,,,,,,,,,,,,,,,,
,do_recog,43,140283,0.0-26.0-0.0,833.1,,,,54,,,,247,probe-117,,,,,1,[object Object],201,5,1,
,html-keyboard-response,44,141288,0.0-26.0-1.0,null,<p></p>,,null,,,,,,,,,,,,,,,,
,do_trial,45,144669,0.0-27.0-0.0,804.5,,,,51,"1,0,0",6,blank,248,null,0.408038737,0.10930294,0.491781782,0,,,,,,
,html-keyboard-response,46,145673,0.0-27.0-1.0,null,<p></p>,,null,,,,,,,,,,,,,,,,
,do_trial,47,150151,0.0-28.0-0.0,1920,,,,51,"1,0,0",6,blank,249,null,0.361655434,0.057774576,0.531569058,0,,,,,,
,html-keyboard-response,48,151157,0.0-28.0-1.0,null,<p></p>,,null,,,,,,,,,,,,,,,,
,do_recog,49,153634,0.0-29.0-0.0,966.1,,,,54,,,,250,probe-194,,,,,1,[object Object],209,5,1,
,html-keyboard-response,50,154643,0.0-29.0-1.0,null,<p></p>,,null,,,,,,,,,,,,,,,,
,do_trial,51,159002,0.0-30.0-0.0,1793.9,,,,51,"1,0,0",6,blank,251,null,0.426235146,0.148828536,0.714127372,0,,,,,,
,html-keyboard-response,52,160017,0.0-30.0-1.0,null,<p></p>,,null,,,,,,,,,,,,,,,,
,do_trial,53,163248,0.0-31.0-0.0,645,,,,51,"0,1,1",6,blank,252,null,0.374994202,0.190285924,0.580611892,1,,,,,,
,html-keyboard-response,54,164262,0.0-31.0-1.0,null,<p></p>,,null,,,,,,,,,,,,,,,,
,do_recog,55,170282,0.0-32.0-0.0,null,,,,null,,,,253,probe-165,,,,,1,[object Object],205,5,0,
,html-keyboard-response,56,171299,0.0-32.0-1.0,null,<p></p>,,null,,,,,,,,,,,,,,,,
,do_trial,57,174563,0.0-33.0-0.0,705.3,,,,51,"0,0,0",6,blank,254,null,0.301960509,0.09441625,0.540949266,0,,,,,,
,html-keyboard-response,58,175579,0.0-33.0-1.0,null,<p></p>,,null,,,,,,,,,,,,,,,,
,do_recog,59,178759,0.0-34.0-0.0,1661,,,,54,,,,255,probe-115,,,,,1,[object Object],204,5,1,
,html-keyboard-response,60,179764,0.0-34.0-1.0,null,<p></p>,,null,,,,,,,,,,,,,,,,
,do_trial,61,183000,0.0-35.0-0.0,669.3,,,,51,"1,0,0",6,blank,256,null,0.369673326,0.128271996,0.450213818,0,,,,,,
,html-keyboard-response,62,184002,0.0-35.0-1.0,null,<p></p>,,null,,,,,,,,,,,,,,,,
,do_trial,63,188604,0.0-36.0-0.0,2030.9,,,,51,"1,0,0",6,blank,257,null,0.30076513,0.054432343,0.523739125,0,,,,,,
,html-keyboard-response,64,189608,0.0-36.0-1.0,null,<p></p>,,null,,,,,,,,,,,,,,,,
,do_trial,65,193708,0.0-37.0-0.0,1530.6,,,,50,"1,0,0",6,blank,258,null,0.206411599,0.13224605,0.613250328,0,,,,,,
,html-keyboard-response,66,194718,0.0-37.0-1.0,null,<p></p>,,null,,,,,,,,,,,,,,,,
,do_trial,67,198957,0.0-38.0-0.0,1677.5,,,,50,"0,0,1",6,blank,259,null,0.080939308,0.102914748,0.689720006,0,,,,,,
,html-keyboard-response,68,199970,0.0-38.0-1.0,null,<p></p>,,null,,,,,,,,,,,,,,,,
,do_trial,69,203406,0.0-39.0-0.0,870.8,,,,51,"0,0,1",6,blank,260,null,0.172928542,0.066065131,0.523772402,1,,,,,,
,html-keyboard-response,70,204416,0.0-39.0-1.0,null,<p></p>,,null,,,,,,,,,,,,,,,,
,do_trial,71,207624,0.0-40.0-0.0,632.3,,,,51,"0,0,1",6,blank,261,null,0.157538837,0.216892214,0.662977974,1,,,,,,
,html-keyboard-response,72,208639,0.0-40.0-1.0,null,<p></p>,,null,,,,,,,,,,,,,,,,
,do_trial,73,212417,0.0-41.0-0.0,1197.3,,,,51,"0,1,0",6,blank,262,null,0.253262233,0.125769103,0.612635504,0,,,,,,
,html-keyboard-response,74,213422,0.0-41.0-1.0,null,<p></p>,,null,,,,,,,,,,,,,,,,
,do_recog,75,216199,0.0-42.0-0.0,1264.1,,,,54,,,,263,probe-255,,,,,0,[object Object],null,null,0,
,html-keyboard-response,76,217215,0.0-42.0-1.0,null,<p></p>,,null,,,,,,,,,,,,,,,,
,do_trial,77,221093,0.0-43.0-0.0,1296.6,,,,50,"1,0,0",6,blank,264,null,0.261917096,0.221724327,0.601019493,0,,,,,,
,html-keyboard-response,78,222106,0.0-43.0-1.0,null,<p></p>,,null,,,,,,,,,,,,,,,,
,do_trial,79,225862,0.0-44.0-0.0,1186.3,,,,50,"0,0,0",6,blank,265,null,0.333927414,0.177486117,0.487834332,0,,,,,,
,html-keyboard-response,80,226877,0.0-44.0-1.0,null,<p></p>,,null,,,,,,,,,,,,,,,,
,do_trial,81,230069,0.0-45.0-0.0,622,,,,51,"0,0,0",6,blank,266,null,0.28818353,0.054060346,0.498933789,0,,,,,,
,html-keyboard-response,82,231086,0.0-45.0-1.0,null,<p></p>,,null,,,,,,,,,,,,,,,,
,do_trial,83,234384,0.0-46.0-0.0,725.6,,,,50,"0,0,0",6,blank,267,null,0.288376809,0.089900328,0.440130647,0,,,,,,
,html-keyboard-response,84,235390,0.0-46.0-1.0,null,<p></p>,,null,,,,,,,,,,,,,,,,
,do_trial,85,238499,0.0-47.0-0.0,542.3,,,,51,"0,0,0",6,blank,268,null,0.293845267,0.07105066,0.527362535,0,,,,,,
,html-keyboard-response,86,239505,0.0-47.0-1.0,null,<p></p>,,null,,,,,,,,,,,,,,,,
,do_trial,87,243293,0.0-48.0-0.0,1226.7,,,,50,"1,0,0",6,blank,269,null,0.280479692,0.069779839,0.592675015,0,,,,,,
,html-keyboard-response,88,244298,0.0-48.0-1.0,null,<p></p>,,null,,,,,,,,,,,,,,,,
,do_trial,89,247285,0.0-49.0-0.0,418.4,,,,51,"0,0,1",6,blank,270,null,0.495436587,0.131112193,0.691811506,1,,,,,,
,html-keyboard-response,90,248290,0.0-49.0-1.0,null,<p></p>,,null,,,,,,,,,,,,,,,,
,do_recog,91,252082,0.0-50.0-0.0,2279.7,,,,53,,,,271,probe-228,,,,,1,[object Object],127,3,1,
,html-keyboard-response,92,253099,0.0-50.0-1.0,null,<p></p>,,null,,,,,,,,,,,,,,,,
,do_trial,93,256951,0.0-51.0-0.0,1285.2,,,,51,"0,0,1",6,blank,272,null,0.454249161,0.104813758,0.635113855,1,,,,,,
,html-keyboard-response,94,257960,0.0-51.0-1.0,null,<p></p>,,null,,,,,,,,,,,,,,,,
,do_recog,95,263982,0.0-52.0-0.0,null,,,,null,,,,273,probe-131,,,,,1,[object Object],122,3,0,
,html-keyboard-response,96,264998,0.0-52.0-1.0,null,<p></p>,,null,,,,,,,,,,,,,,,,
,do_trial,97,268861,0.0-53.0-0.0,1282.6,,,,50,"0,0,0",6,blank,274,null,0.394740614,0.080463648,0.698108752,0,,,,,,
,html-keyboard-response,98,269870,0.0-53.0-1.0,null,<p></p>,,null,,,,,,,,,,,,,,,,
,do_recog,99,272266,0.0-54.0-0.0,873.1,,,,53,,,,275,probe-101,,,,,1,[object Object],123,3,1,
,html-keyboard-response,100,273279,0.0-54.0-1.0,null,<p></p>,,null,,,,,,,,,,,,,,,,
,do_trial,101,276639,0.0-55.0-0.0,784.8,,,,49,"0,0,0",6,blank,276,null,0.330904363,0.104500593,0.694864116,0,,,,,,
,html-keyboard-response,102,277653,0.0-55.0-1.0,null,<p></p>,,null,,,,,,,,,,,,,,,,
,do_recog,103,280280,0.0-56.0-0.0,1107.1,,,,53,,,,277,probe-33,,,,,1,[object Object],40,1,1,
,html-keyboard-response,104,281296,0.0-56.0-1.0,null,<p></p>,,null,,,,,,,,,,,,,,,,
,do_trial,105,284448,0.0-57.0-0.0,555.9,,,,49,"1,0,1",6,blank,278,null,0.340105619,0.274254266,0.679348657,1,,,,,,
,html-keyboard-response,106,285464,0.0-57.0-1.0,null,<p></p>,,null,,,,,,,,,,,,,,,,
,do_trial,107,288721,0.0-58.0-0.0,676.1,,,,50,"1,0,1",6,blank,279,null,0.479027245,0.179460009,0.763012125,0,,,,,,
,html-keyboard-response,108,289730,0.0-58.0-1.0,null,<p></p>,,null,,,,,,,,,,,,,,,,
,do_trial,109,292884,0.0-59.0-0.0,569,,,,51,"0,0,1",6,blank,280,null,0.505298505,0.195635755,0.619178055,1,,,,,,
,html-keyboard-response,110,293895,0.0-59.0-1.0,null,<p></p>,,null,,,,,,,,,,,,,,,,
,do_recog,111,295651,0.0-60.0-0.0,246.5,,,,53,,,,281,probe-97,,,,,1,[object Object],43,1,1,
,html-keyboard-response,112,296664,0.0-60.0-1.0,null,<p></p>,,null,,,,,,,,,,,,,,,,
,do_trial,113,301023,0.0-61.0-0.0,1769.9,,,,50,"1,0,0",6,blank,282,null,0.499287742,0.16110267,0.726952917,0,,,,,,
,html-keyboard-response,114,302033,0.0-61.0-1.0,null,<p></p>,,null,,,,,,,,,,,,,,,,
,do_recog,115,305297,0.0-62.0-0.0,1755.7,,,,53,,,,283,probe-88,,,,,1,[object Object],89,2,1,
,html-keyboard-response,116,306308,0.0-62.0-1.0,null,<p></p>,,null,,,,,,,,,,,,,,,,
,do_trial,117,309674,0.0-63.0-0.0,777.4,,,,50,"1,1,0",6,blank,284,null,0.461805707,0.125362852,0.838241669,1,,,,,,
,html-keyboard-response,118,310691,0.0-63.0-1.0,null,<p></p>,,null,,,,,,,,,,,,,,,,
,do_trial,119,313342,0.0-64.0-0.0,68.29999995,,,,50,"1,0,1",6,blank,285,null,0.443891442,0.149108406,0.768829998,0,,,,,,
,html-keyboard-response,120,314355,0.0-64.0-1.0,null,<p></p>,,null,,,,,,,,,,,,,,,,
,do_trial,121,317397,0.0-65.0-0.0,466.3,,,,51,"1,0,0",6,blank,286,null,0.531551968,0.088485407,0.781123228,0,,,,,,
,html-keyboard-response,122,318401,0.0-65.0-1.0,null,<p></p>,,null,,,,,,,,,,,,,,,,
,do_recog,123,322561,0.0-66.0-0.0,2641.3,,,,55,,,,287,probe-246,,,,,0,[object Object],null,null,1,
,html-keyboard-response,124,323578,0.0-66.0-1.0,null,<p></p>,,null,,,,,,,,,,,,,,,,
,do_trial,125,328390,0.0-67.0-0.0,2212.6,,,,51,"0,0,0",6,blank,288,null,0.48925446,0.057157089,0.806639466,0,,,,,,
,html-keyboard-response,126,329402,0.0-67.0-1.0,null,<p></p>,,null,,,,,,,,,,,,,,,,
,do_trial,127,332886,0.0-68.0-0.0,904.3,,,,51,"0,1,1",6,blank,289,null,0.345200612,0.135844181,0.759646808,1,,,,,,
,html-keyboard-response,128,333893,0.0-68.0-1.0,null,<p></p>,,null,,,,,,,,,,,,,,,,
,do_trial,129,337715,0.0-69.0-0.0,1231.5,,,,51,"0,1,0",6,blank,290,null,0.354176561,0.096785346,0.630930623,0,,,,,,
,html-keyboard-response,130,338728,0.0-69.0-1.0,null,<p></p>,,null,,,,,,,,,,,,,,,,
,do_trial,131,342930,0.0-70.0-0.0,1606.5,,,,51,"0,0,1",6,blank,291,null,0.506489292,0.14490159,0.691530966,1,,,,,,
,html-keyboard-response,132,343936,0.0-70.0-1.0,null,<p></p>,,null,,,,,,,,,,,,,,,,
,do_trial,133,348102,0.0-71.0-0.0,1587.9,,,,51,"0,0,0",6,blank,292,null,0.253716895,0.177716583,0.719145507,0,,,,,,
,html-keyboard-response,134,349117,0.0-71.0-1.0,null,<p></p>,,null,,,,,,,,,,,,,,,,
,do_recog,135,353382,0.0-72.0-0.0,2746.1,,,,55,,,,293,probe-249,,,,,0,[object Object],null,null,1,
,html-keyboard-response,136,354394,0.0-72.0-1.0,null,<p></p>,,null,,,,,,,,,,,,,,,,
,do_trial,137,357758,0.0-73.0-0.0,783.1,,,,51,"0,0,1",6,blank,294,null,0.247991678,0.246182068,0.798337007,1,,,,,,
,html-keyboard-response,138,358760,0.0-73.0-1.0,null,<p></p>,,null,,,,,,,,,,,,,,,,
,do_recog,139,361942,0.0-74.0-0.0,1662.6,,,,55,,,,295,probe-80,,,,,1,[object Object],83,2,0,
,html-keyboard-response,140,362946,0.0-74.0-1.0,null,<p></p>,,null,,,,,,,,,,,,,,,,
,do_trial,141,366211,0.0-75.0-0.0,679.7,,,,51,"0,1,1",6,blank,296,null,0.242387467,0.342126487,0.7743125,1,,,,,,
,html-keyboard-response,142,367227,0.0-75.0-1.0,null,<p></p>,,null,,,,,,,,,,,,,,,,
,do_trial,143,371226,0.0-76.0-0.0,1426.7,,,,51,"0,0,1",6,blank,297,null,0.182301922,0.402902887,0.579234727,1,,,,,,
,html-keyboard-response,144,372236,0.0-76.0-1.0,null,<p></p>,,null,,,,,,,,,,,,,,,,
,do_trial,145,375510,0.0-77.0-0.0,699.7,,,,51,"0,0,0",6,blank,298,null,0.218014599,0.483819464,0.39179989,0,,,,,,
,html-keyboard-response,146,376526,0.0-77.0-1.0,null,<p></p>,,null,,,,,,,,,,,,,,,,
,do_trial,147,379236,0.0-78.0-0.0,123.4,,,,51,"0,0,0",6,blank,299,null,0.408901874,0.436168244,0.281158995,0,,,,,,
,html-keyboard-response,148,380243,0.0-78.0-1.0,null,<p></p>,,null,,,,,,,,,,,,,,,,
,do_trial,149,384727,0.0-79.0-0.0,1907.9,,,,51,"0,0,0",6,blank,300,null,0.503473299,0.319988229,0.119811149,0,,,,,,
,html-keyboard-response,150,385743,0.0-79.0-1.0,null,<p></p>,,null,,,,,,,,,,,,,,,,
,do_trial,151,391828,0.0-80.0-0.0,null,,,,null,"1,0,0",6,blank,301,null,0.458774116,0.38026735,0.181225133,,,,,,,
,html-keyboard-response,152,392836,0.0-80.0-1.0,null,<p></p>,,null,,,,,,,,,,,,,,,,
,do_trial,153,396164,0.0-81.0-0.0,758,,,,51,"0,0,0",6,blank,302,null,0.506802993,0.20545117,0.125793468,0,,,,,,
,html-keyboard-response,154,397168,0.0-81.0-1.0,null,<p></p>,,null,,,,,,,,,,,,,,,,
,do_recog,155,399782,0.0-82.0-0.0,1101.1,,,,55,,,,303,probe-182,,,,,1,[object Object],128,3,0,
,html-keyboard-response,156,400790,0.0-82.0-1.0,null,<p></p>,,null,,,,,,,,,,,,,,,,
,do_trial,157,405303,0.0-83.0-0.0,1909.9,,,,51,"1,1,0",6,blank,304,null,0.499394964,0.285067038,0.12897304,0,,,,,,
,html-keyboard-response,158,406307,0.0-83.0-1.0,null,<p></p>,,null,,,,,,,,,,,,,,,,
,do_recog,159,409725,0.0-84.0-0.0,1908.4,,,,55,,,,305,probe-237,,,,,0,[object Object],null,null,1,
,html-keyboard-response,160,410740,0.0-84.0-1.0,null,<p></p>,,null,,,,,,,,,,,,,,,,
,do_trial,161,414149,0.0-85.0-0.0,827.1,,,,51,"0,1,1",6,blank,306,null,0.492760355,0.206342204,0.058968462,1,,,,,,
,html-keyboard-response,162,415162,0.0-85.0-1.0,null,<p></p>,,null,,,,,,,,,,,,,,,,
,do_trial,163,418600,0.0-86.0-0.0,859.4,,,,51,"1,0,0",6,blank,307,null,0.485445539,0.145552003,0.183114184,0,,,,,,
,html-keyboard-response,164,419603,0.0-86.0-1.0,null,<p></p>,,null,,,,,,,,,,,,,,,,
,do_trial,165,422955,0.0-87.0-0.0,770.3,,,,51,"1,0,0",6,blank,308,null,0.548815042,0.055029169,0.194705524,0,,,,,,
,html-keyboard-response,166,423970,0.0-87.0-1.0,null,<p></p>,,null,,,,,,,,,,,,,,,,
,do_trial,167,427414,0.0-88.0-0.0,861.6,,,,51,"1,0,0",6,blank,309,null,0.526768704,0.248730279,0.245491167,0,,,,,,
,html-keyboard-response,168,428425,0.0-88.0-1.0,null,<p></p>,,null,,,,,,,,,,,,,,,,
,do_trial,169,431821,0.0-89.0-0.0,817.7,,,,50,"1,0,0",6,blank,310,null,0.596869701,0.256373184,0.155242244,0,,,,,,
,html-keyboard-response,170,432833,0.0-89.0-1.0,null,<p></p>,,null,,,,,,,,,,,,,,,,
,do_trial,171,436190,0.0-90.0-0.0,765.1,,,,50,"0,0,0",6,blank,311,null,0.502473075,0.294271628,0.121976046,0,,,,,,
,html-keyboard-response,172,437192,0.0-90.0-1.0,null,<p></p>,,null,,,,,,,,,,,,,,,,
,do_trial,173,440918,0.0-91.0-0.0,1141.5,,,,50,"0,0,0",6,blank,312,null,0.452102267,0.394180878,0.081689447,0,,,,,,
,html-keyboard-response,174,441928,0.0-91.0-1.0,null,<p></p>,,null,,,,,,,,,,,,,,,,
,do_recog,175,447950,0.0-92.0-0.0,null,,,,null,,,,313,probe-39,,,,,1,[object Object],166,4,0,
,html-keyboard-response,176,448953,0.0-92.0-1.0,null,<p></p>,,null,,,,,,,,,,,,,,,,
,do_trial,177,451606,0.0-93.0-0.0,70.60000002,,,,50,"0,1,0",6,blank,314,null,0.453894373,0.375402062,0.119424758,1,,,,,,
,html-keyboard-response,178,452618,0.0-93.0-1.0,null,<p></p>,,null,,,,,,,,,,,,,,,,
,do_recog,179,454803,0.0-94.0-0.0,675,,,,54,,,,315,probe-15,,,,,1,[object Object],81,2,1,
,html-keyboard-response,180,455818,0.0-94.0-1.0,null,<p></p>,,null,,,,,,,,,,,,,,,,
,do_trial,181,459457,0.0-95.0-0.0,1048.3,,,,50,"1,0,0",6,blank,316,null,0.55685258,0.337084056,0.172233178,0,,,,,,
,html-keyboard-response,182,460459,0.0-95.0-1.0,null,<p></p>,,null,,,,,,,,,,,,,,,,
,do_recog,183,462744,0.0-96.0-0.0,769.8,,,,54,,,,317,probe-110,,,,,1,[object Object],200,5,1,
,html-keyboard-response,184,463768,0.0-96.0-1.0,null,<p></p>,,null,,,,,,,,,,,,,,,,
,do_trial,185,468623,0.0-97.0-0.0,2274.4,,,,50,"0,1,0",6,blank,318,null,0.686686401,0.288397184,0.276409943,1,,,,,,
,html-keyboard-response,186,469630,0.0-97.0-1.0,null,<p></p>,,null,,,,,,,,,,,,,,,,
,do_recog,187,471723,0.0-98.0-0.0,581.8,,,,54,,,,319,probe-186,,,,,1,[object Object],207,5,1,
,html-keyboard-response,188,472727,0.0-98.0-1.0,null,<p></p>,,null,,,,,,,,,,,,,,,,
,do_trial,189,476254,0.0-99.0-0.0,939.3,,,,50,"1,0,0",6,blank,320,null,0.744356601,0.24872796,0.246544102,0,,,,,,
,html-keyboard-response,190,477260,0.0-99.0-1.0,null,<p></p>,,null,,,,,,,,,,,,,,,,
,do_trial,191,480478,0.0-100.0-0.0,639.1,,,,50,"0,0,0",6,blank,321,null,0.651642958,0.246215687,0.051397308,0,,,,,,
,html-keyboard-response,192,481482,0.0-100.0-1.0,null,<p></p>,,null,,,,,,,,,,,,,,,,
,do_trial,193,484680,0.0-101.0-0.0,613,,,,50,"0,0,0",6,blank,322,null,0.530892215,0.319911538,0.174363983,0,,,,,,
,html-keyboard-response,194,485692,0.0-101.0-1.0,null,<p></p>,,null,,,,,,,,,,,,,,,,
,do_recog,195,487426,0.0-102.0-0.0,223,,,,54,,,,323,probe-252,,,,,0,[object Object],null,null,0,
,html-keyboard-response,196,488440,0.0-102.0-1.0,null,<p></p>,,null,,,,,,,,,,,,,,,,
,do_trial,197,494548,0.0-103.0-0.0,null,,,,null,"1,0,1",6,blank,324,null,0.573559936,0.362266092,0.130868584,,,,,,,
,html-keyboard-response,198,495552,0.0-103.0-1.0,null,<p></p>,,null,,,,,,,,,,,,,,,,
,do_recog,199,498264,0.0-104.0-0.0,1195.6,,,,54,,,,325,probe-176,,,,,1,[object Object],85,2,1,
,html-keyboard-response,200,499271,0.0-104.0-1.0,null,<p></p>,,null,,,,,,,,,,,,,,,,
,do_trial,201,505363,0.0-105.0-0.0,null,,,,null,"0,1,0",6,blank,326,null,0.525422927,0.323276398,0.115447418,,,,,,,
,html-keyboard-response,202,506380,0.0-105.0-1.0,null,<p></p>,,null,,,,,,,,,,,,,,,,
,do_trial,203,509056,0.0-106.0-0.0,106.6,,,,50,"1,1,0",6,blank,327,null,0.633977896,0.224085822,0.078432295,1,,,,,,
,html-keyboard-response,204,510067,0.0-106.0-1.0,null,<p></p>,,null,,,,,,,,,,,,,,,,
,do_trial,205,514769,0.0-107.0-0.0,2129.8,,,,50,"0,0,0",6,blank,328,null,0.565269641,0.277474874,0.139194664,0,,,,,,
,html-keyboard-response,206,515785,0.0-107.0-1.0,null,<p></p>,,null,,,,,,,,,,,,,,,,
,do_trial,207,519033,0.0-108.0-0.0,683,,,,50,"1,0,0",6,blank,329,null,0.704985166,0.166313403,0.210530328,0,,,,,,
,html-keyboard-response,208,520042,0.0-108.0-1.0,null,<p></p>,,null,,,,,,,,,,,,,,,,
,do_trial,209,523643,0.0-109.0-0.0,1019.8,,,,50,"0,0,0",6,blank,330,null,0.564761029,0.259493117,0.161215575,0,,,,,,
,html-keyboard-response,210,524660,0.0-109.0-1.0,null,<p></p>,,null,,,,,,,,,,,,,,,,
,do_trial,211,527970,0.0-110.0-0.0,735.6,,,,50,"1,0,0",6,blank,331,null,0.441732272,0.246663333,0.215435993,0,,,,,,
,html-keyboard-response,212,528985,0.0-110.0-1.0,null,<p></p>,,null,,,,,,,,,,,,,,,,
,do_trial,213,532633,0.0-111.0-0.0,1065,,,,50,"1,0,0",6,blank,332,null,0.581503839,0.279341941,0.276445535,0,,,,,,
,html-keyboard-response,214,533645,0.0-111.0-1.0,null,<p></p>,,null,,,,,,,,,,,,,,,,
,do_recog,215,536300,0.0-112.0-0.0,1135.8,,,,54,,,,333,probe-84,,,,,1,[object Object],164,4,1,
,html-keyboard-response,216,537301,0.0-112.0-1.0,null,<p></p>,,null,,,,,,,,,,,,,,,,
,do_trial,217,541497,0.0-113.0-0.0,1625.2,,,,51,"1,0,1",6,blank,334,null,0.553543365,0.321892244,0.190362278,1,,,,,,
,html-keyboard-response,218,542501,0.0-113.0-1.0,null,<p></p>,,null,,,,,,,,,,,,,,,,
,do_trial,219,545816,0.0-114.0-0.0,741.4,,,,51,"1,0,0",6,blank,335,null,0.633958848,0.27938712,0.109180893,0,,,,,,
,html-keyboard-response,220,546819,0.0-114.0-1.0,null,<p></p>,,null,,,,,,,,,,,,,,,,
,do_trial,221,551085,0.0-115.0-0.0,1686.2,,,,51,"1,0,0",6,blank,336,null,0.685495331,0.184529092,0.059757454,0,,,,,,
,html-keyboard-response,222,552099,0.0-115.0-1.0,null,<p></p>,,null,,,,,,,,,,,,,,,,
,do_trial,223,555550,0.0-116.0-0.0,864.7,,,,51,"1,1,1",6,blank,337,null,0.477590487,0.157377215,0.106505912,1,,,,,,
,html-keyboard-response,224,556556,0.0-116.0-1.0,null,<p></p>,,null,,,,,,,,,,,,,,,,
,do_trial,225,559861,0.0-117.0-0.0,714.8,,,,51,"1,0,1",6,blank,338,null,0.626373152,0.329294952,0.241878788,1,,,,,,
,html-keyboard-response,226,560870,0.0-117.0-1.0,null,<p></p>,,null,,,,,,,,,,,,,,,,
,do_trial,227,563528,0.0-118.0-0.0,70.09999996,,,,51,"0,0,1",6,blank,339,null,0.71865637,0.299377718,0.169436028,1,,,,,,
,html-keyboard-response,228,564531,0.0-118.0-1.0,null,<p></p>,,null,,,,,,,,,,,,,,,,
,do_trial,229,567986,0.0-119.0-0.0,866.3,,,,51,"0,0,0",6,blank,340,null,0.721808595,0.369331747,0.064336779,0,,,,,,
,html-keyboard-response,230,568991,0.0-119.0-1.0,null,<p></p>,,null,,,,,,,,,,,,,,,,
,do_recog,231,571177,0.0-120.0-0.0,675.3,,,,54,,,,341,probe-17,,,,,1,[object Object],203,5,1,
,html-keyboard-response,232,572189,0.0-120.0-1.0,null,<p></p>,,null,,,,,,,,,,,,,,,,
,do_trial,233,576901,0.0-121.0-0.0,2134.1,,,,51,"1,0,0",6,blank,342,null,0.659153313,0.245435998,0.074695734,0,,,,,,
,html-keyboard-response,234,577908,0.0-121.0-1.0,null,<p></p>,,null,,,,,,,,,,,,,,,,
,do_recog,235,580040,0.0-122.0-0.0,621.5,,,,54,,,,343,probe-244,,,,,0,[object Object],null,null,0,
,html-keyboard-response,236,581044,0.0-122.0-1.0,null,<p></p>,,null,,,,,,,,,,,,,,,,
,do_trial,237,585117,0.0-123.0-0.0,1491,,,,51,"1,1,1",6,blank,344,null,0.707300388,0.255018432,0.209449441,1,,,,,,
,html-keyboard-response,238,586128,0.0-123.0-1.0,null,<p></p>,,null,,,,,,,,,,,,,,,,
,do_trial,239,589236,0.0-124.0-0.0,533.2,,,,51,"0,1,0",6,blank,345,null,0.704594075,0.130072546,0.072346357,0,,,,,,
,html-keyboard-response,240,590250,0.0-124.0-1.0,null,<p></p>,,null,,,,,,,,,,,,,,,,
,do_recog,241,591967,0.0-125.0-0.0,195.3,,,,54,,,,346,probe-41,,,,,1,[object Object],86,2,1,
,html-keyboard-response,242,592983,0.0-125.0-1.0,null,<p></p>,,null,,,,,,,,,,,,,,,,
,do_trial,243,595960,0.0-126.0-0.0,398.4,,,,51,"1,0,0",6,blank,347,null,0.684035859,0.132482101,0.125852828,0,,,,,,
,html-keyboard-response,244,596971,0.0-126.0-1.0,null,<p></p>,,null,,,,,,,,,,,,,,,,
,do_trial,245,600482,0.0-127.0-0.0,945.7,,,,51,"1,0,0",6,blank,348,null,0.615774028,0.129103888,0.159359848,0,,,,,,
,html-keyboard-response,246,601492,0.0-127.0-1.0,null,<p></p>,,null,,,,,,,,,,,,,,,,
,do_recog,247,604871,0.0-128.0-0.0,1864.5,,,,54,,,,349,probe-98,,,,,1,[object Object],88,2,1,
,html-keyboard-response,248,605875,0.0-128.0-1.0,null,<p></p>,,null,,,,,,,,,,,,,,,,
,do_trial,249,609780,0.0-129.0-0.0,1328.1,,,,51,"1,0,0",6,blank,350,null,0.646759996,0.075102027,0.156021725,0,,,,,,
,html-keyboard-response,250,610783,0.0-129.0-1.0,null,<p></p>,,null,,,,,,,,,,,,,,,,
,do_recog,251,613073,0.0-130.0-0.0,781,,,,54,,,,351,probe-25,,,,,1,[object Object],121,3,1,
,html-keyboard-response,252,614078,0.0-130.0-1.0,null,<p></p>,,null,,,,,,,,,,,,,,,,
,do_trial,253,617810,0.0-131.0-0.0,1144.6,,,,51,"0,0,0",6,blank,352,null,0.491146029,0.393383227,0.112132453,0,,,,,,
,html-keyboard-response,254,618826,0.0-131.0-1.0,null,<p></p>,,null,,,,,,,,,,,,,,,,
,do_recog,255,622369,0.0-132.0-0.0,2034.6,,,,56,,,,353,probe-201,,,,,1,[object Object],124,3,0,
,html-keyboard-response,256,623382,0.0-132.0-1.0,null,<p></p>,,null,,,,,,,,,,,,,,,,
,do_trial,257,626823,0.0-133.0-0.0,870.4,,,,51,"1,0,0",6,blank,354,null,0.465938212,0.418114364,0.080225025,0,,,,,,
,html-keyboard-response,258,627834,0.0-133.0-1.0,null,<p></p>,,null,,,,,,,,,,,,,,,,
,do_trial,259,631088,0.0-134.0-0.0,678.1,,,,51,"0,1,0",6,blank,355,null,0.338921279,0.329567851,0.084221179,0,,,,,,
,html-keyboard-response,260,632096,0.0-134.0-1.0,null,<p></p>,,null,,,,,,,,,,,,,,,,
,do_trial,261,635969,0.0-135.0-0.0,1303.7,,,,51,"1,0,0",6,blank,356,null,0.319460324,0.416697785,0.219029766,0,,,,,,
,html-keyboard-response,262,636976,0.0-135.0-1.0,null,<p></p>,,null,,,,,,,,,,,,,,,,
,do_trial,263,640479,0.0-136.0-0.0,929.3,,,,51,"0,0,0",6,blank,357,null,0.283556469,0.59686785,0.217419191,0,,,,,,
,html-keyboard-response,264,641494,0.0-136.0-1.0,null,<p></p>,,null,,,,,,,,,,,,,,,,
,do_trial,265,644523,0.0-137.0-0.0,451.3,,,,51,"1,1,1",6,blank,358,null,0.266791916,0.573595816,0.192570899,1,,,,,,
,html-keyboard-response,266,645543,0.0-137.0-1.0,null,<p></p>,,null,,,,,,,,,,,,,,,,
,do_recog,267,651574,0.0-138.0-0.0,null,,,,null,,,,359,probe-99,,,,,1,[object Object],48,1,0,
,html-keyboard-response,268,652578,0.0-138.0-1.0,null,<p></p>,,null,,,,,,,,,,,,,,,,
,do_trial,269,658660,0.0-139.0-0.0,null,,,,null,"0,1,0",6,blank,360,null,0.293679829,0.529503179,0.119089324,,,,,,,
,html-keyboard-response,270,659672,0.0-139.0-1.0,null,<p></p>,,null,,,,,,,,,,,,,,,,
,do_trial,271,662716,0.0-140.0-0.0,452.5,,,,51,"0,0,1",6,blank,361,null,0.208253203,0.493595078,0.098470445,1,,,,,,
,html-keyboard-response,272,663719,0.0-140.0-1.0,null,<p></p>,,null,,,,,,,,,,,,,,,,
,do_trial,273,666881,0.0-141.0-0.0,567.9,,,,51,"1,1,0",6,blank,362,null,0.219621796,0.435754752,0.126708425,0,,,,,,
,html-keyboard-response,274,667897,0.0-141.0-1.0,null,<p></p>,,null,,,,,,,,,,,,,,,,
,do_trial,275,671611,0.0-142.0-0.0,1128.6,,,,51,"0,1,0",6,blank,363,null,0.23777501,0.595357788,0.183742631,0,,,,,,
,html-keyboard-response,276,672627,0.0-142.0-1.0,null,<p></p>,,null,,,,,,,,,,,,,,,,
,do_trial,277,676989,0.0-143.0-0.0,1782.2,,,,51,"0,1,0",6,blank,364,null,0.186454579,0.738048054,0.249498868,0,,,,,,
,html-keyboard-response,278,677996,0.0-143.0-1.0,null,<p></p>,,null,,,,,,,,,,,,,,,,
,do_recog,279,680574,0.0-144.0-0.0,1066.4,,,,56,,,,365,probe-159,,,,,1,[object Object],84,2,0,
,html-keyboard-response,280,681587,0.0-144.0-1.0,null,<p></p>,,null,,,,,,,,,,,,,,,,
,do_trial,281,685976,0.0-145.0-0.0,1804,,,,51,"1,1,0",6,blank,366,null,0.24117046,0.713987589,0.092856476,0,,,,,,
,html-keyboard-response,282,686980,0.0-145.0-1.0,null,<p></p>,,null,,,,,,,,,,,,,,,,
,do_trial,283,689879,0.0-146.0-0.0,322.7,,,,51,"0,1,0",6,blank,367,null,0.2561189,0.789391362,0.05533027,0,,,,,,
,html-keyboard-response,284,690887,0.0-146.0-1.0,null,<p></p>,,null,,,,,,,,,,,,,,,,
,do_recog,285,692586,0.0-147.0-0.0,191.8,,,,56,,,,368,probe-116,,,,,1,[object Object],45,1,0,
,html-keyboard-response,286,693590,0.0-147.0-1.0,null,<p></p>,,null,,,,,,,,,,,,,,,,
,do_trial,287,697510,0.0-148.0-0.0,1334.9,,,,51,"1,1,1",6,blank,369,null,0.297175107,0.606247915,0.079552227,1,,,,,,
,html-keyboard-response,288,698527,0.0-148.0-1.0,null,<p></p>,,null,,,,,,,,,,,,,,,,
,do_recog,289,701661,0.0-149.0-0.0,1614.9,,,,56,,,,370,probe-134,,,,,1,[object Object],87,2,0,
,html-keyboard-response,290,702669,0.0-149.0-1.0,null,<p></p>,,null,,,,,,,,,,,,,,,,
,do_trial,291,705257,0.0-150.0-0.0,0.900000036,,,,51,"1,0,0",6,blank,371,null,0.144124284,0.524201426,0.103766414,0,,,,,,
,html-keyboard-response,292,706275,0.0-150.0-1.0,null,<p></p>,,null,,,,,,,,,,,,,,,,
,do_trial,293,709593,0.0-151.0-0.0,739.5,,,,51,"0,0,0",6,blank,372,null,0.057632362,0.390707271,0.089374438,0,,,,,,
,html-keyboard-response,294,710604,0.0-151.0-1.0,null,<p></p>,,null,,,,,,,,,,,,,,,,
,do_trial,295,713193,0.0-152.0-0.0,0.699999988,,,,51,"0,1,0",6,blank,373,null,0.064952667,0.446316418,0.116783573,0,,,,,,
,html-keyboard-response,296,714197,0.0-152.0-1.0,null,<p></p>,,null,,,,,,,,,,,,,,,,
,do_trial,297,717434,0.0-153.0-0.0,657,,,,51,"0,0,0",6,blank,374,null,0.071129158,0.506495108,0.058732593,0,,,,,,
,html-keyboard-response,298,718447,0.0-153.0-1.0,null,<p></p>,,null,,,,,,,,,,,,,,,,
,do_trial,299,721341,0.0-154.0-0.0,318.5,,,,51,"0,1,0",6,blank,375,null,0.211341276,0.507267657,0.089651257,0,,,,,,
,html-keyboard-response,300,722358,0.0-154.0-1.0,null,<p></p>,,null,,,,,,,,,,,,,,,,
,do_trial,301,725569,0.0-155.0-0.0,636,,,,51,"0,0,0",6,blank,376,null,0.144649588,0.535347375,0.149809738,0,,,,,,
,html-keyboard-response,302,726572,0.0-155.0-1.0,null,<p></p>,,null,,,,,,,,,,,,,,,,
,do_trial,303,729785,0.0-156.0-0.0,635.3,,,,51,"0,1,1",6,blank,377,null,0.298314261,0.517877612,0.097130825,1,,,,,,
,html-keyboard-response,304,730802,0.0-156.0-1.0,null,<p></p>,,null,,,,,,,,,,,,,,,,
,do_recog,305,734021,0.0-157.0-0.0,1710.3,,,,56,,,,378,probe-127,,,,,1,[object Object],206,5,0,
,html-keyboard-response,306,735025,0.0-157.0-1.0,null,<p></p>,,null,,,,,,,,,,,,,,,,
,do_trial,307,738191,0.0-158.0-0.0,584.5,,,,51,"1,1,0",6,blank,379,null,0.33156991,0.479483157,0.057539424,0,,,,,,
,html-keyboard-response,308,739202,0.0-158.0-1.0,null,<p></p>,,null,,,,,,,,,,,,,,,,
,do_trial,309,742225,0.0-159.0-0.0,441.1,,,,51,"0,0,0",6,blank,380,null,0.241728294,0.577664242,0.141333779,0,,,,,,
,html-keyboard-response,310,743233,0.0-159.0-1.0,null,<p></p>,,null,,,,,,,,,,,,,,,,
,do_trial,311,746311,0.0-160.0-0.0,489.4,,,,51,"0,1,1",6,blank,381,null,0.382553514,0.552013177,0.112454652,1,,,,,,
,html-keyboard-response,312,747322,0.0-160.0-1.0,null,<p></p>,,null,,,,,,,,,,,,,,,,
,do_trial,313,750677,0.0-161.0-0.0,771.9,,,,50,"0,0,0",6,blank,382,null,0.246208567,0.473637499,0.091007062,0,,,,,,
,html-keyboard-response,314,751679,0.0-161.0-1.0,null,<p></p>,,null,,,,,,,,,,,,,,,,
,do_trial,315,755322,0.0-162.0-0.0,1069.8,,,,50,"0,1,1",6,blank,383,null,0.253884803,0.485886073,0.144718638,1,,,,,,
,html-keyboard-response,316,756337,0.0-162.0-1.0,null,<p></p>,,null,,,,,,,,,,,,,,,,
,do_recog,317,758633,0.0-163.0-0.0,776.1,,,,53,,,,384,probe-188,,,,,1,[object Object],208,5,1,
,html-keyboard-response,318,759650,0.0-163.0-1.0,null,<p></p>,,null,,,,,,,,,,,,,,,,
,do_trial,319,762903,0.0-164.0-0.0,664.8,,,,50,"1,1,0",6,blank,385,null,0.252823069,0.442973135,0.094419941,1,,,,,,
,html-keyboard-response,320,763914,0.0-164.0-1.0,null,<p></p>,,null,,,,,,,,,,,,,,,,
,do_recog,321,767084,0.0-165.0-0.0,1636.9,,,,53,,,,386,probe-138,,,,,1,[object Object],49,1,1,
,html-keyboard-response,322,768094,0.0-165.0-1.0,null,<p></p>,,null,,,,,,,,,,,,,,,,
,do_trial,323,772604,0.0-166.0-0.0,1905.2,,,,50,"1,0,1",6,blank,387,null,0.172225956,0.42003771,0.05184131,0,,,,,,
,html-keyboard-response,324,773611,0.0-166.0-1.0,null,<p></p>,,null,,,,,,,,,,,,,,,,
,do_recog,325,775835,0.0-167.0-0.0,712.3,,,,53,,,,388,probe-193,,,,,1,[object Object],82,2,1,
,html-keyboard-response,326,776838,0.0-167.0-1.0,null,<p></p>,,null,,,,,,,,,,,,,,,,
,do_trial,327,781812,0.0-168.0-0.0,2394.3,,,,50,"0,1,1",6,blank,389,null,0.245762823,0.390179711,0.21757139,1,,,,,,
,html-keyboard-response,328,782818,0.0-168.0-1.0,null,<p></p>,,null,,,,,,,,,,,,,,,,
,do_trial,329,786000,0.0-169.0-0.0,608.9,,,,50,"1,0,0",6,blank,390,null,0.365743891,0.349102638,0.09506384,0,,,,,,
,html-keyboard-response,330,787002,0.0-169.0-1.0,null,<p></p>,,null,,,,,,,,,,,,,,,,
,do_trial,331,790357,0.0-170.0-0.0,779.4,,,,50,"0,0,0",6,blank,391,null,0.343073065,0.399014176,0.113186922,0,,,,,,
,html-keyboard-response,332,791369,0.0-170.0-1.0,null,<p></p>,,null,,,,,,,,,,,,,,,,
,do_trial,333,794518,0.0-171.0-0.0,582.2,,,,50,"0,0,0",6,blank,392,null,0.159244858,0.38602254,0.175221486,0,,,,,,
,html-keyboard-response,334,795519,0.0-171.0-1.0,null,<p></p>,,null,,,,,,,,,,,,,,,,
,do_trial,335,799675,0.0-172.0-0.0,1576.7,,,,50,"0,0,1",6,blank,393,null,0.179602164,0.431868316,0.08534278,0,,,,,,
,html-keyboard-response,336,800689,0.0-172.0-1.0,null,<p></p>,,null,,,,,,,,,,,,,,,,
,do_trial,337,805571,0.0-173.0-0.0,2297.9,,,,50,"1,1,0",6,blank,394,null,0.152234783,0.417630255,0.116441034,1,,,,,,
,html-keyboard-response,338,806580,0.0-173.0-1.0,null,<p></p>,,null,,,,,,,,,,,,,,,,
,do_recog,339,809082,0.0-174.0-0.0,992.4,,,,53,,,,395,probe-09,,,,,1,[object Object],165,4,1,
,html-keyboard-response,340,810090,0.0-174.0-1.0,null,<p></p>,,null,,,,,,,,,,,,,,,,
,do_trial,341,813447,0.0-175.0-0.0,783.1,,,,50,"0,0,0",6,blank,396,null,0.209314249,0.478819137,0.157471005,0,,,,,,
,html-keyboard-response,342,814451,0.0-175.0-1.0,null,<p></p>,,null,,,,,,,,,,,,,,,,
,do_recog,343,817866,0.0-176.0-0.0,1900.9,,,,53,,,,397,probe-47,,,,,1,[object Object],163,4,1,
,html-keyboard-response,344,818882,0.0-176.0-1.0,null,<p></p>,,null,,,,,,,,,,,,,,,,
,do_trial,345,824070,0.0-177.0-0.0,2606.2,,,,50,"1,1,0",6,blank,398,null,0.218675175,0.599128968,0.19643466,1,,,,,,
,html-keyboard-response,346,825084,0.0-177.0-1.0,null,<p></p>,,null,,,,,,,,,,,,,,,,
,do_recog,347,828987,0.0-178.0-0.0,2379.3,,,,53,,,,399,probe-111,,,,,1,[object Object],125,3,1,
,html-keyboard-response,348,829989,0.0-178.0-1.0,null,<p></p>,,null,,,,,,,,,,,,,,,,
,do_trial,349,833940,0.0-179.0-0.0,1381.4,,,,49,"0,0,0",6,blank,400,null,0.175664842,0.58815469,0.101916987,0,,,,,,
,html-keyboard-response,350,834954,0.0-179.0-1.0,null,<p></p>,,null,,,,,,,,,,,,,,,,
,do_trial,351,839582,0.0-180.0-0.0,2046.1,,,,50,"0,1,0",6,blank,401,null,0.311697888,0.590414069,0.348610597,1,,,,,,
,html-keyboard-response,352,840592,0.0-180.0-1.0,null,<p></p>,,null,,,,,,,,,,,,,,,,
,do_trial,353,846682,0.0-181.0-0.0,null,,,,null,"1,0,0",6,blank,402,null,0.314066358,0.617913482,0.323891957,,,,,,,
,html-keyboard-response,354,847690,0.0-181.0-1.0,null,<p></p>,,null,,,,,,,,,,,,,,,,
,do_recog,355,850061,0.0-182.0-0.0,856.2,,,,53,,,,403,probe-38,,,,,1,[object Object],42,1,1,
,html-keyboard-response,356,851066,0.0-182.0-1.0,null,<p></p>,,null,,,,,,,,,,,,,,,,
,do_trial,357,854476,0.0-183.0-0.0,815.2,,,,50,"1,0,0",6,blank,404,null,0.387048882,0.674451977,0.154868578,0,,,,,,
,html-keyboard-response,358,855483,0.0-183.0-1.0,null,<p></p>,,null,,,,,,,,,,,,,,,,
,do_trial,359,859879,0.0-184.0-0.0,1821.5,,,,50,"0,1,0",6,blank,405,null,0.429460542,0.423841362,0.430079279,1,,,,,,
,html-keyboard-response,360,860883,0.0-184.0-1.0,null,<p></p>,,null,,,,,,,,,,,,,,,,
,do_trial,361,865780,0.0-185.0-0.0,2317.4,,,,50,"0,0,0",6,blank,406,null,0.333879311,0.356413648,0.495002582,0,,,,,,
,html-keyboard-response,362,866797,0.0-185.0-1.0,null,<p></p>,,null,,,,,,,,,,,,,,,,
,do_trial,363,872892,0.0-186.0-0.0,null,,,,null,"0,0,1",6,blank,407,null,0.166150146,0.404906244,0.551145718,,,,,,,
,html-keyboard-response,364,873901,0.0-186.0-1.0,null,<p></p>,,null,,,,,,,,,,,,,,,,
,do_trial,365,877199,0.0-187.0-0.0,719.4,,,,50,"0,0,0",6,blank,408,null,0.277328635,0.328920697,0.586908096,0,,,,,,
,html-keyboard-response,366,878206,0.0-187.0-1.0,null,<p></p>,,null,,,,,,,,,,,,,,,,
,do_recog,367,881290,0.0-188.0-0.0,1564.9,,,,53,,,,409,probe-170,,,,,1,[object Object],41,1,1,
,html-keyboard-response,368,882297,0.0-188.0-1.0,null,<p></p>,,null,,,,,,,,,,,,,,,,
,do_trial,369,885894,0.0-189.0-0.0,1031.5,,,,50,"0,0,1",6,blank,410,null,0.190664379,0.258743811,0.665386128,0,,,,,,
,html-keyboard-response,370,886903,0.0-189.0-1.0,null,<p></p>,,null,,,,,,,,,,,,,,,,
,do_trial,371,890116,0.0-190.0-0.0,620.2,,,,50,"0,0,0",6,blank,411,null,0.194989689,0.073235546,0.634113439,0,,,,,,
,html-keyboard-response,372,891130,0.0-190.0-1.0,null,<p></p>,,null,,,,,,,,,,,,,,,,
,do_trial,373,894369,0.0-191.0-0.0,664.2,,,,50,"1,0,1",6,blank,412,null,0.185589143,0.286688572,0.670210132,0,,,,,,
,html-keyboard-response,374,895379,0.0-191.0-1.0,null,<p></p>,,null,,,,,,,,,,,,,,,,
,do_recog,375,897572,0.0-192.0-0.0,674.2,,,,53,,,,413,probe-71,,,,,1,[object Object],80,2,1,
,html-keyboard-response,376,898589,0.0-192.0-1.0,null,<p></p>,,null,,,,,,,,,,,,,,,,
,do_trial,377,902073,0.0-193.0-0.0,904.4,,,,50,"1,0,1",6,blank,414,null,0.293238425,0.196090979,0.73724805,0,,,,,,
,html-keyboard-response,378,903077,0.0-193.0-1.0,null,<p></p>,,null,,,,,,,,,,,,,,,,
,do_trial,379,906171,0.0-194.0-0.0,516.6,,,,50,"0,0,0",6,blank,415,null,0.144599698,0.174672028,0.79925917,0,,,,,,
,html-keyboard-response,380,907180,0.0-194.0-1.0,null,<p></p>,,null,,,,,,,,,,,,,,,,
,do_trial,381,910586,0.0-195.0-0.0,831.6,,,,50,"0,1,1",6,blank,416,null,0.198152754,0.210430877,0.671972698,1,,,,,,
,html-keyboard-response,382,911595,0.0-195.0-1.0,null,<p></p>,,null,,,,,,,,,,,,,,,,
,do_trial,383,915027,0.0-196.0-0.0,858.7,,,,50,"1,1,1",6,blank,417,null,0.220716639,0.240865884,0.729848216,1,,,,,,
,html-keyboard-response,384,916042,0.0-196.0-1.0,null,<p></p>,,null,,,,,,,,,,,,,,,,
,do_recog,385,918075,0.0-197.0-0.0,514.6,,,,53,,,,418,probe-77,,,,,1,[object Object],161,4,1,
,html-keyboard-response,386,919088,0.0-197.0-1.0,null,<p></p>,,null,,,,,,,,,,,,,,,,
,do_trial,387,922501,0.0-198.0-0.0,825.3,,,,50,"0,0,1",6,blank,419,null,0.239806076,0.161208671,0.612953682,0,,,,,,
,html-keyboard-response,388,923510,0.0-198.0-1.0,null,<p></p>,,null,,,,,,,,,,,,,,,,
,do_recog,389,926009,0.0-199.0-0.0,981.5,,,,53,,,,420,probe-180,,,,,1,[object Object],160,4,1,
,html-keyboard-response,390,927018,0.0-199.0-1.0,null,<p></p>,,null,,,,,,,,,,,,,,,,
,do_trial,391,930354,0.0-200.0-0.0,755.4,,,,50,"1,0,1",6,blank,421,null,0.211992713,0.064533808,0.770180578,0,,,,,,
,html-keyboard-response,392,931360,0.0-200.0-1.0,null,<p></p>,,null,,,,,,,,,,,,,,,,
,do_trial,393,937449,0.0-201.0-0.0,null,,,,null,"0,0,0",6,blank,422,null,0.219287151,0.084862316,0.757083923,,,,,,,
,html-keyboard-response,394,938461,0.0-201.0-1.0,null,<p></p>,,null,,,,,,,,,,,,,,,,
,do_trial,395,943255,0.0-202.0-0.0,2223.5,,,,50,"0,1,1",6,blank,423,null,0.290539908,0.159659446,0.693790957,1,,,,,,
,html-keyboard-response,396,944259,0.0-202.0-1.0,null,<p></p>,,null,,,,,,,,,,,,,,,,
,do_trial,397,949744,0.0-203.0-0.0,2875.6,,,,50,"0,0,1",6,blank,424,null,0.284958469,0.100201497,0.673863038,0,,,,,,
,html-keyboard-response,398,950757,0.0-203.0-1.0,null,<p></p>,,null,,,,,,,,,,,,,,,,
,do_recog,399,954015,0.0-204.0-0.0,1746,,,,53,,,,425,probe-179,,,,,1,[object Object],44,1,1,
,html-keyboard-response,400,955026,0.0-204.0-1.0,null,<p></p>,,null,,,,,,,,,,,,,,,,
,do_trial,401,958554,0.0-205.0-0.0,940.9,,,,50,"0,0,1",6,blank,426,null,0.247833847,0.071811393,0.746503787,0,,,,,,
,html-keyboard-response,402,959559,0.0-205.0-1.0,null,<p></p>,,null,,,,,,,,,,,,,,,,
,do_trial,403,965645,0.0-206.0-0.0,null,,,,null,"0,0,1",6,blank,427,null,0.254473784,0.207387257,0.787493115,,,,,,,
,html-keyboard-response,404,966654,0.0-206.0-1.0,null,<p></p>,,null,,,,,,,,,,,,,,,,
,do_trial,405,969921,0.0-207.0-0.0,703.2,,,,50,"0,1,1",6,blank,428,null,0.205708632,0.323968314,0.725093329,1,,,,,,
,html-keyboard-response,406,970922,0.0-207.0-1.0,null,<p></p>,,null,,,,,,,,,,,,,,,,
,do_trial,407,974967,0.0-208.0-0.0,1463.9,,,,50,"0,0,0",6,blank,429,null,0.24008295,0.298429384,0.662140698,0,,,,,,
,html-keyboard-response,408,975981,0.0-208.0-1.0,null,<p></p>,,null,,,,,,,,,,,,,,,,
,do_trial,409,979154,0.0-209.0-0.0,594.9,,,,50,"0,0,1",6,blank,430,null,0.144060977,0.235429446,0.655875948,0,,,,,,
,html-keyboard-response,410,980157,0.0-209.0-1.0,null,<p></p>,,null,,,,,,,,,,,,,,,,
,do_recog,411,982571,0.0-210.0-0.0,897.4,,,,53,,,,431,probe-01,,,,,1,[object Object],168,4,1,
,html-keyboard-response,412,983579,0.0-210.0-1.0,null,<p></p>,,null,,,,,,,,,,,,,,,,
,do_trial,413,986731,0.0-211.0-0.0,570.8,,,,50,"0,0,1",6,blank,432,null,0.290474695,0.231619764,0.535317946,0,,,,,,
,html-keyboard-response,414,987738,0.0-211.0-1.0,null,<p></p>,,null,,,,,,,,,,,,,,,,
,do_recog,415,990237,0.0-212.0-0.0,977.6,,,,53,,,,433,probe-230,,,,,1,[object Object],167,4,1,
,html-keyboard-response,416,991249,0.0-212.0-1.0,null,<p></p>,,null,,,,,,,,,,,,,,,,
,do_trial,417,995339,0.0-213.0-0.0,1514.2,,,,50,"1,0,1",6,blank,434,null,0.448973005,0.185460291,0.667338594,0,,,,,,
,html-keyboard-response,418,996355,0.0-213.0-1.0,null,<p></p>,,null,,,,,,,,,,,,,,,,
,do_trial,419,998944,0.0-214.0-0.0,0.200000048,,,,50,"0,0,1",6,blank,435,null,0.271087565,0.102693538,0.677779325,0,,,,,,
,html-keyboard-response,420,999949,0.0-214.0-1.0,null,<p></p>,,null,,,,,,,,,,,,,,,,
,do_trial,421,1003387,0.0-215.0-0.0,857.9,,,,50,"0,0,1",6,blank,436,null,0.24332251,0.201585703,0.606976389,0,,,,,,
,html-keyboard-response,422,1004389,0.0-215.0-1.0,null,<p></p>,,null,,,,,,,,,,,,,,,,
,do_trial,423,1007263,0.0-216.0-0.0,302.9,,,,50,"0,0,0",6,blank,437,null,0.367699341,0.161889188,0.633583979,0,,,,,,
,html-keyboard-response,424,1008291,0.0-216.0-1.0,null,<p></p>,,null,,,,,,,,,,,,,,,,
,do_trial,425,1012683,0.0-217.0-0.0,1823.2,,,,50,"0,0,0",6,blank,438,null,0.415370715,0.116808046,0.484628577,0,,,,,,
,html-keyboard-response,426,1013696,0.0-217.0-1.0,null,<p></p>,,null,,,,,,,,,,,,,,,,
,do_trial,427,1019790,0.0-218.0-0.0,null,,,,null,"0,0,0",6,blank,439,null,0.475240326,0.133800954,0.535098562,,,,,,,
,html-keyboard-response,428,1020806,0.0-218.0-1.0,null,<p></p>,,null,,,,,,,,,,,,,,,,
,do_recog,429,1023522,0.0-219.0-0.0,1201,,,,53,,,,440,probe-136,,,,,1,[object Object],202,5,1,
,html-keyboard-response,430,1024524,0.0-219.0-1.0,null,<p></p>,,null,,,,,,,,,,,,,,,,
,do_trial,431,1028930,0.0-220.0-0.0,1830.4,,,,50,"0,0,0",6,blank,441,null,0.39959588,0.154221193,0.455270702,0,,,,,,
,html-keyboard-response,432,1029940,0.0-220.0-1.0,null,<p></p>,,null,,,,,,,,,,,,,,,,
,do_recog,433,1032117,0.0-221.0-0.0,655.6,,,,53,,,,442,probe-79,,,,,1,[object Object],162,4,1,
,html-keyboard-response,434,1033123,0.0-221.0-1.0,null,<p></p>,,null,,,,,,,,,,,,,,,,
,do_trial,435,1036467,0.0-222.0-0.0,758.4,,,,50,"0,0,0",6,blank,443,null,0.24012812,0.249202236,0.482061318,0,,,,,,
,html-keyboard-response,436,1037470,0.0-222.0-1.0,null,<p></p>,,null,,,,,,,,,,,,,,,,
,do_recog,437,1040105,0.0-223.0-0.0,1121.1,,,,53,,,,444,probe-40,,,,,1,[object Object],126,3,1,
,html-keyboard-response,438,1041118,0.0-223.0-1.0,null,<p></p>,,null,,,,,,,,,,,,,,,,
,do_trial,439,1046075,0.0-224.0-0.0,2371.9,,,,50,"1,0,1",6,blank,445,null,0.258139126,0.264989575,0.470856627,0,,,,,,
,html-keyboard-response,440,1047085,0.0-224.0-1.0,null,<p></p>,,null,,,,,,,,,,,,,,,,
,do_trial,441,1050563,0.0-225.0-0.0,903.5,,,,50,"0,0,1",6,blank,446,null,0.293060359,0.217372162,0.63224592,0,,,,,,
,html-keyboard-response,442,1051573,0.0-225.0-1.0,null,<p></p>,,null,,,,,,,,,,,,,,,,
,do_trial,443,1055189,0.0-226.0-0.0,1029,,,,50,"0,1,1",6,blank,447,null,0.317375837,0.290393109,0.651046703,1,,,,,,
,html-keyboard-response,444,1056197,0.0-226.0-1.0,null,<p></p>,,null,,,,,,,,,,,,,,,,
,do_recog,445,1059212,0.0-227.0-0.0,1505,,,,53,,,,448,probe-23,,,,,1,[object Object],120,3,1,
,html-keyboard-response,446,1060227,0.0-227.0-1.0,null,<p></p>,,null,,,,,,,,,,,,,,,,
,do_trial,447,1063417,0.0-228.0-0.0,614.8,,,,50,"0,0,1",6,blank,449,null,0.323366518,0.163976371,0.660430448,0,,,,,,
,html-keyboard-response,448,1064425,0.0-228.0-1.0,null,<p></p>,,null,,,,,,,,,,,,,,,,
,do_trial,449,1067279,0.0-229.0-0.0,272.5,,,,50,"1,0,1",6,blank,450,null,0.251426658,0.068498097,0.638998668,0,,,,,,
,html-keyboard-response,450,1068291,0.0-229.0-1.0,null,<p></p>,,null,,,,,,,,,,,,,,,,
,do_recog,451,1074331,0.0-230.0-0.0,null,,,,null,,,,451,probe-13,,,,,1,[object Object],129,3,0,
,html-keyboard-response,452,1075333,0.0-230.0-1.0,null,<p></p>,,null,,,,,,,,,,,,,,,,
,do_trial,453,1078426,0.0-231.0-0.0,512.1,,,,50,"1,0,1",6,blank,452,null,0.235000852,0.081479686,0.698555795,0,,,,,,
,html-keyboard-response,454,1079434,0.0-231.0-1.0,null,<p></p>,,null,,,,,,,,,,,,,,,,
,do_trial,455,1083770,0.0-232.0-0.0,1755.9,,,,50,"0,0,1",6,blank,453,null,0.235678708,0.109734542,0.732154426,0,,,,,,
,html-keyboard-response,456,1084774,0.0-232.0-1.0,null,<p></p>,,null,,,,,,,,,,,,,,,,
,do_trial,457,1087784,0.0-233.0-0.0,425.4,,,,50,"0,0,1",6,blank,454,null,0.305702086,0.104067335,0.703553016,0,,,,,,
,html-keyboard-response,458,1088787,0.0-233.0-1.0,null,<p></p>,,null,,,,,,,,,,,,,,,,
,do_trial,459,1094878,0.0-234.0-0.0,null,,,,null,"0,0,1",6,blank,455,null,0.340010264,0.088950101,0.746847043,,,,,,,
,html-keyboard-response,460,1095889,0.0-234.0-1.0,null,<p></p>,,null,,,,,,,,,,,,,,,,
,do_recog,461,1098314,0.0-235.0-0.0,911.5,,,,53,,,,456,probe-234,,,,,0,[object Object],null,null,0,
,html-keyboard-response,462,1099323,0.0-235.0-1.0,null,<p></p>,,null,,,,,,,,,,,,,,,,
,do_trial,463,1102606,0.0-236.0-0.0,700.7,,,,50,"1,1,0",6,blank,457,null,0.352219019,0.228720795,0.806878723,1,,,,,,
,html-keyboard-response,464,1103609,0.0-236.0-1.0,null,<p></p>,,null,,,,,,,,,,,,,,,,
,do_trial,465,1108901,0.0-237.0-0.0,2708.7,,,,50,"1,0,0",6,blank,458,null,0.546973087,0.09313137,0.444922779,0,,,,,,
,html-keyboard-response,466,1109911,0.0-237.0-1.0,null,<p></p>,,null,,,,,,,,,,,,,,,,
,do_trial,467,1113369,0.0-238.0-0.0,864.4,,,,50,"1,0,0",6,blank,459,null,0.589286519,0.210657279,0.471945383,0,,,,,,
,html-keyboard-response,468,1114383,0.0-238.0-1.0,null,<p></p>,,null,,,,,,,,,,,,,,,,
,do_trial,469,1117712,0.0-239.0-0.0,750.7,,,,50,"1,0,0",6,blank,460,null,0.650381578,0.103386083,0.308196857,0,,,,,,
,html-keyboard-response,470,1118727,0.0-239.0-1.0,null,<p></p>,,null,,,,,,,,,,,,,,,,
,do_trial,471,1122542,0.0-240.0-0.0,1237.1,,,,50,"0,0,0",6,blank,461,null,0.663783543,0.091239063,0.359953098,0,,,,,,
,html-keyboard-response,472,1123552,0.0-240.0-1.0,null,<p></p>,,null,,,,,,,,,,,,,,,,
,do_trial,473,1126646,0.0-241.0-0.0,503.9,,,,50,"1,0,0",6,blank,462,null,0.663521291,0.102397931,0.387199435,0,,,,,,
,html-keyboard-response,474,1127657,0.0-241.0-1.0,null,<p></p>,,null,,,,,,,,,,,,,,,,
,do_recog,475,1129190,0.0-242.0-0.0,6.599999964,,,,53,,,,463,probe-235,,,,,0,[object Object],null,null,0,
,html-keyboard-response,476,1130197,0.0-242.0-1.0,null,<p></p>,,null,,,,,,,,,,,,,,,,
,do_trial,477,1134228,0.0-243.0-0.0,1448.1,,,,50,"1,1,1",6,blank,464,null,0.628083369,0.10417498,0.313806754,1,,,,,,
,html-keyboard-response,478,1135240,0.0-243.0-1.0,null,<p></p>,,null,,,,,,,,,,,,,,,,
,do_trial,479,1138945,0.0-244.0-0.0,1130.4,,,,50,"0,0,0",6,blank,465,null,0.644281898,0.149509962,0.256647324,0,,,,,,
,html-keyboard-response,480,1139962,0.0-244.0-1.0,null,<p></p>,,null,,,,,,,,,,,,,,,,
,do_trial,481,1144502,0.0-245.0-0.0,1965.8,,,,50,"1,0,0",6,blank,466,null,0.429349119,0.071305699,0.234076226,0,,,,,,
,html-keyboard-response,482,1145508,0.0-245.0-1.0,null,<p></p>,,null,,,,,,,,,,,,,,,,
,do_trial,483,1149367,0.0-246.0-0.0,1269.3,,,,50,"1,0,1",6,blank,467,null,0.543012987,0.209198498,0.309501882,0,,,,,,
,html-keyboard-response,484,1150380,0.0-246.0-1.0,null,<p></p>,,null,,,,,,,,,,,,,,,,
,do_trial,485,1156474,0.0-247.0-0.0,null,,,,null,"1,0,1",6,blank,468,null,0.537028652,0.229727516,0.299444119,,,,,,,
,html-keyboard-response,486,1157485,0.0-247.0-1.0,null,<p></p>,,null,,,,,,,,,,,,,,,,
,do_recog,487,1159598,0.0-248.0-0.0,605,,,,53,,,,469,probe-250,,,,,0,[object Object],null,null,0,
,html-keyboard-response,488,1160604,0.0-248.0-1.0,null,<p></p>,,null,,,,,,,,,,,,,,,,
,do_trial,489,1164070,0.0-249.0-0.0,880.1,,,,50,"1,0,0",6,blank,470,null,0.502904088,0.117631971,0.166837918,0,,,,,,
,html-keyboard-response,490,1165080,0.0-249.0-1.0,null,<p></p>,,null,,,,,,,,,,,,,,,,
,do_trial,491,1168657,0.0-250.0-0.0,988.8,,,,50,"1,0,0",6,blank,471,null,0.456291451,0.054120943,0.229671491,0,,,,,,
,html-keyboard-response,492,1169660,0.0-250.0-1.0,null,<p></p>,,null,,,,,,,,,,,,,,,,
,do_trial,493,1173992,0.0-251.0-0.0,1759.6,,,,50,"0,0,1",6,blank,472,null,0.458082864,0.082061954,0.266255504,0,,,,,,
,html-keyboard-response,494,1175006,0.0-251.0-1.0,null,<p></p>,,null,,,,,,,,,,,,,,,,
,do_trial,495,1179142,0.0-252.0-0.0,1554.9,,,,50,"0,1,1",6,blank,473,null,0.529020399,0.102429306,0.38455476,1,,,,,,
,html-keyboard-response,496,1180154,0.0-252.0-1.0,null,<p></p>,,null,,,,,,,,,,,,,,,,
,do_trial,497,1184477,0.0-253.0-0.0,1753.5,,,,50,"1,0,0",6,blank,474,null,0.469984351,0.115829556,0.332309384,0,,,,,,
,html-keyboard-response,498,1185494,0.0-253.0-1.0,null,<p></p>,,null,,,,,,,,,,,,,,,,
,do_trial,499,1191585,0.0-254.0-0.0,null,,,,null,"1,0,1",6,blank,475,null,0.412488622,0.124710471,0.326702665,,,,,,,
,html-keyboard-response,500,1192593,0.0-254.0-1.0,null,<p></p>,,null,,,,,,,,,,,,,,,,
,do_trial,501,1195749,0.0-255.0-0.0,560.8,,,,50,"0,0,1",6,blank,476,null,0.42119216,0.151996138,0.275759473,0,,,,,,
,html-keyboard-response,502,1196753,0.0-255.0-1.0,null,<p></p>,,null,,,,,,,,,,,,,,,,
,do_recog,503,1199002,0.0-256.0-0.0,738.5,,,,53,,,,477,probe-238,,,,,0,[object Object],null,null,0,
,html-keyboard-response,504,1200012,0.0-256.0-1.0,null,<p></p>,,null,,,,,,,,,,,,,,,,
,do_trial,505,1204265,0.0-257.0-0.0,1679.8,,,,50,"0,0,0",6,blank,478,null,0.448699738,0.173513451,0.322175395,0,,,,,,
,html-keyboard-response,506,1205279,0.0-257.0-1.0,null,<p></p>,,null,,,,,,,,,,,,,,,,
,do_recog,507,1208141,0.0-258.0-0.0,1346.5,,,,53,,,,479,probe-248,,,,,0,[object Object],null,null,0,
,html-keyboard-response,508,1209154,0.0-258.0-1.0,null,<p></p>,,null,,,,,,,,,,,,,,,,
,do_pick_best_pirate,509,1216152,0.0-259.0-0.0,5984,,,,50,,,,,,,,,,,,,,,
,do_pick_best_pirate,510,1218842,0.0-260.0-0.0,1680.6,,,,51,,,,,,,,,,,,,,,
,do_pick_best_pirate,511,1222383,0.0-261.0-0.0,2520.2,,,,50,,,,,,,,,,,,,,,
,do_pick_best_pirate,512,1225321,0.0-262.0-0.0,1929.5,,,,50,,,,,,,,,,,,,,,
,do_pick_best_pirate,513,1227993,0.0-263.0-0.0,1664.6,,,,49,,,,,,,,,,,,,,,
,do_pick_best_pirate,514,1231330,0.0-264.0-0.0,2327.7,,,,49,,,,,,,,,,,,,,,
,html-keyboard-response,515,1234439,0.0-265.0-0.0,3106.8,<p>You are all done with the experiment!</p><p> You made $15 plus $2 in bonus payment!</p><p>Thank you for participating. You will recieve your payment within 3 days.<p><b>[Press the space bar to end the experiment]</b></p></div>,,32,,,,,,,,,,,,,,,,