"success","trial_type","trial_index","time_elapsed","internal_node_id","interactions","blur_events","focus_events","fullscreenenter_events","fullscreenexit_events","rt","stimulus","key_press","subject_id","participant_id","age","gender","prompt","response","choice_outcomes","context_n","context_img_id","trial_n","probe_img_id","pR_red","pR_white","pR_black","outcome","is_valid","image_to_show","probed_trial","probed_context","correct","probe","probed_trial_n","probed_context_n","context_im"
"true","fullscreen","0","5828","0.0-0.0","""event"",""trial"",""time""
""blur"",""0"",""0""
""focus"",""0"",""3231""
""fullscreenenter"",""0"",""4847""
","""event"",""trial"",""time""
""blur"",""0"",""0""
","""event"",""trial"",""time""
""focus"",""0"",""3231""
","""event"",""trial"",""time""
""fullscreenenter"",""0"",""4847""
","
","","","","","","","","","","","","","","","","","","","","","","","","","","",""
"","pavlovia","1","5831","0.0-1.0","""event"",""trial"",""time""
""blur"",""0"",""0""
""focus"",""0"",""3231""
""fullscreenenter"",""0"",""4847""
","""event"",""trial"",""time""
""blur"",""0"",""0""
","""event"",""trial"",""time""
""focus"",""0"",""3231""
","""event"",""trial"",""time""
""fullscreenenter"",""0"",""4847""
","
","","","","","","","","","","","","","","","","","","","","","","","","","","",""
"","welc_back","2","15659","0.0-2.0","""event"",""trial"",""time""
""blur"",""0"",""0""
""focus"",""0"",""3231""
""fullscreenenter"",""0"",""4847""
","""event"",""trial"",""time""
""blur"",""0"",""0""
","""event"",""trial"",""time""
""focus"",""0"",""3231""
","""event"",""trial"",""time""
""fullscreenenter"",""0"",""4847""
","
","null","run_exp/static/audio/clip_29_welcome_back.m4a","null","397","615","10","Male","<div class='center'><p>Welcome to day 2!</p><p> Yesterday, you were the head captain of a pirate ship. You asked your fellow pirates to rob other ships of their gold across six different islands.</p></div>","","","","","","","","","","","","","","","","","","",""
"","html-keyboard-response","3","16516","0.0-3.0","""event"",""trial"",""time""
""blur"",""0"",""0""
""focus"",""0"",""3231""
""fullscreenenter"",""0"",""4847""
","""event"",""trial"",""time""
""blur"",""0"",""0""
","""event"",""trial"",""time""
""focus"",""0"",""3231""
","""event"",""trial"",""time""
""fullscreenenter"",""0"",""4847""
","
","857","<div class='center'><p>Welcome to day 2!</p><p> Yesterday, you were the head captain of a pirate ship. You asked your fellow pirates to rob other ships of their gold across six different islands.</p><p><b>[Press the space bar to continue]</b></p></div>","32","","","","","","","","","","","","","","","","","","","","","","","",""
"","day_1_summary_goal","4","33706","0.0-4.0","""event"",""trial"",""time""
""blur"",""0"",""0""
""focus"",""0"",""3231""
""fullscreenenter"",""0"",""4847""
","""event"",""trial"",""time""
""blur"",""0"",""0""
","""event"",""trial"",""time""
""focus"",""0"",""3231""
","""event"",""trial"",""time""
""fullscreenenter"",""0"",""4847""
","
","null","run_exp/static/audio/clip_30_goal_of_game.m4a","null","","","","","<div class='center'><p>Today, like yesterday, you get to pick which pirate you want to rob the next ship.</p><p>If the pirate is successful in robbing a ship, you get gold coins that look like this: </p><p><img src='run_exp/static/images/tutorial/reward.png' height='150'></p><p> If they were not successful in robbing the ship, then you will get no gold coins and you'll see a big red x like this: </p><p><img src='run_exp/static/images/tutorial/reward_no.png' height='150'></p></div>","","","","","","","","","","","","","","","","","","",""
"","html-keyboard-response","5","35067","0.0-5.0","""event"",""trial"",""time""
""blur"",""0"",""0""
""focus"",""0"",""3231""
""fullscreenenter"",""0"",""4847""
","""event"",""trial"",""time""
""blur"",""0"",""0""
","""event"",""trial"",""time""
""focus"",""0"",""3231""
","""event"",""trial"",""time""
""fullscreenenter"",""0"",""4847""
","
","1360.7000000476837","<div class='center'><p>Today, like yesterday, you get to pick which pirate you want to rob the next ship.</p><p>If the pirate is successful in robbing a ship, you get gold coins that look like this: </p><p><img src='run_exp/static/images/tutorial/reward.png' height='150'></p><p> If they were not successful in robbing the ship, then you will get no gold coins and you'll see a big red x like this: </p><p><img src='run_exp/static/images/tutorial/reward_no.png' height='150'></p><p><b>[Press the space bar to continue]</b></p></div>","32","","","","","","","","","","","","","","","","","","","","","","","",""
"","day_1_summary_pick","6","49748","0.0-6.0","""event"",""trial"",""time""
""blur"",""0"",""0""
""focus"",""0"",""3231""
""fullscreenenter"",""0"",""4847""
","""event"",""trial"",""time""
""blur"",""0"",""0""
","""event"",""trial"",""time""
""focus"",""0"",""3231""
","""event"",""trial"",""time""
""fullscreenenter"",""0"",""4847""
","
","null","run_exp/static/audio/clip_31_how_to_pick_a_pirate.m4a","null","","","","","<div class='center'><p>Also, just like yesterday, you will use the 1,2,3 keys on your keyboard to pick a pirate. Press '1' to choose red beard, '2' to choose white beard, and '3' to choose black beard . You only have 3 seconds to pick a pirate, so please make a choice quickly!</p></div>","","","","","","","","","","","","","","","","","","",""
"","html-keyboard-response","7","52606","0.0-7.0","""event"",""trial"",""time""
""blur"",""0"",""0""
""focus"",""0"",""3231""
""fullscreenenter"",""0"",""4847""
","""event"",""trial"",""time""
""blur"",""0"",""0""
","""event"",""trial"",""time""
""focus"",""0"",""3231""
","""event"",""trial"",""time""
""fullscreenenter"",""0"",""4847""
","
","2857.399999856949","<div class='center'><p>Also, just like yesterday, you will use the 1,2,3 keys on your keyboard to pick a pirate. Press '1' to choose red beard, '2' to choose white beard, and '3' to choose black beard . You only have 3 seconds to pick a pirate, so please make a choice quickly!</p><p><b>[Press the space bar to continue]</b></p></div>","32","","","","","","","","","","","","","","","","","","","","","","","",""
"","test_phase_begin","8","82985","0.0-8.0","""event"",""trial"",""time""
""blur"",""0"",""0""
""focus"",""0"",""3231""
""fullscreenenter"",""0"",""4847""
","""event"",""trial"",""time""
""blur"",""0"",""0""
","""event"",""trial"",""time""
""focus"",""0"",""3231""
","""event"",""trial"",""time""
""fullscreenenter"",""0"",""4847""
","
","null","run_exp/static/audio/clip_32_final_place.m4a","null","","","","","<div class='center'><p>You’ve arrived at the final island of your journey! Unfortunately, it’s very foggy out, so you won’t be able to see it in the distance like the other islands you've visited.</p><p>You’ll still be deciding which pirate you want to rob a ship like before. However, because of the fog, you also won’t be able to see the ship.</p><p>This means you do not have to remember the ships you rob on this island.</p><p>Unlike yesterday, you won't be visiting multiple islands today. You will stay on this island for the entire game. This game will last ~30 minutes.</p></div>","","","","","","","","","","","","","","","","","","",""
"","html-keyboard-response","9","84174","0.0-9.0","""event"",""trial"",""time""
""blur"",""0"",""0""
""focus"",""0"",""3231""
""fullscreenenter"",""0"",""4847""
","""event"",""trial"",""time""
""blur"",""0"",""0""
","""event"",""trial"",""time""
""focus"",""0"",""3231""
","""event"",""trial"",""time""
""fullscreenenter"",""0"",""4847""
","
","1188.5","<div class='center'><p>You’ve arrived at the final island of your journey! Unfortunately, it’s very foggy out, so you won’t be able to see it in the distance like the other islands you've visited.</p><p>You’ll still be deciding which pirate you want to rob a ship like before. However, because of the fog, you also won’t be able to see the ship.</p><p>This means you do not have to remember the ships you rob on this island.</p><p>Unlike yesterday, you won't be visiting multiple islands today. You will stay on this island for the entire game. This game will last ~30 minutes.</p><p><b>[Press the space bar to continue]</b></p></div>","32","","","","","","","","","","","","","","","","","","","","","","","",""
"","explain_probe_1","10","91881","0.0-10.0","""event"",""trial"",""time""
""blur"",""0"",""0""
""focus"",""0"",""3231""
""fullscreenenter"",""0"",""4847""
","""event"",""trial"",""time""
""blur"",""0"",""0""
","""event"",""trial"",""time""
""focus"",""0"",""3231""
","""event"",""trial"",""time""
""fullscreenenter"",""0"",""4847""
","
","null","run_exp/static/audio/clip_33_recognition_1.m4a","null","","","","","<div class='center'><p> Sometimes you’ll be shown a ship, and you will be asked if you saw this ship on a past island.</p><p> Here is an example of what you will see.</p><p><img src='run_exp/static/images/tutorial/example_recog_trial.png' height='500'></p></div>","","","","","","","","","","","","","","","","","","",""
"","html-keyboard-response","11","93713","0.0-11.0","""event"",""trial"",""time""
""blur"",""0"",""0""
""focus"",""0"",""3231""
""fullscreenenter"",""0"",""4847""
","""event"",""trial"",""time""
""blur"",""0"",""0""
","""event"",""trial"",""time""
""focus"",""0"",""3231""
","""event"",""trial"",""time""
""fullscreenenter"",""0"",""4847""
","
","1831.7999999523163","<div class='center'><p> Sometimes you’ll be shown a ship, and you will be asked if you saw this ship on a past island.</p><p> Here is an example of what you will see.</p><p><img src='run_exp/static/images/tutorial/example_recog_trial.png' height='500'></p><p><b>[Press the space bar to continue]</b></p></div>","32","","","","","","","","","","","","","","","","","","","","","","","",""
"","explain_probe_2","12","115411","0.0-12.0","""event"",""trial"",""time""
""blur"",""0"",""0""
""focus"",""0"",""3231""
""fullscreenenter"",""0"",""4847""
","""event"",""trial"",""time""
""blur"",""0"",""0""
","""event"",""trial"",""time""
""focus"",""0"",""3231""
","""event"",""trial"",""time""
""fullscreenenter"",""0"",""4847""
","
","null","run_exp/static/audio/clip_34_recognition_2.m4a","null","","","","","<div class='center'><p> You will press the 5, 6, 7, 8 keys on your keyboard to respond.</p><p>If you are sure you saw the ship, press <b>5</b> on your keyboard.</p><p> If you think you saw it before but aren't sure, then press <b>6</b>.</p><p> If you think you have <b>not</b> seen it before but aren't sure, then press <b>7</b>.</p><p> If you are sure you did <b>not</b> see the ship before, then press <b>8</b>.</p><p><img src='run_exp/static/images/tutorial/example_recog_trial.png' height='500'></p></div>","","","","","","","","","","","","","","","","","","",""
"","html-keyboard-response","13","116608","0.0-13.0","""event"",""trial"",""time""
""blur"",""0"",""0""
""focus"",""0"",""3231""
""fullscreenenter"",""0"",""4847""
","""event"",""trial"",""time""
""blur"",""0"",""0""
","""event"",""trial"",""time""
""focus"",""0"",""3231""
","""event"",""trial"",""time""
""fullscreenenter"",""0"",""4847""
","
","1195.8000001907349","<div class='center'><p> You will press the 5, 6, 7, 8 keys on your keyboard to respond.</p><p>If you are sure you saw the ship, press <b>5</b> on your keyboard.</p><p> If you think you saw it before but aren't sure, then press <b>6</b>.</p><p> If you think you have <b>not</b> seen it before but aren't sure, then press <b>7</b>.</p><p> If you are sure you did <b>not</b> see the ship before, then press <b>8</b>.</p><p><img src='run_exp/static/images/tutorial/example_recog_trial.png' height='500'></p><p><b>[Press the space bar to continue]</b></p></div>","32","","","","","","","","","","","","","","","","","","","","","","","",""
"","explain_outcome","14","133800","0.0-14.0","""event"",""trial"",""time""
""blur"",""0"",""0""
""focus"",""0"",""3231""
""fullscreenenter"",""0"",""4847""
","""event"",""trial"",""time""
""blur"",""0"",""0""
","""event"",""trial"",""time""
""focus"",""0"",""3231""
","""event"",""trial"",""time""
""fullscreenenter"",""0"",""4847""
","
","null","run_exp/static/audio/clip_35_recognition_3.m4a","null","","","","","<div class='center'><p> If you remember correctly, then you’ll get a gold coin like this: </p><p><img src='run_exp/static/images/tutorial/reward_small.png' height='200'></p><p>If you do not remember correctly, then you'll see a red x like this: </p><p><img src='run_exp/static/images/tutorial/reward_no.png' height='200'></p><p>Importantly, when you are shown a ship, take the time to remind yourself which island you saw it on. This will help you in the next part of the study.</p></div>","","","","","","","","","","","","","","","","","","",""
"","html-keyboard-response","15","135811","0.0-15.0","""event"",""trial"",""time""
""blur"",""0"",""0""
""focus"",""0"",""3231""
""fullscreenenter"",""0"",""4847""
","""event"",""trial"",""time""
""blur"",""0"",""0""
","""event"",""trial"",""time""
""focus"",""0"",""3231""
","""event"",""trial"",""time""
""fullscreenenter"",""0"",""4847""
","
","2010.6000001430511","<div class='center'><p> If you remember correctly, then you’ll get a gold coin like this: </p><p><img src='run_exp/static/images/tutorial/reward_small.png' height='200'></p><p>If you do not remember correctly, then you'll see a red x like this: </p><p><img src='run_exp/static/images/tutorial/reward_no.png' height='200'></p><p>Importantly, when you are shown a ship, take the time to remind yourself which island you saw it on. This will help you in the next part of the study.</p><p><b>[Press the space bar to continue]</b></p></div>","32","","","","","","","","","","","","","","","","","","","","","","","",""
"","begin_test_phase","16","151613","0.0-16.0","""event"",""trial"",""time""
""blur"",""0"",""0""
""focus"",""0"",""3231""
""fullscreenenter"",""0"",""4847""
","""event"",""trial"",""time""
""blur"",""0"",""0""
","""event"",""trial"",""time""
""focus"",""0"",""3231""
","""event"",""trial"",""time""
""fullscreenenter"",""0"",""4847""
","
","null","run_exp/static/audio/clip_36_begin_final.m4a","null","","","","","<div class='center'><p>Let's go over the important points again. Your job is to: </p><p>1. Pick the pirate who is best at robbing ships and will bring you back gold coins. </p><p>2. Correctly remember whether or not you saw a ship before. If you did see the ship before, remind yourself on which island you saw it. </p></div>","","","","","","","","","","","","","","","","","","",""
"","html-keyboard-response","17","154464","0.0-17.0","""event"",""trial"",""time""
""blur"",""0"",""0""
""focus"",""0"",""3231""
""fullscreenenter"",""0"",""4847""
","""event"",""trial"",""time""
""blur"",""0"",""0""
","""event"",""trial"",""time""
""focus"",""0"",""3231""
","""event"",""trial"",""time""
""fullscreenenter"",""0"",""4847""
","
","2828.2000000476837","<div class='center'><p>Let's go over the important points again. Your job is to: </p><p>1. Pick the pirate who is best at robbing ships and will bring you back gold coins. </p><p>2. Correctly remember whether or not you saw a ship before. If you did see the ship before, remind yourself on which island you saw it. </p><p><b>[Press the space bar to continue]</b></p></div>","32","","","","","","","","","","","","","","","","","","","","","","","",""
"","do_welcome","18","158472","0.0-18.0","""event"",""trial"",""time""
""blur"",""0"",""0""
""focus"",""0"",""3231""
""fullscreenenter"",""0"",""4847""
","""event"",""trial"",""time""
""blur"",""0"",""0""
","""event"",""trial"",""time""
""focus"",""0"",""3231""
","""event"",""trial"",""time""
""fullscreenenter"",""0"",""4847""
","
","null","","","","","","","","null","","","","","","","","","","","","","","","","","",""
"","do_trial","19","162696","0.0-19.0-0.0","""event"",""trial"",""time""
""blur"",""0"",""0""
""focus"",""0"",""3231""
""fullscreenenter"",""0"",""4847""
","""event"",""trial"",""time""
""blur"",""0"",""0""
","""event"",""trial"",""time""
""focus"",""0"",""3231""
","""event"",""trial"",""time""
""fullscreenenter"",""0"",""4847""
","
","1688.4000000953674","","","","","","","","49","1,0,1","6","blank","230","null","0.5694710162353266","0.31917349917106896","0.22490357051123114","1","","","","","","","","",""
"","html-keyboard-response","20","163699","0.0-19.0-1.0","""event"",""trial"",""time""
""blur"",""0"",""0""
""focus"",""0"",""3231""
""fullscreenenter"",""0"",""4847""
","""event"",""trial"",""time""
""blur"",""0"",""0""
","""event"",""trial"",""time""
""focus"",""0"",""3231""
","""event"",""trial"",""time""
""fullscreenenter"",""0"",""4847""
","
","null","<p></p>","null","","","","","","","","","","","","","","","","","","","","","","","",""
"","do_trial","21","166498","0.0-20.0-0.0","""event"",""trial"",""time""
""blur"",""0"",""0""
""focus"",""0"",""3231""
""fullscreenenter"",""0"",""4847""
","""event"",""trial"",""time""
""blur"",""0"",""0""
","""event"",""trial"",""time""
""focus"",""0"",""3231""
","""event"",""trial"",""time""
""fullscreenenter"",""0"",""4847""
","
","263.89999985694885","","","","","","","","50","1,0,0","6","blank","231","null","0.5897890303835476","0.3844391629110517","0.1391901141693834","0","","","","","","","","",""
"","html-keyboard-response","22","167501","0.0-20.0-1.0","""event"",""trial"",""time""
""blur"",""0"",""0""
""focus"",""0"",""3231""
""fullscreenenter"",""0"",""4847""
","""event"",""trial"",""time""
""blur"",""0"",""0""
","""event"",""trial"",""time""
""focus"",""0"",""3231""
","""event"",""trial"",""time""
""fullscreenenter"",""0"",""4847""
","
","null","<p></p>","null","","","","","","","","","","","","","","","","","","","","","","","",""
"","do_trial","23","170278","0.0-21.0-0.0","""event"",""trial"",""time""
""blur"",""0"",""0""
""focus"",""0"",""3231""
""fullscreenenter"",""0"",""4847""
","""event"",""trial"",""time""
""blur"",""0"",""0""
","""event"",""trial"",""time""
""focus"",""0"",""3231""
","""event"",""trial"",""time""
""fullscreenenter"",""0"",""4847""
","
","241.89999985694885","","","","","","","","49","1,1,0","6","blank","232","null","0.6021428060993289","0.49263580018520475","0.29335042694609287","1","","","","","","","","",""
"","html-keyboard-response","24","171281","0.0-21.0-1.0","""event"",""trial"",""time""
""blur"",""0"",""0""
""focus"",""0"",""3231""
""fullscreenenter"",""0"",""4847""
","""event"",""trial"",""time""
""blur"",""0"",""0""
","""event"",""trial"",""time""
""focus"",""0"",""3231""
","""event"",""trial"",""time""
""fullscreenenter"",""0"",""4847""
","
","null","<p></p>","null","","","","","","","","","","","","","","","","","","","","","","","",""
"","do_trial","25","173954","0.0-22.0-0.0","""event"",""trial"",""time""
""blur"",""0"",""0""
""focus"",""0"",""3231""
""fullscreenenter"",""0"",""4847""
","""event"",""trial"",""time""
""blur"",""0"",""0""
","""event"",""trial"",""time""
""focus"",""0"",""3231""
","""event"",""trial"",""time""
""fullscreenenter"",""0"",""4847""
","
","141","","","","","","","","51","1,1,0","6","blank","233","null","0.5916436233090981","0.40557496107820173","0.1799801537882947","0","","","","","","","","",""
"","html-keyboard-response","26","174957","0.0-22.0-1.0","""event"",""trial"",""time""
""blur"",""0"",""0""
""focus"",""0"",""3231""
""fullscreenenter"",""0"",""4847""
","""event"",""trial"",""time""
""blur"",""0"",""0""
","""event"",""trial"",""time""
""focus"",""0"",""3231""
","""event"",""trial"",""time""
""fullscreenenter"",""0"",""4847""
","
","null","<p></p>","null","","","","","","","","","","","","","","","","","","","","","","","",""
"","do_trial","27","177642","0.0-23.0-0.0","""event"",""trial"",""time""
""blur"",""0"",""0""
""focus"",""0"",""3231""
""fullscreenenter"",""0"",""4847""
","""event"",""trial"",""time""
""blur"",""0"",""0""
","""event"",""trial"",""time""
""focus"",""0"",""3231""
","""event"",""trial"",""time""
""fullscreenenter"",""0"",""4847""
","
","154","","","","","","","","51","1,0,0","6","blank","234","null","0.6080099320888899","0.41162859818929093","0.13308745765345267","0","","","","","","","","",""
"","html-keyboard-response","28","178645","0.0-23.0-1.0","""event"",""trial"",""time""
""blur"",""0"",""0""
""focus"",""0"",""3231""
""fullscreenenter"",""0"",""4847""
","""event"",""trial"",""time""
""blur"",""0"",""0""
","""event"",""trial"",""time""
""focus"",""0"",""3231""
","""event"",""trial"",""time""
""fullscreenenter"",""0"",""4847""
","
","null","<p></p>","null","","","","","","","","","","","","","","","","","","","","","","","",""
"","do_trial","29","181180","0.0-24.0-0.0","""event"",""trial"",""time""
""blur"",""0"",""0""
""focus"",""0"",""3231""
""fullscreenenter"",""0"",""4847""
","""event"",""trial"",""time""
""blur"",""0"",""0""
","""event"",""trial"",""time""
""focus"",""0"",""3231""
","""event"",""trial"",""time""
""fullscreenenter"",""0"",""4847""
","
","0.09999990463256836","","","","","","","","49","0,0,0","6","blank","235","null","0.4527569144757095","0.4416504572551914","0.06839716884759882","0","","","","","","","","",""
"","html-keyboard-response","30","182182","0.0-24.0-1.0","""event"",""trial"",""time""
""blur"",""0"",""0""
""focus"",""0"",""3231""
""fullscreenenter"",""0"",""4847""
","""event"",""trial"",""time""
""blur"",""0"",""0""
","""event"",""trial"",""time""
""focus"",""0"",""3231""
","""event"",""trial"",""time""
""fullscreenenter"",""0"",""4847""
","
","null","<p></p>","null","","","","","","","","","","","","","","","","","","","","","","","",""
"","do_trial","31","184717","0.0-25.0-0.0","""event"",""trial"",""time""
""blur"",""0"",""0""
""focus"",""0"",""3231""
""fullscreenenter"",""0"",""4847""
","""event"",""trial"",""time""
""blur"",""0"",""0""
","""event"",""trial"",""time""
""focus"",""0"",""3231""
","""event"",""trial"",""time""
""fullscreenenter"",""0"",""4847""
","
","0.10000014305114746","","","","","","","","51","0,1,0","6","blank","236","null","0.5224805194034791","0.42442384318868775","0.12070657042060226","0","","","","","","","","",""
"","html-keyboard-response","32","185719","0.0-25.0-1.0","""event"",""trial"",""time""
""blur"",""0"",""0""
""focus"",""0"",""3231""
""fullscreenenter"",""0"",""4847""
","""event"",""trial"",""time""
""blur"",""0"",""0""
","""event"",""trial"",""time""
""focus"",""0"",""3231""
","""event"",""trial"",""time""
""fullscreenenter"",""0"",""4847""
","
","null","<p></p>","null","","","","","","","","","","","","","","","","","","","","","","","",""
"","do_trial","33","188356","0.0-26.0-0.0","""event"",""trial"",""time""
""blur"",""0"",""0""
""focus"",""0"",""3231""
""fullscreenenter"",""0"",""4847""
","""event"",""trial"",""time""
""blur"",""0"",""0""
","""event"",""trial"",""time""
""focus"",""0"",""3231""
","""event"",""trial"",""time""
""fullscreenenter"",""0"",""4847""
","
","103.09999990463257","","","","","","","","49","0,1,0","6","blank","237","null","0.5450298724367539","0.25353931985195954","0.23531284087150986","0","","","","","","","","",""
"","html-keyboard-response","34","189362","0.0-26.0-1.0","""event"",""trial"",""time""
""blur"",""0"",""0""
""focus"",""0"",""3231""
""fullscreenenter"",""0"",""4847""
","""event"",""trial"",""time""
""blur"",""0"",""0""
","""event"",""trial"",""time""
""focus"",""0"",""3231""
","""event"",""trial"",""time""
""fullscreenenter"",""0"",""4847""
","
","null","<p></p>","null","","","","","","","","","","","","","","","","","","","","","","","",""
"","do_trial","35","192043","0.0-27.0-0.0","""event"",""trial"",""time""
""blur"",""0"",""0""
""focus"",""0"",""3231""
""fullscreenenter"",""0"",""4847""
","""event"",""trial"",""time""
""blur"",""0"",""0""
","""event"",""trial"",""time""
""focus"",""0"",""3231""
","""event"",""trial"",""time""
""fullscreenenter"",""0"",""4847""
","
","149.69999980926514","","","","","","","","50","1,0,0","6","blank","238","null","0.5780811797122015","0.18841287395566497","0.11762098585237088","0","","","","","","","","",""
"","html-keyboard-response","36","193049","0.0-27.0-1.0","""event"",""trial"",""time""
""blur"",""0"",""0""
""focus"",""0"",""3231""
""fullscreenenter"",""0"",""4847""
","""event"",""trial"",""time""
""blur"",""0"",""0""
","""event"",""trial"",""time""
""focus"",""0"",""3231""
","""event"",""trial"",""time""
""fullscreenenter"",""0"",""4847""
","
","null","<p></p>","null","","","","","","","","","","","","","","","","","","","","","","","",""
"","do_trial","37","195656","0.0-28.0-0.0","""event"",""trial"",""time""
""blur"",""0"",""0""
""focus"",""0"",""3231""
""fullscreenenter"",""0"",""4847""
","""event"",""trial"",""time""
""blur"",""0"",""0""
","""event"",""trial"",""time""
""focus"",""0"",""3231""
","""event"",""trial"",""time""
""fullscreenenter"",""0"",""4847""
","
","75.09999990463257","","","","","","","","50","1,0,0","6","blank","239","null","0.5577423642916606","0.3003564011009744","0.23322418796723063","0","","","","","","","","",""
"","html-keyboard-response","38","196659","0.0-28.0-1.0","""event"",""trial"",""time""
""blur"",""0"",""0""
""focus"",""0"",""3231""
""fullscreenenter"",""0"",""4847""
","""event"",""trial"",""time""
""blur"",""0"",""0""
","""event"",""trial"",""time""
""focus"",""0"",""3231""
","""event"",""trial"",""time""
""fullscreenenter"",""0"",""4847""
","
","null","<p></p>","null","","","","","","","","","","","","","","","","","","","","","","","",""
"","do_trial","39","199303","0.0-29.0-0.0","""event"",""trial"",""time""
""blur"",""0"",""0""
""focus"",""0"",""3231""
""fullscreenenter"",""0"",""4847""
","""event"",""trial"",""time""
""blur"",""0"",""0""
","""event"",""trial"",""time""
""focus"",""0"",""3231""
","""event"",""trial"",""time""
""fullscreenenter"",""0"",""4847""
","
","109","","","","","","","","49","0,0,0","6","blank","240","null","0.548897815738047","0.2216696531547477","0.29170616731849647","0","","","","","","","","",""
"","html-keyboard-response","40","200306","0.0-29.0-1.0","""event"",""trial"",""time""
""blur"",""0"",""0""
""focus"",""0"",""3231""
""fullscreenenter"",""0"",""4847""
","""event"",""trial"",""time""
""blur"",""0"",""0""
","""event"",""trial"",""time""
""focus"",""0"",""3231""
","""event"",""trial"",""time""
""fullscreenenter"",""0"",""4847""
","
","null","<p></p>","null","","","","","","","","","","","","","","","","","","","","","","","",""
"","do_recog","41","206314","0.0-30.0-0.0","""event"",""trial"",""time""
""blur"",""0"",""0""
""focus"",""0"",""3231""
""fullscreenenter"",""0"",""4847""
","""event"",""trial"",""time""
""blur"",""0"",""0""
","""event"",""trial"",""time""
""focus"",""0"",""3231""
","""event"",""trial"",""time""
""fullscreenenter"",""0"",""4847""
","
","null","","","","","","","","null","","","","241","probe-50","","","","","1","[object Object]","158","3","0","","","",""
"","html-keyboard-response","42","207317","0.0-30.0-1.0","""event"",""trial"",""time""
""blur"",""0"",""0""
""focus"",""0"",""3231""
""fullscreenenter"",""0"",""4847""
","""event"",""trial"",""time""
""blur"",""0"",""0""
","""event"",""trial"",""time""
""focus"",""0"",""3231""
","""event"",""trial"",""time""
""fullscreenenter"",""0"",""4847""
","
","null","<p></p>","null","","","","","","","","","","","","","","","","","","","","","","","",""
"","do_trial","43","210913","0.0-31.0-0.0","""event"",""trial"",""time""
""blur"",""0"",""0""
""focus"",""0"",""3231""
""fullscreenenter"",""0"",""4847""
","""event"",""trial"",""time""
""blur"",""0"",""0""
","""event"",""trial"",""time""
""focus"",""0"",""3231""
","""event"",""trial"",""time""
""fullscreenenter"",""0"",""4847""
","
","1061.5","","","","","","","","51","1,0,0","6","blank","242","null","0.6117018421457209","0.1729136190477783","0.471435089613328","0","","","","","","","","",""
"","html-keyboard-response","44","211915","0.0-31.0-1.0","""event"",""trial"",""time""
""blur"",""0"",""0""
""focus"",""0"",""3231""
""fullscreenenter"",""0"",""4847""
","""event"",""trial"",""time""
""blur"",""0"",""0""
","""event"",""trial"",""time""
""focus"",""0"",""3231""
","""event"",""trial"",""time""
""fullscreenenter"",""0"",""4847""
","
","null","<p></p>","null","","","","","","","","","","","","","","","","","","","","","","","",""
"","do_trial","45","215109","0.0-32.0-0.0","""event"",""trial"",""time""
""blur"",""0"",""0""
""focus"",""0"",""3231""
""fullscreenenter"",""0"",""4847""
","""event"",""trial"",""time""
""blur"",""0"",""0""
","""event"",""trial"",""time""
""focus"",""0"",""3231""
","""event"",""trial"",""time""
""fullscreenenter"",""0"",""4847""
","
","659.5999999046326","","","","","","","","49","0,0,0","6","blank","243","null","0.3842104755465933","0.3560521798304715","0.5026271485652152","0","","","","","","","","",""
"","html-keyboard-response","46","216113","0.0-32.0-1.0","""event"",""trial"",""time""
""blur"",""0"",""0""
""focus"",""0"",""3231""
""fullscreenenter"",""0"",""4847""
","""event"",""trial"",""time""
""blur"",""0"",""0""
","""event"",""trial"",""time""
""focus"",""0"",""3231""
","""event"",""trial"",""time""
""fullscreenenter"",""0"",""4847""
","
","null","<p></p>","null","","","","","","","","","","","","","","","","","","","","","","","",""
"","do_trial","47","218684","0.0-33.0-0.0","""event"",""trial"",""time""
""blur"",""0"",""0""
""focus"",""0"",""3231""
""fullscreenenter"",""0"",""4847""
","""event"",""trial"",""time""
""blur"",""0"",""0""
","""event"",""trial"",""time""
""focus"",""0"",""3231""
","""event"",""trial"",""time""
""fullscreenenter"",""0"",""4847""
","
","39.299999952316284","","","","","","","","50","0,1,0","6","blank","244","null","0.1718224365849624","0.24520793207530156","0.4776272223957178","1","","","","","","","","",""
"","html-keyboard-response","48","219685","0.0-33.0-1.0","""event"",""trial"",""time""
""blur"",""0"",""0""
""focus"",""0"",""3231""
""fullscreenenter"",""0"",""4847""
","""event"",""trial"",""time""
""blur"",""0"",""0""
","""event"",""trial"",""time""
""focus"",""0"",""3231""
","""event"",""trial"",""time""
""fullscreenenter"",""0"",""4847""
","
","null","<p></p>","null","","","","","","","","","","","","","","","","","","","","","","","",""
"","do_trial","49","222793","0.0-34.0-0.0","""event"",""trial"",""time""
""blur"",""0"",""0""
""focus"",""0"",""3231""
""fullscreenenter"",""0"",""4847""
","""event"",""trial"",""time""
""blur"",""0"",""0""
","""event"",""trial"",""time""
""focus"",""0"",""3231""
","""event"",""trial"",""time""
""fullscreenenter"",""0"",""4847""
","
","573.9000000953674","","","","","","","","50","0,0,1","6","blank","245","null","0.12467383438552916","0.30240917151820973","0.31492951930327884","0","","","","","","","","",""
"","html-keyboard-response","50","223796","0.0-34.0-1.0","""event"",""trial"",""time""
""blur"",""0"",""0""
""focus"",""0"",""3231""
""fullscreenenter"",""0"",""4847""
","""event"",""trial"",""time""
""blur"",""0"",""0""
","""event"",""trial"",""time""
""focus"",""0"",""3231""
","""event"",""trial"",""time""
""fullscreenenter"",""0"",""4847""
","
","null","<p></p>","null","","","","","","","","","","","","","","","","","","","","","","","",""
"","do_trial","51","226591","0.0-35.0-0.0","""event"",""trial"",""time""
""blur"",""0"",""0""
""focus"",""0"",""3231""
""fullscreenenter"",""0"",""4847""
","""event"",""trial"",""time""
""blur"",""0"",""0""
","""event"",""trial"",""time""
""focus"",""0"",""3231""
","""event"",""trial"",""time""
""fullscreenenter"",""0"",""4847""
","
","264.7000000476837","","","","","","","","50","1,0,0","6","blank","246","null","0.20252882884890022","0.4381958321967774","0.39927271961445826","0","","","","","","","","",""
"","html-keyboard-response","52","227594","0.0-35.0-1.0","""event"",""trial"",""time""
""blur"",""0"",""0""
""focus"",""0"",""3231""
""fullscreenenter"",""0"",""4847""
","""event"",""trial"",""time""
""blur"",""0"",""0""
","""event"",""trial"",""time""
""focus"",""0"",""3231""
","""event"",""trial"",""time""
""fullscreenenter"",""0"",""4847""
","
","null","<p></p>","null","","","","","","","","","","","","","","","","","","","","","","","",""
"","do_trial","53","230214","0.0-36.0-0.0","""event"",""trial"",""time""
""blur"",""0"",""0""
""focus"",""0"",""3231""
""fullscreenenter"",""0"",""4847""
","""event"",""trial"",""time""
""blur"",""0"",""0""
","""event"",""trial"",""time""
""focus"",""0"",""3231""
","""event"",""trial"",""time""
""fullscreenenter"",""0"",""4847""
","
","89.29999995231628","","","","","","","","49","0,0,1","6","blank","247","null","0.16771126839232925","0.47888413861788615","0.4046521207456159","0","","","","","","","","",""
"","html-keyboard-response","54","231219","0.0-36.0-1.0","""event"",""trial"",""time""
""blur"",""0"",""0""
""focus"",""0"",""3231""
""fullscreenenter"",""0"",""4847""
","""event"",""trial"",""time""
""blur"",""0"",""0""
","""event"",""trial"",""time""
""focus"",""0"",""3231""
","""event"",""trial"",""time""
""fullscreenenter"",""0"",""4847""
","
","null","<p></p>","null","","","","","","","","","","","","","","","","","","","","","","","",""
"","do_trial","55","233780","0.0-37.0-0.0","""event"",""trial"",""time""
""blur"",""0"",""0""
""focus"",""0"",""3231""
""fullscreenenter"",""0"",""4847""
","""event"",""trial"",""time""
""blur"",""0"",""0""
","""event"",""trial"",""time""
""focus"",""0"",""3231""
","""event"",""trial"",""time""
""fullscreenenter"",""0"",""4847""
","
","31","","","","","","","","50","0,1,1","6","blank","248","null","0.05001889461153171","0.5991221481449908","0.4394500042063031","1","","","","","","","","",""
"","html-keyboard-response","56","234783","0.0-37.0-1.0","""event"",""trial"",""time""
""blur"",""0"",""0""
""focus"",""0"",""3231""
""fullscreenenter"",""0"",""4847""
","""event"",""trial"",""time""
""blur"",""0"",""0""
","""event"",""trial"",""time""
""focus"",""0"",""3231""
","""event"",""trial"",""time""
""fullscreenenter"",""0"",""4847""
","
","null","<p></p>","null","","","","","","","","","","","","","","","","","","","","","","","",""
"","do_recog","57","238331","0.0-38.0-0.0","""event"",""trial"",""time""
""blur"",""0"",""0""
""focus"",""0"",""3231""
""fullscreenenter"",""0"",""4847""
","""event"",""trial"",""time""
""blur"",""0"",""0""
","""event"",""trial"",""time""
""focus"",""0"",""3231""
","""event"",""trial"",""time""
""fullscreenenter"",""0"",""4847""
","
","2039.1000001430511","","","","","","","","56","","","","249","probe-117","","","","","1","[object Object]","71","1","0","","","",""
"","html-keyboard-response","58","239334","0.0-38.0-1.0","""event"",""trial"",""time""
""blur"",""0"",""0""
""focus"",""0"",""3231""
""fullscreenenter"",""0"",""4847""
","""event"",""trial"",""time""
""blur"",""0"",""0""
","""event"",""trial"",""time""
""focus"",""0"",""3231""
","""event"",""trial"",""time""
""fullscreenenter"",""0"",""4847""
","
","null","<p></p>","null","","","","","","","","","","","","","","","","","","","","","","","",""
"","do_trial","59","242750","0.0-39.0-0.0","""event"",""trial"",""time""
""blur"",""0"",""0""
""focus"",""0"",""3231""
""fullscreenenter"",""0"",""4847""
","""event"",""trial"",""time""
""blur"",""0"",""0""
","""event"",""trial"",""time""
""focus"",""0"",""3231""
","""event"",""trial"",""time""
""fullscreenenter"",""0"",""4847""
","
","882.5999999046326","","","","","","","","50","0,0,0","6","blank","250","null","0.16926659740357178","0.5021180748359764","0.4159793915348082","0","","","","","","","","",""
"","html-keyboard-response","60","243752","0.0-39.0-1.0","""event"",""trial"",""time""
""blur"",""0"",""0""
""focus"",""0"",""3231""
""fullscreenenter"",""0"",""4847""
","""event"",""trial"",""time""
""blur"",""0"",""0""
","""event"",""trial"",""time""
""focus"",""0"",""3231""
","""event"",""trial"",""time""
""fullscreenenter"",""0"",""4847""
","
","null","<p></p>","null","","","","","","","","","","","","","","","","","","","","","","","",""
"","do_recog","61","248126","0.0-40.0-0.0","""event"",""trial"",""time""
""blur"",""0"",""0""
""focus"",""0"",""3231""
""fullscreenenter"",""0"",""4847""
","""event"",""trial"",""time""
""blur"",""0"",""0""
","""event"",""trial"",""time""
""focus"",""0"",""3231""
","""event"",""trial"",""time""
""fullscreenenter"",""0"",""4847""
","
","2869.9000000953674","","","","","","","","53","","","","251","probe-121","","","","","1","[object Object]","70","1","1","","","",""
"","html-keyboard-response","62","249129","0.0-40.0-1.0","""event"",""trial"",""time""
""blur"",""0"",""0""
""focus"",""0"",""3231""
""fullscreenenter"",""0"",""4847""
","""event"",""trial"",""time""
""blur"",""0"",""0""
","""event"",""trial"",""time""
""focus"",""0"",""3231""
","""event"",""trial"",""time""
""fullscreenenter"",""0"",""4847""
","
","null","<p></p>","null","","","","","","","","","","","","","","","","","","","","","","","",""
"","do_trial","63","252027","0.0-41.0-0.0","""event"",""trial"",""time""
""blur"",""0"",""0""
""focus"",""0"",""3231""
""fullscreenenter"",""0"",""4847""
","""event"",""trial"",""time""
""blur"",""0"",""0""
","""event"",""trial"",""time""
""focus"",""0"",""3231""
","""event"",""trial"",""time""
""fullscreenenter"",""0"",""4847""
","
","368.09999990463257","","","","","","","","49","0,0,0","6","blank","252","null","0.10052367663560102","0.5345495506416145","0.4440281430347444","0","","","","","","","","",""
"","html-keyboard-response","64","253032","0.0-41.0-1.0","""event"",""trial"",""time""
""blur"",""0"",""0""
""focus"",""0"",""3231""
""fullscreenenter"",""0"",""4847""
","""event"",""trial"",""time""
""blur"",""0"",""0""
","""event"",""trial"",""time""
""focus"",""0"",""3231""
","""event"",""trial"",""time""
""fullscreenenter"",""0"",""4847""
","
","null","<p></p>","null","","","","","","","","","","","","","","","","","","","","","","","",""
"","do_trial","65","255562","0.0-42.0-0.0","""event"",""trial"",""time""
""blur"",""0"",""0""
""focus"",""0"",""3231""
""fullscreenenter"",""0"",""4847""
","""event"",""trial"",""time""
""blur"",""0"",""0""
","""event"",""trial"",""time""
""focus"",""0"",""3231""
","""event"",""trial"",""time""
""fullscreenenter"",""0"",""4847""
","
","0.09999990463256836","","","","","","","","50","0,1,0","6","blank","253","null","0.24508905148594673","0.5964261901026403","0.3737655048984512","1","","","","","","","","",""
"","html-keyboard-response","66","256565","0.0-42.0-1.0","""event"",""trial"",""time""
""blur"",""0"",""0""
""focus"",""0"",""3231""
""fullscreenenter"",""0"",""4847""
","""event"",""trial"",""time""
""blur"",""0"",""0""
","""event"",""trial"",""time""
""focus"",""0"",""3231""
","""event"",""trial"",""time""
""fullscreenenter"",""0"",""4847""
","
","null","<p></p>","null","","","","","","","","","","","","","","","","","","","","","","","",""
"","do_trial","67","259429","0.0-43.0-0.0","""event"",""trial"",""time""
""blur"",""0"",""0""
""focus"",""0"",""3231""
""fullscreenenter"",""0"",""4847""
","""event"",""trial"",""time""
""blur"",""0"",""0""
","""event"",""trial"",""time""
""focus"",""0"",""3231""
","""event"",""trial"",""time""
""fullscreenenter"",""0"",""4847""
","
","334.7999999523163","","","","","","","","49","0,0,1","6","blank","254","null","0.11594879098418318","0.5478645638867048","0.3726077608674644","0","","","","","","","","",""
"","html-keyboard-response","68","260433","0.0-43.0-1.0","""event"",""trial"",""time""
""blur"",""0"",""0""
""focus"",""0"",""3231""
""fullscreenenter"",""0"",""4847""
","""event"",""trial"",""time""
""blur"",""0"",""0""
","""event"",""trial"",""time""
""focus"",""0"",""3231""
","""event"",""trial"",""time""
""fullscreenenter"",""0"",""4847""
","
","null","<p></p>","null","","","","","","","","","","","","","","","","","","","","","","","",""
"","do_trial","69","263179","0.0-44.0-0.0","""event"",""trial"",""time""
""blur"",""0"",""0""
""focus"",""0"",""3231""
""fullscreenenter"",""0"",""4847""
","""event"",""trial"",""time""
""blur"",""0"",""0""
","""event"",""trial"",""time""
""focus"",""0"",""3231""
","""event"",""trial"",""time""
""fullscreenenter"",""0"",""4847""
","
","213.29999995231628","","","","","","","","50","0,0,0","6","blank","255","null","0.12976927624188453","0.6475687271131089","0.40588612239246447","0","","","","","","","","",""
"","html-keyboard-response","70","264181","0.0-44.0-1.0","""event"",""trial"",""time""
""blur"",""0"",""0""
""focus"",""0"",""3231""
""fullscreenenter"",""0"",""4847""
","""event"",""trial"",""time""
""blur"",""0"",""0""
","""event"",""trial"",""time""
""focus"",""0"",""3231""
","""event"",""trial"",""time""
""fullscreenenter"",""0"",""4847""
","
","null","<p></p>","null","","","","","","","","","","","","","","","","","","","","","","","",""
"","do_recog","71","268031","0.0-45.0-0.0","""event"",""trial"",""time""
""blur"",""0"",""0""
""focus"",""0"",""3231""
""fullscreenenter"",""0"",""4847""
","""event"",""trial"",""time""
""blur"",""0"",""0""
","""event"",""trial"",""time""
""focus"",""0"",""3231""
","""event"",""trial"",""time""
""fullscreenenter"",""0"",""4847""
","
","2341.800000190735","","","","","","","","53","","","","256","probe-135","","","","","1","[object Object]","117","2","1","","","",""
"","html-keyboard-response","72","269033","0.0-45.0-1.0","""event"",""trial"",""time""
""blur"",""0"",""0""
""focus"",""0"",""3231""
""fullscreenenter"",""0"",""4847""
","""event"",""trial"",""time""
""blur"",""0"",""0""
","""event"",""trial"",""time""
""focus"",""0"",""3231""
","""event"",""trial"",""time""
""fullscreenenter"",""0"",""4847""
","
","null","<p></p>","null","","","","","","","","","","","","","","","","","","","","","","","",""
"","do_trial","73","271844","0.0-46.0-0.0","""event"",""trial"",""time""
""blur"",""0"",""0""
""focus"",""0"",""3231""
""fullscreenenter"",""0"",""4847""
","""event"",""trial"",""time""
""blur"",""0"",""0""
","""event"",""trial"",""time""
""focus"",""0"",""3231""
","""event"",""trial"",""time""
""fullscreenenter"",""0"",""4847""
","
","276","","","","","","","","51","0,1,0","6","blank","257","null","0.11888336852179388","0.6712106417947612","0.45931222494436924","0","","","","","","","","",""
"","html-keyboard-response","74","272849","0.0-46.0-1.0","""event"",""trial"",""time""
""blur"",""0"",""0""
""focus"",""0"",""3231""
""fullscreenenter"",""0"",""4847""
","""event"",""trial"",""time""
""blur"",""0"",""0""
","""event"",""trial"",""time""
""focus"",""0"",""3231""
","""event"",""trial"",""time""
""fullscreenenter"",""0"",""4847""
","
","null","<p></p>","null","","","","","","","","","","","","","","","","","","","","","","","",""
"","do_recog","75","277050","0.0-47.0-0.0","""event"",""trial"",""time""
""blur"",""0"",""0""
""focus"",""0"",""3231""
""fullscreenenter"",""0"",""4847""
","""event"",""trial"",""time""
""blur"",""0"",""0""
","""event"",""trial"",""time""
""focus"",""0"",""3231""
","""event"",""trial"",""time""
""fullscreenenter"",""0"",""4847""
","
","2695.600000143051","","","","","","","","54","","","","258","probe-64","","","","","1","[object Object]","197","4","1","","","",""
"","html-keyboard-response","76","278052","0.0-47.0-1.0","""event"",""trial"",""time""
""blur"",""0"",""0""
""focus"",""0"",""3231""
""fullscreenenter"",""0"",""4847""
","""event"",""trial"",""time""
""blur"",""0"",""0""
","""event"",""trial"",""time""
""focus"",""0"",""3231""
","""event"",""trial"",""time""
""fullscreenenter"",""0"",""4847""
","
","null","<p></p>","null","","","","","","","","","","","","","","","","","","","","","","","",""
"","do_trial","77","281226","0.0-48.0-0.0","""event"",""trial"",""time""
""blur"",""0"",""0""
""focus"",""0"",""3231""
""fullscreenenter"",""0"",""4847""
","""event"",""trial"",""time""
""blur"",""0"",""0""
","""event"",""trial"",""time""
""focus"",""0"",""3231""
","""event"",""trial"",""time""
""fullscreenenter"",""0"",""4847""
","
","639.7000000476837","","","","","","","","50","0,1,1","6","blank","259","null","0.050265088269815794","0.7378857014108193","0.3689054211591055","1","","","","","","","","",""
"","html-keyboard-response","78","282229","0.0-48.0-1.0","""event"",""trial"",""time""
""blur"",""0"",""0""
""focus"",""0"",""3231""
""fullscreenenter"",""0"",""4847""
","""event"",""trial"",""time""
""blur"",""0"",""0""
","""event"",""trial"",""time""
""focus"",""0"",""3231""
","""event"",""trial"",""time""
""fullscreenenter"",""0"",""4847""
","
","null","<p></p>","null","","","","","","","","","","","","","","","","","","","","","","","",""
"","do_recog","79","285803","0.0-49.0-0.0","""event"",""trial"",""time""
""blur"",""0"",""0""
""focus"",""0"",""3231""
""fullscreenenter"",""0"",""4847""
","""event"",""trial"",""time""
""blur"",""0"",""0""
","""event"",""trial"",""time""
""focus"",""0"",""3231""
","""event"",""trial"",""time""
""fullscreenenter"",""0"",""4847""
","
","2069.100000143051","","","","","","","","56","","","","260","probe-107","","","","","1","[object Object]","72","1","0","","","",""
"","html-keyboard-response","80","286805","0.0-49.0-1.0","""event"",""trial"",""time""
""blur"",""0"",""0""
""focus"",""0"",""3231""
""fullscreenenter"",""0"",""4847""
","""event"",""trial"",""time""
""blur"",""0"",""0""
","""event"",""trial"",""time""
""focus"",""0"",""3231""
","""event"",""trial"",""time""
""fullscreenenter"",""0"",""4847""
","
","null","<p></p>","null","","","","","","","","","","","","","","","","","","","","","","","",""
"","do_trial","81","290221","0.0-50.0-0.0","""event"",""trial"",""time""
""blur"",""0"",""0""
""focus"",""0"",""3231""
""fullscreenenter"",""0"",""4847""
","""event"",""trial"",""time""
""blur"",""0"",""0""
","""event"",""trial"",""time""
""focus"",""0"",""3231""
","""event"",""trial"",""time""
""fullscreenenter"",""0"",""4847""
","
","886.3999998569489","","","","","","","","50","0,0,1","6","blank","261","null","0.07551638889686657","0.7412715000772356","0.26321176277030683","0","","","","","","","","",""
"","html-keyboard-response","82","291224","0.0-50.0-1.0","""event"",""trial"",""time""
""blur"",""0"",""0""
""focus"",""0"",""3231""
""fullscreenenter"",""0"",""4847""
","""event"",""trial"",""time""
""blur"",""0"",""0""
","""event"",""trial"",""time""
""focus"",""0"",""3231""
","""event"",""trial"",""time""
""fullscreenenter"",""0"",""4847""
","
","null","<p></p>","null","","","","","","","","","","","","","","","","","","","","","","","",""
"","do_trial","83","293911","0.0-51.0-0.0","""event"",""trial"",""time""
""blur"",""0"",""0""
""focus"",""0"",""3231""
""fullscreenenter"",""0"",""4847""
","""event"",""trial"",""time""
""blur"",""0"",""0""
","""event"",""trial"",""time""
""focus"",""0"",""3231""
","""event"",""trial"",""time""
""fullscreenenter"",""0"",""4847""
","
","156.90000009536743","","","","","","","","49","0,1,0","6","blank","262","null","0.22514334445615583","0.683925613281214","0.30184319344418137","0","","","","","","","","",""
"","html-keyboard-response","84","294915","0.0-51.0-1.0","""event"",""trial"",""time""
""blur"",""0"",""0""
""focus"",""0"",""3231""
""fullscreenenter"",""0"",""4847""
","""event"",""trial"",""time""
""blur"",""0"",""0""
","""event"",""trial"",""time""
""focus"",""0"",""3231""
","""event"",""trial"",""time""
""fullscreenenter"",""0"",""4847""
","
","null","<p></p>","null","","","","","","","","","","","","","","","","","","","","","","","",""
"","do_trial","85","297616","0.0-52.0-0.0","""event"",""trial"",""time""
""blur"",""0"",""0""
""focus"",""0"",""3231""
""fullscreenenter"",""0"",""4847""
","""event"",""trial"",""time""
""blur"",""0"",""0""
","""event"",""trial"",""time""
""focus"",""0"",""3231""
","""event"",""trial"",""time""
""fullscreenenter"",""0"",""4847""
","
","166.09999990463257","","","","","","","","50","0,0,0","6","blank","263","null","0.18465196882024523","0.5125552701755398","0.2278390264626038","0","","","","","","","","",""
"","html-keyboard-response","86","298622","0.0-52.0-1.0","""event"",""trial"",""time""
""blur"",""0"",""0""
""focus"",""0"",""3231""
""fullscreenenter"",""0"",""4847""
","""event"",""trial"",""time""
""blur"",""0"",""0""
","""event"",""trial"",""time""
""focus"",""0"",""3231""
","""event"",""trial"",""time""
""fullscreenenter"",""0"",""4847""
","
","null","<p></p>","null","","","","","","","","","","","","","","","","","","","","","","","",""
"","do_trial","87","301259","0.0-53.0-0.0","""event"",""trial"",""time""
""blur"",""0"",""0""
""focus"",""0"",""3231""
""fullscreenenter"",""0"",""4847""
","""event"",""trial"",""time""
""blur"",""0"",""0""
","""event"",""trial"",""time""
""focus"",""0"",""3231""
","""event"",""trial"",""time""
""fullscreenenter"",""0"",""4847""
","
","104.40000009536743","","","","","","","","51","0,0,0","6","blank","264","null","0.16653130910745112","0.49939110751634375","0.22182912558371226","0","","","","","","","","",""
"","html-keyboard-response","88","302265","0.0-53.0-1.0","""event"",""trial"",""time""
""blur"",""0"",""0""
""focus"",""0"",""3231""
""fullscreenenter"",""0"",""4847""
","""event"",""trial"",""time""
""blur"",""0"",""0""
","""event"",""trial"",""time""
""focus"",""0"",""3231""
","""event"",""trial"",""time""
""fullscreenenter"",""0"",""4847""
","
","null","<p></p>","null","","","","","","","","","","","","","","","","","","","","","","","",""
"","do_recog","89","305909","0.0-54.0-0.0","""event"",""trial"",""time""
""blur"",""0"",""0""
""focus"",""0"",""3231""
""fullscreenenter"",""0"",""4847""
","""event"",""trial"",""time""
""blur"",""0"",""0""
","""event"",""trial"",""time""
""focus"",""0"",""3231""
","""event"",""trial"",""time""
""fullscreenenter"",""0"",""4847""
","
","2136.7000000476837","","","","","","","","55","","","","265","probe-250","","","","","0","[object Object]","null","null","1","","","",""
"","html-keyboard-response","90","306915","0.0-54.0-1.0","""event"",""trial"",""time""
""blur"",""0"",""0""
""focus"",""0"",""3231""
""fullscreenenter"",""0"",""4847""
","""event"",""trial"",""time""
""blur"",""0"",""0""
","""event"",""trial"",""time""
""focus"",""0"",""3231""
","""event"",""trial"",""time""
""fullscreenenter"",""0"",""4847""
","
","null","<p></p>","null","","","","","","","","","","","","","","","","","","","","","","","",""
"","do_trial","91","309830","0.0-55.0-0.0","""event"",""trial"",""time""
""blur"",""0"",""0""
""focus"",""0"",""3231""
""fullscreenenter"",""0"",""4847""
","""event"",""trial"",""time""
""blur"",""0"",""0""
","""event"",""trial"",""time""
""focus"",""0"",""3231""
","""event"",""trial"",""time""
""fullscreenenter"",""0"",""4847""
","
","383.80000019073486","","","","","","","","49","0,1,0","6","blank","266","null","0.28205777163384016","0.5993634783100978","0.28176659795666714","0","","","","","","","","",""
"","html-keyboard-response","92","310833","0.0-55.0-1.0","""event"",""trial"",""time""
""blur"",""0"",""0""
""focus"",""0"",""3231""
""fullscreenenter"",""0"",""4847""
","""event"",""trial"",""time""
""blur"",""0"",""0""
","""event"",""trial"",""time""
""focus"",""0"",""3231""
","""event"",""trial"",""time""
""fullscreenenter"",""0"",""4847""
","
","null","<p></p>","null","","","","","","","","","","","","","","","","","","","","","","","",""
"","do_recog","93","313693","0.0-56.0-0.0","""event"",""trial"",""time""
""blur"",""0"",""0""
""focus"",""0"",""3231""
""fullscreenenter"",""0"",""4847""
","""event"",""trial"",""time""
""blur"",""0"",""0""
","""event"",""trial"",""time""
""focus"",""0"",""3231""
","""event"",""trial"",""time""
""fullscreenenter"",""0"",""4847""
","
","1354.0999999046326","","","","","","","","53","","","","267","probe-147","","","","","1","[object Object]","32","0","1","","","",""
"","html-keyboard-response","94","314696","0.0-56.0-1.0","""event"",""trial"",""time""
""blur"",""0"",""0""
""focus"",""0"",""3231""
""fullscreenenter"",""0"",""4847""
","""event"",""trial"",""time""
""blur"",""0"",""0""
","""event"",""trial"",""time""
""focus"",""0"",""3231""
","""event"",""trial"",""time""
""fullscreenenter"",""0"",""4847""
","
","null","<p></p>","null","","","","","","","","","","","","","","","","","","","","","","","",""
"","do_trial","95","318314","0.0-57.0-0.0","""event"",""trial"",""time""
""blur"",""0"",""0""
""focus"",""0"",""3231""
""fullscreenenter"",""0"",""4847""
","""event"",""trial"",""time""
""blur"",""0"",""0""
","""event"",""trial"",""time""
""focus"",""0"",""3231""
","""event"",""trial"",""time""
""fullscreenenter"",""0"",""4847""
","
","1086.3000001907349","","","","","","","","51","0,0,0","6","blank","268","null","0.28161446579626415","0.6535156641699681","0.22441580128994315","0","","","","","","","","",""
"","html-keyboard-response","96","319316","0.0-57.0-1.0","""event"",""trial"",""time""
""blur"",""0"",""0""
""focus"",""0"",""3231""
""fullscreenenter"",""0"",""4847""
","""event"",""trial"",""time""
""blur"",""0"",""0""
","""event"",""trial"",""time""
""focus"",""0"",""3231""
","""event"",""trial"",""time""
""fullscreenenter"",""0"",""4847""
","
","null","<p></p>","null","","","","","","","","","","","","","","","","","","","","","","","",""
"","break","97","439317","0.0-58.0-0.0","""event"",""trial"",""time""
""blur"",""0"",""0""
""focus"",""0"",""3231""
""fullscreenenter"",""0"",""4847""
","""event"",""trial"",""time""
""blur"",""0"",""0""
","""event"",""trial"",""time""
""focus"",""0"",""3231""
","""event"",""trial"",""time""
""fullscreenenter"",""0"",""4847""
","
","null","<div class='center'><p>Time to take a quick break! You have 2 minutes to rest, but you can move on sooner if you'd like.</p><p> Press the <b>space bar</b> to continue.</p></div>","null","","","","","","","","","","","","","","","","","","","","","","","",""
"","do_recog","98","445328","0.0-58.0-1.0","""event"",""trial"",""time""
""blur"",""0"",""0""
""focus"",""0"",""3231""
""fullscreenenter"",""0"",""4847""
","""event"",""trial"",""time""
""blur"",""0"",""0""
","""event"",""trial"",""time""
""focus"",""0"",""3231""
","""event"",""trial"",""time""
""fullscreenenter"",""0"",""4847""
","
","null","","","","","","","","null","","","","269","probe-141","","","","","1","[object Object]","195","4","0","","","",""
"","html-keyboard-response","99","446333","0.0-58.0-2.0","""event"",""trial"",""time""
""blur"",""0"",""0""
""focus"",""0"",""3231""
""fullscreenenter"",""0"",""4847""
","""event"",""trial"",""time""
""blur"",""0"",""0""
","""event"",""trial"",""time""
""focus"",""0"",""3231""
","""event"",""trial"",""time""
""fullscreenenter"",""0"",""4847""
","
","null","<p></p>","null","","","","","","","","","","","","","","","","","","","","","","","",""
"","do_trial","100","452371","0.0-59.0-0.0","""event"",""trial"",""time""
""blur"",""0"",""0""
""focus"",""0"",""3231""
""fullscreenenter"",""0"",""4847""
","""event"",""trial"",""time""
""blur"",""0"",""0""
","""event"",""trial"",""time""
""focus"",""0"",""3231""
","""event"",""trial"",""time""
""fullscreenenter"",""0"",""4847""
","
","null","","","","","","","","null","0,1,0","6","blank","270","null","0.19335781378976685","0.6469034165980995","0.3391371975280345","","","","","","","","","",""
"","html-keyboard-response","101","453373","0.0-59.0-1.0","""event"",""trial"",""time""
""blur"",""0"",""0""
""focus"",""0"",""3231""
""fullscreenenter"",""0"",""4847""
","""event"",""trial"",""time""
""blur"",""0"",""0""
","""event"",""trial"",""time""
""focus"",""0"",""3231""
","""event"",""trial"",""time""
""fullscreenenter"",""0"",""4847""
","
","null","<p></p>","null","","","","","","","","","","","","","","","","","","","","","","","",""
"","do_recog","102","457121","0.0-60.0-0.0","""event"",""trial"",""time""
""blur"",""0"",""0""
""focus"",""0"",""3231""
""fullscreenenter"",""0"",""4847""
","""event"",""trial"",""time""
""blur"",""0"",""0""
","""event"",""trial"",""time""
""focus"",""0"",""3231""
","""event"",""trial"",""time""
""fullscreenenter"",""0"",""4847""
","
","2239.2999999523163","","","","","","","","53","","","","271","probe-26","","","","","1","[object Object]","118","2","1","","","",""
"","html-keyboard-response","103","458124","0.0-60.0-1.0","""event"",""trial"",""time""
""blur"",""0"",""0""
""focus"",""0"",""3231""
""fullscreenenter"",""0"",""4847""
","""event"",""trial"",""time""
""blur"",""0"",""0""
","""event"",""trial"",""time""
""focus"",""0"",""3231""
","""event"",""trial"",""time""
""fullscreenenter"",""0"",""4847""
","
","null","<p></p>","null","","","","","","","","","","","","","","","","","","","","","","","",""
"","do_trial","104","461945","0.0-61.0-0.0","""event"",""trial"",""time""
""blur"",""0"",""0""
""focus"",""0"",""3231""
""fullscreenenter"",""0"",""4847""
","""event"",""trial"",""time""
""blur"",""0"",""0""
","""event"",""trial"",""time""
""focus"",""0"",""3231""
","""event"",""trial"",""time""
""fullscreenenter"",""0"",""4847""
","
","1287.5","","","","","","","","51","0,1,0","6","blank","272","null","0.07985078426017218","0.7194842644474622","0.33115257835937395","0","","","","","","","","",""
"","html-keyboard-response","105","462948","0.0-61.0-1.0","""event"",""trial"",""time""
""blur"",""0"",""0""
""focus"",""0"",""3231""
""fullscreenenter"",""0"",""4847""
","""event"",""trial"",""time""
""blur"",""0"",""0""
","""event"",""trial"",""time""
""focus"",""0"",""3231""
","""event"",""trial"",""time""
""fullscreenenter"",""0"",""4847""
","
","null","<p></p>","null","","","","","","","","","","","","","","","","","","","","","","","",""
"","do_trial","106","465804","0.0-62.0-0.0","""event"",""trial"",""time""
""blur"",""0"",""0""
""focus"",""0"",""3231""
""fullscreenenter"",""0"",""4847""
","""event"",""trial"",""time""
""blur"",""0"",""0""
","""event"",""trial"",""time""
""focus"",""0"",""3231""
","""event"",""trial"",""time""
""fullscreenenter"",""0"",""4847""
","
","321.10000014305115","","","","","","","","49","0,1,0","6","blank","273","null","0.12444831319672982","0.7580038593500307","0.23055278439048255","0","","","","","","","","",""
"","html-keyboard-response","107","466807","0.0-62.0-1.0","""event"",""trial"",""time""
""blur"",""0"",""0""
""focus"",""0"",""3231""
""fullscreenenter"",""0"",""4847""
","""event"",""trial"",""time""
""blur"",""0"",""0""
","""event"",""trial"",""time""
""focus"",""0"",""3231""
","""event"",""trial"",""time""
""fullscreenenter"",""0"",""4847""
","
","null","<p></p>","null","","","","","","","","","","","","","","","","","","","","","","","",""
"","do_trial","108","469398","0.0-63.0-0.0","""event"",""trial"",""time""
""blur"",""0"",""0""
""focus"",""0"",""3231""
""fullscreenenter"",""0"",""4847""
","""event"",""trial"",""time""
""blur"",""0"",""0""
","""event"",""trial"",""time""
""focus"",""0"",""3231""
","""event"",""trial"",""time""
""fullscreenenter"",""0"",""4847""
","
","61.90000009536743","","","","","","","","50","0,1,0","6","blank","274","null","0.15090330438063904","0.6528457368900406","0.23012718496196843","1","","","","","","","","",""
"","html-keyboard-response","109","470401","0.0-63.0-1.0","""event"",""trial"",""time""
""blur"",""0"",""0""
""focus"",""0"",""3231""
""fullscreenenter"",""0"",""4847""
","""event"",""trial"",""time""
""blur"",""0"",""0""
","""event"",""trial"",""time""
""focus"",""0"",""3231""
","""event"",""trial"",""time""
""fullscreenenter"",""0"",""4847""
","
","null","<p></p>","null","","","","","","","","","","","","","","","","","","","","","","","",""
"","do_trial","110","472935","0.0-64.0-0.0","""event"",""trial"",""time""
""blur"",""0"",""0""
""focus"",""0"",""3231""
""fullscreenenter"",""0"",""4847""
","""event"",""trial"",""time""
""blur"",""0"",""0""
","""event"",""trial"",""time""
""focus"",""0"",""3231""
","""event"",""trial"",""time""
""fullscreenenter"",""0"",""4847""
","
","0.09999990463256836","","","","","","","","50","0,1,0","6","blank","275","null","0.13010141176046383","0.6462205971137904","0.22766008468550955","1","","","","","","","","",""
"","html-keyboard-response","111","473938","0.0-64.0-1.0","""event"",""trial"",""time""
""blur"",""0"",""0""
""focus"",""0"",""3231""
""fullscreenenter"",""0"",""4847""
","""event"",""trial"",""time""
""blur"",""0"",""0""
","""event"",""trial"",""time""
""focus"",""0"",""3231""
","""event"",""trial"",""time""
""fullscreenenter"",""0"",""4847""
","
","null","<p></p>","null","","","","","","","","","","","","","","","","","","","","","","","",""
"","do_trial","112","476950","0.0-65.0-0.0","""event"",""trial"",""time""
""blur"",""0"",""0""
""focus"",""0"",""3231""
""fullscreenenter"",""0"",""4847""
","""event"",""trial"",""time""
""blur"",""0"",""0""
","""event"",""trial"",""time""
""focus"",""0"",""3231""
","""event"",""trial"",""time""
""fullscreenenter"",""0"",""4847""
","
","480","","","","","","","","49","0,1,0","6","blank","276","null","0.1454930207792121","0.5924427145067022","0.2146361211235476","0","","","","","","","","",""
"","html-keyboard-response","113","477955","0.0-65.0-1.0","""event"",""trial"",""time""
""blur"",""0"",""0""
""focus"",""0"",""3231""
""fullscreenenter"",""0"",""4847""
","""event"",""trial"",""time""
""blur"",""0"",""0""
","""event"",""trial"",""time""
""focus"",""0"",""3231""
","""event"",""trial"",""time""
""fullscreenenter"",""0"",""4847""
","
","null","<p></p>","null","","","","","","","","","","","","","","","","","","","","","","","",""
"","do_trial","114","480823","0.0-66.0-0.0","""event"",""trial"",""time""
""blur"",""0"",""0""
""focus"",""0"",""3231""
""fullscreenenter"",""0"",""4847""
","""event"",""trial"",""time""
""blur"",""0"",""0""
","""event"",""trial"",""time""
""focus"",""0"",""3231""
","""event"",""trial"",""time""
""fullscreenenter"",""0"",""4847""
","
","333.2000000476837","","","","","","","","50","0,0,0","6","blank","277","null","0.2912917927914065","0.5302129644962902","0.0675103608523078","0","","","","","","","","",""
"","html-keyboard-response","115","481826","0.0-66.0-1.0","""event"",""trial"",""time""
""blur"",""0"",""0""
""focus"",""0"",""3231""
""fullscreenenter"",""0"",""4847""
","""event"",""trial"",""time""
""blur"",""0"",""0""
","""event"",""trial"",""time""
""focus"",""0"",""3231""
","""event"",""trial"",""time""
""fullscreenenter"",""0"",""4847""
","
","null","<p></p>","null","","","","","","","","","","","","","","","","","","","","","","","",""
"","do_recog","116","485606","0.0-67.0-0.0","""event"",""trial"",""time""
""blur"",""0"",""0""
""focus"",""0"",""3231""
""fullscreenenter"",""0"",""4847""
","""event"",""trial"",""time""
""blur"",""0"",""0""
","""event"",""trial"",""time""
""focus"",""0"",""3231""
","""event"",""trial"",""time""
""fullscreenenter"",""0"",""4847""
","
","2271.5","","","","","","","","53","","","","278","probe-255","","","","","0","[object Object]","null","null","0","","","",""
"","html-keyboard-response","117","486608","0.0-67.0-1.0","""event"",""trial"",""time""
""blur"",""0"",""0""
""focus"",""0"",""3231""
""fullscreenenter"",""0"",""4847""
","""event"",""trial"",""time""
""blur"",""0"",""0""
","""event"",""trial"",""time""
""focus"",""0"",""3231""
","""event"",""trial"",""time""
""fullscreenenter"",""0"",""4847""
","
","null","<p></p>","null","","","","","","","","","","","","","","","","","","","","","","","",""
"","do_trial","118","490048","0.0-68.0-0.0","""event"",""trial"",""time""
""blur"",""0"",""0""
""focus"",""0"",""3231""
""fullscreenenter"",""0"",""4847""
","""event"",""trial"",""time""
""blur"",""0"",""0""
","""event"",""trial"",""time""
""focus"",""0"",""3231""
","""event"",""trial"",""time""
""fullscreenenter"",""0"",""4847""
","
","904.6000001430511","","","","","","","","51","0,0,0","6","blank","279","null","0.35820967989745117","0.4607859532103404","0.13925441393419458","0","","","","","","","","",""
"","html-keyboard-response","119","491051","0.0-68.0-1.0","""event"",""trial"",""time""
""blur"",""0"",""0""
""focus"",""0"",""3231""
""fullscreenenter"",""0"",""4847""
","""event"",""trial"",""time""
""blur"",""0"",""0""
","""event"",""trial"",""time""
""focus"",""0"",""3231""
","""event"",""trial"",""time""
""fullscreenenter"",""0"",""4847""
","
","null","<p></p>","null","","","","","","","","","","","","","","","","","","","","","","","",""
"","do_recog","120","494089","0.0-69.0-0.0","""event"",""trial"",""time""
""blur"",""0"",""0""
""focus"",""0"",""3231""
""fullscreenenter"",""0"",""4847""
","""event"",""trial"",""time""
""blur"",""0"",""0""
","""event"",""trial"",""time""
""focus"",""0"",""3231""
","""event"",""trial"",""time""
""fullscreenenter"",""0"",""4847""
","
","1529.3999998569489","","","","","","","","53","","","","280","probe-191","","","","","1","[object Object]","157","3","1","","","",""
"","html-keyboard-response","121","495091","0.0-69.0-1.0","""event"",""trial"",""time""
""blur"",""0"",""0""
""focus"",""0"",""3231""
""fullscreenenter"",""0"",""4847""
","""event"",""trial"",""time""
""blur"",""0"",""0""
","""event"",""trial"",""time""
""focus"",""0"",""3231""
","""event"",""trial"",""time""
""fullscreenenter"",""0"",""4847""
","
","null","<p></p>","null","","","","","","","","","","","","","","","","","","","","","","","",""
"","do_trial","122","498506","0.0-70.0-0.0","""event"",""trial"",""time""
""blur"",""0"",""0""
""focus"",""0"",""3231""
""fullscreenenter"",""0"",""4847""
","""event"",""trial"",""time""
""blur"",""0"",""0""
","""event"",""trial"",""time""
""focus"",""0"",""3231""
","""event"",""trial"",""time""
""fullscreenenter"",""0"",""4847""
","
","881.7999999523163","","","","","","","","49","0,1,1","6","blank","281","null","0.36165354767862185","0.47873713432227705","0.19078861807557407","0","","","","","","","","",""
"","html-keyboard-response","123","499508","0.0-70.0-1.0","""event"",""trial"",""time""
""blur"",""0"",""0""
""focus"",""0"",""3231""
""fullscreenenter"",""0"",""4847""
","""event"",""trial"",""time""
""blur"",""0"",""0""
","""event"",""trial"",""time""
""focus"",""0"",""3231""
","""event"",""trial"",""time""
""fullscreenenter"",""0"",""4847""
","
","null","<p></p>","null","","","","","","","","","","","","","","","","","","","","","","","",""
"","do_recog","124","502702","0.0-71.0-0.0","""event"",""trial"",""time""
""blur"",""0"",""0""
""focus"",""0"",""3231""
""fullscreenenter"",""0"",""4847""
","""event"",""trial"",""time""
""blur"",""0"",""0""
","""event"",""trial"",""time""
""focus"",""0"",""3231""
","""event"",""trial"",""time""
""fullscreenenter"",""0"",""4847""
","
","1689.3999998569489","","","","","","","","53","","","","282","probe-131","","","","","1","[object Object]","75","1","1","","","",""
"","html-keyboard-response","125","503705","0.0-71.0-1.0","""event"",""trial"",""time""
""blur"",""0"",""0""
""focus"",""0"",""3231""
""fullscreenenter"",""0"",""4847""
","""event"",""trial"",""time""
""blur"",""0"",""0""
","""event"",""trial"",""time""
""focus"",""0"",""3231""
","""event"",""trial"",""time""
""fullscreenenter"",""0"",""4847""
","
","null","<p></p>","null","","","","","","","","","","","","","","","","","","","","","","","",""
"","do_trial","126","507710","0.0-72.0-0.0","""event"",""trial"",""time""
""blur"",""0"",""0""
""focus"",""0"",""3231""
""fullscreenenter"",""0"",""4847""
","""event"",""trial"",""time""
""blur"",""0"",""0""
","""event"",""trial"",""time""
""focus"",""0"",""3231""
","""event"",""trial"",""time""
""fullscreenenter"",""0"",""4847""
","
","1470.5999999046326","","","","","","","","51","0,1,1","6","blank","283","null","0.2765156080748089","0.4882533845730484","0.32534793783961996","1","","","","","","","","",""
"","html-keyboard-response","127","508713","0.0-72.0-1.0","""event"",""trial"",""time""
""blur"",""0"",""0""
""focus"",""0"",""3231""
""fullscreenenter"",""0"",""4847""
","""event"",""trial"",""time""
""blur"",""0"",""0""
","""event"",""trial"",""time""
""focus"",""0"",""3231""
","""event"",""trial"",""time""
""fullscreenenter"",""0"",""4847""
","
","null","<p></p>","null","","","","","","","","","","","","","","","","","","","","","","","",""
"","do_recog","128","511228","0.0-73.0-0.0","""event"",""trial"",""time""
""blur"",""0"",""0""
""focus"",""0"",""3231""
""fullscreenenter"",""0"",""4847""
","""event"",""trial"",""time""
""blur"",""0"",""0""
","""event"",""trial"",""time""
""focus"",""0"",""3231""
","""event"",""trial"",""time""
""fullscreenenter"",""0"",""4847""
","
","1011.7000000476837","","","","","","","","54","","","","284","probe-90","","","","","1","[object Object]","78","1","1","","","",""
"","html-keyboard-response","129","512234","0.0-73.0-1.0","""event"",""trial"",""time""
""blur"",""0"",""0""
""focus"",""0"",""3231""
""fullscreenenter"",""0"",""4847""
","""event"",""trial"",""time""
""blur"",""0"",""0""
","""event"",""trial"",""time""
""focus"",""0"",""3231""
","""event"",""trial"",""time""
""fullscreenenter"",""0"",""4847""
","
","null","<p></p>","null","","","","","","","","","","","","","","","","","","","","","","","",""
"","do_trial","130","515356","0.0-74.0-0.0","""event"",""trial"",""time""
""blur"",""0"",""0""
""focus"",""0"",""3231""
""fullscreenenter"",""0"",""4847""
","""event"",""trial"",""time""
""blur"",""0"",""0""
","""event"",""trial"",""time""
""focus"",""0"",""3231""
","""event"",""trial"",""time""
""fullscreenenter"",""0"",""4847""
","
","591.8999998569489","","","","","","","","51","0,1,0","6","blank","285","null","0.2178901492041578","0.5536095228889777","0.31382461649114","0","","","","","","","","",""
"","html-keyboard-response","131","516359","0.0-74.0-1.0","""event"",""trial"",""time""
""blur"",""0"",""0""
""focus"",""0"",""3231""
""fullscreenenter"",""0"",""4847""
","""event"",""trial"",""time""
""blur"",""0"",""0""
","""event"",""trial"",""time""
""focus"",""0"",""3231""
","""event"",""trial"",""time""
""fullscreenenter"",""0"",""4847""
","
","null","<p></p>","null","","","","","","","","","","","","","","","","","","","","","","","",""
"","do_recog","132","518647","0.0-75.0-0.0","""event"",""trial"",""time""
""blur"",""0"",""0""
""focus"",""0"",""3231""
""fullscreenenter"",""0"",""4847""
","""event"",""trial"",""time""
""blur"",""0"",""0""
","""event"",""trial"",""time""
""focus"",""0"",""3231""
","""event"",""trial"",""time""
""fullscreenenter"",""0"",""4847""
","
","780.3999998569489","","","","","","","","54","","","","286","probe-236","","","","","0","[object Object]","null","null","0","","","",""
"","html-keyboard-response","133","519650","0.0-75.0-1.0","""event"",""trial"",""time""
""blur"",""0"",""0""
""focus"",""0"",""3231""
""fullscreenenter"",""0"",""4847""
","""event"",""trial"",""time""
""blur"",""0"",""0""
","""event"",""trial"",""time""
""focus"",""0"",""3231""
","""event"",""trial"",""time""
""fullscreenenter"",""0"",""4847""
","
","null","<p></p>","null","","","","","","","","","","","","","","","","","","","","","","","",""
"","do_trial","134","523336","0.0-76.0-0.0","""event"",""trial"",""time""
""blur"",""0"",""0""
""focus"",""0"",""3231""
""fullscreenenter"",""0"",""4847""
","""event"",""trial"",""time""
""blur"",""0"",""0""
","""event"",""trial"",""time""
""focus"",""0"",""3231""
","""event"",""trial"",""time""
""fullscreenenter"",""0"",""4847""
","
","1151.2000000476837","","","","","","","","49","0,0,0","6","blank","287","null","0.0674139799197578","0.6237021833422172","0.2674178817439664","0","","","","","","","","",""
"","html-keyboard-response","135","524339","0.0-76.0-1.0","""event"",""trial"",""time""
""blur"",""0"",""0""
""focus"",""0"",""3231""
""fullscreenenter"",""0"",""4847""
","""event"",""trial"",""time""
""blur"",""0"",""0""
","""event"",""trial"",""time""
""focus"",""0"",""3231""
","""event"",""trial"",""time""
""fullscreenenter"",""0"",""4847""
","
","null","<p></p>","null","","","","","","","","","","","","","","","","","","","","","","","",""
"","do_trial","136","527676","0.0-77.0-0.0","""event"",""trial"",""time""
""blur"",""0"",""0""
""focus"",""0"",""3231""
""fullscreenenter"",""0"",""4847""
","""event"",""trial"",""time""
""blur"",""0"",""0""
","""event"",""trial"",""time""
""focus"",""0"",""3231""
","""event"",""trial"",""time""
""fullscreenenter"",""0"",""4847""
","
","805.2999999523163","","","","","","","","50","0,1,0","6","blank","288","null","0.09055767024078637","0.5987502627412921","0.35074480873021235","1","","","","","","","","",""
"","html-keyboard-response","137","528679","0.0-77.0-1.0","""event"",""trial"",""time""
""blur"",""0"",""0""
""focus"",""0"",""3231""
""fullscreenenter"",""0"",""4847""
","""event"",""trial"",""time""
""blur"",""0"",""0""
","""event"",""trial"",""time""
""focus"",""0"",""3231""
","""event"",""trial"",""time""
""fullscreenenter"",""0"",""4847""
","
","null","<p></p>","null","","","","","","","","","","","","","","","","","","","","","","","",""
"","do_trial","138","532269","0.0-78.0-0.0","""event"",""trial"",""time""
""blur"",""0"",""0""
""focus"",""0"",""3231""
""fullscreenenter"",""0"",""4847""
","""event"",""trial"",""time""
""blur"",""0"",""0""
","""event"",""trial"",""time""
""focus"",""0"",""3231""
","""event"",""trial"",""time""
""fullscreenenter"",""0"",""4847""
","
","1056.0999999046326","","","","","","","","51","0,1,0","6","blank","289","null","0.07929808006103256","0.5496058965634868","0.37051849906509604","0","","","","","","","","",""
"","html-keyboard-response","139","533272","0.0-78.0-1.0","""event"",""trial"",""time""
""blur"",""0"",""0""
""focus"",""0"",""3231""
""fullscreenenter"",""0"",""4847""
","""event"",""trial"",""time""
""blur"",""0"",""0""
","""event"",""trial"",""time""
""focus"",""0"",""3231""
","""event"",""trial"",""time""
""fullscreenenter"",""0"",""4847""
","
","null","<p></p>","null","","","","","","","","","","","","","","","","","","","","","","","",""
"","do_trial","140","536247","0.0-79.0-0.0","""event"",""trial"",""time""
""blur"",""0"",""0""
""focus"",""0"",""3231""
""fullscreenenter"",""0"",""4847""
","""event"",""trial"",""time""
""blur"",""0"",""0""
","""event"",""trial"",""time""
""focus"",""0"",""3231""
","""event"",""trial"",""time""
""fullscreenenter"",""0"",""4847""
","
","444.89999985694885","","","","","","","","50","0,0,0","6","blank","290","null","0.07403427793845939","0.5460805354898188","0.25740257389386473","0","","","","","","","","",""
"","html-keyboard-response","141","537250","0.0-79.0-1.0","""event"",""trial"",""time""
""blur"",""0"",""0""
""focus"",""0"",""3231""
""fullscreenenter"",""0"",""4847""
","""event"",""trial"",""time""
""blur"",""0"",""0""
","""event"",""trial"",""time""
""focus"",""0"",""3231""
","""event"",""trial"",""time""
""fullscreenenter"",""0"",""4847""
","
","null","<p></p>","null","","","","","","","","","","","","","","","","","","","","","","","",""
"","do_trial","142","539824","0.0-80.0-0.0","""event"",""trial"",""time""
""blur"",""0"",""0""
""focus"",""0"",""3231""
""fullscreenenter"",""0"",""4847""
","""event"",""trial"",""time""
""blur"",""0"",""0""
","""event"",""trial"",""time""
""focus"",""0"",""3231""
","""event"",""trial"",""time""
""fullscreenenter"",""0"",""4847""
","
","44.39999985694885","","","","","","","","49","0,0,0","6","blank","291","null","0.05221760162968357","0.5361061091489902","0.2568432495575702","0","","","","","","","","",""
"","html-keyboard-response","143","540825","0.0-80.0-1.0","""event"",""trial"",""time""
""blur"",""0"",""0""
""focus"",""0"",""3231""
""fullscreenenter"",""0"",""4847""
","""event"",""trial"",""time""
""blur"",""0"",""0""
","""event"",""trial"",""time""
""focus"",""0"",""3231""
","""event"",""trial"",""time""
""fullscreenenter"",""0"",""4847""
","
","null","<p></p>","null","","","","","","","","","","","","","","","","","","","","","","","",""
"","do_recog","144","543621","0.0-81.0-0.0","""event"",""trial"",""time""
""blur"",""0"",""0""
""focus"",""0"",""3231""
""fullscreenenter"",""0"",""4847""
","""event"",""trial"",""time""
""blur"",""0"",""0""
","""event"",""trial"",""time""
""focus"",""0"",""3231""
","""event"",""trial"",""time""
""fullscreenenter"",""0"",""4847""
","
","1288.4000000953674","","","","","","","","53","","","","292","probe-66","","","","","1","[object Object]","115","2","1","","","",""
"","html-keyboard-response","145","544624","0.0-81.0-1.0","""event"",""trial"",""time""
""blur"",""0"",""0""
""focus"",""0"",""3231""
""fullscreenenter"",""0"",""4847""
","""event"",""trial"",""time""
""blur"",""0"",""0""
","""event"",""trial"",""time""
""focus"",""0"",""3231""
","""event"",""trial"",""time""
""fullscreenenter"",""0"",""4847""
","
","null","<p></p>","null","","","","","","","","","","","","","","","","","","","","","","","",""
"","do_trial","146","547632","0.0-82.0-0.0","""event"",""trial"",""time""
""blur"",""0"",""0""
""focus"",""0"",""3231""
""fullscreenenter"",""0"",""4847""
","""event"",""trial"",""time""
""blur"",""0"",""0""
","""event"",""trial"",""time""
""focus"",""0"",""3231""
","""event"",""trial"",""time""
""fullscreenenter"",""0"",""4847""
","
","477.40000009536743","","","","","","","","50","0,0,0","6","blank","293","null","0.0972878571225356","0.46301707083810906","0.4261391265269801","0","","","","","","","","",""
"","html-keyboard-response","147","548633","0.0-82.0-1.0","""event"",""trial"",""time""
""blur"",""0"",""0""
""focus"",""0"",""3231""
""fullscreenenter"",""0"",""4847""
","""event"",""trial"",""time""
""blur"",""0"",""0""
","""event"",""trial"",""time""
""focus"",""0"",""3231""
","""event"",""trial"",""time""
""fullscreenenter"",""0"",""4847""
","
","null","<p></p>","null","","","","","","","","","","","","","","","","","","","","","","","",""
"","do_trial","148","551434","0.0-83.0-0.0","""event"",""trial"",""time""
""blur"",""0"",""0""
""focus"",""0"",""3231""
""fullscreenenter"",""0"",""4847""
","""event"",""trial"",""time""
""blur"",""0"",""0""
","""event"",""trial"",""time""
""focus"",""0"",""3231""
","""event"",""trial"",""time""
""fullscreenenter"",""0"",""4847""
","
","271.2000000476837","","","","","","","","49","0,0,0","6","blank","294","null","0.06631986718625725","0.5615049320251594","0.3881851388498502","0","","","","","","","","",""
"","html-keyboard-response","149","552435","0.0-83.0-1.0","""event"",""trial"",""time""
""blur"",""0"",""0""
""focus"",""0"",""3231""
""fullscreenenter"",""0"",""4847""
","""event"",""trial"",""time""
""blur"",""0"",""0""
","""event"",""trial"",""time""
""focus"",""0"",""3231""
","""event"",""trial"",""time""
""fullscreenenter"",""0"",""4847""
","
","null","<p></p>","null","","","","","","","","","","","","","","","","","","","","","","","",""
"","do_trial","150","554993","0.0-84.0-0.0","""event"",""trial"",""time""
""blur"",""0"",""0""
""focus"",""0"",""3231""
""fullscreenenter"",""0"",""4847""
","""event"",""trial"",""time""
""blur"",""0"",""0""
","""event"",""trial"",""time""
""focus"",""0"",""3231""
","""event"",""trial"",""time""
""fullscreenenter"",""0"",""4847""
","
","23.40000009536743","","","","","","","","49","0,0,1","6","blank","295","null","0.06321212453687858","0.5880706791843564","0.3428367989560619","0","","","","","","","","",""
"","html-keyboard-response","151","555996","0.0-84.0-1.0","""event"",""trial"",""time""
""blur"",""0"",""0""
""focus"",""0"",""3231""
""fullscreenenter"",""0"",""4847""
","""event"",""trial"",""time""
""blur"",""0"",""0""
","""event"",""trial"",""time""
""focus"",""0"",""3231""
","""event"",""trial"",""time""
""fullscreenenter"",""0"",""4847""
","
","null","<p></p>","null","","","","","","","","","","","","","","","","","","","","","","","",""
"","do_trial","152","559031","0.0-85.0-0.0","""event"",""trial"",""time""
""blur"",""0"",""0""
""focus"",""0"",""3231""
""fullscreenenter"",""0"",""4847""
","""event"",""trial"",""time""
""blur"",""0"",""0""
","""event"",""trial"",""time""
""focus"",""0"",""3231""
","""event"",""trial"",""time""
""fullscreenenter"",""0"",""4847""
","
","502.10000014305115","","","","","","","","50","0,0,0","6","blank","296","null","0.05560156641610434","0.6399927014389216","0.301652506384168","0","","","","","","","","",""
"","html-keyboard-response","153","560031","0.0-85.0-1.0","""event"",""trial"",""time""
""blur"",""0"",""0""
""focus"",""0"",""3231""
""fullscreenenter"",""0"",""4847""
","""event"",""trial"",""time""
""blur"",""0"",""0""
","""event"",""trial"",""time""
""focus"",""0"",""3231""
","""event"",""trial"",""time""
""fullscreenenter"",""0"",""4847""
","
","null","<p></p>","null","","","","","","","","","","","","","","","","","","","","","","","",""
"","do_trial","154","562925","0.0-86.0-0.0","""event"",""trial"",""time""
""blur"",""0"",""0""
""focus"",""0"",""3231""
""fullscreenenter"",""0"",""4847""
","""event"",""trial"",""time""
""blur"",""0"",""0""
","""event"",""trial"",""time""
""focus"",""0"",""3231""
","""event"",""trial"",""time""
""fullscreenenter"",""0"",""4847""
","
","359.09999990463257","","","","","","","","49","0,1,0","6","blank","297","null","0.10126941839777656","0.5602584691354104","0.32856056244153276","0","","","","","","","","",""
"","html-keyboard-response","155","563925","0.0-86.0-1.0","""event"",""trial"",""time""
""blur"",""0"",""0""
""focus"",""0"",""3231""
""fullscreenenter"",""0"",""4847""
","""event"",""trial"",""time""
""blur"",""0"",""0""
","""event"",""trial"",""time""
""focus"",""0"",""3231""
","""event"",""trial"",""time""
""fullscreenenter"",""0"",""4847""
","
","null","<p></p>","null","","","","","","","","","","","","","","","","","","","","","","","",""
"","do_trial","156","566951","0.0-87.0-0.0","""event"",""trial"",""time""
""blur"",""0"",""0""
""focus"",""0"",""3231""
""fullscreenenter"",""0"",""4847""
","""event"",""trial"",""time""
""blur"",""0"",""0""
","""event"",""trial"",""time""
""focus"",""0"",""3231""
","""event"",""trial"",""time""
""fullscreenenter"",""0"",""4847""
","
","492.30000019073486","","","","","","","","49","1,1,1","6","blank","298","null","0.5136283266826591","0.4829831896024402","0.23987958245442717","1","","","","","","","","",""
"","html-keyboard-response","157","567953","0.0-87.0-1.0","""event"",""trial"",""time""
""blur"",""0"",""0""
""focus"",""0"",""3231""
""fullscreenenter"",""0"",""4847""
","""event"",""trial"",""time""
""blur"",""0"",""0""
","""event"",""trial"",""time""
""focus"",""0"",""3231""
","""event"",""trial"",""time""
""fullscreenenter"",""0"",""4847""
","
","null","<p></p>","null","","","","","","","","","","","","","","","","","","","","","","","",""
"","do_recog","158","570722","0.0-88.0-0.0","""event"",""trial"",""time""
""blur"",""0"",""0""
""focus"",""0"",""3231""
""fullscreenenter"",""0"",""4847""
","""event"",""trial"",""time""
""blur"",""0"",""0""
","""event"",""trial"",""time""
""focus"",""0"",""3231""
","""event"",""trial"",""time""
""fullscreenenter"",""0"",""4847""
","
","1261.7000000476837","","","","","","","","54","","","","299","probe-125","","","","","1","[object Object]","111","2","1","","","",""
"","html-keyboard-response","159","571725","0.0-88.0-1.0","""event"",""trial"",""time""
""blur"",""0"",""0""
""focus"",""0"",""3231""
""fullscreenenter"",""0"",""4847""
","""event"",""trial"",""time""
""blur"",""0"",""0""
","""event"",""trial"",""time""
""focus"",""0"",""3231""
","""event"",""trial"",""time""
""fullscreenenter"",""0"",""4847""
","
","null","<p></p>","null","","","","","","","","","","","","","","","","","","","","","","","",""
"","do_trial","160","575051","0.0-89.0-0.0","""event"",""trial"",""time""
""blur"",""0"",""0""
""focus"",""0"",""3231""
""fullscreenenter"",""0"",""4847""
","""event"",""trial"",""time""
""blur"",""0"",""0""
","""event"",""trial"",""time""
""focus"",""0"",""3231""
","""event"",""trial"",""time""
""fullscreenenter"",""0"",""4847""
","
","793","","","","","","","","51","1,1,1","6","blank","300","null","0.5736930052871994","0.48614490402702387","0.20366797622726446","1","","","","","","","","",""
"","html-keyboard-response","161","576054","0.0-89.0-1.0","""event"",""trial"",""time""
""blur"",""0"",""0""
""focus"",""0"",""3231""
""fullscreenenter"",""0"",""4847""
","""event"",""trial"",""time""
""blur"",""0"",""0""
","""event"",""trial"",""time""
""focus"",""0"",""3231""
","""event"",""trial"",""time""
""fullscreenenter"",""0"",""4847""
","
","null","<p></p>","null","","","","","","","","","","","","","","","","","","","","","","","",""
"","do_recog","162","578868","0.0-90.0-0.0","""event"",""trial"",""time""
""blur"",""0"",""0""
""focus"",""0"",""3231""
""fullscreenenter"",""0"",""4847""
","""event"",""trial"",""time""
""blur"",""0"",""0""
","""event"",""trial"",""time""
""focus"",""0"",""3231""
","""event"",""trial"",""time""
""fullscreenenter"",""0"",""4847""
","
","1305.3000001907349","","","","","","","","56","","","","301","probe-205","","","","","1","[object Object]","33","0","0","","","",""
"","html-keyboard-response","163","579870","0.0-90.0-1.0","""event"",""trial"",""time""
""blur"",""0"",""0""
""focus"",""0"",""3231""
""fullscreenenter"",""0"",""4847""
","""event"",""trial"",""time""
""blur"",""0"",""0""
","""event"",""trial"",""time""
""focus"",""0"",""3231""
","""event"",""trial"",""time""
""fullscreenenter"",""0"",""4847""
","
","null","<p></p>","null","","","","","","","","","","","","","","","","","","","","","","","",""
"","do_trial","164","584221","0.0-91.0-0.0","""event"",""trial"",""time""
""blur"",""0"",""0""
""focus"",""0"",""3231""
""fullscreenenter"",""0"",""4847""
","""event"",""trial"",""time""
""blur"",""0"",""0""
","""event"",""trial"",""time""
""focus"",""0"",""3231""
","""event"",""trial"",""time""
""fullscreenenter"",""0"",""4847""
","
","1816.9000000953674","","","","","","","","49","1,1,0","6","blank","302","null","0.539685305874366","0.2790279755756234","0.34916725902824625","1","","","","","","","","",""
"","html-keyboard-response","165","585224","0.0-91.0-1.0","""event"",""trial"",""time""
""blur"",""0"",""0""
""focus"",""0"",""3231""
""fullscreenenter"",""0"",""4847""
","""event"",""trial"",""time""
""blur"",""0"",""0""
","""event"",""trial"",""time""
""focus"",""0"",""3231""
","""event"",""trial"",""time""
""fullscreenenter"",""0"",""4847""
","
","null","<p></p>","null","","","","","","","","","","","","","","","","","","","","","","","",""
"","do_trial","166","590111","0.0-92.0-0.0","""event"",""trial"",""time""
""blur"",""0"",""0""
""focus"",""0"",""3231""
""fullscreenenter"",""0"",""4847""
","""event"",""trial"",""time""
""blur"",""0"",""0""
","""event"",""trial"",""time""
""focus"",""0"",""3231""
","""event"",""trial"",""time""
""fullscreenenter"",""0"",""4847""
","
","2357.5","","","","","","","","51","1,0,0","6","blank","303","null","0.5643149764949188","0.21166380417313008","0.14474105435137388","0","","","","","","","","",""
"","html-keyboard-response","167","591114","0.0-92.0-1.0","""event"",""trial"",""time""
""blur"",""0"",""0""
""focus"",""0"",""3231""
""fullscreenenter"",""0"",""4847""
","""event"",""trial"",""time""
""blur"",""0"",""0""
","""event"",""trial"",""time""
""focus"",""0"",""3231""
","""event"",""trial"",""time""
""fullscreenenter"",""0"",""4847""
","
","null","<p></p>","null","","","","","","","","","","","","","","","","","","","","","","","",""
"","do_trial","168","593962","0.0-93.0-0.0","""event"",""trial"",""time""
""blur"",""0"",""0""
""focus"",""0"",""3231""
""fullscreenenter"",""0"",""4847""
","""event"",""trial"",""time""
""blur"",""0"",""0""
","""event"",""trial"",""time""
""focus"",""0"",""3231""
","""event"",""trial"",""time""
""fullscreenenter"",""0"",""4847""
","
","314.80000019073486","","","","","","","","50","0,0,0","6","blank","304","null","0.615377877751112","0.18865662369737632","0.1479237041966661","0","","","","","","","","",""
"","html-keyboard-response","169","594964","0.0-93.0-1.0","""event"",""trial"",""time""
""blur"",""0"",""0""
""focus"",""0"",""3231""
""fullscreenenter"",""0"",""4847""
","""event"",""trial"",""time""
""blur"",""0"",""0""
","""event"",""trial"",""time""
""focus"",""0"",""3231""
","""event"",""trial"",""time""
""fullscreenenter"",""0"",""4847""
","
","null","<p></p>","null","","","","","","","","","","","","","","","","","","","","","","","",""
"","do_trial","170","597830","0.0-94.0-0.0","""event"",""trial"",""time""
""blur"",""0"",""0""
""focus"",""0"",""3231""
""fullscreenenter"",""0"",""4847""
","""event"",""trial"",""time""
""blur"",""0"",""0""
","""event"",""trial"",""time""
""focus"",""0"",""3231""
","""event"",""trial"",""time""
""fullscreenenter"",""0"",""4847""
","
","334.2999999523163","","","","","","","","49","0,0,0","6","blank","305","null","0.5301635152133799","0.1361487340180631","0.2518334057713947","0","","","","","","","","",""
"","html-keyboard-response","171","598831","0.0-94.0-1.0","""event"",""trial"",""time""
""blur"",""0"",""0""
""focus"",""0"",""3231""
""fullscreenenter"",""0"",""4847""
","""event"",""trial"",""time""
""blur"",""0"",""0""
","""event"",""trial"",""time""
""focus"",""0"",""3231""
","""event"",""trial"",""time""
""fullscreenenter"",""0"",""4847""
","
","null","<p></p>","null","","","","","","","","","","","","","","","","","","","","","","","",""
"","do_trial","172","601676","0.0-95.0-0.0","""event"",""trial"",""time""
""blur"",""0"",""0""
""focus"",""0"",""3231""
""fullscreenenter"",""0"",""4847""
","""event"",""trial"",""time""
""blur"",""0"",""0""
","""event"",""trial"",""time""
""focus"",""0"",""3231""
","""event"",""trial"",""time""
""fullscreenenter"",""0"",""4847""
","
","315.09999990463257","","","","","","","","49","0,0,1","6","blank","306","null","0.5657731610323647","0.11380803945489353","0.29716617710126386","0","","","","","","","","",""
"","html-keyboard-response","173","602679","0.0-95.0-1.0","""event"",""trial"",""time""
""blur"",""0"",""0""
""focus"",""0"",""3231""
""fullscreenenter"",""0"",""4847""
","""event"",""trial"",""time""
""blur"",""0"",""0""
","""event"",""trial"",""time""
""focus"",""0"",""3231""
","""event"",""trial"",""time""
""fullscreenenter"",""0"",""4847""
","
","null","<p></p>","null","","","","","","","","","","","","","","","","","","","","","","","",""
"","do_trial","174","605571","0.0-96.0-0.0","""event"",""trial"",""time""
""blur"",""0"",""0""
""focus"",""0"",""3231""
""fullscreenenter"",""0"",""4847""
","""event"",""trial"",""time""
""blur"",""0"",""0""
","""event"",""trial"",""time""
""focus"",""0"",""3231""
","""event"",""trial"",""time""
""fullscreenenter"",""0"",""4847""
","
","360.09999990463257","","","","","","","","49","1,0,0","6","blank","307","null","0.5093983075453198","0.12047698468417871","0.3110792968202058","1","","","","","","","","",""
"","html-keyboard-response","175","606571","0.0-96.0-1.0","""event"",""trial"",""time""
""blur"",""0"",""0""
""focus"",""0"",""3231""
""fullscreenenter"",""0"",""4847""
","""event"",""trial"",""time""
""blur"",""0"",""0""
","""event"",""trial"",""time""
""focus"",""0"",""3231""
","""event"",""trial"",""time""
""fullscreenenter"",""0"",""4847""
","
","null","<p></p>","null","","","","","","","","","","","","","","","","","","","","","","","",""
"","do_recog","176","609296","0.0-97.0-0.0","""event"",""trial"",""time""
""blur"",""0"",""0""
""focus"",""0"",""3231""
""fullscreenenter"",""0"",""4847""
","""event"",""trial"",""time""
""blur"",""0"",""0""
","""event"",""trial"",""time""
""focus"",""0"",""3231""
","""event"",""trial"",""time""
""fullscreenenter"",""0"",""4847""
","
","1219.7999999523163","","","","","","","","53","","","","308","probe-34","","","","","1","[object Object]","192","4","1","","","",""
"","html-keyboard-response","177","610298","0.0-97.0-1.0","""event"",""trial"",""time""
""blur"",""0"",""0""
""focus"",""0"",""3231""
""fullscreenenter"",""0"",""4847""
","""event"",""trial"",""time""
""blur"",""0"",""0""
","""event"",""trial"",""time""
""focus"",""0"",""3231""
","""event"",""trial"",""time""
""fullscreenenter"",""0"",""4847""
","
","null","<p></p>","null","","","","","","","","","","","","","","","","","","","","","","","",""
"","break","178","730298","0.0-98.0-0.0","""event"",""trial"",""time""
""blur"",""0"",""0""
""focus"",""0"",""3231""
""fullscreenenter"",""0"",""4847""
","""event"",""trial"",""time""
""blur"",""0"",""0""
","""event"",""trial"",""time""
""focus"",""0"",""3231""
","""event"",""trial"",""time""
""fullscreenenter"",""0"",""4847""
","
","null","<div class='center'><p>Time to take a quick break! You have 2 minutes to rest, but you can move on sooner if you'd like.</p><p> Press the <b>space bar</b> to continue.</p></div>","null","","","","","","","","","","","","","","","","","","","","","","","",""
"","do_trial","179","735598","0.0-98.0-1.0","""event"",""trial"",""time""
""blur"",""0"",""0""
""focus"",""0"",""3231""
""fullscreenenter"",""0"",""4847""
","""event"",""trial"",""time""
""blur"",""0"",""0""
","""event"",""trial"",""time""
""focus"",""0"",""3231""
","""event"",""trial"",""time""
""fullscreenenter"",""0"",""4847""
","
","2768.100000143051","","","","","","","","51","1,0,0","6","blank","309","null","0.547511194847679","0.1427848113046421","0.2253472238638989","0","","","","","","","","",""
"","html-keyboard-response","180","736601","0.0-98.0-2.0","""event"",""trial"",""time""
""blur"",""0"",""0""
""focus"",""0"",""3231""
""fullscreenenter"",""0"",""4847""
","""event"",""trial"",""time""
""blur"",""0"",""0""
","""event"",""trial"",""time""
""focus"",""0"",""3231""
","""event"",""trial"",""time""
""fullscreenenter"",""0"",""4847""
","
","null","<p></p>","null","","","","","","","","","","","","","","","","","","","","","","","",""
"","do_recog","181","739979","0.0-99.0-0.0","""event"",""trial"",""time""
""blur"",""0"",""0""
""focus"",""0"",""3231""
""fullscreenenter"",""0"",""4847""
","""event"",""trial"",""time""
""blur"",""0"",""0""
","""event"",""trial"",""time""
""focus"",""0"",""3231""
","""event"",""trial"",""time""
""fullscreenenter"",""0"",""4847""
","
","1870.1999998092651","","","","","","","","54","","","","310","probe-174","","","","","1","[object Object]","36","0","1","","","",""
"","html-keyboard-response","182","740982","0.0-99.0-1.0","""event"",""trial"",""time""
""blur"",""0"",""0""
""focus"",""0"",""3231""
""fullscreenenter"",""0"",""4847""
","""event"",""trial"",""time""
""blur"",""0"",""0""
","""event"",""trial"",""time""
""focus"",""0"",""3231""
","""event"",""trial"",""time""
""fullscreenenter"",""0"",""4847""
","
","null","<p></p>","null","","","","","","","","","","","","","","","","","","","","","","","",""
"","do_trial","183","744241","0.0-100.0-0.0","""event"",""trial"",""time""
""blur"",""0"",""0""
""focus"",""0"",""3231""
""fullscreenenter"",""0"",""4847""
","""event"",""trial"",""time""
""blur"",""0"",""0""
","""event"",""trial"",""time""
""focus"",""0"",""3231""
","""event"",""trial"",""time""
""fullscreenenter"",""0"",""4847""
","
","724.5999999046326","","","","","","","","51","0,0,0","6","blank","311","null","0.6165687213815201","0.13249306711647088","0.2559233840835654","0","","","","","","","","",""
"","html-keyboard-response","184","745242","0.0-100.0-1.0","""event"",""trial"",""time""
""blur"",""0"",""0""
""focus"",""0"",""3231""
""fullscreenenter"",""0"",""4847""
","""event"",""trial"",""time""
""blur"",""0"",""0""
","""event"",""trial"",""time""
""focus"",""0"",""3231""
","""event"",""trial"",""time""
""fullscreenenter"",""0"",""4847""
","
","null","<p></p>","null","","","","","","","","","","","","","","","","","","","","","","","",""
"","do_recog","185","747966","0.0-101.0-0.0","""event"",""trial"",""time""
""blur"",""0"",""0""
""focus"",""0"",""3231""
""fullscreenenter"",""0"",""4847""
","""event"",""trial"",""time""
""blur"",""0"",""0""
","""event"",""trial"",""time""
""focus"",""0"",""3231""
","""event"",""trial"",""time""
""fullscreenenter"",""0"",""4847""
","
","1215.7999999523163","","","","","","","","53","","","","312","probe-53","","","","","1","[object Object]","114","2","1","","","",""
"","html-keyboard-response","186","748969","0.0-101.0-1.0","""event"",""trial"",""time""
""blur"",""0"",""0""
""focus"",""0"",""3231""
""fullscreenenter"",""0"",""4847""
","""event"",""trial"",""time""
""blur"",""0"",""0""
","""event"",""trial"",""time""
""focus"",""0"",""3231""
","""event"",""trial"",""time""
""fullscreenenter"",""0"",""4847""
","
","null","<p></p>","null","","","","","","","","","","","","","","","","","","","","","","","",""
"","do_trial","187","751823","0.0-102.0-0.0","""event"",""trial"",""time""
""blur"",""0"",""0""
""focus"",""0"",""3231""
""fullscreenenter"",""0"",""4847""
","""event"",""trial"",""time""
""blur"",""0"",""0""
","""event"",""trial"",""time""
""focus"",""0"",""3231""
","""event"",""trial"",""time""
""fullscreenenter"",""0"",""4847""
","
","320.2999999523163","","","","","","","","50","0,0,0","6","blank","313","null","0.534734063417983","0.1858838710314571","0.28458014221546774","0","","","","","","","","",""
"","html-keyboard-response","188","752828","0.0-102.0-1.0","""event"",""trial"",""time""
""blur"",""0"",""0""
""focus"",""0"",""3231""
""fullscreenenter"",""0"",""4847""
","""event"",""trial"",""time""
""blur"",""0"",""0""
","""event"",""trial"",""time""
""focus"",""0"",""3231""
","""event"",""trial"",""time""
""fullscreenenter"",""0"",""4847""
","
","null","<p></p>","null","","","","","","","","","","","","","","","","","","","","","","","",""
"","do_recog","189","754827","0.0-103.0-0.0","""event"",""trial"",""time""
""blur"",""0"",""0""
""focus"",""0"",""3231""
""fullscreenenter"",""0"",""4847""
","""event"",""trial"",""time""
""blur"",""0"",""0""
","""event"",""trial"",""time""
""focus"",""0"",""3231""
","""event"",""trial"",""time""
""fullscreenenter"",""0"",""4847""
","
","492.60000014305115","","","","","","","","56","","","","314","probe-180","","","","","1","[object Object]","76","1","0","","","",""
"","html-keyboard-response","190","755832","0.0-103.0-1.0","""event"",""trial"",""time""
""blur"",""0"",""0""
""focus"",""0"",""3231""
""fullscreenenter"",""0"",""4847""
","""event"",""trial"",""time""
""blur"",""0"",""0""
","""event"",""trial"",""time""
""focus"",""0"",""3231""
","""event"",""trial"",""time""
""fullscreenenter"",""0"",""4847""
","
","null","<p></p>","null","","","","","","","","","","","","","","","","","","","","","","","",""
"","do_trial","191","758929","0.0-104.0-0.0","""event"",""trial"",""time""
""blur"",""0"",""0""
""focus"",""0"",""3231""
""fullscreenenter"",""0"",""4847""
","""event"",""trial"",""time""
""blur"",""0"",""0""
