success,trial_type,trial_index,time_elapsed,internal_node_id,rt,stimulus,subject_id,key_press,response,choice_outcomes,context_n,context_img_id,trial_n,probe_img_id,pR_red,pR_white,pR_black,outcome,is_valid,image_to_show,probed_trial,probed_context,correct,context_id
TRUE,fullscreen,0,3658,0.0-0.0,,,,,,,,,,,,,,,,,,,,
,pavlovia,1,3671,0.0-1.0,,,,,,,,,,,,,,,,,,,,
,html-keyboard-response,2,24927,0.0-2.0,21255,"<div class='center'><p>Like yesterday,as the head captain of the ship, you have one important things to do: </p><b><p> Pick the pirate who you think will be most successful at robbing the next ship.</p></b><p>This is important in determining how much bonus money you’ll win.</p><br><p>The game will start by showing you the pirates. First pick a pirate using the <b> 1, 2, 3 </b> buttons on your keyboard. </p><p> Press <b>'1'</b> to choose red beard, <b>'2'</b> to choose white beard, and <b>'3'</b> to choose black beard</p><p> You only have 3 seconds to pick a pirate, so please make a choice quickly! If you are too slow, you’ll have to wait a bit during the time out.</p><p> Don’t feel rushed, but please do try to make a choice every time.</p><p>How good a pirate is at robbing a ship will change depending on the place they are in and how good the defenses are of the ship.</p><p><b>[Press the space bar to begin the practice game]</b></p></div>",58474a9c89af6500017f4cd6,32,,,,,,,,,,,,,,,,
,html-keyboard-response,3,37654,0.0-3.0,12726,"<div class='center'><p>You’ve arrived at the final island of your journey! Unfortunately, it’s very foggy out, so you won’t be able to see it in the distance like the previous islands you've visited.</p><p>You’ll still be deciding which pirate you want to rob a ship like before. However, because of the fog, you also won’t be able to see the ship.</p><p>This means you do not have to remember the ships you rob on this island.</p><p><b>[Press the space bar to continue]</b></p></div>",,32,,,,,,,,,,,,,,,,
,html-keyboard-response,4,45112,0.0-4.0,7455,"<div class='center'><p> Sometimes you’ll be shown a ship, and you will be asked if you saw this ship on a past island.</p><p> Here is an example of what you will see.</p><p><b>[Press the space bar to continue]</b></p><p><img src='run_exp/static/images/tutorial/example_recog_trial.png' height='500'></p></div>",,32,,,,,,,,,,,,,,,,
,html-keyboard-response,5,63221,0.0-5.0,18107,"<div class='center'><p> You will press the 5, 6, 7, 8 buttons on your keyboard to respond.</p><p>If you are very sure saw the ship, press <b>5</b> on your keyboard.</p><p> If you think you  saw it before but are not sure, then press <b>6</b>.</p><p> If you think you have not seen it before but are not sure, then press <b>7</b>.</p><p> If you are sure you did not see the ship before, then press <b>8</b>.</p><p><b>[Press the space bar to continue]</b></p><p><img src='run_exp/static/images/tutorial/example_recog_trial.png' height='500'></p></div>",,32,,,,,,,,,,,,,,,,
,html-keyboard-response,6,66456,0.0-6.0,3231,"<div class='center'><p> If you remember correctly, then you’ll get a gold coin like this: </p><p><img src='run_exp/static/images/tutorial/reward_small.png' height='200'></p><p>If you do not remember correctly, then you'll see a red x like this: </p><p><img src='run_exp/static/images/tutorial/reward_no.png' height='200'></p><p>Importantly, when you are shown a ship, take the time to remind yourself which island you saw it on. This will help you in the next part of the study.</p><p><b>[Press the space bar to continue]</b></p></div>",,32,,,,,,,,,,,,,,,,
,html-keyboard-response,7,74508,0.0-7.0,8052,"<div class='center'><p>Let's go over the important points again. Your job is to: </p><p>1. Pick the pirate who is best at robbing ships and will bring you back gold coins. </p><p>2. Correctly remember whether or not you saw a ship before. If you did see the ship before, remind yourself on which island you saw the ship. </p><p><b>[Press the space bar to begin the next part of the study]</b></p></div>",,32,,,,,,,,,,,,,,,,
,do_welcome,8,76023,0.0-8.0,null,,,,null,,,,,,,,,,,,,,,
,do_trial,9,79551,0.0-9.0-0.0,984,,,,49,"1,1,1",6,blank,230,null,0.083880682,0.408274206,0.741200249,1,,,,,,
,html-keyboard-response,10,80554,0.0-9.0-1.0,null,<p></p>,,null,,,,,,,,,,,,,,,,
,do_trial,11,84056,0.0-10.0-0.0,950,,,,49,"0,1,1",6,blank,231,null,0.054098989,0.518747333,0.698989188,0,,,,,,
,html-keyboard-response,12,85058,0.0-10.0-1.0,null,<p></p>,,null,,,,,,,,,,,,,,,,
,do_trial,13,88261,0.0-11.0-0.0,649,,,,49,"0,1,1",6,blank,232,null,0.12654795,0.376660505,0.599244617,0,,,,,,
,html-keyboard-response,14,89263,0.0-11.0-1.0,null,<p></p>,,null,,,,,,,,,,,,,,,,
,do_trial,15,92107,0.0-12.0-0.0,290,,,,50,"0,0,1",6,blank,233,null,0.140156951,0.393912041,0.560199962,0,,,,,,
,html-keyboard-response,16,93109,0.0-12.0-1.0,null,<p></p>,,null,,,,,,,,,,,,,,,,
,do_trial,17,96074,0.0-13.0-0.0,413,,,,50,"0,0,0",6,blank,234,null,0.312465181,0.330129758,0.534054502,0,,,,,,
,html-keyboard-response,18,97076,0.0-13.0-1.0,null,<p></p>,,null,,,,,,,,,,,,,,,,
,do_trial,19,99919,0.0-14.0-0.0,293,,,,51,"1,0,1",6,blank,235,null,0.390620919,0.275967424,0.52948218,1,,,,,,
,html-keyboard-response,20,100922,0.0-14.0-1.0,null,<p></p>,,null,,,,,,,,,,,,,,,,
,do_trial,21,103794,0.0-15.0-0.0,317,,,,51,"0,1,0",6,blank,236,null,0.233395089,0.254811782,0.579024366,0,,,,,,
,html-keyboard-response,22,104797,0.0-15.0-1.0,null,<p></p>,,null,,,,,,,,,,,,,,,,
,do_trial,23,107671,0.0-16.0-0.0,319,,,,49,"0,0,1",6,blank,237,null,0.181662028,0.244140501,0.60402316,0,,,,,,
,html-keyboard-response,24,108673,0.0-16.0-1.0,null,<p></p>,,null,,,,,,,,,,,,,,,,
,do_trial,25,112154,0.0-17.0-0.0,931,,,,49,"0,0,0",6,blank,238,null,0.12204396,0.134265963,0.660632726,0,,,,,,
,html-keyboard-response,26,113156,0.0-17.0-1.0,null,<p></p>,,null,,,,,,,,,,,,,,,,
,do_trial,27,116256,0.0-18.0-0.0,547,,,,49,"0,0,0",6,blank,239,null,0.18971774,0.082962741,0.542717814,0,,,,,,
,html-keyboard-response,28,117258,0.0-18.0-1.0,null,<p></p>,,null,,,,,,,,,,,,,,,,
,do_trial,29,120113,0.0-19.0-0.0,303,,,,50,"0,0,0",6,blank,240,null,0.207602472,0.188363478,0.386522399,0,,,,,,
,html-keyboard-response,30,121116,0.0-19.0-1.0,null,<p></p>,,null,,,,,,,,,,,,,,,,
,do_recog,31,125401,0.0-20.0-0.0,2779,,,,55,,,,241,probe-36,,,,,1,[object Object],81,2,0,
,html-keyboard-response,32,126403,0.0-20.0-1.0,null,<p></p>,,null,,,,,,,,,,,,,,,,
,do_trial,33,130408,0.0-21.0-0.0,1454,,,,51,"0,0,0",6,blank,242,null,0.20948524,0.170055282,0.45720898,0,,,,,,
,html-keyboard-response,34,131410,0.0-21.0-1.0,null,<p></p>,,null,,,,,,,,,,,,,,,,
,do_recog,35,137416,0.0-22.0-0.0,null,,,,null,,,,243,probe-199,,,,,1,[object Object],127,3,0,
,html-keyboard-response,36,138417,0.0-22.0-1.0,null,<p></p>,,null,,,,,,,,,,,,,,,,
,do_trial,37,141712,0.0-23.0-0.0,743,,,,49,"0,1,0",6,blank,244,null,0.276837568,0.207948264,0.516632598,0,,,,,,
,html-keyboard-response,38,142714,0.0-23.0-1.0,null,<p></p>,,null,,,,,,,,,,,,,,,,
,do_recog,39,145960,0.0-24.0-0.0,1740,,,,54,,,,245,probe-180,,,,,1,[object Object],86,2,1,
,html-keyboard-response,40,146962,0.0-24.0-1.0,null,<p></p>,,null,,,,,,,,,,,,,,,,
,do_trial,41,150555,0.0-25.0-0.0,1042,,,,49,"0,0,0",6,blank,246,null,0.224768886,0.532045511,0.334339453,0,,,,,,
,html-keyboard-response,42,151557,0.0-25.0-1.0,null,<p></p>,,null,,,,,,,,,,,,,,,,
,do_trial,43,155231,0.0-26.0-0.0,1122,,,,49,"0,1,1",6,blank,247,null,0.286985904,0.482358434,0.269671254,0,,,,,,
,html-keyboard-response,44,156233,0.0-26.0-1.0,null,<p></p>,,null,,,,,,,,,,,,,,,,
,do_trial,45,159229,0.0-27.0-0.0,447,,,,50,"0,0,1",6,blank,248,null,0.327794805,0.490479727,0.290291069,0,,,,,,
,html-keyboard-response,46,160230,0.0-27.0-1.0,null,<p></p>,,null,,,,,,,,,,,,,,,,
,do_recog,47,163211,0.0-28.0-0.0,1475,,,,53,,,,249,probe-103,,,,,1,[object Object],41,1,1,
,html-keyboard-response,48,164212,0.0-28.0-1.0,null,<p></p>,,null,,,,,,,,,,,,,,,,
,do_trial,49,167541,0.0-29.0-0.0,765,,,,49,"0,1,1",6,blank,250,null,0.322760418,0.596012123,0.206587194,0,,,,,,
,html-keyboard-response,50,168543,0.0-29.0-1.0,null,<p></p>,,null,,,,,,,,,,,,,,,,
,do_recog,51,171469,0.0-30.0-0.0,1419,,,,54,,,,251,probe-31,,,,,1,[object Object],122,3,1,
,html-keyboard-response,52,172471,0.0-30.0-1.0,null,<p></p>,,null,,,,,,,,,,,,,,,,
,do_trial,53,175869,0.0-31.0-0.0,844,,,,49,"0,0,0",6,blank,252,null,0.373067375,0.736721865,0.255394055,0,,,,,,
,html-keyboard-response,54,176871,0.0-31.0-1.0,null,<p></p>,,null,,,,,,,,,,,,,,,,
,do_recog,55,179901,0.0-32.0-0.0,1524,,,,54,,,,253,probe-255,,,,,0,[object Object],null,null,0,
,html-keyboard-response,56,180904,0.0-32.0-1.0,null,<p></p>,,null,,,,,,,,,,,,,,,,
,do_trial,57,183971,0.0-33.0-0.0,510,,,,51,"1,1,0",6,blank,254,null,0.35867097,0.64615694,0.27468066,0,,,,,,
,html-keyboard-response,58,184973,0.0-33.0-1.0,null,<p></p>,,null,,,,,,,,,,,,,,,,
,do_recog,59,187720,0.0-34.0-0.0,1241,,,,53,,,,255,probe-37,,,,,1,[object Object],44,1,1,
,html-keyboard-response,60,188722,0.0-34.0-1.0,null,<p></p>,,null,,,,,,,,,,,,,,,,
,do_trial,61,192066,0.0-35.0-0.0,790,,,,51,"0,1,0",6,blank,256,null,0.429643408,0.509324499,0.124473648,0,,,,,,
,html-keyboard-response,62,193069,0.0-35.0-1.0,null,<p></p>,,null,,,,,,,,,,,,,,,,
,do_recog,63,196002,0.0-36.0-0.0,1427,,,,54,,,,257,probe-142,,,,,1,[object Object],87,2,1,
,html-keyboard-response,64,197004,0.0-36.0-1.0,null,<p></p>,,null,,,,,,,,,,,,,,,,
,do_trial,65,200307,0.0-37.0-0.0,762,,,,50,"0,1,0",6,blank,258,null,0.331402159,0.511602751,0.173664201,1,,,,,,
,html-keyboard-response,66,201309,0.0-37.0-1.0,null,<p></p>,,null,,,,,,,,,,,,,,,,
,do_trial,67,204453,0.0-38.0-0.0,598,,,,50,"1,0,0",6,blank,259,null,0.402484326,0.503538376,0.068636762,0,,,,,,
,html-keyboard-response,68,205455,0.0-38.0-1.0,null,<p></p>,,null,,,,,,,,,,,,,,,,
,do_recog,69,208210,0.0-39.0-0.0,1248,,,,53,,,,260,probe-221,,,,,1,[object Object],45,1,1,
,html-keyboard-response,70,209212,0.0-39.0-1.0,null,<p></p>,,null,,,,,,,,,,,,,,,,
,do_trial,71,212193,0.0-40.0-0.0,439,,,,50,"1,1,0",6,blank,261,null,0.35708868,0.51208214,0.168638214,1,,,,,,
,html-keyboard-response,72,213196,0.0-40.0-1.0,null,<p></p>,,null,,,,,,,,,,,,,,,,
,do_recog,73,215693,0.0-41.0-0.0,991,,,,53,,,,262,probe-188,,,,,1,[object Object],203,5,1,
,html-keyboard-response,74,216695,0.0-41.0-1.0,null,<p></p>,,null,,,,,,,,,,,,,,,,
,do_trial,75,219664,0.0-42.0-0.0,429,,,,50,"0,1,0",6,blank,263,null,0.320471561,0.699256711,0.26023882,1,,,,,,
,html-keyboard-response,76,220666,0.0-42.0-1.0,null,<p></p>,,null,,,,,,,,,,,,,,,,
,do_recog,77,223248,0.0-43.0-0.0,1076,,,,54,,,,264,probe-59,,,,,1,[object Object],83,2,1,
,html-keyboard-response,78,224250,0.0-43.0-1.0,null,<p></p>,,null,,,,,,,,,,,,,,,,
,do_trial,79,227302,0.0-44.0-0.0,510,,,,50,"1,1,0",6,blank,265,null,0.229231531,0.747730293,0.144227543,1,,,,,,
,html-keyboard-response,80,228304,0.0-44.0-1.0,null,<p></p>,,null,,,,,,,,,,,,,,,,
,do_trial,81,232008,0.0-45.0-0.0,1164,,,,51,"0,1,0",6,blank,266,null,0.126655231,0.692695008,0.075059167,0,,,,,,
,html-keyboard-response,82,233011,0.0-45.0-1.0,null,<p></p>,,null,,,,,,,,,,,,,,,,
,do_trial,83,236112,0.0-46.0-0.0,554,,,,50,"0,0,0",6,blank,267,null,0.254120329,0.702198654,0.12733312,0,,,,,,
,html-keyboard-response,84,237116,0.0-46.0-1.0,null,<p></p>,,null,,,,,,,,,,,,,,,,
,do_trial,85,240328,0.0-47.0-0.0,668,,,,50,"0,1,0",6,blank,268,null,0.089244469,0.769701679,0.111472871,1,,,,,,
,html-keyboard-response,86,241332,0.0-47.0-1.0,null,<p></p>,,null,,,,,,,,,,,,,,,,
,do_trial,87,244520,0.0-48.0-0.0,642,,,,50,"0,0,0",6,blank,269,null,0.352879538,0.679979252,0.081306715,0,,,,,,
,html-keyboard-response,88,245524,0.0-48.0-1.0,null,<p></p>,,null,,,,,,,,,,,,,,,,
,do_trial,89,248531,0.0-49.0-0.0,462,,,,49,"0,1,0",6,blank,270,null,0.30624956,0.747243036,0.202133247,0,,,,,,
,html-keyboard-response,90,249534,0.0-49.0-1.0,null,<p></p>,,null,,,,,,,,,,,,,,,,
,do_recog,91,252305,0.0-50.0-0.0,1265,,,,54,,,,271,probe-25,,,,,1,[object Object],128,3,1,
,html-keyboard-response,92,253308,0.0-50.0-1.0,null,<p></p>,,null,,,,,,,,,,,,,,,,
,do_trial,93,257132,0.0-51.0-0.0,1280,,,,50,"0,0,0",6,blank,272,null,0.332116477,0.667135009,0.096485263,0,,,,,,
,html-keyboard-response,94,258134,0.0-51.0-1.0,null,<p></p>,,null,,,,,,,,,,,,,,,,
,do_trial,95,261204,0.0-52.0-0.0,525,,,,50,"1,0,0",6,blank,273,null,0.249297502,0.732853422,0.152903206,0,,,,,,
,html-keyboard-response,96,262207,0.0-52.0-1.0,null,<p></p>,,null,,,,,,,,,,,,,,,,
,do_recog,97,264852,0.0-53.0-0.0,1138,,,,53,,,,274,probe-197,,,,,1,[object Object],46,1,1,
,html-keyboard-response,98,265854,0.0-53.0-1.0,null,<p></p>,,null,,,,,,,,,,,,,,,,
,do_trial,99,269506,0.0-54.0-0.0,1111,,,,49,"0,1,0",6,blank,275,null,0.222051941,0.821173266,0.190388772,0,,,,,,
,html-keyboard-response,100,270509,0.0-54.0-1.0,null,<p></p>,,null,,,,,,,,,,,,,,,,
,do_recog,101,273206,0.0-55.0-0.0,1192,,,,54,,,,276,probe-187,,,,,1,[object Object],120,3,1,
,html-keyboard-response,102,274208,0.0-55.0-1.0,null,<p></p>,,null,,,,,,,,,,,,,,,,
,do_trial,103,278401,0.0-56.0-0.0,1644,,,,50,"0,0,1",6,blank,277,null,0.12172614,0.788141277,0.250394255,0,,,,,,
,html-keyboard-response,104,279404,0.0-56.0-1.0,null,<p></p>,,null,,,,,,,,,,,,,,,,
,do_trial,105,282762,0.0-57.0-0.0,816,,,,51,"0,1,0",6,blank,278,null,0.230973965,0.72251609,0.17062263,0,,,,,,
,html-keyboard-response,106,283765,0.0-57.0-1.0,null,<p></p>,,null,,,,,,,,,,,,,,,,
,do_trial,107,286706,0.0-58.0-0.0,401,,,,51,"0,0,0",6,blank,279,null,0.349277982,0.581370899,0.104008231,0,,,,,,
,html-keyboard-response,108,287708,0.0-58.0-1.0,null,<p></p>,,null,,,,,,,,,,,,,,,,
,do_trial,109,290685,0.0-59.0-0.0,434,,,,51,"0,1,0",6,blank,280,null,0.216641242,0.576886117,0.114390644,0,,,,,,
,html-keyboard-response,110,291688,0.0-59.0-1.0,null,<p></p>,,null,,,,,,,,,,,,,,,,
,do_recog,111,294568,0.0-60.0-0.0,1376,,,,53,,,,281,probe-165,,,,,1,[object Object],204,5,1,
,html-keyboard-response,112,295570,0.0-60.0-1.0,null,<p></p>,,null,,,,,,,,,,,,,,,,
,do_trial,113,298531,0.0-61.0-0.0,420,,,,50,"0,0,0",6,blank,282,null,0.241443554,0.537336476,0.198128374,0,,,,,,
,html-keyboard-response,114,299534,0.0-61.0-1.0,null,<p></p>,,null,,,,,,,,,,,,,,,,
,do_trial,115,302563,0.0-62.0-0.0,487,,,,50,"1,0,0",6,blank,283,null,0.359509705,0.659354265,0.087310886,0,,,,,,
,html-keyboard-response,116,303566,0.0-62.0-1.0,null,<p></p>,,null,,,,,,,,,,,,,,,,
,do_trial,117,306545,0.0-63.0-0.0,438,,,,50,"0,0,1",6,blank,284,null,0.333684262,0.585064305,0.181210405,0,,,,,,
,html-keyboard-response,118,307547,0.0-63.0-1.0,null,<p></p>,,null,,,,,,,,,,,,,,,,
,do_trial,119,310355,0.0-64.0-0.0,264,,,,49,"0,0,0",6,blank,285,null,0.319484934,0.456455412,0.157534051,0,,,,,,
,html-keyboard-response,120,311357,0.0-64.0-1.0,null,<p></p>,,null,,,,,,,,,,,,,,,,
,do_trial,121,314300,0.0-65.0-0.0,402,,,,49,"0,1,0",6,blank,286,null,0.354755035,0.514408308,0.069888906,0,,,,,,
,html-keyboard-response,122,315302,0.0-65.0-1.0,null,<p></p>,,null,,,,,,,,,,,,,,,,
,do_trial,123,318366,0.0-66.0-0.0,521,,,,49,"1,0,0",6,blank,287,null,0.350622915,0.60625084,0.159499628,1,,,,,,
,html-keyboard-response,124,319369,0.0-66.0-1.0,null,<p></p>,,null,,,,,,,,,,,,,,,,
,do_recog,125,322265,0.0-67.0-0.0,1389,,,,55,,,,288,probe-35,,,,,1,[object Object],165,4,0,
,html-keyboard-response,126,323267,0.0-67.0-1.0,null,<p></p>,,null,,,,,,,,,,,,,,,,
,do_trial,127,326310,0.0-68.0-0.0,501,,,,49,"0,1,0",6,blank,289,null,0.364255829,0.596409714,0.139408053,0,,,,,,
,html-keyboard-response,128,327313,0.0-68.0-1.0,null,<p></p>,,null,,,,,,,,,,,,,,,,
,do_recog,129,329957,0.0-69.0-0.0,1139,,,,53,,,,290,probe-62,,,,,1,[object Object],166,4,1,
,html-keyboard-response,130,330959,0.0-69.0-1.0,null,<p></p>,,null,,,,,,,,,,,,,,,,
,do_trial,131,337017,0.0-70.0-0.0,null,,,,null,"0,0,0",6,blank,291,null,0.322787191,0.6503894,0.189717402,,,,,,,
,html-keyboard-response,132,338019,0.0-70.0-1.0,null,<p></p>,,null,,,,,,,,,,,,,,,,
,do_trial,133,341032,0.0-71.0-0.0,470,,,,49,"0,1,0",6,blank,292,null,0.318405126,0.63712352,0.315998636,0,,,,,,
,html-keyboard-response,134,342034,0.0-71.0-1.0,null,<p></p>,,null,,,,,,,,,,,,,,,,
,do_recog,135,344696,0.0-72.0-0.0,1156,,,,53,,,,293,probe-153,,,,,1,[object Object],49,1,1,
,html-keyboard-response,136,345697,0.0-72.0-1.0,null,<p></p>,,null,,,,,,,,,,,,,,,,
,do_trial,137,351740,0.0-73.0-0.0,null,,,,null,"1,1,1",6,blank,294,null,0.306801389,0.635518846,0.288598094,,,,,,,
,html-keyboard-response,138,352742,0.0-73.0-1.0,null,<p></p>,,null,,,,,,,,,,,,,,,,
,do_trial,139,355789,0.0-74.0-0.0,506,,,,49,"0,0,0",6,blank,295,null,0.346188578,0.769580276,0.058322298,0,,,,,,
,html-keyboard-response,140,356792,0.0-74.0-1.0,null,<p></p>,,null,,,,,,,,,,,,,,,,
,do_trial,141,360036,0.0-75.0-0.0,703,,,,49,"0,1,0",6,blank,296,null,0.189637941,0.691636645,0.091023551,0,,,,,,
,html-keyboard-response,142,361039,0.0-75.0-1.0,null,<p></p>,,null,,,,,,,,,,,,,,,,
,do_trial,143,363965,0.0-76.0-0.0,384,,,,50,"0,0,0",6,blank,297,null,0.165919224,0.70217611,0.178923376,0,,,,,,
,html-keyboard-response,144,364968,0.0-76.0-1.0,null,<p></p>,,null,,,,,,,,,,,,,,,,
,do_trial,145,367766,0.0-77.0-0.0,256,,,,50,"1,1,0",6,blank,298,null,0.175530182,0.767171866,0.123023516,1,,,,,,
,html-keyboard-response,146,368768,0.0-77.0-1.0,null,<p></p>,,null,,,,,,,,,,,,,,,,
,do_trial,147,374809,0.0-78.0-0.0,null,,,,null,"0,1,0",6,blank,299,null,0.334072787,0.789882768,0.157642131,,,,,,,
,html-keyboard-response,148,375810,0.0-78.0-1.0,null,<p></p>,,null,,,,,,,,,,,,,,,,
,do_recog,149,378451,0.0-79.0-0.0,1135,,,,53,,,,300,probe-159,,,,,1,[object Object],207,5,1,
,html-keyboard-response,150,379453,0.0-79.0-1.0,null,<p></p>,,null,,,,,,,,,,,,,,,,
,do_trial,151,382465,0.0-80.0-0.0,472,,,,50,"0,1,0",6,blank,301,null,0.397257144,0.527422381,0.092260757,1,,,,,,
,html-keyboard-response,152,383467,0.0-80.0-1.0,null,<p></p>,,null,,,,,,,,,,,,,,,,
,do_trial,153,386464,0.0-81.0-0.0,456,,,,50,"1,1,0",6,blank,302,null,0.393939285,0.457717808,0.112668025,1,,,,,,
,html-keyboard-response,154,387467,0.0-81.0-1.0,null,<p></p>,,null,,,,,,,,,,,,,,,,
,do_trial,155,390545,0.0-82.0-0.0,535,,,,50,"1,0,0",6,blank,303,null,0.475406227,0.33697752,0.102929782,0,,,,,,
,html-keyboard-response,156,391547,0.0-82.0-1.0,null,<p></p>,,null,,,,,,,,,,,,,,,,
,do_trial,157,394463,0.0-83.0-0.0,366,,,,50,"1,0,0",6,blank,304,null,0.48118248,0.294952386,0.093954094,0,,,,,,
,html-keyboard-response,158,395465,0.0-83.0-1.0,null,<p></p>,,null,,,,,,,,,,,,,,,,
,do_trial,159,398342,0.0-84.0-0.0,338,,,,50,"1,1,0",6,blank,305,null,0.629151805,0.364872237,0.260437755,1,,,,,,
,html-keyboard-response,160,399345,0.0-84.0-1.0,null,<p></p>,,null,,,,,,,,,,,,,,,,
,do_trial,161,402569,0.0-85.0-0.0,684,,,,50,"0,1,0",6,blank,306,null,0.604251042,0.362979136,0.094466306,1,,,,,,
,html-keyboard-response,162,403571,0.0-85.0-1.0,null,<p></p>,,null,,,,,,,,,,,,,,,,
,do_recog,163,406263,0.0-86.0-0.0,1187,,,,54,,,,307,probe-168,,,,,1,[object Object],163,4,1,
,html-keyboard-response,164,407265,0.0-86.0-1.0,null,<p></p>,,null,,,,,,,,,,,,,,,,
,do_trial,165,410241,0.0-87.0-0.0,435,,,,50,"1,1,0",6,blank,308,null,0.544796918,0.515853392,0.053565091,1,,,,,,
,html-keyboard-response,166,411244,0.0-87.0-1.0,null,<p></p>,,null,,,,,,,,,,,,,,,,
,do_trial,167,414092,0.0-88.0-0.0,307,,,,50,"0,0,0",6,blank,309,null,0.54696632,0.379500013,0.056444359,0,,,,,,
,html-keyboard-response,168,415094,0.0-88.0-1.0,null,<p></p>,,null,,,,,,,,,,,,,,,,
,do_recog,169,417604,0.0-89.0-0.0,1004,,,,53,,,,310,probe-67,,,,,1,[object Object],200,5,1,
,html-keyboard-response,170,418607,0.0-89.0-1.0,null,<p></p>,,null,,,,,,,,,,,,,,,,
,do_trial,171,421676,0.0-90.0-0.0,529,,,,50,"1,0,0",6,blank,311,null,0.405382057,0.387623456,0.10323312,0,,,,,,
,html-keyboard-response,172,422678,0.0-90.0-1.0,null,<p></p>,,null,,,,,,,,,,,,,,,,
,do_recog,173,425229,0.0-91.0-0.0,1046,,,,54,,,,312,probe-125,,,,,1,[object Object],85,2,1,
,html-keyboard-response,174,426231,0.0-91.0-1.0,null,<p></p>,,null,,,,,,,,,,,,,,,,
,do_trial,175,429549,0.0-92.0-0.0,777,,,,50,"0,0,0",6,blank,313,null,0.606979941,0.401943907,0.206502335,0,,,,,,
,html-keyboard-response,176,430551,0.0-92.0-1.0,null,<p></p>,,null,,,,,,,,,,,,,,,,
,do_trial,177,433383,0.0-93.0-0.0,290,,,,50,"0,0,0",6,blank,314,null,0.683540119,0.451291472,0.307404843,0,,,,,,
,html-keyboard-response,178,434386,0.0-93.0-1.0,null,<p></p>,,null,,,,,,,,,,,,,,,,
,do_trial,179,437250,0.0-94.0-0.0,323,,,,49,"1,0,0",6,blank,315,null,0.733113005,0.362753048,0.078308977,1,,,,,,
,html-keyboard-response,180,438252,0.0-94.0-1.0,null,<p></p>,,null,,,,,,,,,,,,,,,,
,do_trial,181,441325,0.0-95.0-0.0,531,,,,49,"1,0,0",6,blank,316,null,0.671858205,0.259777138,0.072415448,1,,,,,,
,html-keyboard-response,182,442327,0.0-95.0-1.0,null,<p></p>,,null,,,,,,,,,,,,,,,,
,do_trial,183,445316,0.0-96.0-0.0,448,,,,49,"1,0,0",6,blank,317,null,0.656442465,0.11262859,0.143090324,1,,,,,,
,html-keyboard-response,184,446320,0.0-96.0-1.0,null,<p></p>,,null,,,,,,,,,,,,,,,,
,do_trial,185,449279,0.0-97.0-0.0,419,,,,49,"1,1,1",6,blank,318,null,0.671315514,0.145727504,0.101385667,1,,,,,,
,html-keyboard-response,186,450281,0.0-97.0-1.0,null,<p></p>,,null,,,,,,,,,,,,,,,,
,do_trial,187,453179,0.0-98.0-0.0,356,,,,49,"1,0,0",6,blank,319,null,0.683308357,0.184505466,0.132193508,1,,,,,,
,html-keyboard-response,188,454181,0.0-98.0-1.0,null,<p></p>,,null,,,,,,,,,,,,,,,,
,do_recog,189,456752,0.0-99.0-0.0,1066,,,,53,,,,320,probe-179,,,,,1,[object Object],209,5,1,
,html-keyboard-response,190,457754,0.0-99.0-1.0,null,<p></p>,,null,,,,,,,,,,,,,,,,
,do_trial,191,460806,0.0-100.0-0.0,512,,,,49,"0,1,0",6,blank,321,null,0.640274819,0.40614832,0.109546401,0,,,,,,
,html-keyboard-response,192,461808,0.0-100.0-1.0,null,<p></p>,,null,,,,,,,,,,,,,,,,
,do_trial,193,464750,0.0-101.0-0.0,391,,,,49,"1,1,0",6,blank,322,null,0.716878987,0.357541658,0.054485245,1,,,,,,
,html-keyboard-response,194,465752,0.0-101.0-1.0,null,<p></p>,,null,,,,,,,,,,,,,,,,
,do_trial,195,469075,0.0-102.0-0.0,782,,,,49,"1,1,0",6,blank,323,null,0.689255031,0.354964546,0.082005826,1,,,,,,
,html-keyboard-response,196,470076,0.0-102.0-1.0,null,<p></p>,,null,,,,,,,,,,,,,,,,
,do_trial,197,472955,0.0-103.0-0.0,335,,,,49,"0,0,0",6,blank,324,null,0.566679781,0.343651585,0.052537306,0,,,,,,
,html-keyboard-response,198,473957,0.0-103.0-1.0,null,<p></p>,,null,,,,,,,,,,,,,,,,
,do_trial,199,476859,0.0-104.0-0.0,351,,,,49,"0,0,0",6,blank,325,null,0.588683858,0.306508429,0.059021529,0,,,,,,
,html-keyboard-response,200,477862,0.0-104.0-1.0,null,<p></p>,,null,,,,,,,,,,,,,,,,
,do_recog,201,480281,0.0-105.0-0.0,914,,,,53,,,,326,probe-14,,,,,1,[object Object],82,2,1,
,html-keyboard-response,202,481283,0.0-105.0-1.0,null,<p></p>,,null,,,,,,,,,,,,,,,,
,do_trial,203,484350,0.0-106.0-0.0,527,,,,49,"1,0,0",6,blank,327,null,0.608928998,0.377435406,0.051182065,1,,,,,,
,html-keyboard-response,204,485353,0.0-106.0-1.0,null,<p></p>,,null,,,,,,,,,,,,,,,,
,do_trial,205,488379,0.0-107.0-0.0,484,,,,49,"1,1,0",6,blank,328,null,0.683422626,0.311020305,0.102852241,1,,,,,,
,html-keyboard-response,206,489382,0.0-107.0-1.0,null,<p></p>,,null,,,,,,,,,,,,,,,,
,do_trial,207,492471,0.0-108.0-0.0,549,,,,49,"0,0,0",6,blank,329,null,0.582477837,0.264840893,0.241486527,0,,,,,,
,html-keyboard-response,208,493473,0.0-108.0-1.0,null,<p></p>,,null,,,,,,,,,,,,,,,,
,do_recog,209,496125,0.0-109.0-0.0,1147,,,,54,,,,330,probe-105,,,,,1,[object Object],84,2,1,
,html-keyboard-response,210,497128,0.0-109.0-1.0,null,<p></p>,,null,,,,,,,,,,,,,,,,
,do_trial,211,501007,0.0-110.0-0.0,1337,,,,49,"1,0,0",6,blank,331,null,0.535442401,0.324460655,0.136446134,1,,,,,,
,html-keyboard-response,212,502010,0.0-110.0-1.0,null,<p></p>,,null,,,,,,,,,,,,,,,,
,do_recog,213,504380,0.0-111.0-0.0,865,,,,53,,,,332,probe-30,,,,,1,[object Object],167,4,1,
,html-keyboard-response,214,505382,0.0-111.0-1.0,null,<p></p>,,null,,,,,,,,,,,,,,,,
,do_trial,215,508543,0.0-112.0-0.0,620,,,,49,"1,0,0",6,blank,333,null,0.652706952,0.15757289,0.12239362,1,,,,,,
,html-keyboard-response,216,509545,0.0-112.0-1.0,null,<p></p>,,null,,,,,,,,,,,,,,,,
,do_trial,217,512499,0.0-113.0-0.0,409,,,,50,"1,0,0",6,blank,334,null,0.581265079,0.198446489,0.072110474,0,,,,,,
,html-keyboard-response,218,513501,0.0-113.0-1.0,null,<p></p>,,null,,,,,,,,,,,,,,,,
,do_recog,219,516122,0.0-114.0-0.0,1116,,,,53,,,,335,probe-123,,,,,1,[object Object],125,3,1,
,html-keyboard-response,220,517123,0.0-114.0-1.0,null,<p></p>,,null,,,,,,,,,,,,,,,,
,do_trial,221,520509,0.0-115.0-0.0,838,,,,49,"0,1,0",6,blank,336,null,0.554699817,0.265404536,0.110993213,0,,,,,,
,html-keyboard-response,222,521511,0.0-115.0-1.0,null,<p></p>,,null,,,,,,,,,,,,,,,,
,do_trial,223,524432,0.0-116.0-0.0,380,,,,50,"1,0,0",6,blank,337,null,0.704909509,0.1719492,0.09634414,0,,,,,,
,html-keyboard-response,224,525434,0.0-116.0-1.0,null,<p></p>,,null,,,,,,,,,,,,,,,,
,do_recog,225,527818,0.0-117.0-0.0,878,,,,53,,,,338,probe-224,,,,,1,[object Object],123,3,1,
,html-keyboard-response,226,528820,0.0-117.0-1.0,null,<p></p>,,null,,,,,,,,,,,,,,,,
,do_trial,227,532045,0.0-118.0-0.0,684,,,,49,"1,0,0",6,blank,339,null,0.52162978,0.236334529,0.061971891,1,,,,,,
,html-keyboard-response,228,533046,0.0-118.0-1.0,null,<p></p>,,null,,,,,,,,,,,,,,,,
,do_trial,229,536221,0.0-119.0-0.0,632,,,,49,"0,0,0",6,blank,340,null,0.446546314,0.161874974,0.131075356,0,,,,,,
,html-keyboard-response,230,537223,0.0-119.0-1.0,null,<p></p>,,null,,,,,,,,,,,,,,,,
,do_trial,231,540133,0.0-120.0-0.0,368,,,,50,"1,1,0",6,blank,341,null,0.628421415,0.238768089,0.074204835,1,,,,,,
,html-keyboard-response,232,541136,0.0-120.0-1.0,null,<p></p>,,null,,,,,,,,,,,,,,,,
,do_trial,233,544440,0.0-121.0-0.0,765,,,,49,"1,1,0",6,blank,342,null,0.649348385,0.299270036,0.128141692,1,,,,,,
,html-keyboard-response,234,545443,0.0-121.0-1.0,null,<p></p>,,null,,,,,,,,,,,,,,,,
,do_trial,235,548403,0.0-122.0-0.0,417,,,,50,"1,0,0",6,blank,343,null,0.664122773,0.337596666,0.050462241,0,,,,,,
,html-keyboard-response,236,549405,0.0-122.0-1.0,null,<p></p>,,null,,,,,,,,,,,,,,,,
,do_trial,237,552310,0.0-123.0-0.0,361,,,,50,"0,1,0",6,blank,344,null,0.601028217,0.223989762,0.110606293,1,,,,,,
,html-keyboard-response,238,553312,0.0-123.0-1.0,null,<p></p>,,null,,,,,,,,,,,,,,,,
,do_trial,239,556352,0.0-124.0-0.0,500,,,,49,"0,1,0",6,blank,345,null,0.543010873,0.230538135,0.054434012,0,,,,,,
,html-keyboard-response,240,557355,0.0-124.0-1.0,null,<p></p>,,null,,,,,,,,,,,,,,,,
,do_recog,241,559983,0.0-125.0-0.0,1120,,,,54,,,,346,probe-85,,,,,1,[object Object],126,3,1,
,html-keyboard-response,242,560985,0.0-125.0-1.0,null,<p></p>,,null,,,,,,,,,,,,,,,,
,do_trial,243,564206,0.0-126.0-0.0,679,,,,50,"1,0,0",6,blank,347,null,0.554890063,0.303551489,0.129524304,0,,,,,,
,html-keyboard-response,244,565208,0.0-126.0-1.0,null,<p></p>,,null,,,,,,,,,,,,,,,,
,do_trial,245,568303,0.0-127.0-0.0,551,,,,50,"1,0,0",6,blank,348,null,0.622733612,0.280982001,0.169685921,0,,,,,,
,html-keyboard-response,246,569305,0.0-127.0-1.0,null,<p></p>,,null,,,,,,,,,,,,,,,,
,do_recog,247,572190,0.0-128.0-0.0,1380,,,,53,,,,349,probe-63,,,,,1,[object Object],160,4,1,
,html-keyboard-response,248,573192,0.0-128.0-1.0,null,<p></p>,,null,,,,,,,,,,,,,,,,
,do_trial,249,576536,0.0-129.0-0.0,801,,,,49,"1,0,0",6,blank,350,null,0.581002545,0.420588281,0.122093252,1,,,,,,
,html-keyboard-response,250,577537,0.0-129.0-1.0,null,<p></p>,,null,,,,,,,,,,,,,,,,
,do_trial,251,580933,0.0-130.0-0.0,851,,,,49,"1,0,0",6,blank,351,null,0.56923203,0.353316219,0.308944386,1,,,,,,
,html-keyboard-response,252,581936,0.0-130.0-1.0,null,<p></p>,,null,,,,,,,,,,,,,,,,
,do_trial,253,585190,0.0-131.0-0.0,713,,,,50,"0,1,1",6,blank,352,null,0.261855958,0.290960398,0.457602588,1,,,,,,
,html-keyboard-response,254,586193,0.0-131.0-1.0,null,<p></p>,,null,,,,,,,,,,,,,,,,
,do_trial,255,589391,0.0-132.0-0.0,656,,,,50,"0,0,1",6,blank,353,null,0.290166957,0.284622112,0.43587672,0,,,,,,
,html-keyboard-response,256,590392,0.0-132.0-1.0,null,<p></p>,,null,,,,,,,,,,,,,,,,
,do_trial,257,593267,0.0-133.0-0.0,333,,,,49,"0,0,1",6,blank,354,null,0.201166429,0.31499374,0.579269837,0,,,,,,
,html-keyboard-response,258,594268,0.0-133.0-1.0,null,<p></p>,,null,,,,,,,,,,,,,,,,
,do_trial,259,597338,0.0-134.0-0.0,531,,,,49,"0,0,0",6,blank,355,null,0.2462099,0.438926973,0.579806899,0,,,,,,
,html-keyboard-response,260,598340,0.0-134.0-1.0,null,<p></p>,,null,,,,,,,,,,,,,,,,
,do_trial,261,601660,0.0-135.0-0.0,781,,,,49,"1,0,1",6,blank,356,null,0.102949118,0.445634402,0.586266114,1,,,,,,
,html-keyboard-response,262,602663,0.0-135.0-1.0,null,<p></p>,,null,,,,,,,,,,,,,,,,
,do_recog,263,605929,0.0-136.0-0.0,1760,,,,54,,,,357,probe-131,,,,,1,[object Object],129,3,1,
,html-keyboard-response,264,606931,0.0-136.0-1.0,null,<p></p>,,null,,,,,,,,,,,,,,,,
,do_trial,265,610385,0.0-137.0-0.0,912,,,,49,"0,0,1",6,blank,358,null,0.074862144,0.410534672,0.615957892,0,,,,,,
,html-keyboard-response,266,611387,0.0-137.0-1.0,null,<p></p>,,null,,,,,,,,,,,,,,,,
,do_trial,267,614927,0.0-138.0-0.0,999,,,,49,"0,0,1",6,blank,359,null,0.156159583,0.26528008,0.587693886,0,,,,,,
,html-keyboard-response,268,615930,0.0-138.0-1.0,null,<p></p>,,null,,,,,,,,,,,,,,,,
,do_trial,269,618996,0.0-139.0-0.0,527,,,,49,"0,0,1",6,blank,360,null,0.240569289,0.390631037,0.534618339,0,,,,,,
,html-keyboard-response,270,619998,0.0-139.0-1.0,null,<p></p>,,null,,,,,,,,,,,,,,,,
,do_trial,271,623174,0.0-140.0-0.0,635,,,,49,"0,1,1",6,blank,361,null,0.113697833,0.356033574,0.589855397,0,,,,,,
,html-keyboard-response,272,624176,0.0-140.0-1.0,null,<p></p>,,null,,,,,,,,,,,,,,,,
,do_recog,273,627168,0.0-141.0-0.0,1487,,,,54,,,,362,probe-139,,,,,1,[object Object],168,4,1,
,html-keyboard-response,274,628169,0.0-141.0-1.0,null,<p></p>,,null,,,,,,,,,,,,,,,,
,do_trial,275,631356,0.0-142.0-0.0,645,,,,49,"0,0,1",6,blank,363,null,0.193100435,0.417045931,0.547483096,0,,,,,,
,html-keyboard-response,276,632358,0.0-142.0-1.0,null,<p></p>,,null,,,,,,,,,,,,,,,,
,do_trial,277,635355,0.0-143.0-0.0,453,,,,49,"0,1,0",6,blank,364,null,0.061902868,0.479439463,0.408669492,0,,,,,,
,html-keyboard-response,278,636356,0.0-143.0-1.0,null,<p></p>,,null,,,,,,,,,,,,,,,,
,do_recog,279,639616,0.0-144.0-0.0,1754,,,,54,,,,365,probe-152,,,,,1,[object Object],206,5,1,
,html-keyboard-response,280,640618,0.0-144.0-1.0,null,<p></p>,,null,,,,,,,,,,,,,,,,
,do_trial,281,643635,0.0-145.0-0.0,472,,,,50,"0,1,0",6,blank,366,null,0.084779546,0.515901678,0.54101568,1,,,,,,
,html-keyboard-response,282,644636,0.0-145.0-1.0,null,<p></p>,,null,,,,,,,,,,,,,,,,
,do_trial,283,647688,0.0-146.0-0.0,507,,,,50,"0,0,0",6,blank,367,null,0.061477081,0.557986377,0.541947824,0,,,,,,
,html-keyboard-response,284,648691,0.0-146.0-1.0,null,<p></p>,,null,,,,,,,,,,,,,,,,
,do_trial,285,651595,0.0-147.0-0.0,364,,,,50,"0,1,0",6,blank,368,null,0.275563995,0.4156181,0.457398645,1,,,,,,
,html-keyboard-response,286,652598,0.0-147.0-1.0,null,<p></p>,,null,,,,,,,,,,,,,,,,
,do_trial,287,655617,0.0-148.0-0.0,478,,,,50,"0,1,0",6,blank,369,null,0.07390717,0.373696028,0.531476938,1,,,,,,
,html-keyboard-response,288,656619,0.0-148.0-1.0,null,<p></p>,,null,,,,,,,,,,,,,,,,
,do_recog,289,659801,0.0-149.0-0.0,1677,,,,54,,,,370,probe-28,,,,,1,[object Object],40,1,1,
,html-keyboard-response,290,660803,0.0-149.0-1.0,null,<p></p>,,null,,,,,,,,,,,,,,,,
,do_trial,291,664326,0.0-150.0-0.0,981,,,,50,"0,0,0",6,blank,371,null,0.095692479,0.244961562,0.569858343,0,,,,,,
,html-keyboard-response,292,665329,0.0-150.0-1.0,null,<p></p>,,null,,,,,,,,,,,,,,,,
,do_trial,293,668653,0.0-151.0-0.0,782,,,,50,"1,0,0",6,blank,372,null,0.132871069,0.29744978,0.430656636,0,,,,,,
,html-keyboard-response,294,669655,0.0-151.0-1.0,null,<p></p>,,null,,,,,,,,,,,,,,,,
,do_trial,295,672628,0.0-152.0-0.0,433,,,,50,"0,0,0",6,blank,373,null,0.163243204,0.422383037,0.561143065,0,,,,,,
,html-keyboard-response,296,673630,0.0-152.0-1.0,null,<p></p>,,null,,,,,,,,,,,,,,,,
,do_trial,297,676886,0.0-153.0-0.0,714,,,,51,"0,0,1",6,blank,374,null,0.112176949,0.427070717,0.516128501,1,,,,,,
,html-keyboard-response,298,677889,0.0-153.0-1.0,null,<p></p>,,null,,,,,,,,,,,,,,,,
,do_trial,299,681404,0.0-154.0-0.0,974,,,,51,"0,1,0",6,blank,375,null,0.116193828,0.502334869,0.504741363,0,,,,,,
,html-keyboard-response,300,682406,0.0-154.0-1.0,null,<p></p>,,null,,,,,,,,,,,,,,,,
,do_recog,301,685772,0.0-155.0-0.0,1861,,,,53,,,,376,probe-166,,,,,1,[object Object],202,5,1,
,html-keyboard-response,302,686775,0.0-155.0-1.0,null,<p></p>,,null,,,,,,,,,,,,,,,,
,do_trial,303,689818,0.0-156.0-0.0,503,,,,50,"0,0,0",6,blank,377,null,0.114158251,0.339686251,0.548342677,0,,,,,,
,html-keyboard-response,304,690820,0.0-156.0-1.0,null,<p></p>,,null,,,,,,,,,,,,,,,,
,do_trial,305,694164,0.0-157.0-0.0,803,,,,50,"0,0,1",6,blank,378,null,0.104130278,0.234358684,0.625567376,0,,,,,,
,html-keyboard-response,306,695166,0.0-157.0-1.0,null,<p></p>,,null,,,,,,,,,,,,,,,,
,do_trial,307,699248,0.0-158.0-0.0,1540,,,,50,"0,0,1",6,blank,379,null,0.070214303,0.115529285,0.665471899,0,,,,,,
,html-keyboard-response,308,700250,0.0-158.0-1.0,null,<p></p>,,null,,,,,,,,,,,,,,,,
,do_trial,309,703784,0.0-159.0-0.0,992,,,,50,"0,0,1",6,blank,380,null,0.073298329,0.18064167,0.596999478,0,,,,,,
,html-keyboard-response,310,704786,0.0-159.0-1.0,null,<p></p>,,null,,,,,,,,,,,,,,,,
,do_trial,311,708153,0.0-160.0-0.0,828,,,,50,"0,1,1",6,blank,381,null,0.062543759,0.321076135,0.552773504,1,,,,,,
,html-keyboard-response,312,709156,0.0-160.0-1.0,null,<p></p>,,null,,,,,,,,,,,,,,,,
,do_recog,313,712506,0.0-161.0-0.0,1846,,,,54,,,,382,probe-48,,,,,1,[object Object],201,5,1,
,html-keyboard-response,314,713509,0.0-161.0-1.0,null,<p></p>,,null,,,,,,,,,,,,,,,,
,do_trial,315,717086,0.0-162.0-0.0,1036,,,,50,"0,1,0",6,blank,383,null,0.194589153,0.136476784,0.569416679,1,,,,,,
,html-keyboard-response,316,718088,0.0-162.0-1.0,null,<p></p>,,null,,,,,,,,,,,,,,,,
,do_trial,317,721632,0.0-163.0-0.0,1004,,,,49,"0,1,1",6,blank,384,null,0.170817924,0.205030999,0.671118372,0,,,,,,
,html-keyboard-response,318,722634,0.0-163.0-1.0,null,<p></p>,,null,,,,,,,,,,,,,,,,
,do_trial,319,726614,0.0-164.0-0.0,1440,,,,49,"1,1,1",6,blank,385,null,0.159047768,0.240934819,0.663900843,1,,,,,,
,html-keyboard-response,320,727616,0.0-164.0-1.0,null,<p></p>,,null,,,,,,,,,,,,,,,,
,do_trial,321,730789,0.0-165.0-0.0,631,,,,49,"0,0,1",6,blank,386,null,0.165916647,0.302360611,0.761427027,0,,,,,,
,html-keyboard-response,322,731791,0.0-165.0-1.0,null,<p></p>,,null,,,,,,,,,,,,,,,,
,do_recog,323,735190,0.0-166.0-0.0,1894,,,,53,,,,387,probe-174,,,,,1,[object Object],89,2,1,
,html-keyboard-response,324,736192,0.0-166.0-1.0,null,<p></p>,,null,,,,,,,,,,,,,,,,
,do_trial,325,739277,0.0-167.0-0.0,535,,,,50,"0,1,1",6,blank,388,null,0.130532695,0.295595599,0.813550912,1,,,,,,
,html-keyboard-response,326,740279,0.0-167.0-1.0,null,<p></p>,,null,,,,,,,,,,,,,,,,
,do_recog,327,743291,0.0-168.0-0.0,1507,,,,53,,,,389,probe-148,,,,,1,[object Object],205,5,1,
,html-keyboard-response,328,744293,0.0-168.0-1.0,null,<p></p>,,null,,,,,,,,,,,,,,,,
,do_trial,329,747947,0.0-169.0-0.0,1112,,,,50,"0,0,0",6,blank,390,null,0.057327264,0.296524372,0.731673501,0,,,,,,
,html-keyboard-response,330,748950,0.0-169.0-1.0,null,<p></p>,,null,,,,,,,,,,,,,,,,
,do_trial,331,752182,0.0-170.0-0.0,692,,,,49,"0,0,0",6,blank,391,null,0.133442139,0.406572014,0.603470697,0,,,,,,
,html-keyboard-response,332,753184,0.0-170.0-1.0,null,<p></p>,,null,,,,,,,,,,,,,,,,
,do_trial,333,756139,0.0-171.0-0.0,413,,,,49,"0,1,1",6,blank,392,null,0.114805261,0.384431957,0.657070687,0,,,,,,
,html-keyboard-response,334,757142,0.0-171.0-1.0,null,<p></p>,,null,,,,,,,,,,,,,,,,
,do_trial,335,760396,0.0-172.0-0.0,714,,,,49,"0,1,1",6,blank,393,null,0.147662284,0.527900347,0.664539599,0,,,,,,
,html-keyboard-response,336,761398,0.0-172.0-1.0,null,<p></p>,,null,,,,,,,,,,,,,,,,
,do_trial,337,765385,0.0-173.0-0.0,1445,,,,49,"0,1,0",6,blank,394,null,0.139059138,0.354729009,0.781568423,0,,,,,,
,html-keyboard-response,338,766387,0.0-173.0-1.0,null,<p></p>,,null,,,,,,,,,,,,,,,,
,do_trial,339,769608,0.0-174.0-0.0,677,,,,50,"0,1,1",6,blank,395,null,0.285824664,0.451994658,0.784461491,1,,,,,,
,html-keyboard-response,340,770609,0.0-174.0-1.0,null,<p></p>,,null,,,,,,,,,,,,,,,,
,do_recog,341,774100,0.0-175.0-0.0,1986,,,,54,,,,396,probe-52,,,,,1,[object Object],48,1,1,
,html-keyboard-response,342,775102,0.0-175.0-1.0,null,<p></p>,,null,,,,,,,,,,,,,,,,
,do_trial,343,778684,0.0-176.0-0.0,1042,,,,50,"0,0,1",6,blank,397,null,0.2403205,0.411677457,0.747863954,0,,,,,,
,html-keyboard-response,344,779687,0.0-176.0-1.0,null,<p></p>,,null,,,,,,,,,,,,,,,,
,do_trial,345,782805,0.0-177.0-0.0,576,,,,50,"1,0,0",6,blank,398,null,0.197473159,0.318499663,0.666579631,0,,,,,,
,html-keyboard-response,346,783807,0.0-177.0-1.0,null,<p></p>,,null,,,,,,,,,,,,,,,,
,do_recog,347,786785,0.0-178.0-0.0,1472,,,,54,,,,399,probe-08,,,,,1,[object Object],121,3,1,
,html-keyboard-response,348,787787,0.0-178.0-1.0,null,<p></p>,,null,,,,,,,,,,,,,,,,
,do_trial,349,791153,0.0-179.0-0.0,822,,,,50,"0,0,1",6,blank,400,null,0.181549879,0.34415355,0.612581299,0,,,,,,
,html-keyboard-response,350,792154,0.0-179.0-1.0,null,<p></p>,,null,,,,,,,,,,,,,,,,
,do_trial,351,795912,0.0-180.0-0.0,1213,,,,49,"0,0,0",6,blank,401,null,0.125980457,0.249764211,0.527502283,0,,,,,,
,html-keyboard-response,352,796914,0.0-180.0-1.0,null,<p></p>,,null,,,,,,,,,,,,,,,,
,do_trial,353,799986,0.0-181.0-0.0,531,,,,49,"0,0,1",6,blank,402,null,0.314280775,0.186442653,0.476426217,0,,,,,,
,html-keyboard-response,354,800988,0.0-181.0-1.0,null,<p></p>,,null,,,,,,,,,,,,,,,,
,do_recog,355,804096,0.0-182.0-0.0,1602,,,,54,,,,403,probe-151,,,,,1,[object Object],47,1,1,
,html-keyboard-response,356,805098,0.0-182.0-1.0,null,<p></p>,,null,,,,,,,,,,,,,,,,
,do_trial,357,809461,0.0-183.0-0.0,1823,,,,49,"1,0,0",6,blank,404,null,0.576428854,0.081665509,0.392350878,1,,,,,,
,html-keyboard-response,358,810463,0.0-183.0-1.0,null,<p></p>,,null,,,,,,,,,,,,,,,,
,do_trial,359,813799,0.0-184.0-0.0,792,,,,49,"1,0,0",6,blank,405,null,0.519119702,0.143653092,0.29187571,1,,,,,,
,html-keyboard-response,360,814800,0.0-184.0-1.0,null,<p></p>,,null,,,,,,,,,,,,,,,,
,do_trial,361,818466,0.0-185.0-0.0,1127,,,,50,"0,0,0",6,blank,406,null,0.550344403,0.138283851,0.221951679,0,,,,,,
,html-keyboard-response,362,819469,0.0-185.0-1.0,null,<p></p>,,null,,,,,,,,,,,,,,,,
,do_trial,363,822538,0.0-186.0-0.0,528,,,,50,"1,0,0",6,blank,407,null,0.608289725,0.1368176,0.174973869,0,,,,,,
,html-keyboard-response,364,823539,0.0-186.0-1.0,null,<p></p>,,null,,,,,,,,,,,,,,,,
,do_trial,365,826872,0.0-187.0-0.0,793,,,,50,"1,0,0",6,blank,408,null,0.638586605,0.110240566,0.204312809,0,,,,,,
,html-keyboard-response,366,827875,0.0-187.0-1.0,null,<p></p>,,null,,,,,,,,,,,,,,,,
,do_trial,367,831054,0.0-188.0-0.0,639,,,,50,"0,0,0",6,blank,409,null,0.528480153,0.159526208,0.373830103,0,,,,,,
,html-keyboard-response,368,832056,0.0-188.0-1.0,null,<p></p>,,null,,,,,,,,,,,,,,,,
,do_trial,369,835338,0.0-189.0-0.0,742,,,,51,"0,0,0",6,blank,410,null,0.514714193,0.138832361,0.237080135,0,,,,,,
,html-keyboard-response,370,836341,0.0-189.0-1.0,null,<p></p>,,null,,,,,,,,,,,,,,,,
,do_recog,371,839235,0.0-190.0-0.0,1389,,,,54,,,,411,probe-135,,,,,1,[object Object],80,2,1,
,html-keyboard-response,372,840235,0.0-190.0-1.0,null,<p></p>,,null,,,,,,,,,,,,,,,,
,do_trial,373,843766,0.0-191.0-0.0,997,,,,51,"1,1,1",6,blank,412,null,0.668676939,0.105994966,0.235412168,1,,,,,,
,html-keyboard-response,374,844767,0.0-191.0-1.0,null,<p></p>,,null,,,,,,,,,,,,,,,,
,do_recog,375,847794,0.0-192.0-0.0,1524,,,,54,,,,413,probe-236,,,,,0,[object Object],null,null,0,
,html-keyboard-response,376,848795,0.0-192.0-1.0,null,<p></p>,,null,,,,,,,,,,,,,,,,
,do_trial,377,852781,0.0-193.0-0.0,1450,,,,50,"1,0,0",6,blank,414,null,0.670744793,0.104039079,0.16847164,0,,,,,,
,html-keyboard-response,378,853783,0.0-193.0-1.0,null,<p></p>,,null,,,,,,,,,,,,,,,,
,do_recog,379,856813,0.0-194.0-0.0,1526,,,,54,,,,415,probe-98,,,,,1,[object Object],42,1,1,
,html-keyboard-response,380,857815,0.0-194.0-1.0,null,<p></p>,,null,,,,,,,,,,,,,,,,
,do_trial,381,861123,0.0-195.0-0.0,769,,,,49,"1,0,0",6,blank,416,null,0.791693196,0.139076817,0.242490405,1,,,,,,
,html-keyboard-response,382,862125,0.0-195.0-1.0,null,<p></p>,,null,,,,,,,,,,,,,,,,
,do_trial,383,864975,0.0-196.0-0.0,311,,,,49,"1,0,0",6,blank,417,null,0.652942647,0.132433201,0.149194908,1,,,,,,
,html-keyboard-response,384,865977,0.0-196.0-1.0,null,<p></p>,,null,,,,,,,,,,,,,,,,
,do_trial,385,869230,0.0-197.0-0.0,714,,,,49,"0,0,0",6,blank,418,null,0.576652632,0.179289071,0.165914557,0,,,,,,
,html-keyboard-response,386,870232,0.0-197.0-1.0,null,<p></p>,,null,,,,,,,,,,,,,,,,
,do_trial,387,873991,0.0-198.0-0.0,1219,,,,49,"1,0,0",6,blank,419,null,0.634152173,0.158901837,0.407280797,1,,,,,,
,html-keyboard-response,388,874993,0.0-198.0-1.0,null,<p></p>,,null,,,,,,,,,,,,,,,,
,do_recog,389,877965,0.0-199.0-0.0,1467,,,,54,,,,420,probe-104,,,,,1,[object Object],208,5,1,
,html-keyboard-response,390,878967,0.0-199.0-1.0,null,<p></p>,,null,,,,,,,,,,,,,,,,
,do_trial,391,883093,0.0-200.0-0.0,1587,,,,49,"1,0,1",6,blank,421,null,0.736951025,0.297796493,0.414363046,1,,,,,,
,html-keyboard-response,392,884094,0.0-200.0-1.0,null,<p></p>,,null,,,,,,,,,,,,,,,,
,do_trial,393,887094,0.0-201.0-0.0,460,,,,49,"0,0,0",6,blank,422,null,0.731789995,0.303258011,0.297009543,0,,,,,,
,html-keyboard-response,394,888097,0.0-201.0-1.0,null,<p></p>,,null,,,,,,,,,,,,,,,,
,do_trial,395,891372,0.0-202.0-0.0,735,,,,50,"0,1,0",6,blank,423,null,0.710432839,0.216775733,0.302814565,1,,,,,,
,html-keyboard-response,396,892374,0.0-202.0-1.0,null,<p></p>,,null,,,,,,,,,,,,,,,,
,do_trial,397,895518,0.0-203.0-0.0,603,,,,50,"0,0,0",6,blank,424,null,0.693679627,0.058536226,0.272257781,0,,,,,,
,html-keyboard-response,398,896521,0.0-203.0-1.0,null,<p></p>,,null,,,,,,,,,,,,,,,,
,do_trial,399,899835,0.0-204.0-0.0,772,,,,50,"1,0,1",6,blank,425,null,0.576549834,0.06870863,0.338417755,0,,,,,,
,html-keyboard-response,400,900837,0.0-204.0-1.0,null,<p></p>,,null,,,,,,,,,,,,,,,,
,do_trial,401,904057,0.0-205.0-0.0,682,,,,50,"1,1,0",6,blank,426,null,0.68988802,0.065080672,0.432899514,1,,,,,,
,html-keyboard-response,402,905058,0.0-205.0-1.0,null,<p></p>,,null,,,,,,,,,,,,,,,,
,do_recog,403,908115,0.0-206.0-0.0,1550,,,,54,,,,427,probe-38,,,,,1,[object Object],161,4,1,
,html-keyboard-response,404,909117,0.0-206.0-1.0,null,<p></p>,,null,,,,,,,,,,,,,,,,
,do_trial,405,912518,0.0-207.0-0.0,861,,,,50,"1,0,0",6,blank,428,null,0.50472109,0.175503063,0.329146686,0,,,,,,
,html-keyboard-response,406,913521,0.0-207.0-1.0,null,<p></p>,,null,,,,,,,,,,,,,,,,
,do_trial,407,916478,0.0-208.0-0.0,416,,,,49,"1,1,0",6,blank,429,null,0.541116362,0.335541915,0.336977489,1,,,,,,
,html-keyboard-response,408,917480,0.0-208.0-1.0,null,<p></p>,,null,,,,,,,,,,,,,,,,
,do_recog,409,920491,0.0-209.0-0.0,1505,,,,54,,,,430,probe-50,,,,,1,[object Object],88,2,1,
,html-keyboard-response,410,921493,0.0-209.0-1.0,null,<p></p>,,null,,,,,,,,,,,,,,,,
,do_trial,411,924630,0.0-210.0-0.0,596,,,,49,"0,0,1",6,blank,431,null,0.525391518,0.242047696,0.492213882,0,,,,,,
,html-keyboard-response,412,925632,0.0-210.0-1.0,null,<p></p>,,null,,,,,,,,,,,,,,,,
,do_trial,413,928864,0.0-211.0-0.0,693,,,,49,"0,1,1",6,blank,432,null,0.597803777,0.256045175,0.32851588,0,,,,,,
,html-keyboard-response,414,929866,0.0-211.0-1.0,null,<p></p>,,null,,,,,,,,,,,,,,,,
,do_recog,415,932828,0.0-212.0-0.0,1457,,,,54,,,,433,probe-175,,,,,1,[object Object],162,4,1,
,html-keyboard-response,416,933830,0.0-212.0-1.0,null,<p></p>,,null,,,,,,,,,,,,,,,,
,do_trial,417,937185,0.0-213.0-0.0,813,,,,49,"1,0,0",6,blank,434,null,0.515741198,0.344396133,0.408790164,1,,,,,,
,html-keyboard-response,418,938187,0.0-213.0-1.0,null,<p></p>,,null,,,,,,,,,,,,,,,,
,do_trial,419,941449,0.0-214.0-0.0,717,,,,49,"1,1,0",6,blank,435,null,0.595710815,0.271257368,0.349264559,1,,,,,,
,html-keyboard-response,420,942452,0.0-214.0-1.0,null,<p></p>,,null,,,,,,,,,,,,,,,,
,do_trial,421,945487,0.0-215.0-0.0,494,,,,49,"0,1,0",6,blank,436,null,0.532737205,0.235962693,0.383820374,0,,,,,,
,html-keyboard-response,422,946490,0.0-215.0-1.0,null,<p></p>,,null,,,,,,,,,,,,,,,,
,do_trial,423,950132,0.0-216.0-0.0,1102,,,,49,"1,0,0",6,blank,437,null,0.702896107,0.108255969,0.368494068,1,,,,,,
,html-keyboard-response,424,951134,0.0-216.0-1.0,null,<p></p>,,null,,,,,,,,,,,,,,,,
,do_recog,425,954194,0.0-217.0-0.0,1554,,,,54,,,,438,probe-108,,,,,1,[object Object],124,3,1,
,html-keyboard-response,426,955195,0.0-217.0-1.0,null,<p></p>,,null,,,,,,,,,,,,,,,,
,do_trial,427,959314,0.0-218.0-0.0,1577,,,,49,"1,0,0",6,blank,439,null,0.688044238,0.063441711,0.333975739,1,,,,,,
,html-keyboard-response,428,960317,0.0-218.0-1.0,null,<p></p>,,null,,,,,,,,,,,,,,,,
,do_recog,429,963127,0.0-219.0-0.0,1305,,,,54,,,,440,probe-17,,,,,1,[object Object],164,4,1,
,html-keyboard-response,430,964130,0.0-219.0-1.0,null,<p></p>,,null,,,,,,,,,,,,,,,,
,do_trial,431,968410,0.0-220.0-0.0,1739,,,,49,"0,0,0",6,blank,441,null,0.661260198,0.153577664,0.278582417,0,,,,,,
,html-keyboard-response,432,969413,0.0-220.0-1.0,null,<p></p>,,null,,,,,,,,,,,,,,,,
,do_trial,433,972696,0.0-221.0-0.0,744,,,,50,"0,0,1",6,blank,442,null,0.608585824,0.109069891,0.31489778,0,,,,,,
,html-keyboard-response,434,973698,0.0-221.0-1.0,null,<p></p>,,null,,,,,,,,,,,,,,,,
,do_trial,435,976707,0.0-222.0-0.0,468,,,,50,"1,0,1",6,blank,443,null,0.545417258,0.11117974,0.35492325,0,,,,,,
,html-keyboard-response,436,977709,0.0-222.0-1.0,null,<p></p>,,null,,,,,,,,,,,,,,,,
,do_trial,437,980709,0.0-223.0-0.0,459,,,,49,"1,0,1",6,blank,444,null,0.570919427,0.083466443,0.335909868,1,,,,,,
,html-keyboard-response,438,981712,0.0-223.0-1.0,null,<p></p>,,null,,,,,,,,,,,,,,,,
,do_recog,439,984792,0.0-224.0-0.0,1575,,,,54,,,,445,probe-21,,,,,1,[object Object],169,4,1,
,html-keyboard-response,440,985794,0.0-224.0-1.0,null,<p></p>,,null,,,,,,,,,,,,,,,,
,do_trial,441,989185,0.0-225.0-0.0,844,,,,49,"0,0,0",6,blank,446,null,0.609699279,0.180345058,0.324402933,0,,,,,,
,html-keyboard-response,442,990187,0.0-225.0-1.0,null,<p></p>,,null,,,,,,,,,,,,,,,,
,do_trial,443,993499,0.0-226.0-0.0,772,,,,49,"0,0,0",6,blank,447,null,0.568787133,0.059588709,0.219867838,0,,,,,,
,html-keyboard-response,444,994501,0.0-226.0-1.0,null,<p></p>,,null,,,,,,,,,,,,,,,,
,do_trial,445,998507,0.0-227.0-0.0,1465,,,,49,"1,0,0",6,blank,448,null,0.592463943,0.156383642,0.258872893,1,,,,,,
,html-keyboard-response,446,999509,0.0-227.0-1.0,null,<p></p>,,null,,,,,,,,,,,,,,,,
,do_trial,447,1003367,0.0-228.0-0.0,1316,,,,49,"1,1,0",6,blank,449,null,0.700999579,0.14400426,0.172489967,1,,,,,,
,html-keyboard-response,448,1004369,0.0-228.0-1.0,null,<p></p>,,null,,,,,,,,,,,,,,,,
,do_recog,449,1007971,0.0-229.0-0.0,2098,,,,54,,,,450,probe-173,,,,,1,[object Object],43,1,1,
,html-keyboard-response,450,1008974,0.0-229.0-1.0,null,<p></p>,,null,,,,,,,,,,,,,,,,
,do_trial,451,1012917,0.0-230.0-0.0,1403,,,,49,"1,0,1",6,blank,451,null,0.663178845,0.155303674,0.16169367,1,,,,,,
,html-keyboard-response,452,1013918,0.0-230.0-1.0,null,<p></p>,,null,,,,,,,,,,,,,,,,
,do_trial,453,1017318,0.0-231.0-0.0,859,,,,49,"1,0,1",6,blank,452,null,0.790214202,0.11697843,0.280029483,1,,,,,,
,html-keyboard-response,454,1018321,0.0-231.0-1.0,null,<p></p>,,null,,,,,,,,,,,,,,,,
,do_trial,455,1022253,0.0-232.0-0.0,1392,,,,49,"0,0,1",6,blank,453,null,0.823846834,0.083090589,0.365915839,0,,,,,,
,html-keyboard-response,456,1023255,0.0-232.0-1.0,null,<p></p>,,null,,,,,,,,,,,,,,,,
,do_trial,457,1027063,0.0-233.0-0.0,1264,,,,49,"1,0,0",6,blank,454,null,0.431804146,0.248146045,0.328655792,1,,,,,,
,html-keyboard-response,458,1028065,0.0-233.0-1.0,null,<p></p>,,null,,,,,,,,,,,,,,,,
,do_trial,459,1031489,0.0-234.0-0.0,882,,,,49,"0,0,1",6,blank,455,null,0.404716256,0.309420046,0.299331722,0,,,,,,
,html-keyboard-response,460,1032492,0.0-234.0-1.0,null,<p></p>,,null,,,,,,,,,,,,,,,,
,do_trial,461,1038533,0.0-235.0-0.0,null,,,,null,"1,0,0",6,blank,456,null,0.224577575,0.427454432,0.467530965,,,,,,,
,html-keyboard-response,462,1039536,0.0-235.0-1.0,null,<p></p>,,null,,,,,,,,,,,,,,,,
,do_recog,463,1042542,0.0-236.0-0.0,1501,,,,54,,,,457,probe-233,,,,,0,[object Object],null,null,0,
,html-keyboard-response,464,1043545,0.0-236.0-1.0,null,<p></p>,,null,,,,,,,,,,,,,,,,
,do_trial,465,1046801,0.0-237.0-0.0,714,,,,49,"0,1,0",6,blank,458,null,0.130965962,0.56359685,0.313750801,0,,,,,,
,html-keyboard-response,466,1047803,0.0-237.0-1.0,null,<p></p>,,null,,,,,,,,,,,,,,,,
,do_recog,467,1051237,0.0-238.0-0.0,1927,,,,55,,,,459,probe-245,,,,,0,[object Object],null,null,1,
,html-keyboard-response,468,1052238,0.0-238.0-1.0,null,<p></p>,,null,,,,,,,,,,,,,,,,
,do_trial,469,1055522,0.0-239.0-0.0,745,,,,49,"1,1,1",6,blank,460,null,0.115342209,0.476662519,0.224220146,1,,,,,,
,html-keyboard-response,470,1056524,0.0-239.0-1.0,null,<p></p>,,null,,,,,,,,,,,,,,,,
,do_trial,471,1059654,0.0-240.0-0.0,588,,,,49,"0,0,0",6,blank,461,null,0.093261515,0.43793092,0.335730062,0,,,,,,
,html-keyboard-response,472,1060657,0.0-240.0-1.0,null,<p></p>,,null,,,,,,,,,,,,,,,,
,do_trial,473,1065829,0.0-241.0-0.0,2630,,,,50,"0,1,0",6,blank,462,null,0.107476046,0.584100904,0.343205924,1,,,,,,
,html-keyboard-response,474,1066831,0.0-241.0-1.0,null,<p></p>,,null,,,,,,,,,,,,,,,,
,do_recog,475,1069928,0.0-242.0-0.0,1592,,,,54,,,,463,probe-240,,,,,0,[object Object],null,null,0,
,html-keyboard-response,476,1070930,0.0-242.0-1.0,null,<p></p>,,null,,,,,,,,,,,,,,,,
,do_trial,477,1074083,0.0-243.0-0.0,614,,,,49,"0,0,0",6,blank,464,null,0.071452446,0.561124743,0.527857853,0,,,,,,
,html-keyboard-response,478,1075088,0.0-243.0-1.0,null,<p></p>,,null,,,,,,,,,,,,,,,,
,do_recog,479,1078080,0.0-244.0-0.0,1487,,,,55,,,,465,probe-244,,,,,0,[object Object],null,null,1,
,html-keyboard-response,480,1079082,0.0-244.0-1.0,null,<p></p>,,null,,,,,,,,,,,,,,,,
,do_trial,481,1082507,0.0-245.0-0.0,885,,,,49,"0,0,0",6,blank,466,null,0.138159914,0.434348568,0.320043189,0,,,,,,
,html-keyboard-response,482,1083509,0.0-245.0-1.0,null,<p></p>,,null,,,,,,,,,,,,,,,,
,do_trial,483,1086630,0.0-246.0-0.0,580,,,,50,"0,0,0",6,blank,467,null,0.152796108,0.538685668,0.340717357,0,,,,,,
,html-keyboard-response,484,1087632,0.0-246.0-1.0,null,<p></p>,,null,,,,,,,,,,,,,,,,
,do_recog,485,1090579,0.0-247.0-0.0,1442,,,,55,,,,468,probe-253,,,,,0,[object Object],null,null,1,
,html-keyboard-response,486,1091581,0.0-247.0-1.0,null,<p></p>,,null,,,,,,,,,,,,,,,,
,do_trial,487,1095267,0.0-248.0-0.0,1144,,,,50,"0,0,0",6,blank,469,null,0.138189664,0.456040632,0.317384108,0,,,,,,
,html-keyboard-response,488,1096270,0.0-248.0-1.0,null,<p></p>,,null,,,,,,,,,,,,,,,,
,do_recog,489,1099321,0.0-249.0-0.0,1546,,,,55,,,,470,probe-241,,,,,0,[object Object],null,null,1,
,html-keyboard-response,490,1100323,0.0-249.0-1.0,null,<p></p>,,null,,,,,,,,,,,,,,,,
,do_trial,491,1103698,0.0-250.0-0.0,833,,,,51,"1,1,0",6,blank,471,null,0.086392177,0.506809017,0.28178095,0,,,,,,
,html-keyboard-response,492,1104701,0.0-250.0-1.0,null,<p></p>,,null,,,,,,,,,,,,,,,,
,do_trial,493,1108250,0.0-251.0-0.0,1008,,,,51,"0,0,0",6,blank,472,null,0.205656628,0.595582038,0.183668311,0,,,,,,
,html-keyboard-response,494,1109251,0.0-251.0-1.0,null,<p></p>,,null,,,,,,,,,,,,,,,,
,do_trial,495,1112841,0.0-252.0-0.0,1046,,,,50,"0,0,0",6,blank,473,null,0.183241299,0.539191968,0.247155058,0,,,,,,
,html-keyboard-response,496,1113843,0.0-252.0-1.0,null,<p></p>,,null,,,,,,,,,,,,,,,,
,do_recog,497,1117048,0.0-253.0-0.0,1699,,,,55,,,,474,probe-254,,,,,0,[object Object],null,null,1,
,html-keyboard-response,498,1118051,0.0-253.0-1.0,null,<p></p>,,null,,,,,,,,,,,,,,,,
,do_trial,499,1121612,0.0-254.0-0.0,1019,,,,50,"0,0,0",6,blank,475,null,0.089348099,0.730421548,0.161785594,0,,,,,,
,html-keyboard-response,500,1122615,0.0-254.0-1.0,null,<p></p>,,null,,,,,,,,,,,,,,,,
,do_trial,501,1126031,0.0-255.0-0.0,877,,,,50,"1,1,0",6,blank,476,null,0.101458415,0.678658578,0.085066366,1,,,,,,
,html-keyboard-response,502,1127033,0.0-255.0-1.0,null,<p></p>,,null,,,,,,,,,,,,,,,,
,do_trial,503,1130946,0.0-256.0-0.0,1372,,,,50,"0,1,0",6,blank,477,null,0.134202305,0.763793649,0.122503856,1,,,,,,
,html-keyboard-response,504,1131948,0.0-256.0-1.0,null,<p></p>,,null,,,,,,,,,,,,,,,,
,do_trial,505,1136255,0.0-257.0-0.0,1763,,,,50,"1,1,0",6,blank,478,null,0.266572555,0.764489118,0.094911834,1,,,,,,
,html-keyboard-response,506,1137258,0.0-257.0-1.0,null,<p></p>,,null,,,,,,,,,,,,,,,,
,do_recog,507,1140261,0.0-258.0-0.0,1498,,,,55,,,,479,probe-248,,,,,0,[object Object],null,null,1,
,html-keyboard-response,508,1141263,0.0-258.0-1.0,null,<p></p>,,null,,,,,,,,,,,,,,,,
,do_pick_best_pirate,509,1148365,0.0-259.0-0.0,6095,,,,50,,,,,,,,,,,,,,,
,do_pick_best_pirate,510,1151820,0.0-260.0-0.0,2449,,,,49,,,,,,,,,,,,,,,
,do_pick_best_pirate,511,1153929,0.0-261.0-0.0,1103,,,,49,,,,,,,,,,,,,,,
,do_pick_best_pirate,512,1156215,0.0-262.0-0.0,1280,,,,50,,,,,,,,,,,,,,,
,do_pick_best_pirate,513,1158413,0.0-263.0-0.0,1193,,,,50,,,,,,,,,,,,,,,
,do_pick_best_pirate,514,1160330,0.0-264.0-0.0,911,,,,49,,,,,,,,,,,,,,,
,html-keyboard-response,515,1166028,0.0-265.0-0.0,5696,<p>You are all done with the experiment!</p><p> You made $15 plus $3 in bonus payment!</p><p>Thank you for participating. You will recieve your payment within 3 days.<p><b>[Press the space bar to end the experiment]</b></p></div>,,32,,,,,,,,,,,,,,,,