"success","trial_type","trial_index","time_elapsed","internal_node_id","interactions","blur_events","focus_events","fullscreenenter_events","fullscreenexit_events","rt","stimulus","key_press","subject_id","participant_id","age","gender","prompt","response","choice_outcomes","context_n","context_img_id","trial_n","probe_img_id","pR_red","pR_white","pR_black","outcome","is_valid","image_to_show","probed_trial","probed_context","correct","probe","probed_trial_n","probed_context_n","context_im"
"true","fullscreen","0","3318","0.0-0.0","""event"",""trial"",""time""
""fullscreenenter"",""0"",""2349""
","
","
","""event"",""trial"",""time""
""fullscreenenter"",""0"",""2349""
","
","","","","","","","","","","","","","","","","","","","","","","","","","","",""
"","pavlovia","1","3323","0.0-1.0","""event"",""trial"",""time""
""fullscreenenter"",""0"",""2349""
","
","
","""event"",""trial"",""time""
""fullscreenenter"",""0"",""2349""
","
","","","","","","","","","","","","","","","","","","","","","","","","","","",""
"","welc_back","2","13171","0.0-2.0","""event"",""trial"",""time""
""fullscreenenter"",""0"",""2349""
","
","
","""event"",""trial"",""time""
""fullscreenenter"",""0"",""2349""
","
","null","run_exp/static/audio/clip_29_welcome_back.m4a","null","412","478","21","Female","<div class='center'><p>Welcome to day 2!</p><p> Yesterday, you were the head captain of a pirate ship. You asked your fellow pirates to rob other ships of their gold across six different islands.</p></div>","","","","","","","","","","","","","","","","","","",""
"","html-keyboard-response","3","14318","0.0-3.0","""event"",""trial"",""time""
""fullscreenenter"",""0"",""2349""
","
","
","""event"",""trial"",""time""
""fullscreenenter"",""0"",""2349""
","
","1146.2000000029802","<div class='center'><p>Welcome to day 2!</p><p> Yesterday, you were the head captain of a pirate ship. You asked your fellow pirates to rob other ships of their gold across six different islands.</p><p><b>[Press the space bar to continue]</b></p></div>","32","","","","","","","","","","","","","","","","","","","","","","","",""
"","day_1_summary_goal","4","31517","0.0-4.0","""event"",""trial"",""time""
""fullscreenenter"",""0"",""2349""
","
","
","""event"",""trial"",""time""
""fullscreenenter"",""0"",""2349""
","
","null","run_exp/static/audio/clip_30_goal_of_game.m4a","null","","","","","<div class='center'><p>Today, like yesterday, you get to pick which pirate you want to rob the next ship.</p><p>If the pirate is successful in robbing a ship, you get gold coins that look like this: </p><p><img src='run_exp/static/images/tutorial/reward.png' height='150'></p><p> If they were not successful in robbing the ship, then you will get no gold coins and you'll see a big red x like this: </p><p><img src='run_exp/static/images/tutorial/reward_no.png' height='150'></p></div>","","","","","","","","","","","","","","","","","","",""
"","html-keyboard-response","5","31978","0.0-5.0","""event"",""trial"",""time""
""fullscreenenter"",""0"",""2349""
","
","
","""event"",""trial"",""time""
""fullscreenenter"",""0"",""2349""
","
","460","<div class='center'><p>Today, like yesterday, you get to pick which pirate you want to rob the next ship.</p><p>If the pirate is successful in robbing a ship, you get gold coins that look like this: </p><p><img src='run_exp/static/images/tutorial/reward.png' height='150'></p><p> If they were not successful in robbing the ship, then you will get no gold coins and you'll see a big red x like this: </p><p><img src='run_exp/static/images/tutorial/reward_no.png' height='150'></p><p><b>[Press the space bar to continue]</b></p></div>","32","","","","","","","","","","","","","","","","","","","","","","","",""
"","day_1_summary_pick","6","46642","0.0-6.0","""event"",""trial"",""time""
""fullscreenenter"",""0"",""2349""
","
","
","""event"",""trial"",""time""
""fullscreenenter"",""0"",""2349""
","
","null","run_exp/static/audio/clip_31_how_to_pick_a_pirate.m4a","null","","","","","<div class='center'><p>Also, just like yesterday, you will use the 1,2,3 keys on your keyboard to pick a pirate. Press '1' to choose red beard, '2' to choose white beard, and '3' to choose black beard . You only have 3 seconds to pick a pirate, so please make a choice quickly!</p></div>","","","","","","","","","","","","","","","","","","",""
"","html-keyboard-response","7","47741","0.0-7.0","""event"",""trial"",""time""
""fullscreenenter"",""0"",""2349""
","
","
","""event"",""trial"",""time""
""fullscreenenter"",""0"",""2349""
","
","1098.3999999985099","<div class='center'><p>Also, just like yesterday, you will use the 1,2,3 keys on your keyboard to pick a pirate. Press '1' to choose red beard, '2' to choose white beard, and '3' to choose black beard . You only have 3 seconds to pick a pirate, so please make a choice quickly!</p><p><b>[Press the space bar to continue]</b></p></div>","32","","","","","","","","","","","","","","","","","","","","","","","",""
"","test_phase_begin","8","78108","0.0-8.0","""event"",""trial"",""time""
""fullscreenenter"",""0"",""2349""
","
","
","""event"",""trial"",""time""
""fullscreenenter"",""0"",""2349""
","
","null","run_exp/static/audio/clip_32_final_place.m4a","null","","","","","<div class='center'><p>You’ve arrived at the final island of your journey! Unfortunately, it’s very foggy out, so you won’t be able to see it in the distance like the other islands you've visited.</p><p>You’ll still be deciding which pirate you want to rob a ship like before. However, because of the fog, you also won’t be able to see the ship.</p><p>This means you do not have to remember the ships you rob on this island.</p><p>Unlike yesterday, you won't be visiting multiple islands today. You will stay on this island for the entire game. This game will last ~30 minutes.</p></div>","","","","","","","","","","","","","","","","","","",""
"","html-keyboard-response","9","84945","0.0-9.0","""event"",""trial"",""time""
""fullscreenenter"",""0"",""2349""
","
","
","""event"",""trial"",""time""
""fullscreenenter"",""0"",""2349""
","
","6836.20000000298","<div class='center'><p>You’ve arrived at the final island of your journey! Unfortunately, it’s very foggy out, so you won’t be able to see it in the distance like the other islands you've visited.</p><p>You’ll still be deciding which pirate you want to rob a ship like before. However, because of the fog, you also won’t be able to see the ship.</p><p>This means you do not have to remember the ships you rob on this island.</p><p>Unlike yesterday, you won't be visiting multiple islands today. You will stay on this island for the entire game. This game will last ~30 minutes.</p><p><b>[Press the space bar to continue]</b></p></div>","32","","","","","","","","","","","","","","","","","","","","","","","",""
"","explain_probe_1","10","92635","0.0-10.0","""event"",""trial"",""time""
""fullscreenenter"",""0"",""2349""
","
","
","""event"",""trial"",""time""
""fullscreenenter"",""0"",""2349""
","
","null","run_exp/static/audio/clip_33_recognition_1.m4a","null","","","","","<div class='center'><p> Sometimes you’ll be shown a ship, and you will be asked if you saw this ship on a past island.</p><p> Here is an example of what you will see.</p><p><img src='run_exp/static/images/tutorial/example_recog_trial.png' height='500'></p></div>","","","","","","","","","","","","","","","","","","",""
"","html-keyboard-response","11","93914","0.0-11.0","""event"",""trial"",""time""
""fullscreenenter"",""0"",""2349""
","
","
","""event"",""trial"",""time""
""fullscreenenter"",""0"",""2349""
","
","1277.2999999970198","<div class='center'><p> Sometimes you’ll be shown a ship, and you will be asked if you saw this ship on a past island.</p><p> Here is an example of what you will see.</p><p><img src='run_exp/static/images/tutorial/example_recog_trial.png' height='500'></p><p><b>[Press the space bar to continue]</b></p></div>","32","","","","","","","","","","","","","","","","","","","","","","","",""
"","explain_probe_2","12","115611","0.0-12.0","""event"",""trial"",""time""
""fullscreenenter"",""0"",""2349""
","
","
","""event"",""trial"",""time""
""fullscreenenter"",""0"",""2349""
","
","null","run_exp/static/audio/clip_34_recognition_2.m4a","null","","","","","<div class='center'><p> You will press the 5, 6, 7, 8 keys on your keyboard to respond.</p><p>If you are sure you saw the ship, press <b>5</b> on your keyboard.</p><p> If you think you saw it before but aren't sure, then press <b>6</b>.</p><p> If you think you have <b>not</b> seen it before but aren't sure, then press <b>7</b>.</p><p> If you are sure you did <b>not</b> see the ship before, then press <b>8</b>.</p><p><img src='run_exp/static/images/tutorial/example_recog_trial.png' height='500'></p></div>","","","","","","","","","","","","","","","","","","",""
"","html-keyboard-response","13","124190","0.0-13.0","""event"",""trial"",""time""
""fullscreenenter"",""0"",""2349""
","
","
","""event"",""trial"",""time""
""fullscreenenter"",""0"",""2349""
","
","8578.90000000596","<div class='center'><p> You will press the 5, 6, 7, 8 keys on your keyboard to respond.</p><p>If you are sure you saw the ship, press <b>5</b> on your keyboard.</p><p> If you think you saw it before but aren't sure, then press <b>6</b>.</p><p> If you think you have <b>not</b> seen it before but aren't sure, then press <b>7</b>.</p><p> If you are sure you did <b>not</b> see the ship before, then press <b>8</b>.</p><p><img src='run_exp/static/images/tutorial/example_recog_trial.png' height='500'></p><p><b>[Press the space bar to continue]</b></p></div>","32","","","","","","","","","","","","","","","","","","","","","","","",""
"","explain_outcome","14","141381","0.0-14.0","""event"",""trial"",""time""
""fullscreenenter"",""0"",""2349""
","
","
","""event"",""trial"",""time""
""fullscreenenter"",""0"",""2349""
","
","null","run_exp/static/audio/clip_35_recognition_3.m4a","null","","","","","<div class='center'><p> If you remember correctly, then you’ll get a gold coin like this: </p><p><img src='run_exp/static/images/tutorial/reward_small.png' height='200'></p><p>If you do not remember correctly, then you'll see a red x like this: </p><p><img src='run_exp/static/images/tutorial/reward_no.png' height='200'></p><p>Importantly, when you are shown a ship, take the time to remind yourself which island you saw it on. This will help you in the next part of the study.</p></div>","","","","","","","","","","","","","","","","","","",""
"","html-keyboard-response","15","141968","0.0-15.0","""event"",""trial"",""time""
""fullscreenenter"",""0"",""2349""
","
","
","""event"",""trial"",""time""
""fullscreenenter"",""0"",""2349""
","
","586.6000000014901","<div class='center'><p> If you remember correctly, then you’ll get a gold coin like this: </p><p><img src='run_exp/static/images/tutorial/reward_small.png' height='200'></p><p>If you do not remember correctly, then you'll see a red x like this: </p><p><img src='run_exp/static/images/tutorial/reward_no.png' height='200'></p><p>Importantly, when you are shown a ship, take the time to remind yourself which island you saw it on. This will help you in the next part of the study.</p><p><b>[Press the space bar to continue]</b></p></div>","32","","","","","","","","","","","","","","","","","","","","","","","",""
"","begin_test_phase","16","157764","0.0-16.0","""event"",""trial"",""time""
""fullscreenenter"",""0"",""2349""
","
","
","""event"",""trial"",""time""
""fullscreenenter"",""0"",""2349""
","
","null","run_exp/static/audio/clip_36_begin_final.m4a","null","","","","","<div class='center'><p>Let's go over the important points again. Your job is to: </p><p>1. Pick the pirate who is best at robbing ships and will bring you back gold coins. </p><p>2. Correctly remember whether or not you saw a ship before. If you did see the ship before, remind yourself on which island you saw it. </p></div>","","","","","","","","","","","","","","","","","","",""
"","html-keyboard-response","17","158799","0.0-17.0","""event"",""trial"",""time""
""fullscreenenter"",""0"",""2349""
","
","
","""event"",""trial"",""time""
""fullscreenenter"",""0"",""2349""
","
","1001.1000000014901","<div class='center'><p>Let's go over the important points again. Your job is to: </p><p>1. Pick the pirate who is best at robbing ships and will bring you back gold coins. </p><p>2. Correctly remember whether or not you saw a ship before. If you did see the ship before, remind yourself on which island you saw it. </p><p><b>[Press the space bar to continue]</b></p></div>","32","","","","","","","","","","","","","","","","","","","","","","","",""
"","do_welcome","18","162806","0.0-18.0","""event"",""trial"",""time""
""fullscreenenter"",""0"",""2349""
","
","
","""event"",""trial"",""time""
""fullscreenenter"",""0"",""2349""
","
","null","","","","","","","","null","","","","","","","","","","","","","","","","","",""
"","do_trial","19","166524","0.0-19.0-0.0","""event"",""trial"",""time""
""fullscreenenter"",""0"",""2349""
","
","
","""event"",""trial"",""time""
""fullscreenenter"",""0"",""2349""
","
","1172.8999999985099","","","","","","","","49","0,1,0","6","blank","230","null","0.2271869000871549","0.6354319258898217","0.05079505550817486","0","","","","","","","","",""
"","html-keyboard-response","20","167527","0.0-19.0-1.0","""event"",""trial"",""time""
""fullscreenenter"",""0"",""2349""
","
","
","""event"",""trial"",""time""
""fullscreenenter"",""0"",""2349""
","
","null","<p></p>","null","","","","","","","","","","","","","","","","","","","","","","","",""
"","do_trial","21","170492","0.0-20.0-0.0","""event"",""trial"",""time""
""fullscreenenter"",""0"",""2349""
","
","
","""event"",""trial"",""time""
""fullscreenenter"",""0"",""2349""
","
","423.5","","","","","","","","49","1,1,0","6","blank","231","null","0.16875791413624583","0.6329972251070999","0.08133605525134276","1","","","","","","","","",""
"","html-keyboard-response","22","171494","0.0-20.0-1.0","""event"",""trial"",""time""
""fullscreenenter"",""0"",""2349""
","
","
","""event"",""trial"",""time""
""fullscreenenter"",""0"",""2349""
","
","null","<p></p>","null","","","","","","","","","","","","","","","","","","","","","","","",""
"","do_trial","23","174512","0.0-21.0-0.0","""event"",""trial"",""time""
""fullscreenenter"",""0"",""2349""
","
","
","""event"",""trial"",""time""
""fullscreenenter"",""0"",""2349""
","
","476.6000000014901","","","","","","","","49","0,0,0","6","blank","232","null","0.29486962257695054","0.590409066724244","0.10174926004489375","0","","","","","","","","",""
"","html-keyboard-response","24","175518","0.0-21.0-1.0","""event"",""trial"",""time""
""fullscreenenter"",""0"",""2349""
","
","
","""event"",""trial"",""time""
""fullscreenenter"",""0"",""2349""
","
","null","<p></p>","null","","","","","","","","","","","","","","","","","","","","","","","",""
"","do_trial","25","178536","0.0-22.0-0.0","""event"",""trial"",""time""
""fullscreenenter"",""0"",""2349""
","
","
","""event"",""trial"",""time""
""fullscreenenter"",""0"",""2349""
","
","470.79999999701977","","","","","","","","49","1,0,0","6","blank","233","null","0.3052049077228644","0.46312803886413195","0.07205229628864931","1","","","","","","","","",""
"","html-keyboard-response","26","179541","0.0-22.0-1.0","""event"",""trial"",""time""
""fullscreenenter"",""0"",""2349""
","
","
","""event"",""trial"",""time""
""fullscreenenter"",""0"",""2349""
","
","null","<p></p>","null","","","","","","","","","","","","","","","","","","","","","","","",""
"","do_trial","27","182431","0.0-23.0-0.0","""event"",""trial"",""time""
""fullscreenenter"",""0"",""2349""
","
","
","""event"",""trial"",""time""
""fullscreenenter"",""0"",""2349""
","
","344.19999999552965","","","","","","","","49","0,0,0","6","blank","234","null","0.35287752368172626","0.47293821520426077","0.12410928492202139","0","","","","","","","","",""
"","html-keyboard-response","28","183437","0.0-23.0-1.0","""event"",""trial"",""time""
""fullscreenenter"",""0"",""2349""
","
","
","""event"",""trial"",""time""
""fullscreenenter"",""0"",""2349""
","
","null","<p></p>","null","","","","","","","","","","","","","","","","","","","","","","","",""
"","do_trial","29","186046","0.0-24.0-0.0","""event"",""trial"",""time""
""fullscreenenter"",""0"",""2349""
","
","
","""event"",""trial"",""time""
""fullscreenenter"",""0"",""2349""
","
","66.19999999552965","","","","","","","","49","1,1,1","6","blank","235","null","0.32163305633405964","0.458615483955573","0.1141317593424123","1","","","","","","","","",""
"","html-keyboard-response","30","187051","0.0-24.0-1.0","""event"",""trial"",""time""
""fullscreenenter"",""0"",""2349""
","
","
","""event"",""trial"",""time""
""fullscreenenter"",""0"",""2349""
","
","null","<p></p>","null","","","","","","","","","","","","","","","","","","","","","","","",""
"","do_trial","31","190212","0.0-25.0-0.0","""event"",""trial"",""time""
""fullscreenenter"",""0"",""2349""
","
","
","""event"",""trial"",""time""
""fullscreenenter"",""0"",""2349""
","
","613.3999999985099","","","","","","","","49","0,0,0","6","blank","236","null","0.3715619944059678","0.39366080907935075","0.1540629340205206","0","","","","","","","","",""
"","html-keyboard-response","32","191218","0.0-25.0-1.0","""event"",""trial"",""time""
""fullscreenenter"",""0"",""2349""
","
","
","""event"",""trial"",""time""
""fullscreenenter"",""0"",""2349""
","
","null","<p></p>","null","","","","","","","","","","","","","","","","","","","","","","","",""
"","do_trial","33","194045","0.0-26.0-0.0","""event"",""trial"",""time""
""fullscreenenter"",""0"",""2349""
","
","
","""event"",""trial"",""time""
""fullscreenenter"",""0"",""2349""
","
","281.29999999701977","","","","","","","","49","1,0,0","6","blank","237","null","0.33313975486922964","0.276418645315653","0.22574813576623542","1","","","","","","","","",""
"","html-keyboard-response","34","195049","0.0-26.0-1.0","""event"",""trial"",""time""
""fullscreenenter"",""0"",""2349""
","
","
","""event"",""trial"",""time""
""fullscreenenter"",""0"",""2349""
","
","null","<p></p>","null","","","","","","","","","","","","","","","","","","","","","","","",""
"","do_trial","35","198076","0.0-27.0-0.0","""event"",""trial"",""time""
""fullscreenenter"",""0"",""2349""
","
","
","""event"",""trial"",""time""
""fullscreenenter"",""0"",""2349""
","
","482.8999999985099","","","","","","","","49","1,0,1","6","blank","238","null","0.33242717559654433","0.45404138482471484","0.13218580105661853","1","","","","","","","","",""
"","html-keyboard-response","36","199081","0.0-27.0-1.0","""event"",""trial"",""time""
""fullscreenenter"",""0"",""2349""
","
","
","""event"",""trial"",""time""
""fullscreenenter"",""0"",""2349""
","
","null","<p></p>","null","","","","","","","","","","","","","","","","","","","","","","","",""
"","do_trial","37","201996","0.0-28.0-0.0","""event"",""trial"",""time""
""fullscreenenter"",""0"",""2349""
","
","
","""event"",""trial"",""time""
""fullscreenenter"",""0"",""2349""
","
","368.5","","","","","","","","49","0,1,1","6","blank","239","null","0.4216949096262995","0.46447187543739066","0.1600242365030563","0","","","","","","","","",""
"","html-keyboard-response","38","203002","0.0-28.0-1.0","""event"",""trial"",""time""
""fullscreenenter"",""0"",""2349""
","
","
","""event"",""trial"",""time""
""fullscreenenter"",""0"",""2349""
","
","null","<p></p>","null","","","","","","","","","","","","","","","","","","","","","","","",""
"","do_trial","39","205896","0.0-29.0-0.0","""event"",""trial"",""time""
""fullscreenenter"",""0"",""2349""
","
","
","""event"",""trial"",""time""
""fullscreenenter"",""0"",""2349""
","
","353","","","","","","","","49","0,0,0","6","blank","240","null","0.4433503547121315","0.4510413478007376","0.12405528823542497","0","","","","","","","","",""
"","html-keyboard-response","40","206900","0.0-29.0-1.0","""event"",""trial"",""time""
""fullscreenenter"",""0"",""2349""
","
","
","""event"",""trial"",""time""
""fullscreenenter"",""0"",""2349""
","
","null","<p></p>","null","","","","","","","","","","","","","","","","","","","","","","","",""
"","do_trial","41","209913","0.0-30.0-0.0","""event"",""trial"",""time""
""fullscreenenter"",""0"",""2349""
","
","
","""event"",""trial"",""time""
""fullscreenenter"",""0"",""2349""
","
","473.70000000298023","","","","","","","","50","1,0,0","6","blank","241","null","0.45216194232258317","0.3785361701810379","0.21458987309903976","0","","","","","","","","",""
"","html-keyboard-response","42","210917","0.0-30.0-1.0","""event"",""trial"",""time""
""fullscreenenter"",""0"",""2349""
","
","
","""event"",""trial"",""time""
""fullscreenenter"",""0"",""2349""
","
","null","<p></p>","null","","","","","","","","","","","","","","","","","","","","","","","",""
"","do_trial","43","213837","0.0-31.0-0.0","""event"",""trial"",""time""
""fullscreenenter"",""0"",""2349""
","
","
","""event"",""trial"",""time""
""fullscreenenter"",""0"",""2349""
","
","377.40000000596046","","","","","","","","50","0,1,0","6","blank","242","null","0.44705375671993225","0.22195011916307278","0.11662417400843042","1","","","","","","","","",""
"","html-keyboard-response","44","214842","0.0-31.0-1.0","""event"",""trial"",""time""
""fullscreenenter"",""0"",""2349""
","
","
","""event"",""trial"",""time""
""fullscreenenter"",""0"",""2349""
","
","null","<p></p>","null","","","","","","","","","","","","","","","","","","","","","","","",""
"","do_trial","45","217679","0.0-32.0-0.0","""event"",""trial"",""time""
""fullscreenenter"",""0"",""2349""
","
","
","""event"",""trial"",""time""
""fullscreenenter"",""0"",""2349""
","
","292.1000000014901","","","","","","","","50","0,0,0","6","blank","243","null","0.4140362049554203","0.16589555469592443","0.08430360892852447","0","","","","","","","","",""
"","html-keyboard-response","46","218681","0.0-32.0-1.0","""event"",""trial"",""time""
""fullscreenenter"",""0"",""2349""
","
","
","""event"",""trial"",""time""
""fullscreenenter"",""0"",""2349""
","
","null","<p></p>","null","","","","","","","","","","","","","","","","","","","","","","","",""
"","do_trial","47","221549","0.0-33.0-0.0","""event"",""trial"",""time""
""fullscreenenter"",""0"",""2349""
","
","
","""event"",""trial"",""time""
""fullscreenenter"",""0"",""2349""
","
","323.6000000014901","","","","","","","","50","1,0,0","6","blank","244","null","0.42525332356347156","0.0652931178764799","0.15169998450242794","0","","","","","","","","",""
"","html-keyboard-response","48","222554","0.0-33.0-1.0","""event"",""trial"",""time""
""fullscreenenter"",""0"",""2349""
","
","
","""event"",""trial"",""time""
""fullscreenenter"",""0"",""2349""
","
","null","<p></p>","null","","","","","","","","","","","","","","","","","","","","","","","",""
"","do_recog","49","228567","0.0-34.0-0.0","""event"",""trial"",""time""
""fullscreenenter"",""0"",""2349""
","
","
","""event"",""trial"",""time""
""fullscreenenter"",""0"",""2349""
","
","null","","","","","","","","null","","","","245","probe-69","","","","","1","[object Object]","193","4","0","","","",""
"","html-keyboard-response","50","229571","0.0-34.0-1.0","""event"",""trial"",""time""
""fullscreenenter"",""0"",""2349""
","
","
","""event"",""trial"",""time""
""fullscreenenter"",""0"",""2349""
","
","null","<p></p>","null","","","","","","","","","","","","","","","","","","","","","","","",""
"","do_trial","51","233181","0.0-35.0-0.0","""event"",""trial"",""time""
""fullscreenenter"",""0"",""2349""
","
","
","""event"",""trial"",""time""
""fullscreenenter"",""0"",""2349""
","
","1069.6000000014901","","","","","","","","50","1,0,0","6","blank","246","null","0.4614180379947789","0.15905245359911013","0.2567606606808441","0","","","","","","","","",""
"","html-keyboard-response","52","234186","0.0-35.0-1.0","""event"",""trial"",""time""
""fullscreenenter"",""0"",""2349""
","
","
","""event"",""trial"",""time""
""fullscreenenter"",""0"",""2349""
","
","null","<p></p>","null","","","","","","","","","","","","","","","","","","","","","","","",""
"","do_trial","53","237208","0.0-36.0-0.0","""event"",""trial"",""time""
""fullscreenenter"",""0"",""2349""
","
","
","""event"",""trial"",""time""
""fullscreenenter"",""0"",""2349""
","
","475.90000000596046","","","","","","","","50","0,0,1","6","blank","247","null","0.6016033749190497","0.13591659907424197","0.23453870635008503","0","","","","","","","","",""
"","html-keyboard-response","54","238213","0.0-36.0-1.0","""event"",""trial"",""time""
""fullscreenenter"",""0"",""2349""
","
","
","""event"",""trial"",""time""
""fullscreenenter"",""0"",""2349""
","
","null","<p></p>","null","","","","","","","","","","","","","","","","","","","","","","","",""
"","do_trial","55","241193","0.0-37.0-0.0","""event"",""trial"",""time""
""fullscreenenter"",""0"",""2349""
","
","
","""event"",""trial"",""time""
""fullscreenenter"",""0"",""2349""
","
","433.80000000447035","","","","","","","","51","1,0,0","6","blank","248","null","0.5903754849084083","0.06029226724073027","0.30022276892137034","0","","","","","","","","",""
"","html-keyboard-response","56","242198","0.0-37.0-1.0","""event"",""trial"",""time""
""fullscreenenter"",""0"",""2349""
","
","
","""event"",""trial"",""time""
""fullscreenenter"",""0"",""2349""
","
","null","<p></p>","null","","","","","","","","","","","","","","","","","","","","","","","",""
"","do_recog","57","245924","0.0-38.0-0.0","""event"",""trial"",""time""
""fullscreenenter"",""0"",""2349""
","
","
","""event"",""trial"",""time""
""fullscreenenter"",""0"",""2349""
","
","2215.39999999851","","","","","","","","54","","","","249","probe-93","","","","","1","[object Object]","110","2","1","","","",""
"","html-keyboard-response","58","246930","0.0-38.0-1.0","""event"",""trial"",""time""
""fullscreenenter"",""0"",""2349""
","
","
","""event"",""trial"",""time""
""fullscreenenter"",""0"",""2349""
","
","null","<p></p>","null","","","","","","","","","","","","","","","","","","","","","","","",""
"","do_trial","59","250412","0.0-39.0-0.0","""event"",""trial"",""time""
""fullscreenenter"",""0"",""2349""
","
","
","""event"",""trial"",""time""
""fullscreenenter"",""0"",""2349""
","
","937.1999999955297","","","","","","","","49","1,0,1","6","blank","250","null","0.5470828040593121","0.11698314803436569","0.3523250072542123","1","","","","","","","","",""
"","html-keyboard-response","60","251418","0.0-39.0-1.0","""event"",""trial"",""time""
""fullscreenenter"",""0"",""2349""
","
","
","""event"",""trial"",""time""
""fullscreenenter"",""0"",""2349""
","
","null","<p></p>","null","","","","","","","","","","","","","","","","","","","","","","","",""
"","do_trial","61","254316","0.0-40.0-0.0","""event"",""trial"",""time""
""fullscreenenter"",""0"",""2349""
","
","
","""event"",""trial"",""time""
""fullscreenenter"",""0"",""2349""
","
","353.8999999985099","","","","","","","","49","1,0,0","6","blank","251","null","0.5585874759908008","0.08149742100883604","0.14887318833765686","1","","","","","","","","",""
"","html-keyboard-response","62","255320","0.0-40.0-1.0","""event"",""trial"",""time""
""fullscreenenter"",""0"",""2349""
","
","
","""event"",""trial"",""time""
""fullscreenenter"",""0"",""2349""
","
","null","<p></p>","null","","","","","","","","","","","","","","","","","","","","","","","",""
"","do_trial","63","258185","0.0-41.0-0.0","""event"",""trial"",""time""
""fullscreenenter"",""0"",""2349""
","
","
","""event"",""trial"",""time""
""fullscreenenter"",""0"",""2349""
","
","319.5","","","","","","","","49","1,0,0","6","blank","252","null","0.5058476003982434","0.13928027070959392","0.2913500094119308","1","","","","","","","","",""
"","html-keyboard-response","64","259191","0.0-41.0-1.0","""event"",""trial"",""time""
""fullscreenenter"",""0"",""2349""
","
","
","""event"",""trial"",""time""
""fullscreenenter"",""0"",""2349""
","
","null","<p></p>","null","","","","","","","","","","","","","","","","","","","","","","","",""
"","do_trial","65","262220","0.0-42.0-0.0","""event"",""trial"",""time""
""fullscreenenter"",""0"",""2349""
","
","
","""event"",""trial"",""time""
""fullscreenenter"",""0"",""2349""
","
","483.1000000014901","","","","","","","","49","0,0,0","6","blank","253","null","0.6191401193873468","0.08869729663676214","0.3699416722442252","0","","","","","","","","",""
"","html-keyboard-response","66","263225","0.0-42.0-1.0","""event"",""trial"",""time""
""fullscreenenter"",""0"",""2349""
","
","
","""event"",""trial"",""time""
""fullscreenenter"",""0"",""2349""
","
","null","<p></p>","null","","","","","","","","","","","","","","","","","","","","","","","",""
"","do_trial","67","266101","0.0-43.0-0.0","""event"",""trial"",""time""
""fullscreenenter"",""0"",""2349""
","
","
","""event"",""trial"",""time""
""fullscreenenter"",""0"",""2349""
","
","331.6000000014901","","","","","","","","49","1,1,0","6","blank","254","null","0.6890461396582467","0.1495506715892239","0.32583161550806616","1","","","","","","","","",""
"","html-keyboard-response","68","267106","0.0-43.0-1.0","""event"",""trial"",""time""
""fullscreenenter"",""0"",""2349""
","
","
","""event"",""trial"",""time""
""fullscreenenter"",""0"",""2349""
","
","null","<p></p>","null","","","","","","","","","","","","","","","","","","","","","","","",""
"","do_recog","69","270799","0.0-44.0-0.0","""event"",""trial"",""time""
""fullscreenenter"",""0"",""2349""
","
","
","""event"",""trial"",""time""
""fullscreenenter"",""0"",""2349""
","
","2183.10000000149","","","","","","","","55","","","","255","probe-07","","","","","1","[object Object]","36","0","0","","","",""
"","html-keyboard-response","70","271804","0.0-44.0-1.0","""event"",""trial"",""time""
""fullscreenenter"",""0"",""2349""
","
","
","""event"",""trial"",""time""
""fullscreenenter"",""0"",""2349""
","
","null","<p></p>","null","","","","","","","","","","","","","","","","","","","","","","","",""
"","do_trial","71","275365","0.0-45.0-0.0","""event"",""trial"",""time""
""fullscreenenter"",""0"",""2349""
","
","
","""event"",""trial"",""time""
""fullscreenenter"",""0"",""2349""
","
","1019.0999999940395","","","","","","","","49","1,1,0","6","blank","256","null","0.6789608274631617","0.2834296155524363","0.4345392527937163","1","","","","","","","","",""
"","html-keyboard-response","72","276370","0.0-45.0-1.0","""event"",""trial"",""time""
""fullscreenenter"",""0"",""2349""
","
","
","""event"",""trial"",""time""
""fullscreenenter"",""0"",""2349""
","
","null","<p></p>","null","","","","","","","","","","","","","","","","","","","","","","","",""
"","do_trial","73","279325","0.0-46.0-0.0","""event"",""trial"",""time""
""fullscreenenter"",""0"",""2349""
","
","
","""event"",""trial"",""time""
""fullscreenenter"",""0"",""2349""
","
","409.5","","","","","","","","49","0,1,1","6","blank","257","null","0.5348918335901781","0.27157336146135236","0.28822439693076474","0","","","","","","","","",""
"","html-keyboard-response","74","280330","0.0-46.0-1.0","""event"",""trial"",""time""
""fullscreenenter"",""0"",""2349""
","
","
","""event"",""trial"",""time""
""fullscreenenter"",""0"",""2349""
","
","null","<p></p>","null","","","","","","","","","","","","","","","","","","","","","","","",""
"","do_trial","75","283380","0.0-47.0-0.0","""event"",""trial"",""time""
""fullscreenenter"",""0"",""2349""
","
","
","""event"",""trial"",""time""
""fullscreenenter"",""0"",""2349""
","
","508.70000000298023","","","","","","","","49","1,1,0","6","blank","258","null","0.6354937242838266","0.269959701952764","0.29816938992962977","1","","","","","","","","",""
"","html-keyboard-response","76","284386","0.0-47.0-1.0","""event"",""trial"",""time""
""fullscreenenter"",""0"",""2349""
","
","
","""event"",""trial"",""time""
""fullscreenenter"",""0"",""2349""
","
","null","<p></p>","null","","","","","","","","","","","","","","","","","","","","","","","",""
"","do_trial","77","287398","0.0-48.0-0.0","""event"",""trial"",""time""
""fullscreenenter"",""0"",""2349""
","
","
","""event"",""trial"",""time""
""fullscreenenter"",""0"",""2349""
","
","465.6000000014901","","","","","","","","49","0,0,0","6","blank","259","null","0.6265334935558537","0.2315386593973297","0.3099012857862213","0","","","","","","","","",""
"","html-keyboard-response","78","288403","0.0-48.0-1.0","""event"",""trial"",""time""
""fullscreenenter"",""0"",""2349""
","
","
","""event"",""trial"",""time""
""fullscreenenter"",""0"",""2349""
","
","null","<p></p>","null","","","","","","","","","","","","","","","","","","","","","","","",""
"","do_trial","79","291347","0.0-49.0-0.0","""event"",""trial"",""time""
""fullscreenenter"",""0"",""2349""
","
","
","""event"",""trial"",""time""
""fullscreenenter"",""0"",""2349""
","
","400","","","","","","","","49","1,0,0","6","blank","260","null","0.5725876084649084","0.1993085832496012","0.27980695437634323","1","","","","","","","","",""
"","html-keyboard-response","80","292353","0.0-49.0-1.0","""event"",""trial"",""time""
""fullscreenenter"",""0"",""2349""
","
","
","""event"",""trial"",""time""
""fullscreenenter"",""0"",""2349""
","
","null","<p></p>","null","","","","","","","","","","","","","","","","","","","","","","","",""
"","do_trial","81","295424","0.0-50.0-0.0","""event"",""trial"",""time""
""fullscreenenter"",""0"",""2349""
","
","
","""event"",""trial"",""time""
""fullscreenenter"",""0"",""2349""
","
","524","","","","","","","","49","1,0,0","6","blank","261","null","0.6741936056730967","0.29258331263920795","0.24259661898501697","1","","","","","","","","",""
"","html-keyboard-response","82","296429","0.0-50.0-1.0","""event"",""trial"",""time""
""fullscreenenter"",""0"",""2349""
","
","
","""event"",""trial"",""time""
""fullscreenenter"",""0"",""2349""
","
","null","<p></p>","null","","","","","","","","","","","","","","","","","","","","","","","",""
"","do_recog","83","299327","0.0-51.0-0.0","""event"",""trial"",""time""
""fullscreenenter"",""0"",""2349""
","
","
","""event"",""trial"",""time""
""fullscreenenter"",""0"",""2349""
","
","1387.6999999955297","","","","","","","","54","","","","262","probe-154","","","","","1","[object Object]","78","1","1","","","",""
"","html-keyboard-response","84","300333","0.0-51.0-1.0","""event"",""trial"",""time""
""fullscreenenter"",""0"",""2349""
","
","
","""event"",""trial"",""time""
""fullscreenenter"",""0"",""2349""
","
","null","<p></p>","null","","","","","","","","","","","","","","","","","","","","","","","",""
"","do_trial","85","304085","0.0-52.0-0.0","""event"",""trial"",""time""
""fullscreenenter"",""0"",""2349""
","
","
","""event"",""trial"",""time""
""fullscreenenter"",""0"",""2349""
","
","1209.8999999985099","","","","","","","","49","1,0,1","6","blank","263","null","0.6639611290089679","0.2500140141517144","0.45578942292682023","1","","","","","","","","",""
"","html-keyboard-response","86","305090","0.0-52.0-1.0","""event"",""trial"",""time""
""fullscreenenter"",""0"",""2349""
","
","
","""event"",""trial"",""time""
""fullscreenenter"",""0"",""2349""
","
","null","<p></p>","null","","","","","","","","","","","","","","","","","","","","","","","",""
"","do_recog","87","307636","0.0-53.0-0.0","""event"",""trial"",""time""
""fullscreenenter"",""0"",""2349""
","
","
","""event"",""trial"",""time""
""fullscreenenter"",""0"",""2349""
","
","1036","","","","","","","","53","","","","264","probe-43","","","","","1","[object Object]","154","3","1","","","",""
"","html-keyboard-response","88","308641","0.0-53.0-1.0","""event"",""trial"",""time""
""fullscreenenter"",""0"",""2349""
","
","
","""event"",""trial"",""time""
""fullscreenenter"",""0"",""2349""
","
","null","<p></p>","null","","","","","","","","","","","","","","","","","","","","","","","",""
"","do_trial","89","311687","0.0-54.0-0.0","""event"",""trial"",""time""
""fullscreenenter"",""0"",""2349""
","
","
","""event"",""trial"",""time""
""fullscreenenter"",""0"",""2349""
","
","506.8999999985099","","","","","","","","49","1,0,0","6","blank","265","null","0.7990546734798528","0.1586392030644226","0.3261289287200991","1","","","","","","","","",""
"","html-keyboard-response","90","312693","0.0-54.0-1.0","""event"",""trial"",""time""
""fullscreenenter"",""0"",""2349""
","
","
","""event"",""trial"",""time""
""fullscreenenter"",""0"",""2349""
","
","null","<p></p>","null","","","","","","","","","","","","","","","","","","","","","","","",""
"","do_trial","91","315624","0.0-55.0-0.0","""event"",""trial"",""time""
""fullscreenenter"",""0"",""2349""
","
","
","""event"",""trial"",""time""
""fullscreenenter"",""0"",""2349""
","
","385.29999999701977","","","","","","","","49","1,0,1","6","blank","266","null","0.6967922774598888","0.07628579087071088","0.3482393368108471","1","","","","","","","","",""
"","html-keyboard-response","92","316629","0.0-55.0-1.0","""event"",""trial"",""time""
""fullscreenenter"",""0"",""2349""
","
","
","""event"",""trial"",""time""
""fullscreenenter"",""0"",""2349""
","
","null","<p></p>","null","","","","","","","","","","","","","","","","","","","","","","","",""
"","do_trial","93","320019","0.0-56.0-0.0","""event"",""trial"",""time""
""fullscreenenter"",""0"",""2349""
","
","
","""event"",""trial"",""time""
""fullscreenenter"",""0"",""2349""
","
","844.8999999985099","","","","","","","","49","1,0,0","6","blank","267","null","0.8473866231015091","0.17371655533794736","0.3427901142468532","1","","","","","","","","",""
"","html-keyboard-response","94","321024","0.0-56.0-1.0","""event"",""trial"",""time""
""fullscreenenter"",""0"",""2349""
","
","
","""event"",""trial"",""time""
""fullscreenenter"",""0"",""2349""
","
","null","<p></p>","null","","","","","","","","","","","","","","","","","","","","","","","",""
"","do_trial","95","324022","0.0-57.0-0.0","""event"",""trial"",""time""
""fullscreenenter"",""0"",""2349""
","
","
","""event"",""trial"",""time""
""fullscreenenter"",""0"",""2349""
","
","453.6000000014901","","","","","","","","49","1,0,1","6","blank","268","null","0.6910679416848586","0.16476824968377557","0.3462630415576355","1","","","","","","","","",""
"","html-keyboard-response","96","325029","0.0-57.0-1.0","""event"",""trial"",""time""
""fullscreenenter"",""0"",""2349""
","
","
","""event"",""trial"",""time""
""fullscreenenter"",""0"",""2349""
","
","null","<p></p>","null","","","","","","","","","","","","","","","","","","","","","","","",""
"","break","97","386047","0.0-58.0-0.0","""event"",""trial"",""time""
""fullscreenenter"",""0"",""2349""
","
","
","""event"",""trial"",""time""
""fullscreenenter"",""0"",""2349""
","
","61019.79999999702","<div class='center'><p>Time to take a quick break! You have 2 minutes to rest, but you can move on sooner if you'd like.</p><p> Press the <b>space bar</b> to continue.</p></div>","32","","","","","","","","","","","","","","","","","","","","","","","",""
"","do_trial","98","389589","0.0-58.0-1.0","""event"",""trial"",""time""
""fullscreenenter"",""0"",""2349""
","
","
","""event"",""trial"",""time""
""fullscreenenter"",""0"",""2349""
","
","998.2000000029802","","","","","","","","49","1,0,0","6","blank","269","null","0.7226741110927344","0.10522431613570152","0.38762943315481735","1","","","","","","","","",""
"","html-keyboard-response","99","390595","0.0-58.0-2.0","""event"",""trial"",""time""
""fullscreenenter"",""0"",""2349""
","
","
","""event"",""trial"",""time""
""fullscreenenter"",""0"",""2349""
","
","null","<p></p>","null","","","","","","","","","","","","","","","","","","","","","","","",""
"","do_trial","100","393616","0.0-59.0-0.0","""event"",""trial"",""time""
""fullscreenenter"",""0"",""2349""
","
","
","""event"",""trial"",""time""
""fullscreenenter"",""0"",""2349""
","
","474.5","","","","","","","","49","0,0,0","6","blank","270","null","0.7376523962712748","0.06884378801441016","0.3168395707263296","0","","","","","","","","",""
"","html-keyboard-response","101","394622","0.0-59.0-1.0","""event"",""trial"",""time""
""fullscreenenter"",""0"",""2349""
","
","
","""event"",""trial"",""time""
""fullscreenenter"",""0"",""2349""
","
","null","<p></p>","null","","","","","","","","","","","","","","","","","","","","","","","",""
"","do_trial","102","397659","0.0-60.0-0.0","""event"",""trial"",""time""
""fullscreenenter"",""0"",""2349""
","
","
","""event"",""trial"",""time""
""fullscreenenter"",""0"",""2349""
","
","491.5","","","","","","","","49","1,0,0","6","blank","271","null","0.8438076059957681","0.07615024288457542","0.3839281714189703","1","","","","","","","","",""
"","html-keyboard-response","103","398663","0.0-60.0-1.0","""event"",""trial"",""time""
""fullscreenenter"",""0"",""2349""
","
","
","""event"",""trial"",""time""
""fullscreenenter"",""0"",""2349""
","
","null","<p></p>","null","","","","","","","","","","","","","","","","","","","","","","","",""
"","do_recog","104","402075","0.0-61.0-0.0","""event"",""trial"",""time""
""fullscreenenter"",""0"",""2349""
","
","
","""event"",""trial"",""time""
""fullscreenenter"",""0"",""2349""
","
","1906.5","","","","","","","","55","","","","272","probe-237","","","","","0","[object Object]","null","null","1","","","",""
"","html-keyboard-response","105","403080","0.0-61.0-1.0","""event"",""trial"",""time""
""fullscreenenter"",""0"",""2349""
","
","
","""event"",""trial"",""time""
""fullscreenenter"",""0"",""2349""
","
","null","<p></p>","null","","","","","","","","","","","","","","","","","","","","","","","",""
"","do_trial","106","406303","0.0-62.0-0.0","""event"",""trial"",""time""
""fullscreenenter"",""0"",""2349""
","
","
","""event"",""trial"",""time""
""fullscreenenter"",""0"",""2349""
","
","678.5","","","","","","","","49","0,0,0","6","blank","273","null","0.8219249412620812","0.1551106220737835","0.2871045241344299","0","","","","","","","","",""
"","html-keyboard-response","107","407308","0.0-62.0-1.0","""event"",""trial"",""time""
""fullscreenenter"",""0"",""2349""
","
","
","""event"",""trial"",""time""
""fullscreenenter"",""0"",""2349""
","
","null","<p></p>","null","","","","","","","","","","","","","","","","","","","","","","","",""
"","do_recog","108","410149","0.0-63.0-0.0","""event"",""trial"",""time""
""fullscreenenter"",""0"",""2349""
","
","
","""event"",""trial"",""time""
""fullscreenenter"",""0"",""2349""
","
","1330.1000000014901","","","","","","","","55","","","","274","probe-32","","","","","1","[object Object]","194","4","0","","","",""
"","html-keyboard-response","109","411154","0.0-63.0-1.0","""event"",""trial"",""time""
""fullscreenenter"",""0"",""2349""
","
","
","""event"",""trial"",""time""
""fullscreenenter"",""0"",""2349""
","
","null","<p></p>","null","","","","","","","","","","","","","","","","","","","","","","","",""
"","do_trial","110","414298","0.0-64.0-0.0","""event"",""trial"",""time""
""fullscreenenter"",""0"",""2349""
","
","
","""event"",""trial"",""time""
""fullscreenenter"",""0"",""2349""
","
","602.1000000014901","","","","","","","","49","1,0,1","6","blank","275","null","0.8234645612637362","0.19441539337962233","0.4102871717736345","1","","","","","","","","",""
"","html-keyboard-response","111","415304","0.0-64.0-1.0","""event"",""trial"",""time""
""fullscreenenter"",""0"",""2349""
","
","
","""event"",""trial"",""time""
""fullscreenenter"",""0"",""2349""
","
","null","<p></p>","null","","","","","","","","","","","","","","","","","","","","","","","",""
"","do_trial","112","418321","0.0-65.0-0.0","""event"",""trial"",""time""
""fullscreenenter"",""0"",""2349""
","
","
","""event"",""trial"",""time""
""fullscreenenter"",""0"",""2349""
","
","471.1000000014901","","","","","","","","49","1,0,0","6","blank","276","null","0.7822648726909767","0.06490038797183723","0.319277556251699","1","","","","","","","","",""
"","html-keyboard-response","113","419327","0.0-65.0-1.0","""event"",""trial"",""time""
""fullscreenenter"",""0"",""2349""
","
","
","""event"",""trial"",""time""
""fullscreenenter"",""0"",""2349""
","
","null","<p></p>","null","","","","","","","","","","","","","","","","","","","","","","","",""
"","do_trial","114","422435","0.0-66.0-0.0","""event"",""trial"",""time""
""fullscreenenter"",""0"",""2349""
","
","
","""event"",""trial"",""time""
""fullscreenenter"",""0"",""2349""
","
","562.3000000044703","","","","","","","","49","1,0,0","6","blank","277","null","0.6874111088690341","0.2155246769909045","0.18232688012398993","1","","","","","","","","",""
"","html-keyboard-response","115","423436","0.0-66.0-1.0","""event"",""trial"",""time""
""fullscreenenter"",""0"",""2349""
","
","
","""event"",""trial"",""time""
""fullscreenenter"",""0"",""2349""
","
","null","<p></p>","null","","","","","","","","","","","","","","","","","","","","","","","",""
"","do_trial","116","426629","0.0-67.0-0.0","""event"",""trial"",""time""
""fullscreenenter"",""0"",""2349""
","
","
","""event"",""trial"",""time""
""fullscreenenter"",""0"",""2349""
","
","650.5","","","","","","","","49","1,0,0","6","blank","278","null","0.8229692792512526","0.2675485197254421","0.08790791193827462","1","","","","","","","","",""
"","html-keyboard-response","117","427634","0.0-67.0-1.0","""event"",""trial"",""time""
""fullscreenenter"",""0"",""2349""
","
","
","""event"",""trial"",""time""
""fullscreenenter"",""0"",""2349""
","
","null","<p></p>","null","","","","","","","","","","","","","","","","","","","","","","","",""
"","do_trial","118","430769","0.0-68.0-0.0","""event"",""trial"",""time""
""fullscreenenter"",""0"",""2349""
","
","
","""event"",""trial"",""time""
""fullscreenenter"",""0"",""2349""
","
","587.8999999985099","","","","","","","","49","0,0,0","6","blank","279","null","0.7169572272333968","0.32091680907285336","0.13520272283031656","0","","","","","","","","",""
"","html-keyboard-response","119","431775","0.0-68.0-1.0","""event"",""trial"",""time""
""fullscreenenter"",""0"",""2349""
","
","
","""event"",""trial"",""time""
""fullscreenenter"",""0"",""2349""
","
","null","<p></p>","null","","","","","","","","","","","","","","","","","","","","","","","",""
"","do_trial","120","434834","0.0-69.0-0.0","""event"",""trial"",""time""
""fullscreenenter"",""0"",""2349""
","
","
","""event"",""trial"",""time""
""fullscreenenter"",""0"",""2349""
","
","515.6000000014901","","","","","","","","49","1,0,0","6","blank","280","null","0.6169515965129031","0.21427392201290194","0.20913465421284622","1","","","","","","","","",""
"","html-keyboard-response","121","435840","0.0-69.0-1.0","""event"",""trial"",""time""
""fullscreenenter"",""0"",""2349""
","
","
","""event"",""trial"",""time""
""fullscreenenter"",""0"",""2349""
","
","null","<p></p>","null","","","","","","","","","","","","","","","","","","","","","","","",""
"","do_recog","122","438608","0.0-70.0-0.0","""event"",""trial"",""time""
""fullscreenenter"",""0"",""2349""
","
","
","""event"",""trial"",""time""
""fullscreenenter"",""0"",""2349""
","
","1261.8999999985099","","","","","","","","53","","","","281","probe-24","","","","","1","[object Object]","195","4","1","","","",""
"","html-keyboard-response","123","439614","0.0-70.0-1.0","""event"",""trial"",""time""
""fullscreenenter"",""0"",""2349""
","
","
","""event"",""trial"",""time""
""fullscreenenter"",""0"",""2349""
","
","null","<p></p>","null","","","","","","","","","","","","","","","","","","","","","","","",""
"","do_trial","124","442784","0.0-71.0-0.0","""event"",""trial"",""time""
""fullscreenenter"",""0"",""2349""
","
","
","""event"",""trial"",""time""
""fullscreenenter"",""0"",""2349""
","
","625.4000000059605","","","","","","","","49","0,0,0","6","blank","282","null","0.5625090739234614","0.1736453308249874","0.25321504205060774","0","","","","","","","","",""
"","html-keyboard-response","125","443787","0.0-71.0-1.0","""event"",""trial"",""time""
""fullscreenenter"",""0"",""2349""
","
","
","""event"",""trial"",""time""
""fullscreenenter"",""0"",""2349""
","
","null","<p></p>","null","","","","","","","","","","","","","","","","","","","","","","","",""
"","do_trial","126","446679","0.0-72.0-0.0","""event"",""trial"",""time""
""fullscreenenter"",""0"",""2349""
","
","
","""event"",""trial"",""time""
""fullscreenenter"",""0"",""2349""
","
","345.1000000014901","","","","","","","","49","1,0,0","6","blank","283","null","0.6923139438932837","0.06877107429099028","0.27052840276026663","1","","","","","","","","",""
"","html-keyboard-response","127","447681","0.0-72.0-1.0","""event"",""trial"",""time""
""fullscreenenter"",""0"",""2349""
","
","
","""event"",""trial"",""time""
""fullscreenenter"",""0"",""2349""
","
","null","<p></p>","null","","","","","","","","","","","","","","","","","","","","","","","",""
"","do_trial","128","450642","0.0-73.0-0.0","""event"",""trial"",""time""
""fullscreenenter"",""0"",""2349""
","
","
","""event"",""trial"",""time""
""fullscreenenter"",""0"",""2349""
","
","415.30000000447035","","","","","","","","49","1,0,1","6","blank","284","null","0.4684837630600413","0.10004087208753895","0.23237744818338546","1","","","","","","","","",""
"","html-keyboard-response","129","451648","0.0-73.0-1.0","""event"",""trial"",""time""
""fullscreenenter"",""0"",""2349""
","
","
","""event"",""trial"",""time""
""fullscreenenter"",""0"",""2349""
","
","null","<p></p>","null","","","","","","","","","","","","","","","","","","","","","","","",""
"","do_trial","130","454629","0.0-74.0-0.0","""event"",""trial"",""time""
""fullscreenenter"",""0"",""2349""
","
","
","""event"",""trial"",""time""
""fullscreenenter"",""0"",""2349""
","
","435","","","","","","","","49","0,1,0","6","blank","285","null","0.4106962982685202","0.08873090262537256","0.285319064761541","0","","","","","","","","",""
"","html-keyboard-response","131","455633","0.0-74.0-1.0","""event"",""trial"",""time""
""fullscreenenter"",""0"",""2349""
","
","
","""event"",""trial"",""time""
""fullscreenenter"",""0"",""2349""
","
","null","<p></p>","null","","","","","","","","","","","","","","","","","","","","","","","",""
"","do_trial","132","458785","0.0-75.0-0.0","""event"",""trial"",""time""
""fullscreenenter"",""0"",""2349""
","
","
","""event"",""trial"",""time""
""fullscreenenter"",""0"",""2349""
","
","613.6999999955297","","","","","","","","49","0,0,0","6","blank","286","null","0.5689171920924713","0.25592639560441977","0.3354769008326274","0","","","","","","","","",""
"","html-keyboard-response","133","459788","0.0-75.0-1.0","""event"",""trial"",""time""
""fullscreenenter"",""0"",""2349""
","
","
","""event"",""trial"",""time""
""fullscreenenter"",""0"",""2349""
","
","null","<p></p>","null","","","","","","","","","","","","","","","","","","","","","","","",""
"","do_trial","134","462813","0.0-76.0-0.0","""event"",""trial"",""time""
""fullscreenenter"",""0"",""2349""
","
","
","""event"",""trial"",""time""
""fullscreenenter"",""0"",""2349""
","
","482.20000000298023","","","","","","","","49","1,1,1","6","blank","287","null","0.5667173097849519","0.1044512286140763","0.3912671828137427","1","","","","","","","","",""
"","html-keyboard-response","135","463819","0.0-76.0-1.0","""event"",""trial"",""time""
""fullscreenenter"",""0"",""2349""
","
","
","""event"",""trial"",""time""
""fullscreenenter"",""0"",""2349""
","
","null","<p></p>","null","","","","","","","","","","","","","","","","","","","","","","","",""
"","do_trial","136","466983","0.0-77.0-0.0","""event"",""trial"",""time""
""fullscreenenter"",""0"",""2349""
","
","
","""event"",""trial"",""time""
""fullscreenenter"",""0"",""2349""
","
","617.2999999970198","","","","","","","","49","0,0,0","6","blank","288","null","0.3626476121255363","0.09221993963640798","0.38904209670918355","0","","","","","","","","",""
"","html-keyboard-response","137","467989","0.0-77.0-1.0","""event"",""trial"",""time""
""fullscreenenter"",""0"",""2349""
","
","
","""event"",""trial"",""time""
""fullscreenenter"",""0"",""2349""
","
","null","<p></p>","null","","","","","","","","","","","","","","","","","","","","","","","",""
"","do_recog","138","471553","0.0-78.0-0.0","""event"",""trial"",""time""
""fullscreenenter"",""0"",""2349""
","
","
","""event"",""trial"",""time""
""fullscreenenter"",""0"",""2349""
","
","2059.5999999940395","","","","","","","","55","","","","289","probe-233","","","","","0","[object Object]","null","null","1","","","",""
"","html-keyboard-response","139","472559","0.0-78.0-1.0","""event"",""trial"",""time""
""fullscreenenter"",""0"",""2349""
","
","
","""event"",""trial"",""time""
""fullscreenenter"",""0"",""2349""
","
","null","<p></p>","null","","","","","","","","","","","","","","","","","","","","","","","",""
"","do_trial","140","475689","0.0-79.0-0.0","""event"",""trial"",""time""
""fullscreenenter"",""0"",""2349""
","
","
","""event"",""trial"",""time""
""fullscreenenter"",""0"",""2349""
","
","585.2999999970198","","","","","","","","49","1,1,1","6","blank","290","null","0.3365781127011002","0.1263101766704081","0.28876632926910206","1","","","","","","","","",""
"","html-keyboard-response","141","476695","0.0-79.0-1.0","""event"",""trial"",""time""
""fullscreenenter"",""0"",""2349""
","
","
","""event"",""trial"",""time""
""fullscreenenter"",""0"",""2349""
","
","null","<p></p>","null","","","","","","","","","","","","","","","","","","","","","","","",""
"","do_trial","142","479662","0.0-80.0-0.0","""event"",""trial"",""time""
""fullscreenenter"",""0"",""2349""
","
","
","""event"",""trial"",""time""
""fullscreenenter"",""0"",""2349""
","
","421.3999999985099","","","","","","","","49","1,1,1","6","blank","291","null","0.3869183251380025","0.2021680841479165","0.24127176185592292","1","","","","","","","","",""
"","html-keyboard-response","143","480667","0.0-80.0-1.0","""event"",""trial"",""time""
""fullscreenenter"",""0"",""2349""
","
","
","""event"",""trial"",""time""
""fullscreenenter"",""0"",""2349""
","
","null","<p></p>","null","","","","","","","","","","","","","","","","","","","","","","","",""
"","do_trial","144","483836","0.0-81.0-0.0","""event"",""trial"",""time""
""fullscreenenter"",""0"",""2349""
","
","
","""event"",""trial"",""time""
""fullscreenenter"",""0"",""2349""
","
","621.1999999955297","","","","","","","","49","0,0,0","6","blank","292","null","0.38185932270124623","0.2751873986028141","0.23077960879728376","0","","","","","","","","",""
"","html-keyboard-response","145","484842","0.0-81.0-1.0","""event"",""trial"",""time""
""fullscreenenter"",""0"",""2349""
","
","
","""event"",""trial"",""time""
""fullscreenenter"",""0"",""2349""
","
","null","<p></p>","null","","","","","","","","","","","","","","","","","","","","","","","",""
"","do_trial","146","487861","0.0-82.0-0.0","""event"",""trial"",""time""
""fullscreenenter"",""0"",""2349""
","
","
","""event"",""trial"",""time""
""fullscreenenter"",""0"",""2349""
","
","473.1000000014901","","","","","","","","49","1,1,0","6","blank","293","null","0.4593322022195775","0.46010231758991155","0.07798712591212238","1","","","","","","","","",""
"","html-keyboard-response","147","488866","0.0-82.0-1.0","""event"",""trial"",""time""
""fullscreenenter"",""0"",""2349""
","
","
","""event"",""trial"",""time""
""fullscreenenter"",""0"",""2349""
","
","null","<p></p>","null","","","","","","","","","","","","","","","","","","","","","","","",""
"","do_trial","148","491839","0.0-83.0-0.0","""event"",""trial"",""time""
""fullscreenenter"",""0"",""2349""
","
","
","""event"",""trial"",""time""
""fullscreenenter"",""0"",""2349""
","
","426.5","","","","","","","","49","0,1,0","6","blank","294","null","0.36183913246108057","0.5698003329221771","0.11652765534819783","0","","","","","","","","",""
"","html-keyboard-response","149","492845","0.0-83.0-1.0","""event"",""trial"",""time""
""fullscreenenter"",""0"",""2349""
","
","
","""event"",""trial"",""time""
""fullscreenenter"",""0"",""2349""
","
","null","<p></p>","null","","","","","","","","","","","","","","","","","","","","","","","",""
"","do_trial","150","495917","0.0-84.0-0.0","""event"",""trial"",""time""
""fullscreenenter"",""0"",""2349""
","
","
","""event"",""trial"",""time""
""fullscreenenter"",""0"",""2349""
","
","530.1000000014901","","","","","","","","49","1,1,0","6","blank","295","null","0.41510173074808565","0.6362990568662179","0.06311359017712105","1","","","","","","","","",""
"","html-keyboard-response","151","496920","0.0-84.0-1.0","""event"",""trial"",""time""
""fullscreenenter"",""0"",""2349""
","
","
","""event"",""trial"",""time""
""fullscreenenter"",""0"",""2349""
","
","null","<p></p>","null","","","","","","","","","","","","","","","","","","","","","","","",""
"","do_trial","152","499960","0.0-85.0-0.0","""event"",""trial"",""time""
""fullscreenenter"",""0"",""2349""
","
","
","""event"",""trial"",""time""
""fullscreenenter"",""0"",""2349""
","
","493.29999999701977","","","","","","","","49","0,0,0","6","blank","296","null","0.3864722172668544","0.6422412121990182","0.0954160823285189","0","","","","","","","","",""
"","html-keyboard-response","153","500965","0.0-85.0-1.0","""event"",""trial"",""time""
""fullscreenenter"",""0"",""2349""
","
","
","""event"",""trial"",""time""
""fullscreenenter"",""0"",""2349""
","
","null","<p></p>","null","","","","","","","","","","","","","","","","","","","","","","","",""
"","do_recog","154","503931","0.0-86.0-0.0","""event"",""trial"",""time""
""fullscreenenter"",""0"",""2349""
","
","
","""event"",""trial"",""time""
""fullscreenenter"",""0"",""2349""
","
","1457.4000000059605","","","","","","","","54","","","","297","probe-227","","","","","1","[object Object]","71","1","1","","","",""
"","html-keyboard-response","155","504937","0.0-86.0-1.0","""event"",""trial"",""time""
""fullscreenenter"",""0"",""2349""
","
","
","""event"",""trial"",""time""
""fullscreenenter"",""0"",""2349""
","
","null","<p></p>","null","","","","","","","","","","","","","","","","","","","","","","","",""
"","do_trial","156","507983","0.0-87.0-0.0","""event"",""trial"",""time""
""fullscreenenter"",""0"",""2349""
","
","
","""event"",""trial"",""time""
""fullscreenenter"",""0"",""2349""
","
","502","","","","","","","","49","1,1,0","6","blank","298","null","0.525385782720158","0.7897808059531676","0.13197636705012408","1","","","","","","","","",""
"","html-keyboard-response","157","508988","0.0-87.0-1.0","""event"",""trial"",""time""
""fullscreenenter"",""0"",""2349""
","
","
","""event"",""trial"",""time""
""fullscreenenter"",""0"",""2349""
","
","null","<p></p>","null","","","","","","","","","","","","","","","","","","","","","","","",""
"","do_trial","158","511867","0.0-88.0-0.0","""event"",""trial"",""time""
""fullscreenenter"",""0"",""2349""
","
","
","""event"",""trial"",""time""
""fullscreenenter"",""0"",""2349""
","
","331.79999999701977","","","","","","","","49","0,0,1","6","blank","299","null","0.48651277308593605","0.5681775338261004","0.15952146829192615","0","","","","","","","","",""
"","html-keyboard-response","159","512873","0.0-88.0-1.0","""event"",""trial"",""time""
""fullscreenenter"",""0"",""2349""
","
","
","""event"",""trial"",""time""
""fullscreenenter"",""0"",""2349""
","
","null","<p></p>","null","","","","","","","","","","","","","","","","","","","","","","","",""
"","do_trial","160","515838","0.0-89.0-0.0","""event"",""trial"",""time""
""fullscreenenter"",""0"",""2349""
","
","
","""event"",""trial"",""time""
""fullscreenenter"",""0"",""2349""
","
","426","","","","","","","","49","0,0,0","6","blank","300","null","0.3824283974809979","0.6416355965162527","0.10491863707221909","0","","","","","","","","",""
"","html-keyboard-response","161","516843","0.0-89.0-1.0","""event"",""trial"",""time""
""fullscreenenter"",""0"",""2349""
","
","
","""event"",""trial"",""time""
""fullscreenenter"",""0"",""2349""
","
","null","<p></p>","null","","","","","","","","","","","","","","","","","","","","","","","",""
"","do_recog","162","519836","0.0-90.0-0.0","""event"",""trial"",""time""
""fullscreenenter"",""0"",""2349""
","
","
","""event"",""trial"",""time""
""fullscreenenter"",""0"",""2349""
","
","1483.6000000014901","","","","","","","","53","","","","301","probe-140","","","","","1","[object Object]","119","2","1","","","",""
"","html-keyboard-response","163","520842","0.0-90.0-1.0","""event"",""trial"",""time""
""fullscreenenter"",""0"",""2349""
","
","
","""event"",""trial"",""time""
""fullscreenenter"",""0"",""2349""
","
","null","<p></p>","null","","","","","","","","","","","","","","","","","","","","","","","",""
"","do_trial","164","523920","0.0-91.0-0.0","""event"",""trial"",""time""
""fullscreenenter"",""0"",""2349""
","
","
","""event"",""trial"",""time""
""fullscreenenter"",""0"",""2349""
","
","536.2000000029802","","","","","","","","49","0,1,0","6","blank","302","null","0.36633495784488157","0.6427541377515719","0.09329234196027535","0","","","","","","","","",""
"","html-keyboard-response","165","524923","0.0-91.0-1.0","""event"",""trial"",""time""
""fullscreenenter"",""0"",""2349""
","
","
","""event"",""trial"",""time""
""fullscreenenter"",""0"",""2349""
","
","null","<p></p>","null","","","","","","","","","","","","","","","","","","","","","","","",""
"","do_trial","166","528142","0.0-92.0-0.0","""event"",""trial"",""time""
""fullscreenenter"",""0"",""2349""
","
","
","""event"",""trial"",""time""
""fullscreenenter"",""0"",""2349""
","
","673.6000000014901","","","","","","","","49","0,0,0","6","blank","303","null","0.3242629967822165","0.661944565013463","0.16320226719892997","0","","","","","","","","",""
"","html-keyboard-response","167","529148","0.0-92.0-1.0","""event"",""trial"",""time""
""fullscreenenter"",""0"",""2349""
","
","
","""event"",""trial"",""time""
""fullscreenenter"",""0"",""2349""
","
","null","<p></p>","null","","","","","","","","","","","","","","","","","","","","","","","",""
"","do_trial","168","532194","0.0-93.0-0.0","""event"",""trial"",""time""
""fullscreenenter"",""0"",""2349""
","
","
","""event"",""trial"",""time""
""fullscreenenter"",""0"",""2349""
","
","503","","","","","","","","49","0,1,0","6","blank","304","null","0.23772345533239364","0.7654882897691293","0.12480846752417588","0","","","","","","","","",""
"","html-keyboard-response","169","533198","0.0-93.0-1.0","""event"",""trial"",""time""
""fullscreenenter"",""0"",""2349""
","
","
","""event"",""trial"",""time""
""fullscreenenter"",""0"",""2349""
","
","null","<p></p>","null","","","","","","","","","","","","","","","","","","","","","","","",""
"","do_trial","170","536464","0.0-94.0-0.0","""event"",""trial"",""time""
""fullscreenenter"",""0"",""2349""
","
","
","""event"",""trial"",""time""
""fullscreenenter"",""0"",""2349""
","
","721","","","","","","","","50","0,0,0","6","blank","305","null","0.39563478072685293","0.7273202187861909","0.12244099103861139","0","","","","","","","","",""
"","html-keyboard-response","171","537466","0.0-94.0-1.0","""event"",""trial"",""time""
""fullscreenenter"",""0"",""2349""
","
","
","""event"",""trial"",""time""
""fullscreenenter"",""0"",""2349""
","
","null","<p></p>","null","","","","","","","","","","","","","","","","","","","","","","","",""
"","do_trial","172","541008","0.0-95.0-0.0","""event"",""trial"",""time""
""fullscreenenter"",""0"",""2349""
","
","
","""event"",""trial"",""time""
""fullscreenenter"",""0"",""2349""
","
","995","","","","","","","","50","0,1,0","6","blank","306","null","0.26323971245722044","0.8218073581551083","0.10931228847663418","1","","","","","","","","",""
"","html-keyboard-response","173","542014","0.0-95.0-1.0","""event"",""trial"",""time""
""fullscreenenter"",""0"",""2349""
","
","
","""event"",""trial"",""time""
""fullscreenenter"",""0"",""2349""
","
","null","<p></p>","null","","","","","","","","","","","","","","","","","","","","","","","",""
"","do_trial","174","544979","0.0-96.0-0.0","""event"",""trial"",""time""
""fullscreenenter"",""0"",""2349""
","
","
","""event"",""trial"",""time""
""fullscreenenter"",""0"",""2349""
","
","423.20000000298023","","","","","","","","50","1,1,0","6","blank","307","null","0.31332628989413513","0.7549167599391814","0.19143287367178857","1","","","","","","","","",""
"","html-keyboard-response","175","545985","0.0-96.0-1.0","""event"",""trial"",""time""
""fullscreenenter"",""0"",""2349""
","
","
","""event"",""trial"",""time""
""fullscreenenter"",""0"",""2349""
","
","null","<p></p>","null","","","","","","","","","","","","","","","","","","","","","","","",""
"","do_recog","176","548562","0.0-97.0-0.0","""event"",""trial"",""time""
""fullscreenenter"",""0"",""2349""
","
","
","""event"",""trial"",""time""
""fullscreenenter"",""0"",""2349""
","
","1068.2999999970198","","","","","","","","53","","","","308","probe-79","","","","","1","[object Object]","116","2","1","","","",""
"","html-keyboard-response","177","549565","0.0-97.0-1.0","""event"",""trial"",""time""
""fullscreenenter"",""0"",""2349""
","
","
","""event"",""trial"",""time""
""fullscreenenter"",""0"",""2349""
","
","null","<p></p>","null","","","","","","","","","","","","","","","","","","","","","","","",""
"","break","178","636853","0.0-98.0-0.0","""event"",""trial"",""time""
""fullscreenenter"",""0"",""2349""
","
","
","""event"",""trial"",""time""
""fullscreenenter"",""0"",""2349""
","
","87290.30000000447","<div class='center'><p>Time to take a quick break! You have 2 minutes to rest, but you can move on sooner if you'd like.</p><p> Press the <b>space bar</b> to continue.</p></div>","32","","","","","","","","","","","","","","","","","","","","","","","",""
"","do_trial","179","640304","0.0-98.0-1.0","""event"",""trial"",""time""
""fullscreenenter"",""0"",""2349""
","
","
","""event"",""trial"",""time""
""fullscreenenter"",""0"",""2349""
","
","904.2999999970198","","","","","","","","49","0,1,0","6","blank","309","null","0.30333602221934786","0.6691403271885868","0.25664097183662676","0","","","","","","","","",""
"","html-keyboard-response","180","641306","0.0-98.0-2.0","""event"",""trial"",""time""
""fullscreenenter"",""0"",""2349""
","
","
","""event"",""trial"",""time""
""fullscreenenter"",""0"",""2349""
","
","null","<p></p>","null","","","","","","","","","","","","","","","","","","","","","","","",""
"","do_trial","181","644331","0.0-99.0-0.0","""event"",""trial"",""time""
""fullscreenenter"",""0"",""2349""
","
","
","""event"",""trial"",""time""
""fullscreenenter"",""0"",""2349""
","
","484.30000000447035","","","","","","","","50","0,0,0","6","blank","310","null","0.06997011150166138","0.7006248451489038","0.20650740172820492","0","","","","","","","","",""
"","html-keyboard-response","182","645338","0.0-99.0-1.0","""event"",""trial"",""time""
""fullscreenenter"",""0"",""2349""
","
","
","""event"",""trial"",""time""
""fullscreenenter"",""0"",""2349""
","
","null","<p></p>","null","","","","","","","","","","","","","","","","","","","","","","","",""
"","do_recog","183","648375","0.0-100.0-0.0","""event"",""trial"",""time""
""fullscreenenter"",""0"",""2349""
","
","
","""event"",""trial"",""time""
""fullscreenenter"",""0"",""2349""
","
","1529.1999999955297","","","","","","","","55","","","","311","probe-12","","","","","1","[object Object]","196","4","0","","","",""
"","html-keyboard-response","184","649378","0.0-100.0-1.0","""event"",""trial"",""time""
""fullscreenenter"",""0"",""2349""
","
","
","""event"",""trial"",""time""
""fullscreenenter"",""0"",""2349""
","
","null","<p></p>","null","","","","","","","","","","","","","","","","","","","","","","","",""
"","do_trial","185","652834","0.0-101.0-0.0","""event"",""trial"",""time""
""fullscreenenter"",""0"",""2349""
","
","
","""event"",""trial"",""time""
""fullscreenenter"",""0"",""2349""
","
","911.5","","","","","","","","50","0,1,0","6","blank","312","null","0.13870148176395933","0.5935115250081097","0.17146881976763767","1","","","","","","","","",""
"","html-keyboard-response","186","653840","0.0-101.0-1.0","""event"",""trial"",""time""
""fullscreenenter"",""0"",""2349""
","
","
","""event"",""trial"",""time""
""fullscreenenter"",""0"",""2349""
","
","null","<p></p>","null","","","","","","","","","","","","","","","","","","","","","","","",""
"","do_trial","187","656896","0.0-102.0-0.0","""event"",""trial"",""time""
""fullscreenenter"",""0"",""2349""
","
","
","""event"",""trial"",""time""
""fullscreenenter"",""0"",""2349""
","
","515","","","","","","","","50","0,1,0","6","blank","313","null","0.3645946085430195","0.6488280631922106","0.12450391097429112","1","","","","","","","","",""
"","html-keyboard-response","188","657901","0.0-102.0-1.0","""event"",""trial"",""time""
""fullscreenenter"",""0"",""2349""
","
","
","""event"",""trial"",""time""
""fullscreenenter"",""0"",""2349""
","
","null","<p></p>","null","","","","","","","","","","","","","","","","","","","","","","","",""
"","do_trial","189","661063","0.0-103.0-0.0","""event"",""trial"",""time""
""fullscreenenter"",""0"",""2349""
","
","
","""event"",""trial"",""time""
""fullscreenenter"",""0"",""2349""
","
","619.1000000014901","","","","","","","","50","0,1,0","6","blank","314","null","0.29598740694728287","0.6127077172693373","0.15187122376058285","1","","","","","","","","",""
"","html-keyboard-response","190","662068","0.0-103.0-1.0","""event"",""trial"",""time""
""fullscreenenter"",""0"",""2349""
","
","
","""event"",""trial"",""time""
""fullscreenenter"",""0"",""2349""
","
","null","<p></p>","null","","","","","","","","","","","","","","","","","","","","","","","",""
"","do_recog","191","664908","0.0-104.0-0.0","""event"",""trial"",""time""
""fullscreenenter"",""0"",""2349""
","
","
","""event"",""trial"",""time""
""fullscreenenter"",""0"",""2349""
","
","1334.5","","","","","","","","54","","","","315","probe-132","","","","","1","[object Object]","150","3","1","","","",""
"","html-keyboard-response","192","665914","0.0-104.0-1.0","""event"",""trial"",""time""
""fullscreenenter"",""0"",""2349""
","
","
","""event"",""trial"",""time""
""fullscreenenter"",""0"",""2349""
","
","null","<p></p>","null","","","","","","","","","","","","","","","","","","","","","","","",""
"","do_trial","193","669049","0.0-105.0-0.0","""event"",""trial"",""time""
""fullscreenenter"",""0"",""2349""
","
","
","""event"",""trial"",""time""
""fullscreenenter"",""0"",""2349""
","
","593.8999999985099","","","","","","","","50","0,1,0","6","blank","316","null","0.30822884348974666","0.5531415459135015","0.10751903543168886","1","","","","","","","","",""
"","html-keyboard-response","194","670052","0.0-105.0-1.0","""event"",""trial"",""time""
""fullscreenenter"",""0"",""2349""
","
","
","""event"",""trial"",""time""
""fullscreenenter"",""0"",""2349""
","
","null","<p></p>","null","","","","","","","","","","","","","","","","","","","","","","","",""
"","do_trial","195","673282","0.0-106.0-0.0","""event"",""trial"",""time""
""fullscreenenter"",""0"",""2349""
","
","
","""event"",""trial"",""time""
""fullscreenenter"",""0"",""2349""
","
","684.7000000029802","","","","","","","","50","0,1,0","6","blank","317","null","0.12312587440234542","0.6808878672707409","0.07540929257760375","1","","","","","","","","",""
"","html-keyboard-response","196","674285","0.0-106.0-1.0","""event"",""trial"",""time""
""fullscreenenter"",""0"",""2349""
","
","
","""event"",""trial"",""time""
""fullscreenenter"",""0"",""2349""
","
","null","<p></p>","null","","","","","","","","","","","","","","","","","","","","","","","",""
"","do_recog","197","676957","0.0-107.0-0.0","""event"",""trial"",""time""
""fullscreenenter"",""0"",""2349""
","
","
","""event"",""trial"",""time""
""fullscreenenter"",""0"",""2349""
","
","1161.7000000029802","","","","","","","","54","","","","318","probe-100","","","","","1","[object Object]","33","0","1","","","",""
"","html-keyboard-response","198","677962","0.0-107.0-1.0","""event"",""trial"",""time""
""fullscreenenter"",""0"",""2349""
","
","
","""event"",""trial"",""time""
""fullscreenenter"",""0"",""2349""
","
","null","<p></p>","null","","","","","","","","","","","","","","","","","","","","","","","",""
"","do_trial","199","681301","0.0-108.0-0.0","""event"",""trial"",""time""
""fullscreenenter"",""0"",""2349""
","
","
","""event"",""trial"",""time""
""fullscreenenter"",""0"",""2349""
","
","793.5","","","","","","","","50","1,1,0","6","blank","319","null","0.22933006299163838","0.6848868551089392","0.08400337409667893","1","","","","","","","","",""
"","html-keyboard-response","200","682306","0.0-108.0-1.0","""event"",""trial"",""time""
""fullscreenenter"",""0"",""2349""
","
","
","""event"",""trial"",""time""
""fullscreenenter"",""0"",""2349""
","
","null","<p></p>","null","","","","","","","","","","","","","","","","","","","","","","","",""
"","do_trial","201","685274","0.0-109.0-0.0","""event"",""trial"",""time""
""fullscreenenter"",""0"",""2349""
","
","
","""event"",""trial"",""time""
""fullscreenenter"",""0"",""2349""
","
","423.6000000014901","","","","","","","","50","0,1,0","6","blank","320","null","0.08743646927387928","0.5461921740308333","0.15255779122387042","1","","","","","","","","",""
"","html-keyboard-response","202","686280","0.0-109.0-1.0","""event"",""trial"",""time""
""fullscreenenter"",""0"",""2349""
","
","
","""event"",""trial"",""time""
""fullscreenenter"",""0"",""2349""
","
","null","<p></p>","null","","","","","","","","","","","","","","","","","","","","","","","",""
"","do_trial","203","689346","0.0-110.0-0.0","""event"",""trial"",""time""
""fullscreenenter"",""0"",""2349""
","
","
","""event"",""trial"",""time""
""fullscreenenter"",""0"",""2349""
","
","524.4000000059605","","","","","","","","50","0,1,0","6","blank","321","null","0.1450613395519858","0.6940653452567679","0.07039581053914566","1","","","","","","","","",""
"","html-keyboard-response","204","690351","0.0-110.0-1.0","""event"",""trial"",""time""
""fullscreenenter"",""0"",""2349""
","
","
","""event"",""trial"",""time""
""fullscreenenter"",""0"",""2349""
","
","null","<p></p>","null","","","","","","","","","","","","","","","","","","","","","","","",""
"","do_trial","205","693360","0.0-111.0-0.0","""event"",""trial"",""time""
""fullscreenenter"",""0"",""2349""
","
","
","""event"",""trial"",""time""
""fullscreenenter"",""0"",""2349""
","
","467.70000000298023","","","","","","","","50","0,0,0","6","blank","322","null","0.2969857476568336","0.6726969833180733","0.17958416796966895","0","","","","","","","","",""
"","html-keyboard-response","206","694363","0.0-111.0-1.0","""event"",""trial"",""time""
""fullscreenenter"",""0"",""2349""
","
","
","""event"",""trial"",""time""
""fullscreenenter"",""0"",""2349""
","
","null","<p></p>","null","","","","","","","","","","","","","","","","","","","","","","","",""
"","do_recog","207","697155","0.0-112.0-0.0","""event"",""trial"",""time""
""fullscreenenter"",""0"",""2349""
","
","
","""event"",""trial"",""time""
""fullscreenenter"",""0"",""2349""
","
","1285.7000000029802","","","","","","","","53","","","","323","probe-143","","","","","1","[object Object]","38","0","1","","","",""
"","html-keyboard-response","208","698160","0.0-112.0-1.0","""event"",""trial"",""time""
""fullscreenenter"",""0"",""2349""
","
","
","""event"",""trial"",""time""
""fullscreenenter"",""0"",""2349""
","
","null","<p></p>","null","","","","","","","","","","","","","","","","","","","","","","","",""
"","do_trial","209","701237","0.0-113.0-0.0","""event"",""trial"",""time""
""fullscreenenter"",""0"",""2349""
","
","
","""event"",""trial"",""time""
""fullscreenenter"",""0"",""2349""
","
","534.1000000014901","","","","","","","","50","0,0,0","6","blank","324","null","0.28921918757768744","0.7595745920533328","0.19517495313301456","0","","","","","","","","",""
"","html-keyboard-response","210","702238","0.0-113.0-1.0","""event"",""trial"",""time""
""fullscreenenter"",""0"",""2349""
","
","
","""event"",""trial"",""time""
""fullscreenenter"",""0"",""2349""
","
","null","<p></p>","null","","","","","","","","","","","","","","","","","","","","","","","",""
"","do_trial","211","705273","0.0-114.0-0.0","""event"",""trial"",""time""
""fullscreenenter"",""0"",""2349""
","
","
","""event"",""trial"",""time""
""fullscreenenter"",""0"",""2349""
","
","493.6000000014901","","","","","","","","50","1,1,0","6","blank","325","null","0.21275650275347283","0.6797405105429867","0.07692199948361995","1","","","","","","","","",""
"","html-keyboard-response","212","706278","0.0-114.0-1.0","""event"",""trial"",""time""
""fullscreenenter"",""0"",""2349""
","
","
","""event"",""trial"",""time""
""fullscreenenter"",""0"",""2349""
","
","null","<p></p>","null","","","","","","","","","","","","","","","","","","","","","","","",""
"","do_trial","213","709147","0.0-115.0-0.0","""event"",""trial"",""time""
""fullscreenenter"",""0"",""2349""
","
","
","""event"",""trial"",""time""
""fullscreenenter"",""0"",""2349""
","
","321.80000000447035","","","","","","","","50","0,1,0","6","blank","326","null","0.2662208175808838","0.6079466941479076","0.052483527317673924","1","","","","","","","","",""
"","html-keyboard-response","214","710153","0.0-115.0-1.0","""event"",""trial"",""time""
""fullscreenenter"",""0"",""2349""
","
","
","""event"",""trial"",""time""
""fullscreenenter"",""0"",""2349""
","
","null","<p></p>","null","","","","","","","","","","","","","","","","","","","","","","","",""
"","do_trial","215","713075","0.0-116.0-0.0","""event"",""trial"",""time""
""fullscreenenter"",""0"",""2349""
","
","
","""event"",""trial"",""time""
""fullscreenenter"",""0"",""2349""
","
","381.70000000298023","","","","","","","","50","0,1,0","6","blank","327","null","0.16690836530910072","0.5633397263589199","0.08012547395529758","1","","","","","","","","",""
"","html-keyboard-response","216","714077","0.0-116.0-1.0","""event"",""trial"",""time""
""fullscreenenter"",""0"",""2349""
","
","
","""event"",""trial"",""time""
""fullscreenenter"",""0"",""2349""
","
","null","<p></p>","null","","","","","","","","","","","","","","","","","","","","","","","",""
"","do_trial","217","717140","0.0-117.0-0.0","""event"",""trial"",""time""
""fullscreenenter"",""0"",""2349""
","
","
","""event"",""trial"",""time""
""fullscreenenter"",""0"",""2349""
","
","519.3999999985099","","","","","","","","50","0,1,0","6","blank","328","null","0.3246641660594886","0.4591234249480484","0.20034311635452434","1","","","","","","","","",""
"","html-keyboard-response","218","718146","0.0-117.0-1.0","""event"",""trial"",""time""
""fullscreenenter"",""0"",""2349""
","
","
","""event"",""trial"",""time""
""fullscreenenter"",""0"",""2349""
","
","null","<p></p>","null","","","","","","","","","","","","","","","","","","","","","","","",""
"","do_recog","219","720724","0.0-118.0-0.0","""event"",""trial"",""time""
""fullscreenenter"",""0"",""2349""
","
","
","""event"",""trial"",""time""
""fullscreenenter"",""0"",""2349""
","
","1067.7000000029802","","","","","","","","53","","","","329","probe-10","","","","","1","[object Object]","74","1","1","","","",""
"","html-keyboard-response","220","721729","0.0-118.0-1.0","""event"",""trial"",""time""
""fullscreenenter"",""0"",""2349""
","
","
","""event"",""trial"",""time""
""fullscreenenter"",""0"",""2349""
","
","null","<p></p>","null","","","","","","","","","","","","","","","","","","","","","","","",""
"","do_trial","221","725013","0.0-119.0-0.0","""event"",""trial"",""time""
""fullscreenenter"",""0"",""2349""
","
","
","""event"",""trial"",""time""
""fullscreenenter"",""0"",""2349""
","
","739.7999999970198","","","","","","","","50","0,1,1","6","blank","330","null","0.18151625472088426","0.6849342606434375","0.13629093991896166","1","","","","","","","","",""
"","html-keyboard-response","222","726016","0.0-119.0-1.0","""event"",""trial"",""time""
""fullscreenenter"",""0"",""2349""
","
","
","""event"",""trial"",""time""
""fullscreenenter"",""0"",""2349""
","
","null","<p></p>","null","","","","","","","","","","","","","","","","","","","","","","","",""
"","do_recog","223","729056","0.0-120.0-0.0","""event"",""trial"",""time""
""fullscreenenter"",""0"",""2349""
","
","
","""event"",""trial"",""time""
""fullscreenenter"",""0"",""2349""
","
","1533.2999999970198","","","","","","","","54","","","","331","probe-157","","","","","1","[object Object]","192","4","1","","","",""
"","html-keyboard-response","224","730060","0.0-120.0-1.0","""event"",""trial"",""time""
""fullscreenenter"",""0"",""2349""
","
","
","""event"",""trial"",""time""
""fullscreenenter"",""0"",""2349""
","
","null","<p></p>","null","","","","","","","","","","","","","","","","","","","","","","","",""
"","do_trial","225","733109","0.0-121.0-0.0","""event"",""trial"",""time""
""fullscreenenter"",""0"",""2349""
","
","
","""event"",""trial"",""time""
""fullscreenenter"",""0"",""2349""
","
","508.1000000014901","","","","","","","","50","0,1,0","6","blank","332","null","0.24711187992319222","0.7420961890728393","0.222981313215905","1","","","","","","","","",""
"","html-keyboard-response","226","734115","0.0-121.0-1.0","""event"",""trial"",""time""
""fullscreenenter"",""0"",""2349""
","
","
","""event"",""trial"",""time""
""fullscreenenter"",""0"",""2349""
","
","null","<p></p>","null","","","","","","","","","","","","","","","","","","","","","","","",""
"","do_recog","227","736776","0.0-122.0-0.0","""event"",""trial"",""time""
""fullscreenenter"",""0"",""2349""
","
","
","""event"",""trial"",""time""
""fullscreenenter"",""0"",""2349""
","
","1155.6000000014901","","","","","","","","53","","","","333","probe-21","","","","","1","[object Object]","114","2","1","","","",""
"","html-keyboard-response","228","737780","0.0-122.0-1.0","""event"",""trial"",""time""
""fullscreenenter"",""0"",""2349""
","
","
","""event"",""trial"",""time""
""fullscreenenter"",""0"",""2349""
","
","null","<p></p>","null","","","","","","","","","","","","","","","","","","","","","","","",""
"","do_trial","229","741282","0.0-123.0-0.0","""event"",""trial"",""time""
""fullscreenenter"",""0"",""2349""
","
","
","""event"",""trial"",""time""
""fullscreenenter"",""0"",""2349""
","
","957.5","","","","","","","","50","0,1,0","6","blank","334","null","0.2974245350672362","0.5078798390001387","0.2816286860533013","1","","","","","","","","",""
"","html-keyboard-response","230","742287","0.0-123.0-1.0","""event"",""trial"",""time""
""fullscreenenter"",""0"",""2349""
","
","
","""event"",""trial"",""time""
""fullscreenenter"",""0"",""2349""
","
","null","<p></p>","null","","","","","","","","","","","","","","","","","","","","","","","",""
"","do_trial","231","745357","0.0-124.0-0.0","""event"",""trial"",""time""
""fullscreenenter"",""0"",""2349""
","
","
","""event"",""trial"",""time""
""fullscreenenter"",""0"",""2349""
","
","528.7999999970198","","","","","","","","50","1,1,0","6","blank","335","null","0.3126359516080446","0.4983573798405056","0.1514156967640251","1","","","","","","","","",""
"","html-keyboard-response","232","746363","0.0-124.0-1.0","""event"",""trial"",""time""
""fullscreenenter"",""0"",""2349""
","
","
","""event"",""trial"",""time""
""fullscreenenter"",""0"",""2349""
","
","null","<p></p>","null","","","","","","","","","","","","","","","","","","","","","","","",""
"","do_trial","233","749800","0.0-125.0-0.0","""event"",""trial"",""time""
""fullscreenenter"",""0"",""2349""
","
","
","""event"",""trial"",""time""
""fullscreenenter"",""0"",""2349""
","
","891.8000000044703","","","","","","","","50","1,1,0","6","blank","336","null","0.3294317956067668","0.5907336198414861","0.11935830908281984","1","","","","","","","","",""
"","html-keyboard-response","234","750803","0.0-125.0-1.0","""event"",""trial"",""time""
""fullscreenenter"",""0"",""2349""
","
","
","""event"",""trial"",""time""
""fullscreenenter"",""0"",""2349""
","
","null","<p></p>","null","","","","","","","","","","","","","","","","","","","","","","","",""
"","do_trial","235","753876","0.0-126.0-0.0","""event"",""trial"",""time""
""fullscreenenter"",""0"",""2349""
","
","
","""event"",""trial"",""time""
""fullscreenenter"",""0"",""2349""
","
","531","","","","","","","","50","0,1,0","6","blank","337","null","0.17222745195456482","0.6805009725388896","0.14614511354314924","1","","","","","","","","",""
"","html-keyboard-response","236","754882","0.0-126.0-1.0","""event"",""trial"",""time""
""fullscreenenter"",""0"",""2349""
","
","
","""event"",""trial"",""time""
""fullscreenenter"",""0"",""2349""
","
","null","<p></p>","null","","","","","","","","","","","","","","","","","","","","","","","",""
"","do_trial","237","758001","0.0-127.0-0.0","""event"",""trial"",""time""
""fullscreenenter"",""0"",""2349""
","
","
","""event"",""trial"",""time""
""fullscreenenter"",""0"",""2349""
","
","575.2999999970198","","","","","","","","50","0,1,0","6","blank","338","null","0.11978575697214405","0.5783085260433606","0.11446325051627426","1","","","","","","","","",""
"","html-keyboard-response","238","759005","0.0-127.0-1.0","""event"",""trial"",""time""
""fullscreenenter"",""0"",""2349""
","
","
","""event"",""trial"",""time""
""fullscreenenter"",""0"",""2349""
","
","null","<p></p>","null","","","","","","","","","","","","","","","","","","","","","","","",""
"","do_recog","239","762017","0.0-128.0-0.0","""event"",""trial"",""time""
""fullscreenenter"",""0"",""2349""
","
","
","""event"",""trial"",""time""
""fullscreenenter"",""0"",""2349""
","
","1505.8999999985099","","","","","","","","54","","","","339","probe-248","","","","","0","[object Object]","null","null","0","","","",""
"","html-keyboard-response","240","763020","0.0-128.0-1.0","""event"",""trial"",""time""
""fullscreenenter"",""0"",""2349""
","
","
","""event"",""trial"",""time""
""fullscreenenter"",""0"",""2349""
","
","null","<p></p>","null","","","","","","","","","","","","","","","","","","","","","","","",""
"","do_trial","241","766168","0.0-129.0-0.0","""event"",""trial"",""time""
""fullscreenenter"",""0"",""2349""
","
","
","""event"",""trial"",""time""
""fullscreenenter"",""0"",""2349""
","
","605","","","","","","","","50","1,1,0","6","blank","340","null","0.1368782758817781","0.4938029267967939","0.07251285109321846","1","","","","","","","","",""
"","html-keyboard-response","242","767174","0.0-129.0-1.0","""event"",""trial"",""time""
""fullscreenenter"",""0"",""2349""
","
","
","""event"",""trial"",""time""
""fullscreenenter"",""0"",""2349""
","
","null","<p></p>","null","","","","","","","","","","","","","","","","","","","","","","","",""
"","do_recog","243","770010","0.0-130.0-0.0","""event"",""trial"",""time""
""fullscreenenter"",""0"",""2349""
","
","
","""event"",""trial"",""time""
""fullscreenenter"",""0"",""2349""
","
","1326.6000000014901","","","","","","","","53","","","","341","probe-39","","","","","1","[object Object]","72","1","1","","","",""
"","html-keyboard-response","244","771015","0.0-130.0-1.0","""event"",""trial"",""time""
""fullscreenenter"",""0"",""2349""
","
","
","""event"",""trial"",""time""
""fullscreenenter"",""0"",""2349""
","
","null","<p></p>","null","","","","","","","","","","","","","","","","","","","","","","","",""
"","do_trial","245","774167","0.0-131.0-0.0","""event"",""trial"",""time""
""fullscreenenter"",""0"",""2349""
","
","
","""event"",""trial"",""time""
""fullscreenenter"",""0"",""2349""
","
","607.4000000059605","","","","","","","","50","1,0,1","6","blank","342","null","0.19690965781449848","0.46649255938764084","0.10344855906192331","0","","","","","","","","",""
"","html-keyboard-response","246","775172","0.0-131.0-1.0","""event"",""trial"",""time""
""fullscreenenter"",""0"",""2349""
","
","
","""event"",""trial"",""time""
""fullscreenenter"",""0"",""2349""
","
","null","<p></p>","null","","","","","","","","","","","","","","","","","","","","","","","",""
"","do_trial","247","778270","0.0-132.0-0.0","""event"",""trial"",""time""
""fullscreenenter"",""0"",""2349""
","
","
","""event"",""trial"",""time""
""fullscreenenter"",""0"",""2349""
","
","557.7000000029802","","","","","","","","50","0,1,0","6","blank","343","null","0.1974720402835676","0.3024650031302696","0.35285958322271554","1","","","","","","","","",""
"","html-keyboard-response","248","779275","0.0-132.0-1.0","""event"",""trial"",""time""
""fullscreenenter"",""0"",""2349""
","
","
","""event"",""trial"",""time""
""fullscreenenter"",""0"",""2349""
","
","null","<p></p>","null","","","","","","","","","","","","","","","","","","","","","","","",""
"","do_trial","249","782419","0.0-133.0-0.0","""event"",""trial"",""time""
""fullscreenenter"",""0"",""2349""
","
","
","""event"",""trial"",""time""
""fullscreenenter"",""0"",""2349""
","
","597.6000000014901","","","","","","","","50","0,0,0","6","blank","344","null","0.28083033055345386","0.424046006868884","0.44255163567282274","0","","","","","","","","",""
"","html-keyboard-response","250","783424","0.0-133.0-1.0","""event"",""trial"",""time""
""fullscreenenter"",""0"",""2349""
","
","
","""event"",""trial"",""time""
""fullscreenenter"",""0"",""2349""
","
","null","<p></p>","null","","","","","","","","","","","","","","","","","","","","","","","",""
"","do_trial","251","786589","0.0-134.0-0.0","""event"",""trial"",""time""
""fullscreenenter"",""0"",""2349""
","
","
","""event"",""trial"",""time""
""fullscreenenter"",""0"",""2349""
","
","622.2999999970198","","","","","","","","50","0,0,1","6","blank","345","null","0.20846464677870097","0.21885610856057153","0.48738456716759304","0","","","","","","","","",""
"","html-keyboard-response","252","787595","0.0-134.0-1.0","""event"",""trial"",""time""
""fullscreenenter"",""0"",""2349""
","
","
","""event"",""trial"",""time""
""fullscreenenter"",""0"",""2349""
","
","null","<p></p>","null","","","","","","","","","","","","","","","","","","","","","","","",""
"","do_trial","253","790608","0.0-135.0-0.0","""event"",""trial"",""time""
""fullscreenenter"",""0"",""2349""
","
","
","""event"",""trial"",""time""
""fullscreenenter"",""0"",""2349""
","
","470.6000000014901","","","","","","","","50","1,0,1","6","blank","346","null","0.2996415287703601","0.2151403772436327","0.5330122808874664","0","","","","","","","","",""
"","html-keyboard-response","254","791614","0.0-135.0-1.0","""event"",""trial"",""time""
""fullscreenenter"",""0"",""2349""
","
","
","""event"",""trial"",""time""
""fullscreenenter"",""0"",""2349""
","
","null","<p></p>","null","","","","","","","","","","","","","","","","","","","","","","","",""
"","do_trial","255","795502","0.0-136.0-0.0","""event"",""trial"",""time""
""fullscreenenter"",""0"",""2349""
","
","
","""event"",""trial"",""time""
""fullscreenenter"",""0"",""2349""
","
","1345.6000000014901","","","","","","","","50","0,1,1","6","blank","347","null","0.37075604099357884","0.18998053720950148","0.45131901229461785","1","","","","","","","","",""
"","html-keyboard-response","256","796509","0.0-136.0-1.0","""event"",""trial"",""time""
""fullscreenenter"",""0"",""2349""
","
","
","""event"",""trial"",""time""
""fullscreenenter"",""0"",""2349""
","
","null","<p></p>","null","","","","","","","","","","","","","","","","","","","","","","","",""
"","do_recog","257","799575","0.0-137.0-0.0","""event"",""trial"",""time""
""fullscreenenter"",""0"",""2349""
","
","
","""event"",""trial"",""time""
""fullscreenenter"",""0"",""2349""
","
","1559.6000000014901","","","","","","","","55","","","","348","probe-06","","","","","1","[object Object]","152","3","0","","","",""
"","html-keyboard-response","258","800581","0.0-137.0-1.0","""event"",""trial"",""time""
""fullscreenenter"",""0"",""2349""
","
","
","""event"",""trial"",""time""
""fullscreenenter"",""0"",""2349""
","
","null","<p></p>","null","","","","","","","","","","","","","","","","","","","","","","","",""
"","break","259","894624","0.0-138.0-0.0","""event"",""trial"",""time""
""fullscreenenter"",""0"",""2349""
","
","
","""event"",""trial"",""time""
""fullscreenenter"",""0"",""2349""
","
","94045.79999999702","<div class='center'><p>Time to take a quick break! You have 2 minutes to rest, but you can move on sooner if you'd like.</p><p> Press the <b>space bar</b> to continue.</p></div>","32","","","","","","","","","","","","","","","","","","","","","","","",""
"","do_trial","260","898157","0.0-138.0-1.0","""event"",""trial"",""time""
""fullscreenenter"",""0"",""2349""
","
","
","""event"",""trial"",""time""
""fullscreenenter"",""0"",""2349""
","
","995.9000000059605","","","","","","","","50","0,0,1","6","blank","349","null","0.29847771577132404","0.1595039135372031","0.6096953539814376","0","","","","","","","","",""
"","html-keyboard-response","261","899162","0.0-138.0-2.0","""event"",""trial"",""time""
""fullscreenenter"",""0"",""2349""
","
","
","""event"",""trial"",""time""
""fullscreenenter"",""0"",""2349""
","
","null","<p></p>","null","","","","","","","","","","","","","","","","","","","","","","","",""
"","do_trial","262","902494","0.0-139.0-0.0","""event"",""trial"",""time""
""fullscreenenter"",""0"",""2349""
","
","
","""event"",""trial"",""time""
""fullscreenenter"",""0"",""2349""
","
","787.7999999970198","","","","","","","","50","0,0,0","6","blank","350","null","0.25523422672105595","0.09501038555867011","0.6189046594339577","0","","","","","","","","",""
"","html-keyboard-response","263","903499","0.0-139.0-1.0","""event"",""trial"",""time""
""fullscreenenter"",""0"",""2349""
","
","
","""event"",""trial"",""time""
""fullscreenenter"",""0"",""2349""
","
","null","<p></p>","null","","","","","","","","","","","","","","","","","","","","","","","",""
"","do_trial","264","906599","0.0-140.0-0.0","""event"",""trial"",""time""
""fullscreenenter"",""0"",""2349""
","
","
","""event"",""trial"",""time""
""fullscreenenter"",""0"",""2349""
","
","556","","","","","","","","50","1,0,1","6","blank","351","null","0.35992360998077133","0.15657089818132722","0.5232528387496616","0","","","","","","","","",""
"","html-keyboard-response","265","907605","0.0-140.0-1.0","""event"",""trial"",""time""
""fullscreenenter"",""0"",""2349""
","
","
","""event"",""trial"",""time""
""fullscreenenter"",""0"",""2349""
","
","null","<p></p>","null","","","","","","","","","","","","","","","","","","","","","","","",""
"","do_recog","266","910430","0.0-141.0-0.0","""event"",""trial"",""time""
""fullscreenenter"",""0"",""2349""
","
","
","""event"",""trial"",""time""
""fullscreenenter"",""0"",""2349""
","
","1315","","","","","","","","53","","","","352","probe-55","","","","","1","[object Object]","70","1","1","","","",""
"","html-keyboard-response","267","911436","0.0-141.0-1.0","""event"",""trial"",""time""
""fullscreenenter"",""0"",""2349""
","
","
","""event"",""trial"",""time""
""fullscreenenter"",""0"",""2349""
","
","null","<p></p>","null","","","","","","","","","","","","","","","","","","","","","","","",""
"","do_trial","268","914652","0.0-142.0-0.0","""event"",""trial"",""time""
""fullscreenenter"",""0"",""2349""
","
","
","""event"",""trial"",""time""
""fullscreenenter"",""0"",""2349""
","
","674.6000000014901","","","","","","","","51","0,0,0","6","blank","353","null","0.39994724122787245","0.13624338220354804","0.5801932951564256","0","","","","","","","","",""
"","html-keyboard-response","269","915657","0.0-142.0-1.0","""event"",""trial"",""time""
""fullscreenenter"",""0"",""2349""
","
","
","""event"",""trial"",""time""
""fullscreenenter"",""0"",""2349""
","
","null","<p></p>","null","","","","","","","","","","","","","","","","","","","","","","","",""
"","do_recog","270","918280","0.0-143.0-0.0","""event"",""trial"",""time""
""fullscreenenter"",""0"",""2349""
","
","
","""event"",""trial"",""time""
""fullscreenenter"",""0"",""2349""
","
","1112.5","","","","","","","","53","","","","354","probe-198","","","","","1","[object Object]","31","0","1","","","",""
"","html-keyboard-response","271","919286","0.0-143.0-1.0","""event"",""trial"",""time""
""fullscreenenter"",""0"",""2349""
","
","
","""event"",""trial"",""time""
""fullscreenenter"",""0"",""2349""
","
","null","<p></p>","null","","","","","","","","","","","","","","","","","","","","","","","",""
"","do_trial","272","922469","0.0-144.0-0.0","""event"",""trial"",""time""
""fullscreenenter"",""0"",""2349""
","
","
","""event"",""trial"",""time""
""fullscreenenter"",""0"",""2349""
","
","637.0999999940395","","","","","","","","51","0,1,0","6","blank","355","null","0.2801152470820927","0.10609227686998493","0.5137293988664885","0","","","","","","","","",""
"","html-keyboard-response","273","923474","0.0-144.0-1.0","""event"",""trial"",""time""
""fullscreenenter"",""0"",""2349""
","
","
","""event"",""trial"",""time""
""fullscreenenter"",""0"",""2349""
","
","null","<p></p>","null","","","","","","","","","","","","","","","","","","","","","","","",""
"","do_recog","274","926114","0.0-145.0-0.0","""event"",""trial"",""time""
""fullscreenenter"",""0"",""2349""
","
","
","""event"",""trial"",""time""
""fullscreenenter"",""0"",""2349""
","
","1129.5","","","","","","","","53","","","","356","probe-30","","","","","1","[object Object]","113","2","1","","","",""
"","html-keyboard-response","275","927117","0.0-145.0-1.0","""event"",""trial"",""time""
""fullscreenenter"",""0"",""2349""
","
","
","""event"",""trial"",""time""
""fullscreenenter"",""0"",""2349""
","
","null","<p></p>","null","","","","","","","","","","","","","","","","","","","","","","","",""
"","do_trial","276","930028","0.0-146.0-0.0","""event"",""trial"",""time""
""fullscreenenter"",""0"",""2349""
","
","
","""event"",""trial"",""time""
""fullscreenenter"",""0"",""2349""
","
","369.90000000596046","","","","","","","","51","0,0,1","6","blank","357","null","0.30949647842812666","0.15837687121472163","0.3927276534489933","1","","","","","","","","",""
"","html-keyboard-response","277","931033","0.0-146.0-1.0","""event"",""trial"",""time""