"success","trial_type","trial_index","time_elapsed","internal_node_id","interactions","blur_events","focus_events","fullscreenenter_events","fullscreenexit_events","rt","stimulus","key_press","subject_id","participant_id","age","gender","prompt","response","choice_outcomes","context_n","context_img_id","trial_n","probe_img_id","pR_red","pR_white","pR_black","outcome","is_valid","image_to_show","probed_trial","probed_context","correct","probe","probed_trial_n","probed_context_n","context_im"
"true","fullscreen","0","4598","0.0-0.0","""event"",""trial"",""time""
""fullscreenenter"",""0"",""3620""
","
","
","""event"",""trial"",""time""
""fullscreenenter"",""0"",""3620""
","
","","","","","","","","","","","","","","","","","","","","","","","","","","",""
"","pavlovia","1","4600","0.0-1.0","""event"",""trial"",""time""
""fullscreenenter"",""0"",""3620""
","
","
","""event"",""trial"",""time""
""fullscreenenter"",""0"",""3620""
","
","","","","","","","","","","","","","","","","","","","","","","","","","","",""
"","welc_back","2","14367","0.0-2.0","""event"",""trial"",""time""
""fullscreenenter"",""0"",""3620""
","
","
","""event"",""trial"",""time""
""fullscreenenter"",""0"",""3620""
","
","null","run_exp/static/audio/clip_29_welcome_back.m4a","null","2128","1962","17","Male","<div class='center'><p>Welcome to day 2!</p><p> Yesterday, you were the head captain of a pirate ship. You asked your fellow pirates to rob other ships of their gold across six different islands.</p></div>","","","","","","","","","","","","","","","","","","",""
"","html-keyboard-response","3","16311","0.0-3.0","""event"",""trial"",""time""
""fullscreenenter"",""0"",""3620""
","
","
","""event"",""trial"",""time""
""fullscreenenter"",""0"",""3620""
","
","1943.1000000005588","<div class='center'><p>Welcome to day 2!</p><p> Yesterday, you were the head captain of a pirate ship. You asked your fellow pirates to rob other ships of their gold across six different islands.</p><p><b>[Press the space bar to continue]</b></p></div>","32","","","","","","","","","","","","","","","","","","","","","","","",""
"","day_1_summary_goal","4","33486","0.0-4.0","""event"",""trial"",""time""
""fullscreenenter"",""0"",""3620""
","
","
","""event"",""trial"",""time""
""fullscreenenter"",""0"",""3620""
","
","null","run_exp/static/audio/clip_30_goal_of_game.m4a","null","","","","","<div class='center'><p>Today, like yesterday, you get to pick which pirate you want to rob the next ship.</p><p>If the pirate is successful in robbing a ship, you get gold coins that look like this: </p><p><img src='run_exp/static/images/tutorial/reward.png' height='150'></p><p> If they were not successful in robbing the ship, then you will get no gold coins and you'll see a big red x like this: </p><p><img src='run_exp/static/images/tutorial/reward_no.png' height='150'></p></div>","","","","","","","","","","","","","","","","","","",""
"","html-keyboard-response","5","33894","0.0-5.0","""event"",""trial"",""time""
""fullscreenenter"",""0"",""3620""
","
","
","""event"",""trial"",""time""
""fullscreenenter"",""0"",""3620""
","
","406.59999999962747","<div class='center'><p>Today, like yesterday, you get to pick which pirate you want to rob the next ship.</p><p>If the pirate is successful in robbing a ship, you get gold coins that look like this: </p><p><img src='run_exp/static/images/tutorial/reward.png' height='150'></p><p> If they were not successful in robbing the ship, then you will get no gold coins and you'll see a big red x like this: </p><p><img src='run_exp/static/images/tutorial/reward_no.png' height='150'></p><p><b>[Press the space bar to continue]</b></p></div>","32","","","","","","","","","","","","","","","","","","","","","","","",""
"","day_1_summary_pick","6","48566","0.0-6.0","""event"",""trial"",""time""
""fullscreenenter"",""0"",""3620""
","
","
","""event"",""trial"",""time""
""fullscreenenter"",""0"",""3620""
","
","null","run_exp/static/audio/clip_31_how_to_pick_a_pirate.m4a","null","","","","","<div class='center'><p>Also, just like yesterday, you will use the 1,2,3 keys on your keyboard to pick a pirate. Press '1' to choose red beard, '2' to choose white beard, and '3' to choose black beard . You only have 3 seconds to pick a pirate, so please make a choice quickly!</p></div>","","","","","","","","","","","","","","","","","","",""
"","html-keyboard-response","7","49008","0.0-7.0","""event"",""trial"",""time""
""fullscreenenter"",""0"",""3620""
","
","
","""event"",""trial"",""time""
""fullscreenenter"",""0"",""3620""
","
","441.1000000005588","<div class='center'><p>Also, just like yesterday, you will use the 1,2,3 keys on your keyboard to pick a pirate. Press '1' to choose red beard, '2' to choose white beard, and '3' to choose black beard . You only have 3 seconds to pick a pirate, so please make a choice quickly!</p><p><b>[Press the space bar to continue]</b></p></div>","32","","","","","","","","","","","","","","","","","","","","","","","",""
"","test_phase_begin","8","79386","0.0-8.0","""event"",""trial"",""time""
""fullscreenenter"",""0"",""3620""
","
","
","""event"",""trial"",""time""
""fullscreenenter"",""0"",""3620""
","
","null","run_exp/static/audio/clip_32_final_place.m4a","null","","","","","<div class='center'><p>You’ve arrived at the final island of your journey! Unfortunately, it’s very foggy out, so you won’t be able to see it in the distance like the other islands you've visited.</p><p>You’ll still be deciding which pirate you want to rob a ship like before. However, because of the fog, you also won’t be able to see the ship.</p><p>This means you do not have to remember the ships you rob on this island.</p><p>Unlike yesterday, you won't be visiting multiple islands today. You will stay on this island for the entire game. This game will last ~30 minutes.</p></div>","","","","","","","","","","","","","","","","","","",""
"","html-keyboard-response","9","79810","0.0-9.0","""event"",""trial"",""time""
""fullscreenenter"",""0"",""3620""
","
","
","""event"",""trial"",""time""
""fullscreenenter"",""0"",""3620""
","
","423.3999999994412","<div class='center'><p>You’ve arrived at the final island of your journey! Unfortunately, it’s very foggy out, so you won’t be able to see it in the distance like the other islands you've visited.</p><p>You’ll still be deciding which pirate you want to rob a ship like before. However, because of the fog, you also won’t be able to see the ship.</p><p>This means you do not have to remember the ships you rob on this island.</p><p>Unlike yesterday, you won't be visiting multiple islands today. You will stay on this island for the entire game. This game will last ~30 minutes.</p><p><b>[Press the space bar to continue]</b></p></div>","32","","","","","","","","","","","","","","","","","","","","","","","",""
"","explain_probe_1","10","87506","0.0-10.0","""event"",""trial"",""time""
""fullscreenenter"",""0"",""3620""
","
","
","""event"",""trial"",""time""
""fullscreenenter"",""0"",""3620""
","
","null","run_exp/static/audio/clip_33_recognition_1.m4a","null","","","","","<div class='center'><p> Sometimes you’ll be shown a ship, and you will be asked if you saw this ship on a past island.</p><p> Here is an example of what you will see.</p><p><img src='run_exp/static/images/tutorial/example_recog_trial.png' height='500'></p></div>","","","","","","","","","","","","","","","","","","",""
"","html-keyboard-response","11","88285","0.0-11.0","""event"",""trial"",""time""
""fullscreenenter"",""0"",""3620""
","
","
","""event"",""trial"",""time""
""fullscreenenter"",""0"",""3620""
","
","777.5999999996275","<div class='center'><p> Sometimes you’ll be shown a ship, and you will be asked if you saw this ship on a past island.</p><p> Here is an example of what you will see.</p><p><img src='run_exp/static/images/tutorial/example_recog_trial.png' height='500'></p><p><b>[Press the space bar to continue]</b></p></div>","32","","","","","","","","","","","","","","","","","","","","","","","",""
"","explain_probe_2","12","109986","0.0-12.0","""event"",""trial"",""time""
""fullscreenenter"",""0"",""3620""
","
","
","""event"",""trial"",""time""
""fullscreenenter"",""0"",""3620""
","
","null","run_exp/static/audio/clip_34_recognition_2.m4a","null","","","","","<div class='center'><p> You will press the 5, 6, 7, 8 keys on your keyboard to respond.</p><p>If you are sure you saw the ship, press <b>5</b> on your keyboard.</p><p> If you think you saw it before but aren't sure, then press <b>6</b>.</p><p> If you think you have <b>not</b> seen it before but aren't sure, then press <b>7</b>.</p><p> If you are sure you did <b>not</b> see the ship before, then press <b>8</b>.</p><p><img src='run_exp/static/images/tutorial/example_recog_trial.png' height='500'></p></div>","","","","","","","","","","","","","","","","","","",""
"","html-keyboard-response","13","110409","0.0-13.0","""event"",""trial"",""time""
""fullscreenenter"",""0"",""3620""
","
","
","""event"",""trial"",""time""
""fullscreenenter"",""0"",""3620""
","
","421.59999999962747","<div class='center'><p> You will press the 5, 6, 7, 8 keys on your keyboard to respond.</p><p>If you are sure you saw the ship, press <b>5</b> on your keyboard.</p><p> If you think you saw it before but aren't sure, then press <b>6</b>.</p><p> If you think you have <b>not</b> seen it before but aren't sure, then press <b>7</b>.</p><p> If you are sure you did <b>not</b> see the ship before, then press <b>8</b>.</p><p><img src='run_exp/static/images/tutorial/example_recog_trial.png' height='500'></p><p><b>[Press the space bar to continue]</b></p></div>","32","","","","","","","","","","","","","","","","","","","","","","","",""
"","explain_outcome","14","127586","0.0-14.0","""event"",""trial"",""time""
""fullscreenenter"",""0"",""3620""
","
","
","""event"",""trial"",""time""
""fullscreenenter"",""0"",""3620""
","
","null","run_exp/static/audio/clip_35_recognition_3.m4a","null","","","","","<div class='center'><p> If you remember correctly, then you’ll get a gold coin like this: </p><p><img src='run_exp/static/images/tutorial/reward_small.png' height='200'></p><p>If you do not remember correctly, then you'll see a red x like this: </p><p><img src='run_exp/static/images/tutorial/reward_no.png' height='200'></p><p>Importantly, when you are shown a ship, take the time to remind yourself which island you saw it on. This will help you in the next part of the study.</p></div>","","","","","","","","","","","","","","","","","","",""
"","html-keyboard-response","15","128028","0.0-15.0","""event"",""trial"",""time""
""fullscreenenter"",""0"",""3620""
","
","
","""event"",""trial"",""time""
""fullscreenenter"",""0"",""3620""
","
","440.90000000037253","<div class='center'><p> If you remember correctly, then you’ll get a gold coin like this: </p><p><img src='run_exp/static/images/tutorial/reward_small.png' height='200'></p><p>If you do not remember correctly, then you'll see a red x like this: </p><p><img src='run_exp/static/images/tutorial/reward_no.png' height='200'></p><p>Importantly, when you are shown a ship, take the time to remind yourself which island you saw it on. This will help you in the next part of the study.</p><p><b>[Press the space bar to continue]</b></p></div>","32","","","","","","","","","","","","","","","","","","","","","","","",""
"","begin_test_phase","16","143826","0.0-16.0","""event"",""trial"",""time""
""fullscreenenter"",""0"",""3620""
","
","
","""event"",""trial"",""time""
""fullscreenenter"",""0"",""3620""
","
","null","run_exp/static/audio/clip_36_begin_final.m4a","null","","","","","<div class='center'><p>Let's go over the important points again. Your job is to: </p><p>1. Pick the pirate who is best at robbing ships and will bring you back gold coins. </p><p>2. Correctly remember whether or not you saw a ship before. If you did see the ship before, remind yourself on which island you saw it. </p></div>","","","","","","","","","","","","","","","","","","",""
"","html-keyboard-response","17","146545","0.0-17.0","""event"",""trial"",""time""
""fullscreenenter"",""0"",""3620""
","
","
","""event"",""trial"",""time""
""fullscreenenter"",""0"",""3620""
","
","2697.600000000559","<div class='center'><p>Let's go over the important points again. Your job is to: </p><p>1. Pick the pirate who is best at robbing ships and will bring you back gold coins. </p><p>2. Correctly remember whether or not you saw a ship before. If you did see the ship before, remind yourself on which island you saw it. </p><p><b>[Press the space bar to continue]</b></p></div>","32","","","","","","","","","","","","","","","","","","","","","","","",""
"","do_welcome","18","150549","0.0-18.0","""event"",""trial"",""time""
""fullscreenenter"",""0"",""3620""
","
","
","""event"",""trial"",""time""
""fullscreenenter"",""0"",""3620""
","
","null","","","","","","","","null","","","","","","","","","","","","","","","","","",""
"","do_trial","19","154658","0.0-19.0-0.0","""event"",""trial"",""time""
""fullscreenenter"",""0"",""3620""
","
","
","""event"",""trial"",""time""
""fullscreenenter"",""0"",""3620""
","
","1564","","","","","","","","49","1,0,0","6","blank","230","null","0.5155229348997784","0.07929053226881888","0.22108604164422982","1","","","","","","","","",""
"","html-keyboard-response","20","155660","0.0-19.0-1.0","""event"",""trial"",""time""
""fullscreenenter"",""0"",""3620""
","
","
","""event"",""trial"",""time""
""fullscreenenter"",""0"",""3620""
","
","null","<p></p>","null","","","","","","","","","","","","","","","","","","","","","","","",""
"","do_trial","21","159226","0.0-20.0-0.0","""event"",""trial"",""time""
""fullscreenenter"",""0"",""3620""
","
","
","""event"",""trial"",""time""
""fullscreenenter"",""0"",""3620""
","
","1029.2999999998137","","","","","","","","49","1,0,0","6","blank","231","null","0.6497501088653508","0.09737044148141949","0.27914077089092554","1","","","","","","","","",""
"","html-keyboard-response","22","160241","0.0-20.0-1.0","""event"",""trial"",""time""
""fullscreenenter"",""0"",""3620""
","
","
","""event"",""trial"",""time""
""fullscreenenter"",""0"",""3620""
","
","null","<p></p>","null","","","","","","","","","","","","","","","","","","","","","","","",""
"","do_trial","23","162875","0.0-21.0-0.0","""event"",""trial"",""time""
""fullscreenenter"",""0"",""3620""
","
","
","""event"",""trial"",""time""
""fullscreenenter"",""0"",""3620""
","
","101.79999999981374","","","","","","","","49","1,0,1","6","blank","232","null","0.6516608251633877","0.15089586819586134","0.2989010439945609","1","","","","","","","","",""
"","html-keyboard-response","24","163877","0.0-21.0-1.0","""event"",""trial"",""time""
""fullscreenenter"",""0"",""3620""
","
","
","""event"",""trial"",""time""
""fullscreenenter"",""0"",""3620""
","
","null","<p></p>","null","","","","","","","","","","","","","","","","","","","","","","","",""
"","do_trial","25","166649","0.0-22.0-0.0","""event"",""trial"",""time""
""fullscreenenter"",""0"",""3620""
","
","
","""event"",""trial"",""time""
""fullscreenenter"",""0"",""3620""
","
","235.90000000037253","","","","","","","","49","1,0,0","6","blank","233","null","0.5456317750090078","0.2860042292439236","0.20945372541624835","1","","","","","","","","",""
"","html-keyboard-response","26","167666","0.0-22.0-1.0","""event"",""trial"",""time""
""fullscreenenter"",""0"",""3620""
","
","
","""event"",""trial"",""time""
""fullscreenenter"",""0"",""3620""
","
","null","<p></p>","null","","","","","","","","","","","","","","","","","","","","","","","",""
"","do_trial","27","170517","0.0-23.0-0.0","""event"",""trial"",""time""
""fullscreenenter"",""0"",""3620""
","
","
","""event"",""trial"",""time""
""fullscreenenter"",""0"",""3620""
","
","305.90000000037253","","","","","","","","49","1,0,0","6","blank","234","null","0.4937364308647762","0.24294801241502645","0.2514083927815432","1","","","","","","","","",""
"","html-keyboard-response","28","171531","0.0-23.0-1.0","""event"",""trial"",""time""
""fullscreenenter"",""0"",""3620""
","
","
","""event"",""trial"",""time""
""fullscreenenter"",""0"",""3620""
","
","null","<p></p>","null","","","","","","","","","","","","","","","","","","","","","","","",""
"","do_trial","29","174394","0.0-24.0-0.0","""event"",""trial"",""time""
""fullscreenenter"",""0"",""3620""
","
","
","""event"",""trial"",""time""
""fullscreenenter"",""0"",""3620""
","
","326.70000000018626","","","","","","","","49","0,0,0","6","blank","235","null","0.37614380295436206","0.2702839351934808","0.17923050954694206","0","","","","","","","","",""
"","html-keyboard-response","30","175395","0.0-24.0-1.0","""event"",""trial"",""time""
""fullscreenenter"",""0"",""3620""
","
","
","""event"",""trial"",""time""
""fullscreenenter"",""0"",""3620""
","
","null","<p></p>","null","","","","","","","","","","","","","","","","","","","","","","","",""
"","do_trial","31","178029","0.0-25.0-0.0","""event"",""trial"",""time""
""fullscreenenter"",""0"",""3620""
","
","
","""event"",""trial"",""time""
""fullscreenenter"",""0"",""3620""
","
","100.29999999981374","","","","","","","","49","1,0,0","6","blank","236","null","0.4155685483987268","0.18441332560131912","0.10757521981297309","1","","","","","","","","",""
"","html-keyboard-response","32","179030","0.0-25.0-1.0","""event"",""trial"",""time""
""fullscreenenter"",""0"",""3620""
","
","
","""event"",""trial"",""time""
""fullscreenenter"",""0"",""3620""
","
","null","<p></p>","null","","","","","","","","","","","","","","","","","","","","","","","",""
"","do_trial","33","182460","0.0-26.0-0.0","""event"",""trial"",""time""
""fullscreenenter"",""0"",""3620""
","
","
","""event"",""trial"",""time""
""fullscreenenter"",""0"",""3620""
","
","883","","","","","","","","49","1,0,0","6","blank","237","null","0.4712793705158338","0.08403307817763775","0.051149715007780705","1","","","","","","","","",""
"","html-keyboard-response","34","183475","0.0-26.0-1.0","""event"",""trial"",""time""
""fullscreenenter"",""0"",""3620""
","
","
","""event"",""trial"",""time""
""fullscreenenter"",""0"",""3620""
","
","null","<p></p>","null","","","","","","","","","","","","","","","","","","","","","","","",""
"","do_trial","35","187400","0.0-27.0-0.0","""event"",""trial"",""time""
""fullscreenenter"",""0"",""3620""
","
","
","""event"",""trial"",""time""
""fullscreenenter"",""0"",""3620""
","
","1384.3999999994412","","","","","","","","49","1,0,0","6","blank","238","null","0.5740596879965629","0.1740982313498539","0.2217752941319568","1","","","","","","","","",""
"","html-keyboard-response","36","188415","0.0-27.0-1.0","""event"",""trial"",""time""
""fullscreenenter"",""0"",""3620""
","
","
","""event"",""trial"",""time""
""fullscreenenter"",""0"",""3620""
","
","null","<p></p>","null","","","","","","","","","","","","","","","","","","","","","","","",""
"","do_trial","37","191433","0.0-28.0-0.0","""event"",""trial"",""time""
""fullscreenenter"",""0"",""3620""
","
","
","""event"",""trial"",""time""
""fullscreenenter"",""0"",""3620""
","
","487.70000000018626","","","","","","","","49","1,0,0","6","blank","239","null","0.679412925667678","0.14534283467816608","0.10935282770843767","1","","","","","","","","",""
"","html-keyboard-response","38","192450","0.0-28.0-1.0","""event"",""trial"",""time""
""fullscreenenter"",""0"",""3620""
","
","
","""event"",""trial"",""time""
""fullscreenenter"",""0"",""3620""
","
","null","<p></p>","null","","","","","","","","","","","","","","","","","","","","","","","",""
"","do_trial","39","195440","0.0-29.0-0.0","""event"",""trial"",""time""
""fullscreenenter"",""0"",""3620""
","
","
","""event"",""trial"",""time""
""fullscreenenter"",""0"",""3620""
","
","454.70000000018626","","","","","","","","49","0,1,0","6","blank","240","null","0.533734987614009","0.3230753644552026","0.2208209737464337","0","","","","","","","","",""
"","html-keyboard-response","40","196442","0.0-29.0-1.0","""event"",""trial"",""time""
""fullscreenenter"",""0"",""3620""
","
","
","""event"",""trial"",""time""
""fullscreenenter"",""0"",""3620""
","
","null","<p></p>","null","","","","","","","","","","","","","","","","","","","","","","","",""
"","do_trial","41","199724","0.0-30.0-0.0","""event"",""trial"",""time""
""fullscreenenter"",""0"",""3620""
","
","
","""event"",""trial"",""time""
""fullscreenenter"",""0"",""3620""
","
","742.3999999994412","","","","","","","","49","1,0,0","6","blank","241","null","0.4628475575806473","0.2987269953105461","0.10175685886547188","1","","","","","","","","",""
"","html-keyboard-response","42","200726","0.0-30.0-1.0","""event"",""trial"",""time""
""fullscreenenter"",""0"",""3620""
","
","
","""event"",""trial"",""time""
""fullscreenenter"",""0"",""3620""
","
","null","<p></p>","null","","","","","","","","","","","","","","","","","","","","","","","",""
"","do_trial","43","203348","0.0-31.0-0.0","""event"",""trial"",""time""
""fullscreenenter"",""0"",""3620""
","
","
","""event"",""trial"",""time""
""fullscreenenter"",""0"",""3620""
","
","76.59999999962747","","","","","","","","49","0,0,0","6","blank","242","null","0.15919862822962313","0.43204516414496374","0.22890866229368578","0","","","","","","","","",""
"","html-keyboard-response","44","204364","0.0-31.0-1.0","""event"",""trial"",""time""
""fullscreenenter"",""0"",""3620""
","
","
","""event"",""trial"",""time""
""fullscreenenter"",""0"",""3620""
","
","null","<p></p>","null","","","","","","","","","","","","","","","","","","","","","","","",""
"","do_trial","45","207305","0.0-32.0-0.0","""event"",""trial"",""time""
""fullscreenenter"",""0"",""3620""
","
","
","""event"",""trial"",""time""
""fullscreenenter"",""0"",""3620""
","
","392.20000000018626","","","","","","","","49","1,0,0","6","blank","243","null","0.05246189270801199","0.5352100783074074","0.2609409873077189","1","","","","","","","","",""
"","html-keyboard-response","46","208307","0.0-32.0-1.0","""event"",""trial"",""time""
""fullscreenenter"",""0"",""3620""
","
","
","""event"",""trial"",""time""
""fullscreenenter"",""0"",""3620""
","
","null","<p></p>","null","","","","","","","","","","","","","","","","","","","","","","","",""
"","do_recog","47","214315","0.0-33.0-0.0","""event"",""trial"",""time""
""fullscreenenter"",""0"",""3620""
","
","
","""event"",""trial"",""time""
""fullscreenenter"",""0"",""3620""
","
","null","","","","","","","","null","","","","244","probe-251","","","","","0","[object Object]","null","null","0","","","",""
"","html-keyboard-response","48","215317","0.0-33.0-1.0","""event"",""trial"",""time""
""fullscreenenter"",""0"",""3620""
","
","
","""event"",""trial"",""time""
""fullscreenenter"",""0"",""3620""
","
","null","<p></p>","null","","","","","","","","","","","","","","","","","","","","","","","",""
"","do_trial","49","218508","0.0-34.0-0.0","""event"",""trial"",""time""
""fullscreenenter"",""0"",""3620""
","
","
","""event"",""trial"",""time""
""fullscreenenter"",""0"",""3620""
","
","644.8999999994412","","","","","","","","49","0,0,0","6","blank","245","null","0.1528855614895215","0.5268676212488207","0.2696455101206967","0","","","","","","","","",""
"","html-keyboard-response","50","219510","0.0-34.0-1.0","""event"",""trial"",""time""
""fullscreenenter"",""0"",""3620""
","
","
","""event"",""trial"",""time""
""fullscreenenter"",""0"",""3620""
","
","null","<p></p>","null","","","","","","","","","","","","","","","","","","","","","","","",""
"","do_recog","51","223578","0.0-35.0-0.0","""event"",""trial"",""time""
""fullscreenenter"",""0"",""3620""
","
","
","""event"",""trial"",""time""
""fullscreenenter"",""0"",""3620""
","
","2550.2999999998137","","","","","","","","56","","","","246","probe-121","","","","","1","[object Object]","112","2","0","","","",""
"","html-keyboard-response","52","224579","0.0-35.0-1.0","""event"",""trial"",""time""
""fullscreenenter"",""0"",""3620""
","
","
","""event"",""trial"",""time""
""fullscreenenter"",""0"",""3620""
","
","null","<p></p>","null","","","","","","","","","","","","","","","","","","","","","","","",""
"","do_trial","53","228675","0.0-36.0-0.0","""event"",""trial"",""time""
""fullscreenenter"",""0"",""3620""
","
","
","""event"",""trial"",""time""
""fullscreenenter"",""0"",""3620""
","
","1561.6000000005588","","","","","","","","49","1,1,0","6","blank","247","null","0.10518048559254244","0.5666756679064179","0.10892919748256542","1","","","","","","","","",""
"","html-keyboard-response","54","229675","0.0-36.0-1.0","""event"",""trial"",""time""
""fullscreenenter"",""0"",""3620""
","
","
","""event"",""trial"",""time""
""fullscreenenter"",""0"",""3620""
","
","null","<p></p>","null","","","","","","","","","","","","","","","","","","","","","","","",""
"","do_recog","55","232525","0.0-37.0-0.0","""event"",""trial"",""time""
""fullscreenenter"",""0"",""3620""
","
","
","""event"",""trial"",""time""
""fullscreenenter"",""0"",""3620""
","
","1337","","","","","","","","53","","","","248","probe-227","","","","","1","[object Object]","153","3","1","","","",""
"","html-keyboard-response","56","233528","0.0-37.0-1.0","""event"",""trial"",""time""
""fullscreenenter"",""0"",""3620""
","
","
","""event"",""trial"",""time""
""fullscreenenter"",""0"",""3620""
","
","null","<p></p>","null","","","","","","","","","","","","","","","","","","","","","","","",""
"","do_trial","57","236579","0.0-38.0-0.0","""event"",""trial"",""time""
""fullscreenenter"",""0"",""3620""
","
","
","""event"",""trial"",""time""
""fullscreenenter"",""0"",""3620""
","
","512.8000000007451","","","","","","","","49","0,1,0","6","blank","249","null","0.055223928229039015","0.6780957972397006","0.1824117309163832","0","","","","","","","","",""
"","html-keyboard-response","58","237593","0.0-38.0-1.0","""event"",""trial"",""time""
""fullscreenenter"",""0"",""3620""
","
","
","""event"",""trial"",""time""
""fullscreenenter"",""0"",""3620""
","
","null","<p></p>","null","","","","","","","","","","","","","","","","","","","","","","","",""
"","do_trial","59","240933","0.0-39.0-0.0","""event"",""trial"",""time""
""fullscreenenter"",""0"",""3620""
","
","
","""event"",""trial"",""time""
""fullscreenenter"",""0"",""3620""
","
","808.2999999998137","","","","","","","","49","0,1,0","6","blank","250","null","0.21275391874472757","0.8060132962770444","0.326509289483383","0","","","","","","","","",""
"","html-keyboard-response","60","241936","0.0-39.0-1.0","""event"",""trial"",""time""
""fullscreenenter"",""0"",""3620""
","
","
","""event"",""trial"",""time""
""fullscreenenter"",""0"",""3620""
","
","null","<p></p>","null","","","","","","","","","","","","","","","","","","","","","","","",""
"","do_trial","61","244985","0.0-40.0-0.0","""event"",""trial"",""time""
""fullscreenenter"",""0"",""3620""
","
","
","""event"",""trial"",""time""
""fullscreenenter"",""0"",""3620""
","
","517.5999999996275","","","","","","","","49","0,1,0","6","blank","251","null","0.16896284519807406","0.7787121110254858","0.3730308290181014","0","","","","","","","","",""
"","html-keyboard-response","62","245986","0.0-40.0-1.0","""event"",""trial"",""time""
""fullscreenenter"",""0"",""3620""
","
","
","""event"",""trial"",""time""
""fullscreenenter"",""0"",""3620""
","
","null","<p></p>","null","","","","","","","","","","","","","","","","","","","","","","","",""
"","do_trial","63","248867","0.0-41.0-0.0","""event"",""trial"",""time""
""fullscreenenter"",""0"",""3620""
","
","
","""event"",""trial"",""time""
""fullscreenenter"",""0"",""3620""
","
","345.3999999994412","","","","","","","","49","0,1,1","6","blank","252","null","0.09983888768091508","0.7025233318719594","0.33649912744528926","0","","","","","","","","",""
"","html-keyboard-response","64","249869","0.0-41.0-1.0","""event"",""trial"",""time""
""fullscreenenter"",""0"",""3620""
","
","
","""event"",""trial"",""time""
""fullscreenenter"",""0"",""3620""
","
","null","<p></p>","null","","","","","","","","","","","","","","","","","","","","","","","",""
"","do_recog","65","252778","0.0-42.0-0.0","""event"",""trial"",""time""
""fullscreenenter"",""0"",""3620""
","
","
","""event"",""trial"",""time""
""fullscreenenter"",""0"",""3620""
","
","1402.2999999998137","","","","","","","","56","","","","253","probe-12","","","","","1","[object Object]","115","2","0","","","",""
"","html-keyboard-response","66","253779","0.0-42.0-1.0","""event"",""trial"",""time""
""fullscreenenter"",""0"",""3620""
","
","
","""event"",""trial"",""time""
""fullscreenenter"",""0"",""3620""
","
","null","<p></p>","null","","","","","","","","","","","","","","","","","","","","","","","",""
"","do_trial","67","256798","0.0-43.0-0.0","""event"",""trial"",""time""
""fullscreenenter"",""0"",""3620""
","
","
","""event"",""trial"",""time""
""fullscreenenter"",""0"",""3620""
","
","479.29999999981374","","","","","","","","50","0,0,1","6","blank","254","null","0.23408738428272288","0.64103299404539","0.41139864775017493","0","","","","","","","","",""
"","html-keyboard-response","68","257800","0.0-43.0-1.0","""event"",""trial"",""time""
""fullscreenenter"",""0"",""3620""
","
","
","""event"",""trial"",""time""
""fullscreenenter"",""0"",""3620""
","
","null","<p></p>","null","","","","","","","","","","","","","","","","","","","","","","","",""
"","do_trial","69","260648","0.0-44.0-0.0","""event"",""trial"",""time""
""fullscreenenter"",""0"",""3620""
","
","
","""event"",""trial"",""time""
""fullscreenenter"",""0"",""3620""
","
","313.09999999962747","","","","","","","","51","0,1,1","6","blank","255","null","0.13263720681085311","0.4801148187383683","0.38136742353381187","1","","","","","","","","",""
"","html-keyboard-response","70","261665","0.0-44.0-1.0","""event"",""trial"",""time""
""fullscreenenter"",""0"",""3620""
","
","
","""event"",""trial"",""time""
""fullscreenenter"",""0"",""3620""
","
","null","<p></p>","null","","","","","","","","","","","","","","","","","","","","","","","",""
"","do_trial","71","264591","0.0-45.0-0.0","""event"",""trial"",""time""
""fullscreenenter"",""0"",""3620""
","
","
","""event"",""trial"",""time""
""fullscreenenter"",""0"",""3620""
","
","366.40000000037253","","","","","","","","51","0,0,1","6","blank","256","null","0.1795809816279301","0.439784640049733","0.3335984796337143","1","","","","","","","","",""
"","html-keyboard-response","72","265607","0.0-45.0-1.0","""event"",""trial"",""time""
""fullscreenenter"",""0"",""3620""
","
","
","""event"",""trial"",""time""
""fullscreenenter"",""0"",""3620""
","
","null","<p></p>","null","","","","","","","","","","","","","","","","","","","","","","","",""
"","do_trial","73","268504","0.0-46.0-0.0","""event"",""trial"",""time""
""fullscreenenter"",""0"",""3620""
","
","
","""event"",""trial"",""time""
""fullscreenenter"",""0"",""3620""
","
","359.59999999962747","","","","","","","","51","1,1,1","6","blank","257","null","0.15701627538278592","0.42827170138027526","0.285975022821004","1","","","","","","","","",""
"","html-keyboard-response","74","269507","0.0-46.0-1.0","""event"",""trial"",""time""
""fullscreenenter"",""0"",""3620""
","
","
","""event"",""trial"",""time""
""fullscreenenter"",""0"",""3620""
","
","null","<p></p>","null","","","","","","","","","","","","","","","","","","","","","","","",""
"","do_recog","75","272416","0.0-47.0-0.0","""event"",""trial"",""time""
""fullscreenenter"",""0"",""3620""
","
","
","""event"",""trial"",""time""
""fullscreenenter"",""0"",""3620""
","
","1388.699999999255","","","","","","","","56","","","","258","probe-90","","","","","1","[object Object]","72","1","0","","","",""
"","html-keyboard-response","76","273417","0.0-47.0-1.0","""event"",""trial"",""time""
""fullscreenenter"",""0"",""3620""
","
","
","""event"",""trial"",""time""
""fullscreenenter"",""0"",""3620""
","
","null","<p></p>","null","","","","","","","","","","","","","","","","","","","","","","","",""
"","do_trial","77","276511","0.0-48.0-0.0","""event"",""trial"",""time""
""fullscreenenter"",""0"",""3620""
","
","
","""event"",""trial"",""time""
""fullscreenenter"",""0"",""3620""
","
","559.9000000003725","","","","","","","","51","0,1,1","6","blank","259","null","0.13918851218700806","0.48652605944730454","0.26313801279987126","1","","","","","","","","",""
"","html-keyboard-response","78","277526","0.0-48.0-1.0","""event"",""trial"",""time""
""fullscreenenter"",""0"",""3620""
","
","
","""event"",""trial"",""time""
""fullscreenenter"",""0"",""3620""
","
","null","<p></p>","null","","","","","","","","","","","","","","","","","","","","","","","",""
"","do_trial","79","280497","0.0-49.0-0.0","""event"",""trial"",""time""
""fullscreenenter"",""0"",""3620""
","
","
","""event"",""trial"",""time""
""fullscreenenter"",""0"",""3620""
","
","437.3999999994412","","","","","","","","51","0,1,1","6","blank","260","null","0.09390962203982271","0.607367842863636","0.30946845959987834","1","","","","","","","","",""
"","html-keyboard-response","80","281511","0.0-49.0-1.0","""event"",""trial"",""time""
""fullscreenenter"",""0"",""3620""
","
","
","""event"",""trial"",""time""
""fullscreenenter"",""0"",""3620""
","
","null","<p></p>","null","","","","","","","","","","","","","","","","","","","","","","","",""
"","do_recog","81","284238","0.0-50.0-0.0","""event"",""trial"",""time""
""fullscreenenter"",""0"",""3620""
","
","
","""event"",""trial"",""time""
""fullscreenenter"",""0"",""3620""
","
","1223","","","","","","","","53","","","","261","probe-97","","","","","1","[object Object]","70","1","1","","","",""
"","html-keyboard-response","82","285239","0.0-50.0-1.0","""event"",""trial"",""time""
""fullscreenenter"",""0"",""3620""
","
","
","""event"",""trial"",""time""
""fullscreenenter"",""0"",""3620""
","
","null","<p></p>","null","","","","","","","","","","","","","","","","","","","","","","","",""
"","do_trial","83","288490","0.0-51.0-0.0","""event"",""trial"",""time""
""fullscreenenter"",""0"",""3620""
","
","
","""event"",""trial"",""time""
""fullscreenenter"",""0"",""3620""
","
","707.3999999994412","","","","","","","","51","0,1,1","6","blank","262","null","0.20462943943143366","0.6406329504406354","0.346484803181737","1","","","","","","","","",""
"","html-keyboard-response","84","289507","0.0-51.0-1.0","""event"",""trial"",""time""
""fullscreenenter"",""0"",""3620""
","
","
","""event"",""trial"",""time""
""fullscreenenter"",""0"",""3620""
","
","null","<p></p>","null","","","","","","","","","","","","","","","","","","","","","","","",""
"","do_recog","85","292894","0.0-52.0-0.0","""event"",""trial"",""time""
""fullscreenenter"",""0"",""3620""
","
","
","""event"",""trial"",""time""
""fullscreenenter"",""0"",""3620""
","
","1874.9000000003725","","","","","","","","56","","","","263","probe-190","","","","","1","[object Object]","116","2","0","","","",""
"","html-keyboard-response","86","293909","0.0-52.0-1.0","""event"",""trial"",""time""
""fullscreenenter"",""0"",""3620""
","
","
","""event"",""trial"",""time""
""fullscreenenter"",""0"",""3620""
","
","null","<p></p>","null","","","","","","","","","","","","","","","","","","","","","","","",""
"","do_trial","87","297096","0.0-53.0-0.0","""event"",""trial"",""time""
""fullscreenenter"",""0"",""3620""
","
","
","""event"",""trial"",""time""
""fullscreenenter"",""0"",""3620""
","
","641.7999999998137","","","","","","","","51","0,1,1","6","blank","264","null","0.08727515000149627","0.7408775723846956","0.25075594180373406","1","","","","","","","","",""
"","html-keyboard-response","88","298098","0.0-53.0-1.0","""event"",""trial"",""time""
""fullscreenenter"",""0"",""3620""
","
","
","""event"",""trial"",""time""
""fullscreenenter"",""0"",""3620""
","
","null","<p></p>","null","","","","","","","","","","","","","","","","","","","","","","","",""
"","do_recog","89","300867","0.0-54.0-0.0","""event"",""trial"",""time""
""fullscreenenter"",""0"",""3620""
","
","
","""event"",""trial"",""time""
""fullscreenenter"",""0"",""3620""
","
","1260.7999999998137","","","","","","","","53","","","","265","probe-123","","","","","1","[object Object]","77","1","1","","","",""
"","html-keyboard-response","90","301883","0.0-54.0-1.0","""event"",""trial"",""time""
""fullscreenenter"",""0"",""3620""
","
","
","""event"",""trial"",""time""
""fullscreenenter"",""0"",""3620""
","
","null","<p></p>","null","","","","","","","","","","","","","","","","","","","","","","","",""
"","do_trial","91","305410","0.0-55.0-0.0","""event"",""trial"",""time""
""fullscreenenter"",""0"",""3620""
","
","
","""event"",""trial"",""time""
""fullscreenenter"",""0"",""3620""
","
","988.9000000003725","","","","","","","","51","0,1,0","6","blank","266","null","0.1401190462952276","0.6481060305266787","0.27957382204302994","0","","","","","","","","",""
"","html-keyboard-response","92","306424","0.0-55.0-1.0","""event"",""trial"",""time""
""fullscreenenter"",""0"",""3620""
","
","
","""event"",""trial"",""time""
""fullscreenenter"",""0"",""3620""
","
","null","<p></p>","null","","","","","","","","","","","","","","","","","","","","","","","",""
"","do_trial","93","309349","0.0-56.0-0.0","""event"",""trial"",""time""
""fullscreenenter"",""0"",""3620""
","
","
","""event"",""trial"",""time""
""fullscreenenter"",""0"",""3620""
","
","386.59999999962747","","","","","","","","51","0,0,0","6","blank","267","null","0.12474938195730577","0.7211205606168772","0.20090791907374284","0","","","","","","","","",""
"","html-keyboard-response","94","310365","0.0-56.0-1.0","""event"",""trial"",""time""
""fullscreenenter"",""0"",""3620""
","
","
","""event"",""trial"",""time""
""fullscreenenter"",""0"",""3620""
","
","null","<p></p>","null","","","","","","","","","","","","","","","","","","","","","","","",""
"","do_trial","95","313557","0.0-57.0-0.0","""event"",""trial"",""time""
""fullscreenenter"",""0"",""3620""
","
","
","""event"",""trial"",""time""
""fullscreenenter"",""0"",""3620""
","
","655.2000000001863","","","","","","","","51","0,1,1","6","blank","268","null","0.05460040590976098","0.6397163263684511","0.3214097993572705","1","","","","","","","","",""
"","html-keyboard-response","96","314573","0.0-57.0-1.0","""event"",""trial"",""time""
""fullscreenenter"",""0"",""3620""
","
","
","""event"",""trial"",""time""
""fullscreenenter"",""0"",""3620""
","
","null","<p></p>","null","","","","","","","","","","","","","","","","","","","","","","","",""
"","break","97","316105","0.0-58.0-0.0","""event"",""trial"",""time""
""fullscreenenter"",""0"",""3620""
","
","
","""event"",""trial"",""time""
""fullscreenenter"",""0"",""3620""
","
","1530.9000000003725","<div class='center'><p>Time to take a quick break! You have 2 minutes to rest, but you can move on sooner if you'd like.</p><p> Press the <b>space bar</b> to continue.</p></div>","32","","","","","","","","","","","","","","","","","","","","","","","",""
"","do_recog","98","319194","0.0-58.0-1.0","""event"",""trial"",""time""
""fullscreenenter"",""0"",""3620""
","
","
","""event"",""trial"",""time""
""fullscreenenter"",""0"",""3620""
","
","1581.1000000005588","","","","","","","","53","","","","269","probe-89","","","","","1","[object Object]","193","4","1","","","",""
"","html-keyboard-response","99","320210","0.0-58.0-2.0","""event"",""trial"",""time""
""fullscreenenter"",""0"",""3620""
","
","
","""event"",""trial"",""time""
""fullscreenenter"",""0"",""3620""
","
","null","<p></p>","null","","","","","","","","","","","","","","","","","","","","","","","",""
"","do_trial","100","323399","0.0-59.0-0.0","""event"",""trial"",""time""
""fullscreenenter"",""0"",""3620""
","
","
","""event"",""trial"",""time""
""fullscreenenter"",""0"",""3620""
","
","647.8999999994412","","","","","","","","51","0,1,1","6","blank","270","null","0.103031565953358","0.6829896797549723","0.37463996041789954","1","","","","","","","","",""
"","html-keyboard-response","101","324413","0.0-59.0-1.0","""event"",""trial"",""time""
""fullscreenenter"",""0"",""3620""
","
","
","""event"",""trial"",""time""
""fullscreenenter"",""0"",""3620""
","
","null","<p></p>","null","","","","","","","","","","","","","","","","","","","","","","","",""
"","do_trial","102","327491","0.0-60.0-0.0","""event"",""trial"",""time""
""fullscreenenter"",""0"",""3620""
","
","
","""event"",""trial"",""time""
""fullscreenenter"",""0"",""3620""
","
","533.7000000001863","","","","","","","","51","0,1,1","6","blank","271","null","0.07274188395865956","0.48923050702853377","0.417349033397489","1","","","","","","","","",""
"","html-keyboard-response","103","328493","0.0-60.0-1.0","""event"",""trial"",""time""
""fullscreenenter"",""0"",""3620""
","
","
","""event"",""trial"",""time""
""fullscreenenter"",""0"",""3620""
","
","null","<p></p>","null","","","","","","","","","","","","","","","","","","","","","","","",""
"","do_trial","104","331466","0.0-61.0-0.0","""event"",""trial"",""time""
""fullscreenenter"",""0"",""3620""
","
","
","""event"",""trial"",""time""
""fullscreenenter"",""0"",""3620""
","
","427.30000000074506","","","","","","","","51","0,0,1","6","blank","272","null","0.05453165193708603","0.5699295717280057","0.4651862103832393","1","","","","","","","","",""
"","html-keyboard-response","105","332480","0.0-61.0-1.0","""event"",""trial"",""time""
""fullscreenenter"",""0"",""3620""
","
","
","""event"",""trial"",""time""
""fullscreenenter"",""0"",""3620""
","
","null","<p></p>","null","","","","","","","","","","","","","","","","","","","","","","","",""
"","do_trial","106","335422","0.0-62.0-0.0","""event"",""trial"",""time""
""fullscreenenter"",""0"",""3620""
","
","
","""event"",""trial"",""time""
""fullscreenenter"",""0"",""3620""
","
","408.5","","","","","","","","51","0,1,1","6","blank","273","null","0.1203251680104638","0.584713247285445","0.29341828094334577","1","","","","","","","","",""
"","html-keyboard-response","107","336437","0.0-62.0-1.0","""event"",""trial"",""time""
""fullscreenenter"",""0"",""3620""
","
","
","""event"",""trial"",""time""
""fullscreenenter"",""0"",""3620""
","
","null","<p></p>","null","","","","","","","","","","","","","","","","","","","","","","","",""
"","do_trial","108","339365","0.0-63.0-0.0","""event"",""trial"",""time""
""fullscreenenter"",""0"",""3620""
","
","
","""event"",""trial"",""time""
""fullscreenenter"",""0"",""3620""
","
","393.30000000074506","","","","","","","","51","0,1,0","6","blank","274","null","0.12052215102483102","0.5627605289369154","0.34714874025983483","0","","","","","","","","",""
"","html-keyboard-response","109","340381","0.0-63.0-1.0","""event"",""trial"",""time""
""fullscreenenter"",""0"",""3620""
","
","
","""event"",""trial"",""time""
""fullscreenenter"",""0"",""3620""
","
","null","<p></p>","null","","","","","","","","","","","","","","","","","","","","","","","",""
"","do_trial","110","343305","0.0-64.0-0.0","""event"",""trial"",""time""
""fullscreenenter"",""0"",""3620""
","
","
","""event"",""trial"",""time""
""fullscreenenter"",""0"",""3620""
","
","393.40000000037253","","","","","","","","51","0,1,0","6","blank","275","null","0.12698330533255536","0.5703821767991599","0.34600645458726526","0","","","","","","","","",""
"","html-keyboard-response","111","344322","0.0-64.0-1.0","""event"",""trial"",""time""
""fullscreenenter"",""0"",""3620""
","
","
","""event"",""trial"",""time""
""fullscreenenter"",""0"",""3620""
","
","null","<p></p>","null","","","","","","","","","","","","","","","","","","","","","","","",""
"","do_recog","112","347030","0.0-65.0-0.0","""event"",""trial"",""time""
""fullscreenenter"",""0"",""3620""
","
","
","""event"",""trial"",""time""
""fullscreenenter"",""0"",""3620""
","
","1201.800000000745","","","","","","","","53","","","","276","probe-92","","","","","1","[object Object]","198","4","1","","","",""
"","html-keyboard-response","113","348044","0.0-65.0-1.0","""event"",""trial"",""time""
""fullscreenenter"",""0"",""3620""
","
","
","""event"",""trial"",""time""
""fullscreenenter"",""0"",""3620""
","
","null","<p></p>","null","","","","","","","","","","","","","","","","","","","","","","","",""
"","do_trial","114","351217","0.0-66.0-0.0","""event"",""trial"",""time""
""fullscreenenter"",""0"",""3620""
","
","
","""event"",""trial"",""time""
""fullscreenenter"",""0"",""3620""
","
","627.6000000005588","","","","","","","","51","0,1,0","6","blank","277","null","0.16009970450761174","0.6163613128109505","0.3227219704724422","0","","","","","","","","",""
"","html-keyboard-response","115","352233","0.0-66.0-1.0","""event"",""trial"",""time""
""fullscreenenter"",""0"",""3620""
","
","
","""event"",""trial"",""time""
""fullscreenenter"",""0"",""3620""
","
","null","<p></p>","null","","","","","","","","","","","","","","","","","","","","","","","",""
"","do_trial","116","355158","0.0-67.0-0.0","""event"",""trial"",""time""
""fullscreenenter"",""0"",""3620""
","
","
","""event"",""trial"",""time""
""fullscreenenter"",""0"",""3620""
","
","390.70000000018626","","","","","","","","51","0,1,0","6","blank","278","null","0.09285963619346445","0.5880068918318337","0.3155209044695294","0","","","","","","","","",""
"","html-keyboard-response","117","356173","0.0-67.0-1.0","""event"",""trial"",""time""
""fullscreenenter"",""0"",""3620""
","
","
","""event"",""trial"",""time""
""fullscreenenter"",""0"",""3620""
","
","null","<p></p>","null","","","","","","","","","","","","","","","","","","","","","","","",""
"","do_recog","118","358670","0.0-68.0-0.0","""event"",""trial"",""time""
""fullscreenenter"",""0"",""3620""
","
","
","""event"",""trial"",""time""
""fullscreenenter"",""0"",""3620""
","
","985.2999999998137","","","","","","","","53","","","","279","probe-107","","","","","1","[object Object]","39","0","1","","","",""
"","html-keyboard-response","119","359671","0.0-68.0-1.0","""event"",""trial"",""time""
""fullscreenenter"",""0"",""3620""
","
","
","""event"",""trial"",""time""
""fullscreenenter"",""0"",""3620""
","
","null","<p></p>","null","","","","","","","","","","","","","","","","","","","","","","","",""
"","do_trial","120","362999","0.0-69.0-0.0","""event"",""trial"",""time""
""fullscreenenter"",""0"",""3620""
","
","
","""event"",""trial"",""time""
""fullscreenenter"",""0"",""3620""
","
","792.9000000003725","","","","","","","","51","0,0,0","6","blank","280","null","0.10185451966246546","0.5552782765327798","0.26105151920510566","0","","","","","","","","",""
"","html-keyboard-response","121","364013","0.0-69.0-1.0","""event"",""trial"",""time""
""fullscreenenter"",""0"",""3620""
","
","
","""event"",""trial"",""time""
""fullscreenenter"",""0"",""3620""
","
","null","<p></p>","null","","","","","","","","","","","","","","","","","","","","","","","",""
"","do_trial","122","366942","0.0-70.0-0.0","""event"",""trial"",""time""
""fullscreenenter"",""0"",""3620""
","
","
","""event"",""trial"",""time""
""fullscreenenter"",""0"",""3620""
","
","383.70000000018626","","","","","","","","49","0,0,0","6","blank","281","null","0.0985063032018856","0.46539432941007763","0.24856320085418954","0","","","","","","","","",""
"","html-keyboard-response","123","367958","0.0-70.0-1.0","""event"",""trial"",""time""
""fullscreenenter"",""0"",""3620""
","
","
","""event"",""trial"",""time""
""fullscreenenter"",""0"",""3620""
","
","null","<p></p>","null","","","","","","","","","","","","","","","","","","","","","","","",""
"","do_trial","124","370850","0.0-71.0-0.0","""event"",""trial"",""time""
""fullscreenenter"",""0"",""3620""
","
","
","""event"",""trial"",""time""
""fullscreenenter"",""0"",""3620""
","
","353.6000000005588","","","","","","","","50","0,1,0","6","blank","282","null","0.07915808889833642","0.4660933924490513","0.47780384798559317","1","","","","","","","","",""
"","html-keyboard-response","125","371851","0.0-71.0-1.0","""event"",""trial"",""time""
""fullscreenenter"",""0"",""3620""
","
","
","""event"",""trial"",""time""
""fullscreenenter"",""0"",""3620""
","
","null","<p></p>","null","","","","","","","","","","","","","","","","","","","","","","","",""
"","do_trial","126","374697","0.0-72.0-0.0","""event"",""trial"",""time""
""fullscreenenter"",""0"",""3620""
","
","
","""event"",""trial"",""time""
""fullscreenenter"",""0"",""3620""
","
","313.5","","","","","","","","50","1,1,1","6","blank","283","null","0.06344382443925888","0.47960248985967097","0.46146130221963133","1","","","","","","","","",""
"","html-keyboard-response","127","375699","0.0-72.0-1.0","""event"",""trial"",""time""
""fullscreenenter"",""0"",""3620""
","
","
","""event"",""trial"",""time""
""fullscreenenter"",""0"",""3620""
","
","null","<p></p>","null","","","","","","","","","","","","","","","","","","","","","","","",""
"","do_recog","128","378146","0.0-73.0-0.0","""event"",""trial"",""time""
""fullscreenenter"",""0"",""3620""
","
","
","""event"",""trial"",""time""
""fullscreenenter"",""0"",""3620""
","
","937.7999999998137","","","","","","","","53","","","","284","probe-207","","","","","1","[object Object]","75","1","1","","","",""
"","html-keyboard-response","129","379147","0.0-73.0-1.0","""event"",""trial"",""time""
""fullscreenenter"",""0"",""3620""
","
","
","""event"",""trial"",""time""
""fullscreenenter"",""0"",""3620""
","
","null","<p></p>","null","","","","","","","","","","","","","","","","","","","","","","","",""
"","do_trial","130","382103","0.0-74.0-0.0","""event"",""trial"",""time""
""fullscreenenter"",""0"",""3620""
","
","
","""event"",""trial"",""time""
""fullscreenenter"",""0"",""3620""
","
","409.79999999981374","","","","","","","","50","0,0,1","6","blank","285","null","0.1412965053494687","0.513352529016389","0.4711178067700151","0","","","","","","","","",""
"","html-keyboard-response","131","383119","0.0-74.0-1.0","""event"",""trial"",""time""
""fullscreenenter"",""0"",""3620""
","
","
","""event"",""trial"",""time""
""fullscreenenter"",""0"",""3620""
","
","null","<p></p>","null","","","","","","","","","","","","","","","","","","","","","","","",""
"","do_trial","132","385984","0.0-75.0-0.0","""event"",""trial"",""time""
""fullscreenenter"",""0"",""3620""
","
","
","""event"",""trial"",""time""
""fullscreenenter"",""0"",""3620""
","
","320.80000000074506","","","","","","","","50","0,0,0","6","blank","286","null","0.18046506529250836","0.426508268955296","0.4251970439821948","0","","","","","","","","",""
"","html-keyboard-response","133","387000","0.0-75.0-1.0","""event"",""trial"",""time""
""fullscreenenter"",""0"",""3620""
","
","
","""event"",""trial"",""time""
""fullscreenenter"",""0"",""3620""
","
","null","<p></p>","null","","","","","","","","","","","","","","","","","","","","","","","",""
"","do_trial","134","389818","0.0-76.0-0.0","""event"",""trial"",""time""
""fullscreenenter"",""0"",""3620""
","
","
","""event"",""trial"",""time""
""fullscreenenter"",""0"",""3620""
","
","281.80000000074506","","","","","","","","50","0,0,1","6","blank","287","null","0.17992776348770442","0.48413173950444716","0.308699529224428","0","","","","","","","","",""
"","html-keyboard-response","135","390832","0.0-76.0-1.0","""event"",""trial"",""time""
""fullscreenenter"",""0"",""3620""
","
","
","""event"",""trial"",""time""
""fullscreenenter"",""0"",""3620""
","
","null","<p></p>","null","","","","","","","","","","","","","","","","","","","","","","","",""
"","do_trial","136","393681","0.0-77.0-0.0","""event"",""trial"",""time""
""fullscreenenter"",""0"",""3620""
","
","
","""event"",""trial"",""time""
""fullscreenenter"",""0"",""3620""
","
","304.59999999962747","","","","","","","","51","0,1,0","6","blank","288","null","0.2059285429462728","0.3617903636235084","0.17071717016808038","0","","","","","","","","",""
"","html-keyboard-response","137","394696","0.0-77.0-1.0","""event"",""trial"",""time""
""fullscreenenter"",""0"",""3620""
","
","
","""event"",""trial"",""time""
""fullscreenenter"",""0"",""3620""
","
","null","<p></p>","null","","","","","","","","","","","","","","","","","","","","","","","",""
"","do_recog","138","397343","0.0-78.0-0.0","""event"",""trial"",""time""
""fullscreenenter"",""0"",""3620""
","
","
","""event"",""trial"",""time""
""fullscreenenter"",""0"",""3620""
","
","1135.3999999994412","","","","","","","","53","","","","289","probe-55","","","","","1","[object Object]","195","4","1","","","",""
"","html-keyboard-response","139","398360","0.0-78.0-1.0","""event"",""trial"",""time""
""fullscreenenter"",""0"",""3620""
","
","
","""event"",""trial"",""time""
""fullscreenenter"",""0"",""3620""
","
","null","<p></p>","null","","","","","","","","","","","","","","","","","","","","","","","",""
"","do_trial","140","401411","0.0-79.0-0.0","""event"",""trial"",""time""
""fullscreenenter"",""0"",""3620""
","
","
","""event"",""trial"",""time""
""fullscreenenter"",""0"",""3620""
","
","516.2999999998137","","","","","","","","49","0,1,0","6","blank","290","null","0.2502192188220645","0.5085579800525736","0.1797983440301447","0","","","","","","","","",""
"","html-keyboard-response","141","402415","0.0-79.0-1.0","""event"",""trial"",""time""
""fullscreenenter"",""0"",""3620""
","
","
","""event"",""trial"",""time""
""fullscreenenter"",""0"",""3620""
","
","null","<p></p>","null","","","","","","","","","","","","","","","","","","","","","","","",""
"","do_recog","142","404938","0.0-80.0-0.0","""event"",""trial"",""time""
""fullscreenenter"",""0"",""3620""
","
","
","""event"",""trial"",""time""
""fullscreenenter"",""0"",""3620""
","
","1017.5","","","","","","","","53","","","","291","probe-72","","","","","1","[object Object]","113","2","1","","","",""
"","html-keyboard-response","143","405955","0.0-80.0-1.0","""event"",""trial"",""time""
""fullscreenenter"",""0"",""3620""
","
","
","""event"",""trial"",""time""
""fullscreenenter"",""0"",""3620""
","
","null","<p></p>","null","","","","","","","","","","","","","","","","","","","","","","","",""
"","do_trial","144","408942","0.0-81.0-0.0","""event"",""trial"",""time""
""fullscreenenter"",""0"",""3620""
","
","
","""event"",""trial"",""time""
""fullscreenenter"",""0"",""3620""
","
","445.80000000074506","","","","","","","","50","0,1,0","6","blank","292","null","0.2712143555477746","0.5981780442146727","0.29808827821782685","1","","","","","","","","",""
"","html-keyboard-response","145","409956","0.0-81.0-1.0","""event"",""trial"",""time""
""fullscreenenter"",""0"",""3620""
","
","
","""event"",""trial"",""time""
""fullscreenenter"",""0"",""3620""
","
","null","<p></p>","null","","","","","","","","","","","","","","","","","","","","","","","",""
"","do_recog","146","412326","0.0-82.0-0.0","""event"",""trial"",""time""
""fullscreenenter"",""0"",""3620""
","
","
","""event"",""trial"",""time""
""fullscreenenter"",""0"",""3620""
","
","855.8999999994412","","","","","","","","53","","","","293","probe-81","","","","","1","[object Object]","159","3","1","","","",""
"","html-keyboard-response","147","413339","0.0-82.0-1.0","""event"",""trial"",""time""
""fullscreenenter"",""0"",""3620""
","
","
","""event"",""trial"",""time""
""fullscreenenter"",""0"",""3620""
","
","null","<p></p>","null","","","","","","","","","","","","","","","","","","","","","","","",""
"","do_trial","148","416298","0.0-83.0-0.0","""event"",""trial"",""time""
""fullscreenenter"",""0"",""3620""
","
","
","""event"",""trial"",""time""
""fullscreenenter"",""0"",""3620""
","
","421.09999999962747","","","","","","","","50","0,1,1","6","blank","294","null","0.2030636003602097","0.5449512556699933","0.22023182200989883","1","","","","","","","","",""
"","html-keyboard-response","149","417300","0.0-83.0-1.0","""event"",""trial"",""time""
""fullscreenenter"",""0"",""3620""
","
","
","""event"",""trial"",""time""
""fullscreenenter"",""0"",""3620""
","
","null","<p></p>","null","","","","","","","","","","","","","","","","","","","","","","","",""
"","do_trial","150","420425","0.0-84.0-0.0","""event"",""trial"",""time""
""fullscreenenter"",""0"",""3620""
","
","
","""event"",""trial"",""time""
""fullscreenenter"",""0"",""3620""
","
","587.6000000005588","","","","","","","","50","0,0,0","6","blank","295","null","0.10654558802655534","0.6325118360959412","0.1859622663188598","0","","","","","","","","",""
"","html-keyboard-response","151","421427","0.0-84.0-1.0","""event"",""trial"",""time""
""fullscreenenter"",""0"",""3620""
","
","
","""event"",""trial"",""time""
""fullscreenenter"",""0"",""3620""
","
","null","<p></p>","null","","","","","","","","","","","","","","","","","","","","","","","",""
"","do_trial","152","425260","0.0-85.0-0.0","""event"",""trial"",""time""
""fullscreenenter"",""0"",""3620""
","
","
","""event"",""trial"",""time""
""fullscreenenter"",""0"",""3620""
","
","1294.2999999998137","","","","","","","","50","1,0,1","6","blank","296","null","0.08110523744011694","0.3773375082881376","0.24562799254780324","0","","","","","","","","",""
"","html-keyboard-response","153","426263","0.0-85.0-1.0","""event"",""trial"",""time""
""fullscreenenter"",""0"",""3620""
","
","
","""event"",""trial"",""time""
""fullscreenenter"",""0"",""3620""
","
","null","<p></p>","null","","","","","","","","","","","","","","","","","","","","","","","",""
"","do_trial","154","429157","0.0-86.0-0.0","""event"",""trial"",""time""
""fullscreenenter"",""0"",""3620""
","
","
","""event"",""trial"",""time""
""fullscreenenter"",""0"",""3620""
","
","358.1000000005588","","","","","","","","50","0,0,0","6","blank","297","null","0.12174264093196037","0.2797289996767674","0.3386721479183741","0","","","","","","","","",""
"","html-keyboard-response","155","430159","0.0-86.0-1.0","""event"",""trial"",""time""
""fullscreenenter"",""0"",""3620""
","
","
","""event"",""trial"",""time""
""fullscreenenter"",""0"",""3620""
","
","null","<p></p>","null","","","","","","","","","","","","","","","","","","","","","","","",""
"","do_trial","156","434580","0.0-87.0-0.0","""event"",""trial"",""time""
""fullscreenenter"",""0"",""3620""
","
","
","""event"",""trial"",""time""
""fullscreenenter"",""0"",""3620""
","
","1880.6000000005588","","","","","","","","50","1,0,1","6","blank","298","null","0.2961455193940717","0.29006975314523026","0.410265481418707","0","","","","","","","","",""
"","html-keyboard-response","157","435594","0.0-87.0-1.0","""event"",""trial"",""time""
""fullscreenenter"",""0"",""3620""
","
","
","""event"",""trial"",""time""
""fullscreenenter"",""0"",""3620""
","
","null","<p></p>","null","","","","","","","","","","","","","","","","","","","","","","","",""
"","do_trial","158","439443","0.0-88.0-0.0","""event"",""trial"",""time""
""fullscreenenter"",""0"",""3620""
","
","
","""event"",""trial"",""time""
""fullscreenenter"",""0"",""3620""
","
","1314","","","","","","","","49","0,0,0","6","blank","299","null","0.3028251068632913","0.26939461679820376","0.4174509803570632","0","","","","","","","","",""
"","html-keyboard-response","159","440445","0.0-88.0-1.0","""event"",""trial"",""time""
""fullscreenenter"",""0"",""3620""
","
","
","""event"",""trial"",""time""
""fullscreenenter"",""0"",""3620""
","
","null","<p></p>","null","","","","","","","","","","","","","","","","","","","","","","","",""
"","do_recog","160","443234","0.0-89.0-0.0","""event"",""trial"",""time""
""fullscreenenter"",""0"",""3620""
","
","
","""event"",""trial"",""time""
""fullscreenenter"",""0"",""3620""
","
","1271.5","","","","","","","","56","","","","300","probe-115","","","","","1","[object Object]","35","0","0","","","",""
"","html-keyboard-response","161","444249","0.0-89.0-1.0","""event"",""trial"",""time""
""fullscreenenter"",""0"",""3620""
","
","
","""event"",""trial"",""time""
""fullscreenenter"",""0"",""3620""
","
","null","<p></p>","null","","","","","","","","","","","","","","","","","","","","","","","",""
"","do_trial","162","447760","0.0-90.0-0.0","""event"",""trial"",""time""
""fullscreenenter"",""0"",""3620""
","
","
","""event"",""trial"",""time""
""fullscreenenter"",""0"",""3620""
","
","970.8999999994412","","","","","","","","49","1,0,1","6","blank","301","null","0.3697291283268564","0.05236910594914866","0.5147249138323262","1","","","","","","","","",""
"","html-keyboard-response","163","448777","0.0-90.0-1.0","""event"",""trial"",""time""
""fullscreenenter"",""0"",""3620""
","
","
","""event"",""trial"",""time""
""fullscreenenter"",""0"",""3620""
","
","null","<p></p>","null","","","","","","","","","","","","","","","","","","","","","","","",""
"","do_recog","164","451548","0.0-91.0-0.0","""event"",""trial"",""time""
""fullscreenenter"",""0"",""3620""
","
","
","""event"",""trial"",""time""
""fullscreenenter"",""0"",""3620""
","
","1261.5999999996275","","","","","","","","56","","","","302","probe-252","","","","","0","[object Object]","null","null","1","","","",""
"","html-keyboard-response","165","452551","0.0-91.0-1.0","""event"",""trial"",""time""
""fullscreenenter"",""0"",""3620""
","
","
","""event"",""trial"",""time""
""fullscreenenter"",""0"",""3620""
","
","null","<p></p>","null","","","","","","","","","","","","","","","","","","","","","","","",""
"","do_trial","166","455724","0.0-92.0-0.0","""event"",""trial"",""time""
""fullscreenenter"",""0"",""3620""
","
","
","""event"",""trial"",""time""
""fullscreenenter"",""0"",""3620""
","
","640.6000000005588","","","","","","","","49","0,0,1","6","blank","303","null","0.26156315017188353","0.11979449884568916","0.417067958005612","0","","","","","","","","",""
"","html-keyboard-response","167","456740","0.0-92.0-1.0","""event"",""trial"",""time""
""fullscreenenter"",""0"",""3620""
","
","
","""event"",""trial"",""time""
""fullscreenenter"",""0"",""3620""
","
","null","<p></p>","null","","","","","","","","","","","","","","","","","","","","","","","",""
"","do_trial","168","459799","0.0-93.0-0.0","""event"",""trial"",""time""
""fullscreenenter"",""0"",""3620""
","
","
","""event"",""trial"",""time""
""fullscreenenter"",""0"",""3620""
","
","524.2000000001863","","","","","","","","49","0,0,1","6","blank","304","null","0.11011150656165956","0.1773506203945742","0.5261857157511435","0","","","","","","","","",""
"","html-keyboard-response","169","460801","0.0-93.0-1.0","""event"",""trial"",""time""
""fullscreenenter"",""0"",""3620""
","
","
","""event"",""trial"",""time""
""fullscreenenter"",""0"",""3620""
","
","null","<p></p>","null","","","","","","","","","","","","","","","","","","","","","","","",""
"","do_trial","170","464111","0.0-94.0-0.0","""event"",""trial"",""time""
""fullscreenenter"",""0"",""3620""
","
","
","""event"",""trial"",""time""
""fullscreenenter"",""0"",""3620""
","
","765.6000000005588","","","","","","","","50","0,0,0","6","blank","305","null","0.18524531555737916","0.13221467208624213","0.49988896568691077","0","","","","","","","","",""
"","html-keyboard-response","171","465127","0.0-94.0-1.0","""event"",""trial"",""time""
""fullscreenenter"",""0"",""3620""
","
","
","""event"",""trial"",""time""
""fullscreenenter"",""0"",""3620""
","
","null","<p></p>","null","","","","","","","","","","","","","","","","","","","","","","","",""
"","do_trial","172","467929","0.0-95.0-0.0","""event"",""trial"",""time""
""fullscreenenter"",""0"",""3620""
","
","
","""event"",""trial"",""time""
""fullscreenenter"",""0"",""3620""
","
","258","","","","","","","","51","0,0,0","6","blank","306","null","0.2010089309373956","0.06131097968695353","0.4473951763543956","0","","","","","","","","",""
"","html-keyboard-response","173","468944","0.0-95.0-1.0","""event"",""trial"",""time""
""fullscreenenter"",""0"",""3620""
","
","
","""event"",""trial"",""time""
""fullscreenenter"",""0"",""3620""
","
","null","<p></p>","null","","","","","","","","","","","","","","","","","","","","","","","",""
"","do_trial","174","471916","0.0-96.0-0.0","""event"",""trial"",""time""
""fullscreenenter"",""0"",""3620""
","
","
","""event"",""trial"",""time""
""fullscreenenter"",""0"",""3620""
","
","430.09999999962747","","","","","","","","49","0,0,1","6","blank","307","null","0.2853862051676242","0.07704096386760946","0.6551190559612176","0","","","","","","","","",""
"","html-keyboard-response","175","472931","0.0-96.0-1.0","""event"",""trial"",""time""
""fullscreenenter"",""0"",""3620""
","
","
","""event"",""trial"",""time""
""fullscreenenter"",""0"",""3620""
","
","null","<p></p>","null","","","","","","","","","","","","","","","","","","","","","","","",""
"","do_recog","176","475951","0.0-97.0-0.0","""event"",""trial"",""time""
""fullscreenenter"",""0"",""3620""
","
","
","""event"",""trial"",""time""
""fullscreenenter"",""0"",""3620""
","
","1513.8999999994412","","","","","","","","56","","","","308","probe-26","","","","","1","[object Object]","151","3","0","","","",""
"","html-keyboard-response","177","476966","0.0-97.0-1.0","""event"",""trial"",""time""
""fullscreenenter"",""0"",""3620""
","
","
","""event"",""trial"",""time""
""fullscreenenter"",""0"",""3620""
","
","null","<p></p>","null","","","","","","","","","","","","","","","","","","","","","","","",""
"","break","178","477823","0.0-98.0-0.0","""event"",""trial"",""time""
""fullscreenenter"",""0"",""3620""
","
","
","""event"",""trial"",""time""
""fullscreenenter"",""0"",""3620""
","
","856.7999999998137","<div class='center'><p>Time to take a quick break! You have 2 minutes to rest, but you can move on sooner if you'd like.</p><p> Press the <b>space bar</b> to continue.</p></div>","32","","","","","","","","","","","","","","","","","","","","","","","",""
"","do_trial","179","481496","0.0-98.0-1.0","""event"",""trial"",""time""
""fullscreenenter"",""0"",""3620""
","
","
","""event"",""trial"",""time""
""fullscreenenter"",""0"",""3620""
","
","1135","","","","","","","","49","1,0,1","6","blank","309","null","0.39264105626065404","0.13692398789162816","0.6079640807845437","1","","","","","","","","",""
"","html-keyboard-response","180","482499","0.0-98.0-2.0","""event"",""trial"",""time""
""fullscreenenter"",""0"",""3620""
","
","
","""event"",""trial"",""time""
""fullscreenenter"",""0"",""3620""
","
","null","<p></p>","null","","","","","","","","","","","","","","","","","","","","","","","",""
"","do_recog","181","485532","0.0-99.0-0.0","""event"",""trial"",""time""
""fullscreenenter"",""0"",""3620""
","
","
","""event"",""trial"",""time""
""fullscreenenter"",""0"",""3620""
","
","1513.1000000005588","","","","","","","","56","","","","310","probe-223","","","","","1","[object Object]","114","2","0","","","",""
"","html-keyboard-response","182","486547","0.0-99.0-1.0","""event"",""trial"",""time""
""fullscreenenter"",""0"",""3620""
","
","
","""event"",""trial"",""time""
""fullscreenenter"",""0"",""3620""
","
","null","<p></p>","null","","","","","","","","","","","","","","","","","","","","","","","",""
"","do_trial","183","490228","0.0-100.0-0.0","""event"",""trial"",""time""
""fullscreenenter"",""0"",""3620""
","
","
","""event"",""trial"",""time""
""fullscreenenter"",""0"",""3620""
","
","1135.0999999996275","","","","","","","","49","1,0,1","6","blank","311","null","0.22707640041444493","0.13231790923874256","0.7007302478890081","1","","","","","","","","",""
"","html-keyboard-response","184","491243","0.0-100.0-1.0","""event"",""trial"",""time""
""fullscreenenter"",""0"",""3620""
","
","
","""event"",""trial"",""time""
""fullscreenenter"",""0"",""3620""
","
","null","<p></p>","null","","","","","","","","","","","","","","","","","","","","","","","",""
"","do_trial","185","494274","0.0-101.0-0.0","""event"",""trial"",""time""
""fullscreenenter"",""0"",""3620""
","
","
","""event"",""trial"",""time""
""fullscreenenter"",""0"",""3620""
","
","488.79999999981374","","","","","","","","49","0,0,1","6","blank","312","null","0.23695136798071764","0.09974483839416846","0.6109277487385019","0","","","","","","","","",""
"","html-keyboard-response","186","495288","0.0-101.0-1.0","""event"",""trial"",""time""
""fullscreenenter"",""0"",""3620""
","
","
","""event"",""trial"",""time""
""fullscreenenter"",""0"",""3620""
","
","null","<p></p>","null","","","","","","","","","","","","","","","","","","","","","","","",""
"","do_trial","187","498211","0.0-102.0-0.0","""event"",""trial"",""time""
""fullscreenenter"",""0"",""3620""
","
","
","""event"",""trial"",""time""
""fullscreenenter"",""0"",""3620""
","
","386","","","","","","","","49","0,0,1","6","blank","313","null","0.200971593789651","0.14700435822698857","0.530771759289081","0","","","","","","","","",""
"","html-keyboard-response","188","499214","0.0-102.0-1.0","""event"",""trial"",""time""
""fullscreenenter"",""0"",""3620""
","
","
","""event"",""trial"",""time""
""fullscreenenter"",""0"",""3620""
","
","null","<p></p>","null","","","","","","","","","","","","","","","","","","","","","","","",""
"","do_trial","189","502110","0.0-103.0-0.0","""event"",""trial"",""time""
""fullscreenenter"",""0"",""3620""
","
","
","""event"",""trial"",""time""
""fullscreenenter"",""0"",""3620""
","
","356.29999999981374","","","","","","","","49","0,0,1","6","blank","314","null","0.2726581476814002","0.1296914938771884","0.5089467688645084","0","","","","","","","","",""
"","html-keyboard-response","190","503111","0.0-103.0-1.0","""event"",""trial"",""time""
""fullscreenenter"",""0"",""3620""
","
","
","""event"",""trial"",""time""
""fullscreenenter"",""0"",""3620""
","
","null","<p></p>","null","","","","","","","","","","","","","","","","","","","","","","","",""
"","do_trial","191","505942","0.0-104.0-0.0","""event"",""trial"",""time""
""fullscreenenter"",""0"",""3620""
","
","
","""event"",""trial"",""time""
""fullscreenenter"",""0"",""3620""
","
","286.29999999981374","","","","","","","","50","1,0,1","6","blank","315","null","0.26330486237690354","0.07320469332481384","0.510525162036627","0","","","","","","","","",""
"","html-keyboard-response","192","506944","0.0-104.0-1.0","""event"",""trial"",""time""
""fullscreenenter"",""0"",""3620""
","
","
","""event"",""trial"",""time""
""fullscreenenter"",""0"",""3620""
","
","null","<p></p>","null","","","","","","","","","","","","","","","","","","","","","","","",""
"","do_trial","193","509780","0.0-105.0-0.0","""event"",""trial"",""time""
""fullscreenenter"",""0"",""3620""
","
","
","""event"",""trial"",""time""
""fullscreenenter"",""0"",""3620""
","
","293.79999999981374","","","","","","","","51","1,0,1","6","blank","316","null","0.2343947473740817","0.06333684429543848","0.6060703664000049","1","","","","","","","","",""
"","html-keyboard-response","194","510796","0.0-105.0-1.0","""event"",""trial"",""time""
""fullscreenenter"",""0"",""3620""
","
","
","""event"",""trial"",""time""
""fullscreenenter"",""0"",""3620""
","
","null","<p></p>","null","","","","","","","","","","","","","","","","","","","","","","","",""
"","do_trial","195","513599","0.0-106.0-0.0","""event"",""trial"",""time""
""fullscreenenter"",""0"",""3620""
","
","
","""event"",""trial"",""time""
""fullscreenenter"",""0"",""3620""
","
","263","","","","","","","","51","0,0,0","6","blank","317","null","0.18094472018760285","0.21078941123292844","0.5618646658897998","0","","","","","","","","",""
"","html-keyboard-response","196","514616","0.0-106.0-1.0","""event"",""trial"",""time""
""fullscreenenter"",""0"",""3620""
","
","
","""event"",""trial"",""time""
""fullscreenenter"",""0"",""3620""
","
","null","<p></p>","null","","","","","","","","","","","","","","","","","","","","","","","",""
"","do_recog","197","517310","0.0-107.0-0.0","""event"",""trial"",""time""
""fullscreenenter"",""0"",""3620""
","
","
","""event"",""trial"",""time""
""fullscreenenter"",""0"",""3620""
","
","1185.9000000003725","","","","","","","","53","","","","318","probe-102","","","","","1","[object Object]","154","3","1","","","",""
"","html-keyboard-response","198","518312","0.0-107.0-1.0","""event"",""trial"",""time""
""fullscreenenter"",""0"",""3620""
","
","
","""event"",""trial"",""time""
""fullscreenenter"",""0"",""3620""
","
","null","<p></p>","null","","","","","","","","","","","","","","","","","","","","","","","",""
"","do_trial","199","521667","0.0-108.0-0.0","""event"",""trial"",""time""
""fullscreenenter"",""0"",""3620""
","
","
","""event"",""trial"",""time""
""fullscreenenter"",""0"",""3620""
","
","813.2999999998137","","","","","","","","51","0,0,0","6","blank","319","null","0.2011629622594776","0.1695530884494373","0.677733525686323","0","","","","","","","","",""
"","html-keyboard-response","200","522682","0.0-108.0-1.0","""event"",""trial"",""time""
""fullscreenenter"",""0"",""3620""
","
","
","""event"",""trial"",""time""
""fullscreenenter"",""0"",""3620""
","
","null","<p></p>","null","","","","","","","","","","","","","","","","","","","","","","","",""
"","do_trial","201","525792","0.0-109.0-0.0","""event"",""trial"",""time""
""fullscreenenter"",""0"",""3620""
","
","
","""event"",""trial"",""time""
""fullscreenenter"",""0"",""3620""
","
","568.3999999994412","","","","","","","","49","0,0,1","6","blank","320","null","0.09621563922136202","0.18659465713729478","0.6596648175549966","0","","","","","","","","",""
"","html-keyboard-response","202","526793","0.0-109.0-1.0","""event"",""trial"",""time""
""fullscreenenter"",""0"",""3620""
","
","
","""event"",""trial"",""time""
""fullscreenenter"",""0"",""3620""
","
","null","<p></p>","null","","","","","","","","","","","","","","","","","","","","","","","",""
"","do_trial","203","529646","0.0-110.0-0.0","""event"",""trial"",""time""
""fullscreenenter"",""0"",""3620""
","
","
","""event"",""trial"",""time""
""fullscreenenter"",""0"",""3620""
","
","315.79999999981374","","","","","","","","51","0,1,0","6","blank","321","null","0.2666102167985931","0.21718495286764558","0.6913448884699288","0","","","","","","","","",""
"","html-keyboard-response","204","530662","0.0-110.0-1.0","""event"",""trial"",""time""
""fullscreenenter"",""0"",""3620""
","
","
","""event"",""trial"",""time""
""fullscreenenter"",""0"",""3620""
","
","null","<p></p>","null","","","","","","","","","","","","","","","","","","","","","","","",""
"","do_trial","205","533481","0.0-111.0-0.0","""event"",""trial"",""time""
""fullscreenenter"",""0"",""3620""
","
","
","""event"",""trial"",""time""
""fullscreenenter"",""0"",""3620""
","
","275.70000000018626","","","","","","","","51","1,0,1","6","blank","322","null","0.2016363384585057","0.23997831072075093","0.6839178930477209","1","","","","","","","","",""
"","html-keyboard-response","206","534482","0.0-111.0-1.0","""event"",""trial"",""time""
""fullscreenenter"",""0"",""3620""
","
","
","""event"",""trial"",""time""
""fullscreenenter"",""0"",""3620""
","
","null","<p></p>","null","","","","","","","","","","","","","","","","","","","","","","","",""
"","do_trial","207","537407","0.0-112.0-0.0","""event"",""trial"",""time""
""fullscreenenter"",""0"",""3620""
","
","
","""event"",""trial"",""time""
""fullscreenenter"",""0"",""3620""
","
","388","","","","","","","","51","0,1,1","6","blank","323","null","0.2235661771739487","0.19566974008152144","0.7077983130137685","1","","","","","","","","",""
"","html-keyboard-response","208","538423","0.0-112.0-1.0","""event"",""trial"",""time""
""fullscreenenter"",""0"",""3620""
","
","
","""event"",""trial"",""time""
""fullscreenenter"",""0"",""3620""
","
","null","<p></p>","null","","","","","","","","","","","","","","","","","","","","","","","",""
"","do_trial","209","541206","0.0-113.0-0.0","""event"",""trial"",""time""
""fullscreenenter"",""0"",""3620""
","
","
","""event"",""trial"",""time""
""fullscreenenter"",""0"",""3620""
","
","242.8999999994412","","","","","","","","51","0,0,1","6","blank","324","null","0.19212024869046945","0.14727592185793398","0.6856859010897333","1","","","","","","","","",""
"","html-keyboard-response","210","542207","0.0-113.0-1.0","""event"",""trial"",""time""
""fullscreenenter"",""0"",""3620""
","
","
","""event"",""trial"",""time""
""fullscreenenter"",""0"",""3620""
","
","null","<p></p>","null","","","","","","","","","","","","","","","","","","","","","","","",""
"","do_trial","211","545027","0.0-114.0-0.0","""event"",""trial"",""time""
""fullscreenenter"",""0"",""3620""
","
","
","""event"",""trial"",""time""
""fullscreenenter"",""0"",""3620""
","
","284.20000000018626","","","","","","","","51","0,0,0","6","blank","325","null","0.26544594458959286","0.07006943451486591","0.6178500539485486","0","","","","","","","","",""
"","html-keyboard-response","212","546029","0.0-114.0-1.0","""event"",""trial"",""time""
""fullscreenenter"",""0"",""3620""
","
","
","""event"",""trial"",""time""
""fullscreenenter"",""0"",""3620""
","
","null","<p></p>","null","","","","","","","","","","","","","","","","","","","","","","","",""
"","do_recog","213","548937","0.0-115.0-0.0","""event"",""trial"",""time""
""fullscreenenter"",""0"",""3620""
","
","
","""event"",""trial"",""time""
""fullscreenenter"",""0"",""3620""
","
","1403.5999999996275","","","","","","","","53","","","","326","probe-163","","","","","1","[object Object]","32","0","1","","","",""
"","html-keyboard-response","214","549938","0.0-115.0-1.0","""event"",""trial"",""time""
""fullscreenenter"",""0"",""3620""
","
","
","""event"",""trial"",""time""
""fullscreenenter"",""0"",""3620""
","
","null","<p></p>","null","","","","","","","","","","","","","","","","","","","","","","","",""
"","do_trial","215","552926","0.0-116.0-0.0","""event"",""trial"",""time""
""fullscreenenter"",""0"",""3620""
","
","
","""event"",""trial"",""time""
""fullscreenenter"",""0"",""3620""
","
","450.70000000018626","","","","","","","","51","1,0,1","6","blank","327","null","0.2085377672110081","0.06074961425902149","0.6420128404253512","1","","","","","","","","",""
"","html-keyboard-response","216","553927","0.0-116.0-1.0","""event"",""trial"",""time""
""fullscreenenter"",""0"",""3620""
","
","
","""event"",""trial"",""time""
""fullscreenenter"",""0"",""3620""
","
","null","<p></p>","null","","","","","","","","","","","","","","","","","","","","","","","",""
"","do_recog","217","556607","0.0-117.0-0.0","""event"",""trial"",""time""
""fullscreenenter"",""0"",""3620""
","
","
","""event"",""trial"",""time""
""fullscreenenter"",""0"",""3620""
","
","1166.8999999994412","","","","","","","","53","","","","328","probe-25","","","","","1","[object Object]","74","1","1","","","",""
"","html-keyboard-response","218","557609","0.0-117.0-1.0","""event"",""trial"",""time""
""fullscreenenter"",""0"",""3620""
","
","
","""event"",""trial"",""time""
""fullscreenenter"",""0"",""3620""
","
","null","<p></p>","null","","","","","","","","","","","","","","","","","","","","","","","",""
"","do_trial","219","560904","0.0-118.0-0.0","""event"",""trial"",""time""
""fullscreenenter"",""0"",""3620""
","
","
","""event"",""trial"",""time""
""fullscreenenter"",""0"",""3620""
","
","753.9000000003725","","","","","","","","51","0,1,1","6","blank","329","null","0.2806844773909081","0.22489328696408478","0.623829381920629","1","","","","","","","","",""
"","html-keyboard-response","220","561919","0.0-118.0-1.0","""event"",""trial"",""time""
""fullscreenenter"",""0"",""3620""
","
","
","""event"",""trial"",""time""
""fullscreenenter"",""0"",""3620""
","
","null","<p></p>","null","","","","","","","","","","","","","","","","","","","","","","","",""
"","do_recog","221","565137","0.0-119.0-0.0","""event"",""trial"",""time""
""fullscreenenter"",""0"",""3620""
","
","
","""event"",""trial"",""time""
""fullscreenenter"",""0"",""3620""
","
","1706.3999999994412","","","","","","","","56","","","","330","probe-34","","","","","1","[object Object]","196","4","0","","","",""
"","html-keyboard-response","222","566140","0.0-119.0-1.0","""event"",""trial"",""time""
""fullscreenenter"",""0"",""3620""
","
","
","""event"",""trial"",""time""
""fullscreenenter"",""0"",""3620""
","
","null","<p></p>","null","","","","","","","","","","","","","","","","","","","","","","","",""
"","do_trial","223","569941","0.0-120.0-0.0","""event"",""trial"",""time""
""fullscreenenter"",""0"",""3620""
","
","
","""event"",""trial"",""time""
""fullscreenenter"",""0"",""3620""
","
","1256.9000000003725","","","","","","","","51","0,0,1","6","blank","331","null","0.26508586523086847","0.054515819819802885","0.5761321964929195","1","","","","","","","","",""
"","html-keyboard-response","224","570943","0.0-120.0-1.0","""event"",""trial"",""time""
""fullscreenenter"",""0"",""3620""
","
","
","""event"",""trial"",""time""
""fullscreenenter"",""0"",""3620""
","
","null","<p></p>","null","","","","","","","","","","","","","","","","","","","","","","","",""
"","do_trial","225","574395","0.0-121.0-0.0","""event"",""trial"",""time""
""fullscreenenter"",""0"",""3620""
","
","
","""event"",""trial"",""time""
""fullscreenenter"",""0"",""3620""
","
","914.7999999998137","","","","","","","","49","0,0,0","6","blank","332","null","0.30934429935505997","0.06935207426477306","0.43806401724945515","0","","","","","","","","",""
"","html-keyboard-response","226","575399","0.0-121.0-1.0","""event"",""trial"",""time""
""fullscreenenter"",""0"",""3620""
","
","
","""event"",""trial"",""time""
""fullscreenenter"",""0"",""3620""
","
","null","<p></p>","null","","","","","","","","","","","","","","","","","","","","","","","",""
"","do_trial","227","578326","0.0-122.0-0.0","""event"",""trial"",""time""
""fullscreenenter"",""0"",""3620""
","
","
","""event"",""trial"",""time""
""fullscreenenter"",""0"",""3620""
","
","387.29999999981374","","","","","","","","51","1,0,1","6","blank","333","null","0.224682099914177","0.07421740152050374","0.41248699081412726","1","","","","","","","","",""
"","html-keyboard-response","228","579328","0.0-122.0-1.0","""event"",""trial"",""time""
""fullscreenenter"",""0"",""3620""
","
","
","""event"",""trial"",""time""
""fullscreenenter"",""0"",""3620""
","
","null","<p></p>","null","","","","","","","","","","","","","","","","","","","","","","","",""
"","do_trial","229","583213","0.0-123.0-0.0","""event"",""trial"",""time""
""fullscreenenter"",""0"",""3620""
","
","
","""event"",""trial"",""time""
""fullscreenenter"",""0"",""3620""
","
","1350.699999999255","","","","","","","","51","1,0,1","6","blank","334","null","0.22931751299917605","0.1522365092534721","0.5839003719389425","1","","","","","","","","",""
"","html-keyboard-response","230","584215","0.0-123.0-1.0","""event"",""trial"",""time""
""fullscreenenter"",""0"",""3620""
","
","
","""event"",""trial"",""time""
""fullscreenenter"",""0"",""3620""
","
","null","<p></p>","null","","","","","","","","","","","","","","","","","","","","","","","",""
"","do_trial","231","587021","0.0-124.0-0.0","""event"",""trial"",""time""
""fullscreenenter"",""0"",""3620""
","
","
","""event"",""trial"",""time""
""fullscreenenter"",""0"",""3620""
","
","260.30000000074506","","","","","","","","51","0,1,1","6","blank","335","null","0.29606826336172515","0.33245462647572543","0.5247083170489931","1","","","","","","","","",""
"","html-keyboard-response","232","588037","0.0-124.0-1.0","""event"",""trial"",""time""
""fullscreenenter"",""0"",""3620""
","
","
","""event"",""trial"",""time""
""fullscreenenter"",""0"",""3620""
","
","null","<p></p>","null","","","","","","","","","","","","","","","","","","","","","","","",""
"","do_trial","233","590884","0.0-125.0-0.0","""event"",""trial"",""time""
""fullscreenenter"",""0"",""3620""
","
","
","""event"",""trial"",""time""
""fullscreenenter"",""0"",""3620""
","
","301.09999999962747","","","","","","","","51","1,0,1","6","blank","336","null","0.47905000059474745","0.27874223463887643","0.44143259994125844","1","","","","","","","","",""
"","html-keyboard-response","234","591887","0.0-125.0-1.0","""event"",""trial"",""time""
""fullscreenenter"",""0"",""3620""
","
","
","""event"",""trial"",""time""
""fullscreenenter"",""0"",""3620""
","
","null","<p></p>","null","","","","","","","","","","","","","","","","","","","","","","","",""
"","do_recog","235","594597","0.0-126.0-0.0","""event"",""trial"",""time""
""fullscreenenter"",""0"",""3620""
","
","
","""event"",""trial"",""time""
""fullscreenenter"",""0"",""3620""
","
","1194.5999999996275","","","","","","","","53","","","","337","probe-200","","","","","1","[object Object]","158","3","1","","","",""
"","html-keyboard-response","236","595611","0.0-126.0-1.0","""event"",""trial"",""time""
""fullscreenenter"",""0"",""3620""
","
","
","""event"",""trial"",""time""
""fullscreenenter"",""0"",""3620""
","
","null","<p></p>","null","","","","","","","","","","","","","","","","","","","","","","","",""
"","do_trial","237","598568","0.0-127.0-0.0","""event"",""trial"",""time""
""fullscreenenter"",""0"",""3620""
","
","
","""event"",""trial"",""time""
""fullscreenenter"",""0"",""3620""
","
","418.69999999925494","","","","","","","","51","0,0,1","6","blank","338","null","0.34738035239462167","0.18826110877476193","0.5218428615879176","1","","","","","","","","",""
"","html-keyboard-response","238","599570","0.0-127.0-1.0","""event"",""trial"",""time""
""fullscreenenter"",""0"",""3620""
","
","
","""event"",""trial"",""time""
""fullscreenenter"",""0"",""3620""
","
","null","<p></p>","null","","","","","","","","","","","","","","","","","","","","","","","",""
"","do_recog","239","602340","0.0-128.0-0.0","""event"",""trial"",""time""
""fullscreenenter"",""0"",""3620""
","
","
","""event"",""trial"",""time""
""fullscreenenter"",""0"",""3620""
","
","1254.7000000001863","","","","","","","","53","","","","339","probe-187","","","","","1","[object Object]","111","2","1","","","",""
"","html-keyboard-response","240","603356","0.0-128.0-1.0","""event"",""trial"",""time""
""fullscreenenter"",""0"",""3620""
","
","
","""event"",""trial"",""time""
""fullscreenenter"",""0"",""3620""
","
","null","<p></p>","null","","","","","","","","","","","","","","","","","","","","","","","",""
"","do_trial","241","606298","0.0-129.0-0.0","""event"",""trial"",""time""
""fullscreenenter"",""0"",""3620""
","
","
","""event"",""trial"",""time""
""fullscreenenter"",""0"",""3620""
","
","406.40000000037253","","","","","","","","51","0,0,1","6","blank","340","null","0.32225606173428534","0.1491782406692005","0.6846418906015422","1","","","","","","","","",""
"","html-keyboard-response","242","607300","0.0-129.0-1.0","""event"",""trial"",""time""
""fullscreenenter"",""0"",""3620""
","
","
","""event"",""trial"",""time""
""fullscreenenter"",""0"",""3620""
","
","null","<p></p>","null","","","","","","","","","","","","","","","","","","","","","","","",""
"","do_trial","243","610303","0.0-130.0-0.0","""event"",""trial"",""time""
""fullscreenenter"",""0"",""3620""
","
","
","""event"",""trial"",""time""
""fullscreenenter"",""0"",""3620""
","
","460.09999999962747","","","","","","","","51","1,1,1","6","blank","341","null","0.35788037764431685","0.1672680811233333","0.7463378514098055","1","","","","","","","","",""
"","html-keyboard-response","244","611304","0.0-130.0-1.0","""event"",""trial"",""time""
""fullscreenenter"",""0"",""3620""
","
","
","""event"",""trial"",""time""
""fullscreenenter"",""0"",""3620""
","
","null","<p></p>","null","","","","","","","","","","","","","","","","","","","","","","","",""
"","do_trial","245","614201","0.0-131.0-0.0","""event"",""trial"",""time""
""fullscreenenter"",""0"",""3620""
","
","
","""event"",""trial"",""time""
""fullscreenenter"",""0"",""3620""
","
","353.5","","","","","","","","51","0,0,1","6","blank","342","null","0.30652846200348705","0.08601441344825185","0.8772128769959971","1","","","","","","","","",""
"","html-keyboard-response","246","615216","0.0-131.0-1.0","""event"",""trial"",""time""
""fullscreenenter"",""0"",""3620""
","
","
","""event"",""trial"",""time""
""fullscreenenter"",""0"",""3620""
","
","null","<p></p>","null","","","","","","","","","","","","","","","","","","","","","","","",""
"","do_recog","247","617804","0.0-132.0-0.0","""event"",""trial"",""time""
""fullscreenenter"",""0"",""3620""
","
","
","""event"",""trial"",""time""
""fullscreenenter"",""0"",""3620""
","
","1080.0999999996275","","","","","","","","56","","","","343","probe-150","","","","","1","[object Object]","36","0","0","","","",""
"","html-keyboard-response","248","618807","0.0-132.0-1.0","""event"",""trial"",""time""
""fullscreenenter"",""0"",""3620""
","
","
","""event"",""trial"",""time""
""fullscreenenter"",""0"",""3620""
","
","null","<p></p>","null","","","","","","","","","","","","","","","","","","","","","","","",""
"","do_trial","249","621816","0.0-133.0-0.0","""event"",""trial"",""time""
""fullscreenenter"",""0"",""3620""
","
","
","""event"",""trial"",""time""
""fullscreenenter"",""0"",""3620""
","
","473.69999999925494","","","","","","","","51","0,0,1","6","blank","344","null","0.3471845814567663","0.13049938608425077","0.800287425324091","1","","","","","","","","",""
"","html-keyboard-response","250","622832","0.0-133.0-1.0","""event"",""trial"",""time""
""fullscreenenter"",""0"",""3620""
","
","
","""event"",""trial"",""time""
""fullscreenenter"",""0"",""3620""
","
","null","<p></p>","null","","","","","","","","","","","","","","","","","","","","","","","",""
"","do_trial","251","626000","0.0-134.0-0.0","""event"",""trial"",""time""
""fullscreenenter"",""0"",""3620""
","
","
","""event"",""trial"",""time""
""fullscreenenter"",""0"",""3620""
","
","630.3999999994412","","","","","","","","51","0,0,1","6","blank","345","null","0.2265198380569426","0.14603427796615823","0.756080874011856","1","","","","","","","","",""
"","html-keyboard-response","252","627002","0.0-134.0-1.0","""event"",""trial"",""time""
""fullscreenenter"",""0"",""3620""
","
","
","""event"",""trial"",""time""
""fullscreenenter"",""0"",""3620""
","
","null","<p></p>","null","","","","","","","","","","","","","","","","","","","","","","","",""
"","do_trial","253","629866","0.0-135.0-0.0","""event"",""trial"",""time""
""fullscreenenter"",""0"",""3620""
","
","
","""event"",""trial"",""time""
""fullscreenenter"",""0"",""3620""
","
","321.5","","","","","","","","51","0,0,0","6","blank","346","null","0.19034531596299453","0.09662955768170343","0.550623828128178","0","","","","","","","","",""
"","html-keyboard-response","254","630882","0.0-135.0-1.0","""event"",""trial"",""time""
""fullscreenenter"",""0"",""3620""
","
","
","""event"",""trial"",""time""
""fullscreenenter"",""0"",""3620""
","
","null","<p></p>","null","","","","","","","","","","","","","","","","","","","","","","","",""
"","do_recog","255","633793","0.0-136.0-0.0","""event"",""trial"",""time""
""fullscreenenter"",""0"",""3620""
","
","
","""event"",""trial"",""time""
""fullscreenenter"",""0"",""3620""
","
","1396.1000000005588","","","","","","","","53","","","","347","probe-231","","","","","0","[object Object]","null","null","0","","","",""
"","html-keyboard-response","256","634808","0.0-136.0-1.0","""event"",""trial"",""time""
""fullscreenenter"",""0"",""3620""
","
","
","""event"",""trial"",""time""
""fullscreenenter"",""0"",""3620""
","
","null","<p></p>","null","","","","","","","","","","","","","","","","","","","","","","","",""
"","do_trial","257","638616","0.0-137.0-0.0","""event"",""trial"",""time""
""fullscreenenter"",""0"",""3620""
","
","
","""event"",""trial"",""time""
""fullscreenenter"",""0"",""3620""
","
","1269.699999999255","","","","","","","","51","0,1,0","6","blank","348","null","0.08764375380961312","0.1779784512441242","0.6937474243979732","0","","","","","","","","",""
"","html-keyboard-response","258","639630","0.0-137.0-1.0","""event"",""trial"",""time""
""fullscreenenter"",""0"",""3620""
","
","
","""event"",""trial"",""time""
""fullscreenenter"",""0"",""3620""
","
","null","<p></p>","null","","","","","","","","","","","","","","","","","","","","","","","",""
"","break","259","640699","0.0-138.0-0.0","""event"",""trial"",""time""
""fullscreenenter"",""0"",""3620""
","
","
","""event"",""trial"",""time""
""fullscreenenter"",""0"",""3620""
","
","1068.5","<div class='center'><p>Time to take a quick break! You have 2 minutes to rest, but you can move on sooner if you'd like.</p><p> Press the <b>space bar</b> to continue.</p></div>","32","","","","","","","","","","","","","","","","","","","","","","","",""
"","do_trial","260","644639","0.0-138.0-1.0","""event"",""trial"",""time""
""fullscreenenter"",""0"",""3620""
","
","
","""event"",""trial"",""time""
""fullscreenenter"",""0"",""3620""
","
","1407.2999999998137","","","","","","","","51","0,0,1","6","blank","349","null","0.07308061646209202","0.268140428987352","0.6378330351834456","1","","","","","","","","",""
"","html-keyboard-response","261","645654","0.0-138.0-2.0","""event"",""trial"",""time""
""fullscreenenter"",""0"",""3620""
","
","
","""event"",""trial"",""time""
""fullscreenenter"",""0"",""3620""
","
","null","<p></p>","null","","","","","","","","","","","","","","","","","","","","","","","",""
"","do_trial","262","648505","0.0-139.0-0.0","""event"",""trial"",""time""
""fullscreenenter"",""0"",""3620""
","
","
","""event"",""trial"",""time""
""fullscreenenter"",""0"",""3620""
","
","306.5","","","","","","","","51","0,0,1","6","blank","350","null","0.05633038966663805","0.40342882552085313","0.46754414524953747","1","","","","","","","","",""
"","html-keyboard-response","263","649520","0.0-139.0-1.0","""event"",""trial"",""time""
""fullscreenenter"",""0"",""3620""
","
","
","""event"",""trial"",""time""
""fullscreenenter"",""0"",""3620""
","
","null","<p></p>","null","","","","","","","","","","","","","","","","","","","","","","","",""
"","do_recog","264","652369","0.0-140.0-0.0","""event"",""trial"",""time""
""fullscreenenter"",""0"",""3620""
","
","
","""event"",""trial"",""time""
""fullscreenenter"",""0"",""3620""
","
","1332.4000000003725","","","","","","","","53","","","","351","probe-250","","","","","0","[object Object]","null","null","0","","","",""
"","html-keyboard-response","265","653385","0.0-140.0-1.0","""event"",""trial"",""time""
""fullscreenenter"",""0"",""3620""
","
","
","""event"",""trial"",""time""
""fullscreenenter"",""0"",""3620""
","
","null","<p></p>","null","","","","","","","","","","","","","","","","","","","","","","","",""
"","do_trial","266","656495","0.0-141.0-0.0","""event"",""trial"",""time""
""fullscreenenter"",""0"",""3620""
","
","
","""event"",""trial"",""time""
""fullscreenenter"",""0"",""3620""
","
","574","","","","","","","","51","0,0,0","6","blank","352","null","0.16135459750289102","0.5706107649883156","0.44865209193394573","0","","","","","","","","",""
"","html-keyboard-response","267","657510","0.0-141.0-1.0","""event"",""trial"",""time""
""fullscreenenter"",""0"",""3620""
","
","
","""event"",""trial"",""time""
""fullscreenenter"",""0"",""3620""
","
","null","<p></p>","null","","","","","","","","","","","","","","","","","","","","","","","",""
"","do_recog","268","661023","0.0-142.0-0.0","""event"",""trial"",""time""
""fullscreenenter"",""0"",""3620""
","
","
","""event"",""trial"",""time""
""fullscreenenter"",""0"",""3620""
","
","1993.7999999998137","","","","","","","","53","","","","353","probe-61","","","","","1","[object Object]","37","0","1","","","",""
"","html-keyboard-response","269","662024","0.0-142.0-1.0","""event"",""trial"",""time""
""fullscreenenter"",""0"",""3620""
","
","
","""event"",""trial"",""time""
""fullscreenenter"",""0"",""3620""
","
","null","<p></p>","null","","","","","","","","","","","","","","","","","","","","","","","",""
"","do_trial","270","664996","0.0-143.0-0.0","""event"",""trial"",""time""
""fullscreenenter"",""0"",""3620""
","
","
","""event"",""trial"",""time""
""fullscreenenter"",""0"",""3620""
","
","436.09999999962747","","","","","","","","51","0,0,1","6","blank","354","null","0.1489394837704005","0.8084298897632652","0.525757457903851","1","","","","","","","","",""
"","html-keyboard-response","271","665997","0.0-143.0-1.0","""event"",""trial"",""time""
""fullscreenenter"",""0"",""3620""
","
","
","""event"",""trial"",""time""
""fullscreenenter"",""0"",""3620""
","
","null","<p></p>","null","","","","","","","","","","","","","","","","","","","","","","","",""
"","do_trial","272","668957","0.0-144.0-0.0","""event"",""trial"",""time""
""fullscreenenter"",""0"",""3620""
","
","
","""event"",""trial"",""time""
""fullscreenenter"",""0"",""3620""
","
","428","","","","","","","","51","0,1,0","6","blank","355","null","0.051243203234909544","0.7775772251241838","0.3829695700115785","0","","","","","","","","",""
"","html-keyboard-response","273","669959","0.0-144.0-1.0","""event"",""trial"",""time""
""fullscreenenter"",""0"",""3620""
","
","
","""event"",""trial"",""time""
""fullscreenenter"",""0"",""3620""
","
","null","<p></p>","null","","","","","","","","","","","","","","","","","","","","","","","",""
"","do_trial","274","672825","0.0-145.0-0.0","""event"",""trial"",""time""
""fullscreenenter"",""0"",""3620""
","
","
","""event"",""trial"",""time""
""fullscreenenter"",""0"",""3620""
","
","331.09999999962747","","","","","","","","51","0,1,0","6","blank","356","null","0.07191638712666361","0.6987444819383655","0.26565201145068257","0","","","","","","","","",""
"","html-keyboard-response","275","673828","0.0-145.0-1.0","""event"",""trial"",""time""
""fullscreenenter"",""0"",""3620""
","
","
","""event"",""trial"",""time""
""fullscreenenter"",""0"",""3620""
","
","null","<p></p>","null","","","","","","","","","","","","","","","","","","","","","","","",""
"","do_trial","276","676572","0.0-146.0-0.0","""event"",""trial"",""time""
""fullscreenenter"",""0"",""3620""
","
","
","""event"",""trial"",""time""
""fullscreenenter"",""0"",""3620""
","
","200.70000000018626","","","","","","","","51","0,0,1","6","blank","357","null","0.0980900911606748","0.6245817498275589","0.3315463791143792","1","","","","","","","","",""
