"success","trial_type","trial_index","time_elapsed","internal_node_id","interactions","blur_events","focus_events","fullscreenenter_events","fullscreenexit_events","rt","stimulus","key_press","subject_id","participant_id","age","gender","prompt","response","choice_outcomes","context_n","context_img_id","trial_n","probe_img_id","pR_red","pR_white","pR_black","outcome","is_valid","image_to_show","probed_trial","probed_context","correct","probe","probed_trial_n","probed_context_n","context_im"
"true","fullscreen","0","4120","0.0-0.0","""event"",""trial"",""time""
""fullscreenenter"",""0"",""3126""
","
","
","""event"",""trial"",""time""
""fullscreenenter"",""0"",""3126""
","
","","","","","","","","","","","","","","","","","","","","","","","","","","",""
"","pavlovia","1","4124","0.0-1.0","""event"",""trial"",""time""
""fullscreenenter"",""0"",""3126""
","
","
","""event"",""trial"",""time""
""fullscreenenter"",""0"",""3126""
","
","","","","","","","","","","","","","","","","","","","","","","","","","","",""
"","welc_back","2","13981","0.0-2.0","""event"",""trial"",""time""
""fullscreenenter"",""0"",""3126""
","
","
","""event"",""trial"",""time""
""fullscreenenter"",""0"",""3126""
","
","null","run_exp/static/audio/clip_29_welcome_back.m4a","null","545","592","22","Male","<div class='center'><p>Welcome to day 2!</p><p> Yesterday, you were the head captain of a pirate ship. You asked your fellow pirates to rob other ships of their gold across six different islands.</p></div>","","","","","","","","","","","","","","","","","","",""
"","html-keyboard-response","3","15299","0.0-3.0","""event"",""trial"",""time""
""fullscreenenter"",""0"",""3126""
","
","
","""event"",""trial"",""time""
""fullscreenenter"",""0"",""3126""
","
","1316.3000000002794","<div class='center'><p>Welcome to day 2!</p><p> Yesterday, you were the head captain of a pirate ship. You asked your fellow pirates to rob other ships of their gold across six different islands.</p><p><b>[Press the space bar to continue]</b></p></div>","32","","","","","","","","","","","","","","","","","","","","","","","",""
"","day_1_summary_goal","4","32498","0.0-4.0","""event"",""trial"",""time""
""fullscreenenter"",""0"",""3126""
","
","
","""event"",""trial"",""time""
""fullscreenenter"",""0"",""3126""
","
","null","run_exp/static/audio/clip_30_goal_of_game.m4a","null","","","","","<div class='center'><p>Today, like yesterday, you get to pick which pirate you want to rob the next ship.</p><p>If the pirate is successful in robbing a ship, you get gold coins that look like this: </p><p><img src='run_exp/static/images/tutorial/reward.png' height='150'></p><p> If they were not successful in robbing the ship, then you will get no gold coins and you'll see a big red x like this: </p><p><img src='run_exp/static/images/tutorial/reward_no.png' height='150'></p></div>","","","","","","","","","","","","","","","","","","",""
"","html-keyboard-response","5","33431","0.0-5.0","""event"",""trial"",""time""
""fullscreenenter"",""0"",""3126""
","
","
","""event"",""trial"",""time""
""fullscreenenter"",""0"",""3126""
","
","931.3999999999069","<div class='center'><p>Today, like yesterday, you get to pick which pirate you want to rob the next ship.</p><p>If the pirate is successful in robbing a ship, you get gold coins that look like this: </p><p><img src='run_exp/static/images/tutorial/reward.png' height='150'></p><p> If they were not successful in robbing the ship, then you will get no gold coins and you'll see a big red x like this: </p><p><img src='run_exp/static/images/tutorial/reward_no.png' height='150'></p><p><b>[Press the space bar to continue]</b></p></div>","32","","","","","","","","","","","","","","","","","","","","","","","",""
"","day_1_summary_pick","6","48114","0.0-6.0","""event"",""trial"",""time""
""fullscreenenter"",""0"",""3126""
","
","
","""event"",""trial"",""time""
""fullscreenenter"",""0"",""3126""
","
","null","run_exp/static/audio/clip_31_how_to_pick_a_pirate.m4a","null","","","","","<div class='center'><p>Also, just like yesterday, you will use the 1,2,3 keys on your keyboard to pick a pirate. Press '1' to choose red beard, '2' to choose white beard, and '3' to choose black beard . You only have 3 seconds to pick a pirate, so please make a choice quickly!</p></div>","","","","","","","","","","","","","","","","","","",""
"","html-keyboard-response","7","49971","0.0-7.0","""event"",""trial"",""time""
""fullscreenenter"",""0"",""3126""
","
","
","""event"",""trial"",""time""
""fullscreenenter"",""0"",""3126""
","
","1856.1000000000931","<div class='center'><p>Also, just like yesterday, you will use the 1,2,3 keys on your keyboard to pick a pirate. Press '1' to choose red beard, '2' to choose white beard, and '3' to choose black beard . You only have 3 seconds to pick a pirate, so please make a choice quickly!</p><p><b>[Press the space bar to continue]</b></p></div>","32","","","","","","","","","","","","","","","","","","","","","","","",""
"","test_phase_begin","8","80349","0.0-8.0","""event"",""trial"",""time""
""fullscreenenter"",""0"",""3126""
","
","
","""event"",""trial"",""time""
""fullscreenenter"",""0"",""3126""
","
","null","run_exp/static/audio/clip_32_final_place.m4a","null","","","","","<div class='center'><p>You’ve arrived at the final island of your journey! Unfortunately, it’s very foggy out, so you won’t be able to see it in the distance like the other islands you've visited.</p><p>You’ll still be deciding which pirate you want to rob a ship like before. However, because of the fog, you also won’t be able to see the ship.</p><p>This means you do not have to remember the ships you rob on this island.</p><p>Unlike yesterday, you won't be visiting multiple islands today. You will stay on this island for the entire game. This game will last ~30 minutes.</p></div>","","","","","","","","","","","","","","","","","","",""
"","html-keyboard-response","9","84229","0.0-9.0","""event"",""trial"",""time""
""fullscreenenter"",""0"",""3126""
","
","
","""event"",""trial"",""time""
""fullscreenenter"",""0"",""3126""
","
","3879.1999999997206","<div class='center'><p>You’ve arrived at the final island of your journey! Unfortunately, it’s very foggy out, so you won’t be able to see it in the distance like the other islands you've visited.</p><p>You’ll still be deciding which pirate you want to rob a ship like before. However, because of the fog, you also won’t be able to see the ship.</p><p>This means you do not have to remember the ships you rob on this island.</p><p>Unlike yesterday, you won't be visiting multiple islands today. You will stay on this island for the entire game. This game will last ~30 minutes.</p><p><b>[Press the space bar to continue]</b></p></div>","32","","","","","","","","","","","","","","","","","","","","","","","",""
"","explain_probe_1","10","91933","0.0-10.0","""event"",""trial"",""time""
""fullscreenenter"",""0"",""3126""
","
","
","""event"",""trial"",""time""
""fullscreenenter"",""0"",""3126""
","
","null","run_exp/static/audio/clip_33_recognition_1.m4a","null","","","","","<div class='center'><p> Sometimes you’ll be shown a ship, and you will be asked if you saw this ship on a past island.</p><p> Here is an example of what you will see.</p><p><img src='run_exp/static/images/tutorial/example_recog_trial.png' height='500'></p></div>","","","","","","","","","","","","","","","","","","",""
"","html-keyboard-response","11","94222","0.0-11.0","""event"",""trial"",""time""
""fullscreenenter"",""0"",""3126""
","
","
","""event"",""trial"",""time""
""fullscreenenter"",""0"",""3126""
","
","2287.6999999997206","<div class='center'><p> Sometimes you’ll be shown a ship, and you will be asked if you saw this ship on a past island.</p><p> Here is an example of what you will see.</p><p><img src='run_exp/static/images/tutorial/example_recog_trial.png' height='500'></p><p><b>[Press the space bar to continue]</b></p></div>","32","","","","","","","","","","","","","","","","","","","","","","","",""
"","explain_probe_2","12","115912","0.0-12.0","""event"",""trial"",""time""
""fullscreenenter"",""0"",""3126""
","
","
","""event"",""trial"",""time""
""fullscreenenter"",""0"",""3126""
","
","null","run_exp/static/audio/clip_34_recognition_2.m4a","null","","","","","<div class='center'><p> You will press the 5, 6, 7, 8 keys on your keyboard to respond.</p><p>If you are sure you saw the ship, press <b>5</b> on your keyboard.</p><p> If you think you saw it before but aren't sure, then press <b>6</b>.</p><p> If you think you have <b>not</b> seen it before but aren't sure, then press <b>7</b>.</p><p> If you are sure you did <b>not</b> see the ship before, then press <b>8</b>.</p><p><img src='run_exp/static/images/tutorial/example_recog_trial.png' height='500'></p></div>","","","","","","","","","","","","","","","","","","",""
"","html-keyboard-response","13","116955","0.0-13.0","""event"",""trial"",""time""
""fullscreenenter"",""0"",""3126""
","
","
","""event"",""trial"",""time""
""fullscreenenter"",""0"",""3126""
","
","1042.5999999996275","<div class='center'><p> You will press the 5, 6, 7, 8 keys on your keyboard to respond.</p><p>If you are sure you saw the ship, press <b>5</b> on your keyboard.</p><p> If you think you saw it before but aren't sure, then press <b>6</b>.</p><p> If you think you have <b>not</b> seen it before but aren't sure, then press <b>7</b>.</p><p> If you are sure you did <b>not</b> see the ship before, then press <b>8</b>.</p><p><img src='run_exp/static/images/tutorial/example_recog_trial.png' height='500'></p><p><b>[Press the space bar to continue]</b></p></div>","32","","","","","","","","","","","","","","","","","","","","","","","",""
"","explain_outcome","14","134152","0.0-14.0","""event"",""trial"",""time""
""fullscreenenter"",""0"",""3126""
","
","
","""event"",""trial"",""time""
""fullscreenenter"",""0"",""3126""
","
","null","run_exp/static/audio/clip_35_recognition_3.m4a","null","","","","","<div class='center'><p> If you remember correctly, then you’ll get a gold coin like this: </p><p><img src='run_exp/static/images/tutorial/reward_small.png' height='200'></p><p>If you do not remember correctly, then you'll see a red x like this: </p><p><img src='run_exp/static/images/tutorial/reward_no.png' height='200'></p><p>Importantly, when you are shown a ship, take the time to remind yourself which island you saw it on. This will help you in the next part of the study.</p></div>","","","","","","","","","","","","","","","","","","",""
"","html-keyboard-response","15","135129","0.0-15.0","""event"",""trial"",""time""
""fullscreenenter"",""0"",""3126""
","
","
","""event"",""trial"",""time""
""fullscreenenter"",""0"",""3126""
","
","975.5999999996275","<div class='center'><p> If you remember correctly, then you’ll get a gold coin like this: </p><p><img src='run_exp/static/images/tutorial/reward_small.png' height='200'></p><p>If you do not remember correctly, then you'll see a red x like this: </p><p><img src='run_exp/static/images/tutorial/reward_no.png' height='200'></p><p>Importantly, when you are shown a ship, take the time to remind yourself which island you saw it on. This will help you in the next part of the study.</p><p><b>[Press the space bar to continue]</b></p></div>","32","","","","","","","","","","","","","","","","","","","","","","","",""
"","begin_test_phase","16","150941","0.0-16.0","""event"",""trial"",""time""
""fullscreenenter"",""0"",""3126""
","
","
","""event"",""trial"",""time""
""fullscreenenter"",""0"",""3126""
","
","null","run_exp/static/audio/clip_36_begin_final.m4a","null","","","","","<div class='center'><p>Let's go over the important points again. Your job is to: </p><p>1. Pick the pirate who is best at robbing ships and will bring you back gold coins. </p><p>2. Correctly remember whether or not you saw a ship before. If you did see the ship before, remind yourself on which island you saw it. </p></div>","","","","","","","","","","","","","","","","","","",""
"","html-keyboard-response","17","151804","0.0-17.0","""event"",""trial"",""time""
""fullscreenenter"",""0"",""3126""
","
","
","""event"",""trial"",""time""
""fullscreenenter"",""0"",""3126""
","
","827.7000000001863","<div class='center'><p>Let's go over the important points again. Your job is to: </p><p>1. Pick the pirate who is best at robbing ships and will bring you back gold coins. </p><p>2. Correctly remember whether or not you saw a ship before. If you did see the ship before, remind yourself on which island you saw it. </p><p><b>[Press the space bar to continue]</b></p></div>","32","","","","","","","","","","","","","","","","","","","","","","","",""
"","do_welcome","18","155818","0.0-18.0","""event"",""trial"",""time""
""fullscreenenter"",""0"",""3126""
","
","
","""event"",""trial"",""time""
""fullscreenenter"",""0"",""3126""
","
","null","","","","","","","","null","","","","","","","","","","","","","","","","","",""
"","do_trial","19","160607","0.0-19.0-0.0","""event"",""trial"",""time""
""fullscreenenter"",""0"",""3126""
","
","
","""event"",""trial"",""time""
""fullscreenenter"",""0"",""3126""
","
","2250.3000000002794","","","","","","","","51","0,0,0","6","blank","230","null","0.3625030459449486","0.15376971200228615","0.5494128459976892","0","","","","","","","","",""
"","html-keyboard-response","20","161613","0.0-19.0-1.0","""event"",""trial"",""time""
""fullscreenenter"",""0"",""3126""
","
","
","""event"",""trial"",""time""
""fullscreenenter"",""0"",""3126""
","
","null","<p></p>","null","","","","","","","","","","","","","","","","","","","","","","","",""
"","do_trial","21","165659","0.0-20.0-0.0","""event"",""trial"",""time""
""fullscreenenter"",""0"",""3126""
","
","
","""event"",""trial"",""time""
""fullscreenenter"",""0"",""3126""
","
","1501.1000000000931","","","","","","","","50","0,0,1","6","blank","231","null","0.319071651237713","0.0810176019562873","0.5323737159728121","0","","","","","","","","",""
"","html-keyboard-response","22","166664","0.0-20.0-1.0","""event"",""trial"",""time""
""fullscreenenter"",""0"",""3126""
","
","
","""event"",""trial"",""time""
""fullscreenenter"",""0"",""3126""
","
","null","<p></p>","null","","","","","","","","","","","","","","","","","","","","","","","",""
"","do_trial","23","170205","0.0-21.0-0.0","""event"",""trial"",""time""
""fullscreenenter"",""0"",""3126""
","
","
","""event"",""trial"",""time""
""fullscreenenter"",""0"",""3126""
","
","998.5","","","","","","","","49","1,0,1","6","blank","232","null","0.1760107735511466","0.06864747545148218","0.6822720661165248","1","","","","","","","","",""
"","html-keyboard-response","24","171212","0.0-21.0-1.0","""event"",""trial"",""time""
""fullscreenenter"",""0"",""3126""
","
","
","""event"",""trial"",""time""
""fullscreenenter"",""0"",""3126""
","
","null","<p></p>","null","","","","","","","","","","","","","","","","","","","","","","","",""
"","do_trial","25","174189","0.0-22.0-0.0","""event"",""trial"",""time""
""fullscreenenter"",""0"",""3126""
","
","
","""event"",""trial"",""time""
""fullscreenenter"",""0"",""3126""
","
","431.39999999990687","","","","","","","","49","0,0,1","6","blank","233","null","0.18909581451989974","0.1858913874925591","0.6751997666038448","0","","","","","","","","",""
"","html-keyboard-response","26","175195","0.0-22.0-1.0","""event"",""trial"",""time""
""fullscreenenter"",""0"",""3126""
","
","
","""event"",""trial"",""time""
""fullscreenenter"",""0"",""3126""
","
","null","<p></p>","null","","","","","","","","","","","","","","","","","","","","","","","",""
"","do_trial","27","178345","0.0-23.0-0.0","""event"",""trial"",""time""
""fullscreenenter"",""0"",""3126""
","
","
","""event"",""trial"",""time""
""fullscreenenter"",""0"",""3126""
","
","604.2999999998137","","","","","","","","49","1,0,1","6","blank","234","null","0.3793555149433043","0.1778761470904319","0.652480131311868","1","","","","","","","","",""
"","html-keyboard-response","28","179349","0.0-23.0-1.0","""event"",""trial"",""time""
""fullscreenenter"",""0"",""3126""
","
","
","""event"",""trial"",""time""
""fullscreenenter"",""0"",""3126""
","
","null","<p></p>","null","","","","","","","","","","","","","","","","","","","","","","","",""
"","do_trial","29","182279","0.0-24.0-0.0","""event"",""trial"",""time""
""fullscreenenter"",""0"",""3126""
","
","
","""event"",""trial"",""time""
""fullscreenenter"",""0"",""3126""
","
","386.60000000009313","","","","","","","","49","0,0,1","6","blank","235","null","0.37869199756672567","0.12358276199153685","0.6202662393805243","0","","","","","","","","",""
"","html-keyboard-response","30","183285","0.0-24.0-1.0","""event"",""trial"",""time""
""fullscreenenter"",""0"",""3126""
","
","
","""event"",""trial"",""time""
""fullscreenenter"",""0"",""3126""
","
","null","<p></p>","null","","","","","","","","","","","","","","","","","","","","","","","",""
"","do_trial","31","186232","0.0-25.0-0.0","""event"",""trial"",""time""
""fullscreenenter"",""0"",""3126""
","
","
","""event"",""trial"",""time""
""fullscreenenter"",""0"",""3126""
","
","402.89999999990687","","","","","","","","49","1,0,1","6","blank","236","null","0.42092762793370825","0.16439816824001638","0.6153107469192878","1","","","","","","","","",""
"","html-keyboard-response","32","187234","0.0-25.0-1.0","""event"",""trial"",""time""
""fullscreenenter"",""0"",""3126""
","
","
","""event"",""trial"",""time""
""fullscreenenter"",""0"",""3126""
","
","null","<p></p>","null","","","","","","","","","","","","","","","","","","","","","","","",""
"","do_trial","33","190308","0.0-26.0-0.0","""event"",""trial"",""time""
""fullscreenenter"",""0"",""3126""
","
","
","""event"",""trial"",""time""
""fullscreenenter"",""0"",""3126""
","
","528.2000000001863","","","","","","","","49","0,0,1","6","blank","237","null","0.5228204838571314","0.10547580106786064","0.6883165337345858","0","","","","","","","","",""
"","html-keyboard-response","34","191315","0.0-26.0-1.0","""event"",""trial"",""time""
""fullscreenenter"",""0"",""3126""
","
","
","""event"",""trial"",""time""
""fullscreenenter"",""0"",""3126""
","
","null","<p></p>","null","","","","","","","","","","","","","","","","","","","","","","","",""
"","do_trial","35","194173","0.0-27.0-0.0","""event"",""trial"",""time""
""fullscreenenter"",""0"",""3126""
","
","
","""event"",""trial"",""time""
""fullscreenenter"",""0"",""3126""
","
","312.40000000037253","","","","","","","","49","1,0,0","6","blank","238","null","0.404088443881607","0.1130481989774595","0.68737023118388","1","","","","","","","","",""
"","html-keyboard-response","36","195178","0.0-27.0-1.0","""event"",""trial"",""time""
""fullscreenenter"",""0"",""3126""
","
","
","""event"",""trial"",""time""
""fullscreenenter"",""0"",""3126""
","
","null","<p></p>","null","","","","","","","","","","","","","","","","","","","","","","","",""
"","do_trial","37","198480","0.0-28.0-0.0","""event"",""trial"",""time""
""fullscreenenter"",""0"",""3126""
","
","
","""event"",""trial"",""time""
""fullscreenenter"",""0"",""3126""
","
","756.3999999999069","","","","","","","","49","0,0,1","6","blank","239","null","0.43401920972426694","0.1095465739629428","0.6649678463222415","0","","","","","","","","",""
"","html-keyboard-response","38","199482","0.0-28.0-1.0","""event"",""trial"",""time""
""fullscreenenter"",""0"",""3126""
","
","
","""event"",""trial"",""time""
""fullscreenenter"",""0"",""3126""
","
","null","<p></p>","null","","","","","","","","","","","","","","","","","","","","","","","",""
"","do_trial","39","202412","0.0-29.0-0.0","""event"",""trial"",""time""
""fullscreenenter"",""0"",""3126""
","
","
","""event"",""trial"",""time""
""fullscreenenter"",""0"",""3126""
","
","383.70000000018626","","","","","","","","49","0,0,0","6","blank","240","null","0.4037481676271352","0.052096806021520684","0.5912120719805626","0","","","","","","","","",""
"","html-keyboard-response","40","203419","0.0-29.0-1.0","""event"",""trial"",""time""
""fullscreenenter"",""0"",""3126""
","
","
","""event"",""trial"",""time""
""fullscreenenter"",""0"",""3126""
","
","null","<p></p>","null","","","","","","","","","","","","","","","","","","","","","","","",""
"","do_recog","41","209435","0.0-30.0-0.0","""event"",""trial"",""time""
""fullscreenenter"",""0"",""3126""
","
","
","""event"",""trial"",""time""
""fullscreenenter"",""0"",""3126""
","
","null","","","","","","","","null","","","","241","probe-205","","","","","1","[object Object]","191","4","0","","","",""
"","html-keyboard-response","42","210440","0.0-30.0-1.0","""event"",""trial"",""time""
""fullscreenenter"",""0"",""3126""
","
","
","""event"",""trial"",""time""
""fullscreenenter"",""0"",""3126""
","
","null","<p></p>","null","","","","","","","","","","","","","","","","","","","","","","","",""
"","do_trial","43","214709","0.0-31.0-0.0","""event"",""trial"",""time""
""fullscreenenter"",""0"",""3126""
","
","
","""event"",""trial"",""time""
""fullscreenenter"",""0"",""3126""
","
","1722.2000000001863","","","","","","","","49","0,0,1","6","blank","242","null","0.46618543569938253","0.07152149099041787","0.6011457624251432","0","","","","","","","","",""
"","html-keyboard-response","44","215714","0.0-31.0-1.0","""event"",""trial"",""time""
""fullscreenenter"",""0"",""3126""
","
","
","""event"",""trial"",""time""
""fullscreenenter"",""0"",""3126""
","
","null","<p></p>","null","","","","","","","","","","","","","","","","","","","","","","","",""
"","do_recog","45","221726","0.0-32.0-0.0","""event"",""trial"",""time""
""fullscreenenter"",""0"",""3126""
","
","
","""event"",""trial"",""time""
""fullscreenenter"",""0"",""3126""
","
","null","","","","","","","","null","","","","243","probe-150","","","","","1","[object Object]","157","3","0","","","",""
"","html-keyboard-response","46","222731","0.0-32.0-1.0","""event"",""trial"",""time""
""fullscreenenter"",""0"",""3126""
","
","
","""event"",""trial"",""time""
""fullscreenenter"",""0"",""3126""
","
","null","<p></p>","null","","","","","","","","","","","","","","","","","","","","","","","",""
"","do_trial","47","226483","0.0-33.0-0.0","""event"",""trial"",""time""
""fullscreenenter"",""0"",""3126""
","
","
","""event"",""trial"",""time""
""fullscreenenter"",""0"",""3126""
","
","1210.6000000000931","","","","","","","","49","0,0,0","6","blank","244","null","0.36526838497325936","0.1630495838231034","0.3487762335634615","0","","","","","","","","",""
"","html-keyboard-response","48","227488","0.0-33.0-1.0","""event"",""trial"",""time""
""fullscreenenter"",""0"",""3126""
","
","
","""event"",""trial"",""time""
""fullscreenenter"",""0"",""3126""
","
","null","<p></p>","null","","","","","","","","","","","","","","","","","","","","","","","",""
"","do_recog","49","230346","0.0-34.0-0.0","""event"",""trial"",""time""
""fullscreenenter"",""0"",""3126""
","
","
","""event"",""trial"",""time""
""fullscreenenter"",""0"",""3126""
","
","1350","","","","","","","","56","","","","245","probe-249","","","","","0","[object Object]","null","null","1","","","",""
"","html-keyboard-response","50","231349","0.0-34.0-1.0","""event"",""trial"",""time""
""fullscreenenter"",""0"",""3126""
","
","
","""event"",""trial"",""time""
""fullscreenenter"",""0"",""3126""
","
","null","<p></p>","null","","","","","","","","","","","","","","","","","","","","","","","",""
"","do_trial","51","235161","0.0-35.0-0.0","""event"",""trial"",""time""
""fullscreenenter"",""0"",""3126""
","
","
","""event"",""trial"",""time""
""fullscreenenter"",""0"",""3126""
","
","1265.2000000001863","","","","","","","","49","0,1,0","6","blank","246","null","0.4487534785876532","0.21793607618205965","0.3416553115372583","0","","","","","","","","",""
"","html-keyboard-response","52","236166","0.0-35.0-1.0","""event"",""trial"",""time""
""fullscreenenter"",""0"",""3126""
","
","
","""event"",""trial"",""time""
""fullscreenenter"",""0"",""3126""
","
","null","<p></p>","null","","","","","","","","","","","","","","","","","","","","","","","",""
"","do_trial","53","239878","0.0-36.0-0.0","""event"",""trial"",""time""
""fullscreenenter"",""0"",""3126""
","
","
","""event"",""trial"",""time""
""fullscreenenter"",""0"",""3126""
","
","1165.8000000002794","","","","","","","","50","1,0,0","6","blank","247","null","0.4956936247211645","0.1845209740735195","0.2771084207814067","0","","","","","","","","",""
"","html-keyboard-response","54","240883","0.0-36.0-1.0","""event"",""trial"",""time""
""fullscreenenter"",""0"",""3126""
","
","
","""event"",""trial"",""time""
""fullscreenenter"",""0"",""3126""
","
","null","<p></p>","null","","","","","","","","","","","","","","","","","","","","","","","",""
"","do_trial","55","244065","0.0-37.0-0.0","""event"",""trial"",""time""
""fullscreenenter"",""0"",""3126""
","
","
","""event"",""trial"",""time""
""fullscreenenter"",""0"",""3126""
","
","638.1999999997206","","","","","","","","49","1,0,0","6","blank","248","null","0.5056644330846197","0.10251618974959435","0.34211205740202105","1","","","","","","","","",""
"","html-keyboard-response","56","245070","0.0-37.0-1.0","""event"",""trial"",""time""
""fullscreenenter"",""0"",""3126""
","
","
","""event"",""trial"",""time""
""fullscreenenter"",""0"",""3126""
","
","null","<p></p>","null","","","","","","","","","","","","","","","","","","","","","","","",""
"","do_trial","57","248727","0.0-38.0-0.0","""event"",""trial"",""time""
""fullscreenenter"",""0"",""3126""
","
","
","""event"",""trial"",""time""
""fullscreenenter"",""0"",""3126""
","
","1110.6999999997206","","","","","","","","49","0,0,1","6","blank","249","null","0.5538371824488599","0.06155533679046027","0.40513593451682073","0","","","","","","","","",""
"","html-keyboard-response","58","249732","0.0-38.0-1.0","""event"",""trial"",""time""
""fullscreenenter"",""0"",""3126""
","
","
","""event"",""trial"",""time""
""fullscreenenter"",""0"",""3126""
","
","null","<p></p>","null","","","","","","","","","","","","","","","","","","","","","","","",""
"","do_recog","59","254071","0.0-39.0-0.0","""event"",""trial"",""time""
""fullscreenenter"",""0"",""3126""
","
","
","""event"",""trial"",""time""
""fullscreenenter"",""0"",""3126""
","
","2827.8000000002794","","","","","","","","53","","","","250","probe-173","","","","","1","[object Object]","151","3","1","","","",""
"","html-keyboard-response","60","255077","0.0-39.0-1.0","""event"",""trial"",""time""
""fullscreenenter"",""0"",""3126""
","
","
","""event"",""trial"",""time""
""fullscreenenter"",""0"",""3126""
","
","null","<p></p>","null","","","","","","","","","","","","","","","","","","","","","","","",""
"","do_trial","61","258576","0.0-40.0-0.0","""event"",""trial"",""time""
""fullscreenenter"",""0"",""3126""
","
","
","""event"",""trial"",""time""
""fullscreenenter"",""0"",""3126""
","
","953","","","","","","","","49","1,0,0","6","blank","251","null","0.6582288811445115","0.05952553558335822","0.5601768823148514","1","","","","","","","","",""
"","html-keyboard-response","62","259579","0.0-40.0-1.0","""event"",""trial"",""time""
""fullscreenenter"",""0"",""3126""
","
","
","""event"",""trial"",""time""
""fullscreenenter"",""0"",""3126""
","
","null","<p></p>","null","","","","","","","","","","","","","","","","","","","","","","","",""
"","do_trial","63","262778","0.0-41.0-0.0","""event"",""trial"",""time""
""fullscreenenter"",""0"",""3126""
","
","
","""event"",""trial"",""time""
""fullscreenenter"",""0"",""3126""
","
","653.1999999997206","","","","","","","","49","0,0,1","6","blank","252","null","0.5361628391022347","0.07891844408243096","0.45904258517222685","0","","","","","","","","",""
"","html-keyboard-response","64","263783","0.0-41.0-1.0","""event"",""trial"",""time""
""fullscreenenter"",""0"",""3126""
","
","
","""event"",""trial"",""time""
""fullscreenenter"",""0"",""3126""
","
","null","<p></p>","null","","","","","","","","","","","","","","","","","","","","","","","",""
"","do_trial","65","266950","0.0-42.0-0.0","""event"",""trial"",""time""
""fullscreenenter"",""0"",""3126""
","
","
","""event"",""trial"",""time""
""fullscreenenter"",""0"",""3126""
","
","622.8999999999069","","","","","","","","49","0,0,0","6","blank","253","null","0.5263101432846303","0.09227405491133542","0.5125893245310971","0","","","","","","","","",""
"","html-keyboard-response","66","267955","0.0-42.0-1.0","""event"",""trial"",""time""
""fullscreenenter"",""0"",""3126""
","
","
","""event"",""trial"",""time""
""fullscreenenter"",""0"",""3126""
","
","null","<p></p>","null","","","","","","","","","","","","","","","","","","","","","","","",""
"","do_trial","67","270956","0.0-43.0-0.0","""event"",""trial"",""time""
""fullscreenenter"",""0"",""3126""
","
","
","""event"",""trial"",""time""
""fullscreenenter"",""0"",""3126""
","
","454.1999999997206","","","","","","","","49","1,1,0","6","blank","254","null","0.6072794083946143","0.11667696611640117","0.36409692402224525","1","","","","","","","","",""
"","html-keyboard-response","68","271961","0.0-43.0-1.0","""event"",""trial"",""time""
""fullscreenenter"",""0"",""3126""
","
","
","""event"",""trial"",""time""
""fullscreenenter"",""0"",""3126""
","
","null","<p></p>","null","","","","","","","","","","","","","","","","","","","","","","","",""
"","do_recog","69","275496","0.0-44.0-0.0","""event"",""trial"",""time""
""fullscreenenter"",""0"",""3126""
","
","
","""event"",""trial"",""time""
""fullscreenenter"",""0"",""3126""
","
","2025","","","","","","","","56","","","","255","probe-244","","","","","0","[object Object]","null","null","1","","","",""
"","html-keyboard-response","70","276502","0.0-44.0-1.0","""event"",""trial"",""time""
""fullscreenenter"",""0"",""3126""
","
","
","""event"",""trial"",""time""
""fullscreenenter"",""0"",""3126""
","
","null","<p></p>","null","","","","","","","","","","","","","","","","","","","","","","","",""
"","do_trial","71","280256","0.0-45.0-0.0","""event"",""trial"",""time""
""fullscreenenter"",""0"",""3126""
","
","
","""event"",""trial"",""time""
""fullscreenenter"",""0"",""3126""
","
","1207.1000000000931","","","","","","","","49","0,0,0","6","blank","256","null","0.46965247524297005","0.11891925504219222","0.26624678786745015","0","","","","","","","","",""
"","html-keyboard-response","72","281262","0.0-45.0-1.0","""event"",""trial"",""time""
""fullscreenenter"",""0"",""3126""
","
","
","""event"",""trial"",""time""
""fullscreenenter"",""0"",""3126""
","
","null","<p></p>","null","","","","","","","","","","","","","","","","","","","","","","","",""
"","do_trial","73","284865","0.0-46.0-0.0","""event"",""trial"",""time""
""fullscreenenter"",""0"",""3126""
","
","
","""event"",""trial"",""time""
""fullscreenenter"",""0"",""3126""
","
","1057.2000000001863","","","","","","","","49","0,0,0","6","blank","257","null","0.5209392651416215","0.10453264278279509","0.31498740701823175","0","","","","","","","","",""
"","html-keyboard-response","74","285871","0.0-46.0-1.0","""event"",""trial"",""time""
""fullscreenenter"",""0"",""3126""
","
","
","""event"",""trial"",""time""
""fullscreenenter"",""0"",""3126""
","
","null","<p></p>","null","","","","","","","","","","","","","","","","","","","","","","","",""
"","do_trial","75","289938","0.0-47.0-0.0","""event"",""trial"",""time""
""fullscreenenter"",""0"",""3126""
","
","
","""event"",""trial"",""time""
""fullscreenenter"",""0"",""3126""
","
","1523.2999999998137","","","","","","","","49","1,0,0","6","blank","258","null","0.5892263607208126","0.23295285741861535","0.2656972272625336","1","","","","","","","","",""
"","html-keyboard-response","76","290944","0.0-47.0-1.0","""event"",""trial"",""time""
""fullscreenenter"",""0"",""3126""
","
","
","""event"",""trial"",""time""
""fullscreenenter"",""0"",""3126""
","
","null","<p></p>","null","","","","","","","","","","","","","","","","","","","","","","","",""
"","do_recog","77","294551","0.0-48.0-0.0","""event"",""trial"",""time""
""fullscreenenter"",""0"",""3126""
","
","
","""event"",""trial"",""time""
""fullscreenenter"",""0"",""3126""
","
","2100.1999999997206","","","","","","","","56","","","","259","probe-140","","","","","1","[object Object]","34","0","0","","","",""
"","html-keyboard-response","78","295557","0.0-48.0-1.0","""event"",""trial"",""time""
""fullscreenenter"",""0"",""3126""
","
","
","""event"",""trial"",""time""
""fullscreenenter"",""0"",""3126""
","
","null","<p></p>","null","","","","","","","","","","","","","","","","","","","","","","","",""
"","do_trial","79","299028","0.0-49.0-0.0","""event"",""trial"",""time""
""fullscreenenter"",""0"",""3126""
","
","
","""event"",""trial"",""time""
""fullscreenenter"",""0"",""3126""
","
","925.2999999998137","","","","","","","","49","0,0,0","6","blank","260","null","0.6253064811226201","0.15679184670180724","0.41618870127143587","0","","","","","","","","",""
"","html-keyboard-response","80","300030","0.0-49.0-1.0","""event"",""trial"",""time""
""fullscreenenter"",""0"",""3126""
","
","
","""event"",""trial"",""time""
""fullscreenenter"",""0"",""3126""
","
","null","<p></p>","null","","","","","","","","","","","","","","","","","","","","","","","",""
"","do_recog","81","303750","0.0-50.0-0.0","""event"",""trial"",""time""
""fullscreenenter"",""0"",""3126""
","
","
","""event"",""trial"",""time""
""fullscreenenter"",""0"",""3126""
","
","2214.100000000559","","","","","","","","53","","","","261","probe-118","","","","","1","[object Object]","39","0","1","","","",""
"","html-keyboard-response","82","304757","0.0-50.0-1.0","""event"",""trial"",""time""
""fullscreenenter"",""0"",""3126""
","
","
","""event"",""trial"",""time""
""fullscreenenter"",""0"",""3126""
","
","null","<p></p>","null","","","","","","","","","","","","","","","","","","","","","","","",""
"","do_trial","83","308093","0.0-51.0-0.0","""event"",""trial"",""time""
""fullscreenenter"",""0"",""3126""
","
","
","""event"",""trial"",""time""
""fullscreenenter"",""0"",""3126""
","
","790.4000000003725","","","","","","","","49","1,1,0","6","blank","262","null","0.5772026662048685","0.13110296050825754","0.3130224142738266","1","","","","","","","","",""
"","html-keyboard-response","84","309099","0.0-51.0-1.0","""event"",""trial"",""time""
""fullscreenenter"",""0"",""3126""
","
","
","""event"",""trial"",""time""
""fullscreenenter"",""0"",""3126""
","
","null","<p></p>","null","","","","","","","","","","","","","","","","","","","","","","","",""
"","do_trial","85","312365","0.0-52.0-0.0","""event"",""trial"",""time""
""fullscreenenter"",""0"",""3126""
","
","
","""event"",""trial"",""time""
""fullscreenenter"",""0"",""3126""
","
","722.2999999998137","","","","","","","","49","1,1,0","6","blank","263","null","0.6041198873157102","0.06880373710829389","0.28364625594848186","1","","","","","","","","",""
"","html-keyboard-response","86","313371","0.0-52.0-1.0","""event"",""trial"",""time""
""fullscreenenter"",""0"",""3126""
","
","
","""event"",""trial"",""time""
""fullscreenenter"",""0"",""3126""
","
","null","<p></p>","null","","","","","","","","","","","","","","","","","","","","","","","",""
"","do_trial","87","316433","0.0-53.0-0.0","""event"",""trial"",""time""
""fullscreenenter"",""0"",""3126""
","
","
","""event"",""trial"",""time""
""fullscreenenter"",""0"",""3126""
","
","518.5","","","","","","","","49","1,0,0","6","blank","264","null","0.7167590616129291","0.16295343379978752","0.17643807426800415","1","","","","","","","","",""
"","html-keyboard-response","88","317440","0.0-53.0-1.0","""event"",""trial"",""time""
""fullscreenenter"",""0"",""3126""
","
","
","""event"",""trial"",""time""
""fullscreenenter"",""0"",""3126""
","
","null","<p></p>","null","","","","","","","","","","","","","","","","","","","","","","","",""
"","do_trial","89","320426","0.0-54.0-0.0","""event"",""trial"",""time""
""fullscreenenter"",""0"",""3126""
","
","
","""event"",""trial"",""time""
""fullscreenenter"",""0"",""3126""
","
","442.30000000074506","","","","","","","","49","1,1,1","6","blank","265","null","0.6099371946307063","0.18440693711710615","0.22054614844379702","1","","","","","","","","",""
"","html-keyboard-response","90","321432","0.0-54.0-1.0","""event"",""trial"",""time""
""fullscreenenter"",""0"",""3126""
","
","
","""event"",""trial"",""time""
""fullscreenenter"",""0"",""3126""
","
","null","<p></p>","null","","","","","","","","","","","","","","","","","","","","","","","",""
"","do_trial","91","324433","0.0-55.0-0.0","""event"",""trial"",""time""
""fullscreenenter"",""0"",""3126""
","
","
","""event"",""trial"",""time""
""fullscreenenter"",""0"",""3126""
","
","454.09999999962747","","","","","","","","49","1,0,0","6","blank","266","null","0.5457479669723283","0.24962506293465084","0.28026349523823263","1","","","","","","","","",""
"","html-keyboard-response","92","325437","0.0-55.0-1.0","""event"",""trial"",""time""
""fullscreenenter"",""0"",""3126""
","
","
","""event"",""trial"",""time""
""fullscreenenter"",""0"",""3126""
","
","null","<p></p>","null","","","","","","","","","","","","","","","","","","","","","","","",""
"","do_trial","93","328426","0.0-56.0-0.0","""event"",""trial"",""time""
""fullscreenenter"",""0"",""3126""
","
","
","""event"",""trial"",""time""
""fullscreenenter"",""0"",""3126""
","
","445.20000000018626","","","","","","","","49","0,0,0","6","blank","267","null","0.4657621439990185","0.16203490761953274","0.37715640499654796","0","","","","","","","","",""
"","html-keyboard-response","94","329432","0.0-56.0-1.0","""event"",""trial"",""time""
""fullscreenenter"",""0"",""3126""
","
","
","""event"",""trial"",""time""
""fullscreenenter"",""0"",""3126""
","
","null","<p></p>","null","","","","","","","","","","","","","","","","","","","","","","","",""
"","do_trial","95","332399","0.0-57.0-0.0","""event"",""trial"",""time""
""fullscreenenter"",""0"",""3126""
","
","
","""event"",""trial"",""time""
""fullscreenenter"",""0"",""3126""
","
","420.90000000037253","","","","","","","","49","0,0,0","6","blank","268","null","0.4004736460330534","0.051560867978182136","0.4869140988251888","0","","","","","","","","",""
"","html-keyboard-response","96","333406","0.0-57.0-1.0","""event"",""trial"",""time""
""fullscreenenter"",""0"",""3126""
","
","
","""event"",""trial"",""time""
""fullscreenenter"",""0"",""3126""
","
","null","<p></p>","null","","","","","","","","","","","","","","","","","","","","","","","",""
"","break","97","335127","0.0-58.0-0.0","""event"",""trial"",""time""
""fullscreenenter"",""0"",""3126""
","
","
","""event"",""trial"",""time""
""fullscreenenter"",""0"",""3126""
","
","1720.5","<div class='center'><p>Time to take a quick break! You have 2 minutes to rest, but you can move on sooner if you'd like.</p><p> Press the <b>space bar</b> to continue.</p></div>","32","","","","","","","","","","","","","","","","","","","","","","","",""
"","do_recog","98","338351","0.0-58.0-1.0","""event"",""trial"",""time""
""fullscreenenter"",""0"",""3126""
","
","
","""event"",""trial"",""time""
""fullscreenenter"",""0"",""3126""
","
","1719.5","","","","","","","","56","","","","269","probe-98","","","","","1","[object Object]","116","2","0","","","",""
"","html-keyboard-response","99","339357","0.0-58.0-2.0","""event"",""trial"",""time""
""fullscreenenter"",""0"",""3126""
","
","
","""event"",""trial"",""time""
""fullscreenenter"",""0"",""3126""
","
","null","<p></p>","null","","","","","","","","","","","","","","","","","","","","","","","",""
"","do_trial","100","342651","0.0-59.0-0.0","""event"",""trial"",""time""
""fullscreenenter"",""0"",""3126""
","
","
","""event"",""trial"",""time""
""fullscreenenter"",""0"",""3126""
","
","749.9000000003725","","","","","","","","49","0,0,0","6","blank","270","null","0.5256670460803956","0.1340185100137223","0.4636545538430443","0","","","","","","","","",""
"","html-keyboard-response","101","343657","0.0-59.0-1.0","""event"",""trial"",""time""
""fullscreenenter"",""0"",""3126""
","
","
","""event"",""trial"",""time""
""fullscreenenter"",""0"",""3126""
","
","null","<p></p>","null","","","","","","","","","","","","","","","","","","","","","","","",""
"","do_trial","102","346665","0.0-60.0-0.0","""event"",""trial"",""time""
""fullscreenenter"",""0"",""3126""
","
","
","""event"",""trial"",""time""
""fullscreenenter"",""0"",""3126""
","
","462.69999999925494","","","","","","","","49","0,1,0","6","blank","271","null","0.5171715641486794","0.2304181818473314","0.3564805180490525","0","","","","","","","","",""
"","html-keyboard-response","103","347672","0.0-60.0-1.0","""event"",""trial"",""time""
""fullscreenenter"",""0"",""3126""
","
","
","""event"",""trial"",""time""
""fullscreenenter"",""0"",""3126""
","
","null","<p></p>","null","","","","","","","","","","","","","","","","","","","","","","","",""
"","do_trial","104","350718","0.0-61.0-0.0","""event"",""trial"",""time""
""fullscreenenter"",""0"",""3126""
","
","
","""event"",""trial"",""time""
""fullscreenenter"",""0"",""3126""
","
","502.6000000005588","","","","","","","","49","1,0,0","6","blank","272","null","0.5983132019048347","0.24911836989138988","0.28608278110497887","1","","","","","","","","",""
"","html-keyboard-response","105","351722","0.0-61.0-1.0","""event"",""trial"",""time""
""fullscreenenter"",""0"",""3126""
","
","
","""event"",""trial"",""time""
""fullscreenenter"",""0"",""3126""
","
","null","<p></p>","null","","","","","","","","","","","","","","","","","","","","","","","",""
"","do_trial","106","354683","0.0-62.0-0.0","""event"",""trial"",""time""
""fullscreenenter"",""0"",""3126""
","
","
","""event"",""trial"",""time""
""fullscreenenter"",""0"",""3126""
","
","417.29999999981374","","","","","","","","49","1,1,0","6","blank","273","null","0.5468921806957536","0.0809962239064293","0.35713887396770466","1","","","","","","","","",""
"","html-keyboard-response","107","355689","0.0-62.0-1.0","""event"",""trial"",""time""
""fullscreenenter"",""0"",""3126""
","
","
","""event"",""trial"",""time""
""fullscreenenter"",""0"",""3126""
","
","null","<p></p>","null","","","","","","","","","","","","","","","","","","","","","","","",""
"","do_trial","108","358701","0.0-63.0-0.0","""event"",""trial"",""time""
""fullscreenenter"",""0"",""3126""
","
","
","""event"",""trial"",""time""
""fullscreenenter"",""0"",""3126""
","
","468.20000000018626","","","","","","","","49","0,0,0","6","blank","274","null","0.4871752112621269","0.10741210385832321","0.24958477162144277","0","","","","","","","","",""
"","html-keyboard-response","109","359707","0.0-63.0-1.0","""event"",""trial"",""time""
""fullscreenenter"",""0"",""3126""
","
","
","""event"",""trial"",""time""
""fullscreenenter"",""0"",""3126""
","
","null","<p></p>","null","","","","","","","","","","","","","","","","","","","","","","","",""
"","do_recog","110","363355","0.0-64.0-0.0","""event"",""trial"",""time""
""fullscreenenter"",""0"",""3126""
","
","
","""event"",""trial"",""time""
""fullscreenenter"",""0"",""3126""
","
","2141.7999999998137","","","","","","","","53","","","","275","probe-95","","","","","1","[object Object]","197","4","1","","","",""
"","html-keyboard-response","111","364361","0.0-64.0-1.0","""event"",""trial"",""time""
""fullscreenenter"",""0"",""3126""
","
","
","""event"",""trial"",""time""
""fullscreenenter"",""0"",""3126""
","
","null","<p></p>","null","","","","","","","","","","","","","","","","","","","","","","","",""
"","do_trial","112","367676","0.0-65.0-0.0","""event"",""trial"",""time""
""fullscreenenter"",""0"",""3126""
","
","
","""event"",""trial"",""time""
""fullscreenenter"",""0"",""3126""
","
","769.5999999996275","","","","","","","","49","1,0,1","6","blank","276","null","0.4091866156861972","0.11971887786028354","0.2200238968420667","1","","","","","","","","",""
"","html-keyboard-response","113","368682","0.0-65.0-1.0","""event"",""trial"",""time""
""fullscreenenter"",""0"",""3126""
","
","
","""event"",""trial"",""time""
""fullscreenenter"",""0"",""3126""
","
","null","<p></p>","null","","","","","","","","","","","","","","","","","","","","","","","",""
"","do_recog","114","372074","0.0-66.0-0.0","""event"",""trial"",""time""
""fullscreenenter"",""0"",""3126""
","
","
","""event"",""trial"",""time""
""fullscreenenter"",""0"",""3126""
","
","1881.6000000005588","","","","","","","","56","","","","277","probe-245","","","","","0","[object Object]","null","null","1","","","",""
"","html-keyboard-response","115","373081","0.0-66.0-1.0","""event"",""trial"",""time""
""fullscreenenter"",""0"",""3126""
","
","
","""event"",""trial"",""time""
""fullscreenenter"",""0"",""3126""
","
","null","<p></p>","null","","","","","","","","","","","","","","","","","","","","","","","",""
"","do_trial","116","376366","0.0-67.0-0.0","""event"",""trial"",""time""
""fullscreenenter"",""0"",""3126""
","
","
","""event"",""trial"",""time""
""fullscreenenter"",""0"",""3126""
","
","740.2999999998137","","","","","","","","49","0,0,1","6","blank","278","null","0.36286002267572687","0.05479834915969567","0.22396880198278837","0","","","","","","","","",""
"","html-keyboard-response","117","377372","0.0-67.0-1.0","""event"",""trial"",""time""
""fullscreenenter"",""0"",""3126""
","
","
","""event"",""trial"",""time""
""fullscreenenter"",""0"",""3126""
","
","null","<p></p>","null","","","","","","","","","","","","","","","","","","","","","","","",""
"","do_trial","118","380492","0.0-68.0-0.0","""event"",""trial"",""time""
""fullscreenenter"",""0"",""3126""
","
","
","""event"",""trial"",""time""
""fullscreenenter"",""0"",""3126""
","
","574","","","","","","","","49","0,0,1","6","blank","279","null","0.49365816940085183","0.05710088452610462","0.20995564784073806","0","","","","","","","","",""
"","html-keyboard-response","119","381497","0.0-68.0-1.0","""event"",""trial"",""time""
""fullscreenenter"",""0"",""3126""
","
","
","""event"",""trial"",""time""
""fullscreenenter"",""0"",""3126""
","
","null","<p></p>","null","","","","","","","","","","","","","","","","","","","","","","","",""
"","do_trial","120","384740","0.0-69.0-0.0","""event"",""trial"",""time""
""fullscreenenter"",""0"",""3126""
","
","
","""event"",""trial"",""time""
""fullscreenenter"",""0"",""3126""
","
","697","","","","","","","","49","1,0,1","6","blank","280","null","0.6005879349863391","0.05207232636932872","0.29165053458419293","1","","","","","","","","",""
"","html-keyboard-response","121","385747","0.0-69.0-1.0","""event"",""trial"",""time""
""fullscreenenter"",""0"",""3126""
","
","
","""event"",""trial"",""time""
""fullscreenenter"",""0"",""3126""
","
","null","<p></p>","null","","","","","","","","","","","","","","","","","","","","","","","",""
"","do_trial","122","389201","0.0-70.0-0.0","""event"",""trial"",""time""
""fullscreenenter"",""0"",""3126""
","
","
","""event"",""trial"",""time""
""fullscreenenter"",""0"",""3126""
","
","912.1999999992549","","","","","","","","49","0,0,1","6","blank","281","null","0.6875396365973679","0.19269208980736843","0.29420185026509926","0","","","","","","","","",""
"","html-keyboard-response","123","390207","0.0-70.0-1.0","""event"",""trial"",""time""
""fullscreenenter"",""0"",""3126""
","
","
","""event"",""trial"",""time""
""fullscreenenter"",""0"",""3126""
","
","null","<p></p>","null","","","","","","","","","","","","","","","","","","","","","","","",""
"","do_recog","124","393219","0.0-71.0-0.0","""event"",""trial"",""time""
""fullscreenenter"",""0"",""3126""
","
","
","""event"",""trial"",""time""
""fullscreenenter"",""0"",""3126""
","
","1506.199999999255","","","","","","","","56","","","","282","probe-63","","","","","1","[object Object]","76","1","0","","","",""
"","html-keyboard-response","125","394222","0.0-71.0-1.0","""event"",""trial"",""time""
""fullscreenenter"",""0"",""3126""
","
","
","""event"",""trial"",""time""
""fullscreenenter"",""0"",""3126""
","
","null","<p></p>","null","","","","","","","","","","","","","","","","","","","","","","","",""
"","do_trial","126","397279","0.0-72.0-0.0","""event"",""trial"",""time""
""fullscreenenter"",""0"",""3126""
","
","
","""event"",""trial"",""time""
""fullscreenenter"",""0"",""3126""
","
","514.5999999996275","","","","","","","","49","1,0,0","6","blank","283","null","0.610070083790546","0.1192304786822546","0.23834402739363147","1","","","","","","","","",""
"","html-keyboard-response","127","398285","0.0-72.0-1.0","""event"",""trial"",""time""
""fullscreenenter"",""0"",""3126""
","
","
","""event"",""trial"",""time""
""fullscreenenter"",""0"",""3126""
","
","null","<p></p>","null","","","","","","","","","","","","","","","","","","","","","","","",""
"","do_trial","128","401334","0.0-73.0-0.0","""event"",""trial"",""time""
""fullscreenenter"",""0"",""3126""
","
","
","""event"",""trial"",""time""
""fullscreenenter"",""0"",""3126""
","
","507","","","","","","","","49","1,1,1","6","blank","284","null","0.6976124130592456","0.15301804124469778","0.31120999407072963","1","","","","","","","","",""
"","html-keyboard-response","129","402340","0.0-73.0-1.0","""event"",""trial"",""time""
""fullscreenenter"",""0"",""3126""
","
","
","""event"",""trial"",""time""
""fullscreenenter"",""0"",""3126""
","
","null","<p></p>","null","","","","","","","","","","","","","","","","","","","","","","","",""
"","do_trial","130","405388","0.0-74.0-0.0","""event"",""trial"",""time""
""fullscreenenter"",""0"",""3126""
","
","
","""event"",""trial"",""time""
""fullscreenenter"",""0"",""3126""
","
","502.80000000074506","","","","","","","","49","0,1,1","6","blank","285","null","0.6636339199670235","0.07109046746042111","0.29924132428604744","0","","","","","","","","",""
"","html-keyboard-response","131","406394","0.0-74.0-1.0","""event"",""trial"",""time""
""fullscreenenter"",""0"",""3126""
","
","
","""event"",""trial"",""time""
""fullscreenenter"",""0"",""3126""
","
","null","<p></p>","null","","","","","","","","","","","","","","","","","","","","","","","",""
"","do_recog","132","409773","0.0-75.0-0.0","""event"",""trial"",""time""
""fullscreenenter"",""0"",""3126""
","
","
","""event"",""trial"",""time""
""fullscreenenter"",""0"",""3126""
","
","1870.5","","","","","","","","53","","","","286","probe-19","","","","","1","[object Object]","32","0","1","","","",""
"","html-keyboard-response","133","410779","0.0-75.0-1.0","""event"",""trial"",""time""
""fullscreenenter"",""0"",""3126""
","
","
","""event"",""trial"",""time""
""fullscreenenter"",""0"",""3126""
","
","null","<p></p>","null","","","","","","","","","","","","","","","","","","","","","","","",""
"","do_trial","134","413970","0.0-76.0-0.0","""event"",""trial"",""time""
""fullscreenenter"",""0"",""3126""
","
","
","""event"",""trial"",""time""
""fullscreenenter"",""0"",""3126""
","
","647.4000000003725","","","","","","","","49","0,0,0","6","blank","287","null","0.627564877288873","0.10042595870968662","0.26970138189056625","0","","","","","","","","",""
"","html-keyboard-response","135","414975","0.0-76.0-1.0","""event"",""trial"",""time""
""fullscreenenter"",""0"",""3126""
","
","
","""event"",""trial"",""time""
""fullscreenenter"",""0"",""3126""
","
","null","<p></p>","null","","","","","","","","","","","","","","","","","","","","","","","",""
"","do_recog","136","419165","0.0-77.0-0.0","""event"",""trial"",""time""
""fullscreenenter"",""0"",""3126""
","
","
","""event"",""trial"",""time""
""fullscreenenter"",""0"",""3126""
","
","2679.5","","","","","","","","54","","","","288","probe-231","","","","","0","[object Object]","null","null","0","","","",""
"","html-keyboard-response","137","420171","0.0-77.0-1.0","""event"",""trial"",""time""
""fullscreenenter"",""0"",""3126""
","
","
","""event"",""trial"",""time""
""fullscreenenter"",""0"",""3126""
","
","null","<p></p>","null","","","","","","","","","","","","","","","","","","","","","","","",""
"","do_trial","138","423333","0.0-78.0-0.0","""event"",""trial"",""time""
""fullscreenenter"",""0"",""3126""
","
","
","""event"",""trial"",""time""
""fullscreenenter"",""0"",""3126""
","
","615.5999999996275","","","","","","","","49","1,0,0","6","blank","289","null","0.6504577537114676","0.0645324159221205","0.1919318726671736","1","","","","","","","","",""
"","html-keyboard-response","139","424335","0.0-78.0-1.0","""event"",""trial"",""time""
""fullscreenenter"",""0"",""3126""
","
","
","""event"",""trial"",""time""
""fullscreenenter"",""0"",""3126""
","
","null","<p></p>","null","","","","","","","","","","","","","","","","","","","","","","","",""
"","do_recog","140","427770","0.0-79.0-0.0","""event"",""trial"",""time""
""fullscreenenter"",""0"",""3126""
","
","
","""event"",""trial"",""time""
""fullscreenenter"",""0"",""3126""
","
","1925.2000000001863","","","","","","","","53","","","","290","probe-22","","","","","1","[object Object]","118","2","1","","","",""
"","html-keyboard-response","141","428773","0.0-79.0-1.0","""event"",""trial"",""time""
""fullscreenenter"",""0"",""3126""
","
","
","""event"",""trial"",""time""
""fullscreenenter"",""0"",""3126""
","
","null","<p></p>","null","","","","","","","","","","","","","","","","","","","","","","","",""
"","do_trial","142","432010","0.0-80.0-0.0","""event"",""trial"",""time""
""fullscreenenter"",""0"",""3126""
","
","
","""event"",""trial"",""time""
""fullscreenenter"",""0"",""3126""
","
","691.5","","","","","","","","49","1,1,0","6","blank","291","null","0.7593969858455403","0.103097716010736","0.2611102368427106","1","","","","","","","","",""
"","html-keyboard-response","143","433016","0.0-80.0-1.0","""event"",""trial"",""time""
""fullscreenenter"",""0"",""3126""
","
","
","""event"",""trial"",""time""
""fullscreenenter"",""0"",""3126""
","
","null","<p></p>","null","","","","","","","","","","","","","","","","","","","","","","","",""
"","do_recog","144","436235","0.0-81.0-0.0","""event"",""trial"",""time""
""fullscreenenter"",""0"",""3126""
","
","
","""event"",""trial"",""time""
""fullscreenenter"",""0"",""3126""
","
","1711.7999999998137","","","","","","","","56","","","","292","probe-124","","","","","1","[object Object]","119","2","0","","","",""
"","html-keyboard-response","145","437242","0.0-81.0-1.0","""event"",""trial"",""time""
""fullscreenenter"",""0"",""3126""
","
","
","""event"",""trial"",""time""
""fullscreenenter"",""0"",""3126""
","
","null","<p></p>","null","","","","","","","","","","","","","","","","","","","","","","","",""
"","do_trial","146","440534","0.0-82.0-0.0","""event"",""trial"",""time""
""fullscreenenter"",""0"",""3126""
","
","
","""event"",""trial"",""time""
""fullscreenenter"",""0"",""3126""
","
","746.7000000001863","","","","","","","","49","1,1,0","6","blank","293","null","0.7098428694858104","0.06519844815719626","0.3455399831464652","1","","","","","","","","",""
"","html-keyboard-response","147","441540","0.0-82.0-1.0","""event"",""trial"",""time""
""fullscreenenter"",""0"",""3126""
","
","
","""event"",""trial"",""time""
""fullscreenenter"",""0"",""3126""
","
","null","<p></p>","null","","","","","","","","","","","","","","","","","","","","","","","",""
"","do_trial","148","444704","0.0-83.0-0.0","""event"",""trial"",""time""
""fullscreenenter"",""0"",""3126""
","
","
","""event"",""trial"",""time""
""fullscreenenter"",""0"",""3126""
","
","621.6000000005588","","","","","","","","49","0,0,0","6","blank","294","null","0.5583587756648801","0.16005866130162713","0.331635452775013","0","","","","","","","","",""
"","html-keyboard-response","149","445711","0.0-83.0-1.0","""event"",""trial"",""time""
""fullscreenenter"",""0"",""3126""
","
","
","""event"",""trial"",""time""
""fullscreenenter"",""0"",""3126""
","
","null","<p></p>","null","","","","","","","","","","","","","","","","","","","","","","","",""
"","do_trial","150","448879","0.0-84.0-0.0","""event"",""trial"",""time""
""fullscreenenter"",""0"",""3126""
","
","
","""event"",""trial"",""time""
""fullscreenenter"",""0"",""3126""
","
","621.4000000003725","","","","","","","","49","0,0,1","6","blank","295","null","0.36999513586161814","0.14161307569891105","0.4003219214859358","0","","","","","","","","",""
"","html-keyboard-response","151","449884","0.0-84.0-1.0","""event"",""trial"",""time""
""fullscreenenter"",""0"",""3126""
","
","
","""event"",""trial"",""time""
""fullscreenenter"",""0"",""3126""
","
","null","<p></p>","null","","","","","","","","","","","","","","","","","","","","","","","",""
"","do_recog","152","452911","0.0-85.0-0.0","""event"",""trial"",""time""
""fullscreenenter"",""0"",""3126""
","
","
","""event"",""trial"",""time""
""fullscreenenter"",""0"",""3126""
","
","1518.7999999998137","","","","","","","","55","","","","296","probe-46","","","","","1","[object Object]","115","2","0","","","",""
"","html-keyboard-response","153","453918","0.0-85.0-1.0","""event"",""trial"",""time""
""fullscreenenter"",""0"",""3126""
","
","
","""event"",""trial"",""time""
""fullscreenenter"",""0"",""3126""
","
","null","<p></p>","null","","","","","","","","","","","","","","","","","","","","","","","",""
"","do_trial","154","457134","0.0-86.0-0.0","""event"",""trial"",""time""
""fullscreenenter"",""0"",""3126""
","
","
","""event"",""trial"",""time""
""fullscreenenter"",""0"",""3126""
","
","670.3000000007451","","","","","","","","49","0,1,0","6","blank","297","null","0.5341037047980239","0.23437048111496667","0.3657410730158827","0","","","","","","","","",""
"","html-keyboard-response","155","458140","0.0-86.0-1.0","""event"",""trial"",""time""
""fullscreenenter"",""0"",""3126""
","
","
","""event"",""trial"",""time""
""fullscreenenter"",""0"",""3126""
","
","null","<p></p>","null","","","","","","","","","","","","","","","","","","","","","","","",""
"","do_trial","156","461096","0.0-87.0-0.0","""event"",""trial"",""time""
""fullscreenenter"",""0"",""3126""
","
","
","""event"",""trial"",""time""
""fullscreenenter"",""0"",""3126""
","
","410.29999999981374","","","","","","","","50","1,0,0","6","blank","298","null","0.35174599955725966","0.30720171801489177","0.36698538485428084","0","","","","","","","","",""
"","html-keyboard-response","157","462102","0.0-87.0-1.0","""event"",""trial"",""time""
""fullscreenenter"",""0"",""3126""
","
","
","""event"",""trial"",""time""
""fullscreenenter"",""0"",""3126""
","
","null","<p></p>","null","","","","","","","","","","","","","","","","","","","","","","","",""
"","do_trial","158","465096","0.0-88.0-0.0","""event"",""trial"",""time""
""fullscreenenter"",""0"",""3126""
","
","
","""event"",""trial"",""time""
""fullscreenenter"",""0"",""3126""
","
","447.3999999994412","","","","","","","","51","0,0,1","6","blank","299","null","0.2730511766543088","0.4015542542777921","0.29423649623718984","1","","","","","","","","",""
"","html-keyboard-response","159","466101","0.0-88.0-1.0","""event"",""trial"",""time""
""fullscreenenter"",""0"",""3126""
","
","
","""event"",""trial"",""time""
""fullscreenenter"",""0"",""3126""
","
","null","<p></p>","null","","","","","","","","","","","","","","","","","","","","","","","",""
"","do_trial","160","469091","0.0-89.0-0.0","""event"",""trial"",""time""
""fullscreenenter"",""0"",""3126""
","
","
","""event"",""trial"",""time""
""fullscreenenter"",""0"",""3126""
","
","443.90000000037253","","","","","","","","51","0,1,0","6","blank","300","null","0.4061031099639996","0.5654672475121135","0.07411702924349946","0","","","","","","","","",""
"","html-keyboard-response","161","470097","0.0-89.0-1.0","""event"",""trial"",""time""
""fullscreenenter"",""0"",""3126""
","
","
","""event"",""trial"",""time""
""fullscreenenter"",""0"",""3126""
","
","null","<p></p>","null","","","","","","","","","","","","","","","","","","","","","","","",""
"","do_trial","162","473429","0.0-90.0-0.0","""event"",""trial"",""time""
""fullscreenenter"",""0"",""3126""
","
","
","""event"",""trial"",""time""
""fullscreenenter"",""0"",""3126""
","
","790.8999999994412","","","","","","","","49","0,0,1","6","blank","301","null","0.22257160489490946","0.5606080680355023","0.30052988329838465","0","","","","","","","","",""
"","html-keyboard-response","163","474436","0.0-90.0-1.0","""event"",""trial"",""time""
""fullscreenenter"",""0"",""3126""
","
","
","""event"",""trial"",""time""
""fullscreenenter"",""0"",""3126""
","
","null","<p></p>","null","","","","","","","","","","","","","","","","","","","","","","","",""
"","do_recog","164","477923","0.0-91.0-0.0","""event"",""trial"",""time""
""fullscreenenter"",""0"",""3126""
","
","
","""event"",""trial"",""time""
""fullscreenenter"",""0"",""3126""
","
","1980.2000000001863","","","","","","","","54","","","","302","probe-91","","","","","1","[object Object]","117","2","1","","","",""
"","html-keyboard-response","165","478930","0.0-91.0-1.0","""event"",""trial"",""time""
""fullscreenenter"",""0"",""3126""
","
","
","""event"",""trial"",""time""
""fullscreenenter"",""0"",""3126""
","
","null","<p></p>","null","","","","","","","","","","","","","","","","","","","","","","","",""
"","do_trial","166","482611","0.0-92.0-0.0","""event"",""trial"",""time""
""fullscreenenter"",""0"",""3126""
","
","
","""event"",""trial"",""time""
""fullscreenenter"",""0"",""3126""
","
","1134.7999999998137","","","","","","","","50","0,0,0","6","blank","303","null","0.2650449671511958","0.6358485061997114","0.2030649104128092","0","","","","","","","","",""
"","html-keyboard-response","167","483612","0.0-92.0-1.0","""event"",""trial"",""time""
""fullscreenenter"",""0"",""3126""
","
","
","""event"",""trial"",""time""
""fullscreenenter"",""0"",""3126""
","
","null","<p></p>","null","","","","","","","","","","","","","","","","","","","","","","","",""
"","do_trial","168","486494","0.0-93.0-0.0","""event"",""trial"",""time""
""fullscreenenter"",""0"",""3126""
","
","
","""event"",""trial"",""time""
""fullscreenenter"",""0"",""3126""
","
","336","","","","","","","","49","0,1,1","6","blank","304","null","0.18669700411668083","0.4750306891148153","0.40788698752423175","0","","","","","","","","",""
"","html-keyboard-response","169","487500","0.0-93.0-1.0","""event"",""trial"",""time""
""fullscreenenter"",""0"",""3126""
","
","
","""event"",""trial"",""time""
""fullscreenenter"",""0"",""3126""
","
","null","<p></p>","null","","","","","","","","","","","","","","","","","","","","","","","",""
"","do_trial","170","490469","0.0-94.0-0.0","""event"",""trial"",""time""
""fullscreenenter"",""0"",""3126""
","
","
","""event"",""trial"",""time""
""fullscreenenter"",""0"",""3126""
","
","422.19999999925494","","","","","","","","49","0,1,0","6","blank","305","null","0.13597343128093803","0.585061502109261","0.34980144479335806","0","","","","","","","","",""
"","html-keyboard-response","171","491471","0.0-94.0-1.0","""event"",""trial"",""time""
""fullscreenenter"",""0"",""3126""
","
","
","""event"",""trial"",""time""
""fullscreenenter"",""0"",""3126""
","
","null","<p></p>","null","","","","","","","","","","","","","","","","","","","","","","","",""
"","do_trial","172","494346","0.0-95.0-0.0","""event"",""trial"",""time""
""fullscreenenter"",""0"",""3126""
","
","
","""event"",""trial"",""time""
""fullscreenenter"",""0"",""3126""
","
","331.3999999994412","","","","","","","","49","0,0,1","6","blank","306","null","0.10666122499666121","0.6262176143870031","0.3209223798704015","0","","","","","","","","",""
"","html-keyboard-response","173","495349","0.0-95.0-1.0","""event"",""trial"",""time""
""fullscreenenter"",""0"",""3126""
","
","
","""event"",""trial"",""time""
""fullscreenenter"",""0"",""3126""
","
","null","<p></p>","null","","","","","","","","","","","","","","","","","","","","","","","",""
"","do_recog","174","499144","0.0-96.0-0.0","""event"",""trial"",""time""
""fullscreenenter"",""0"",""3126""
","
","
","""event"",""trial"",""time""
""fullscreenenter"",""0"",""3126""
","
","2284.7000000001863","","","","","","","","56","","","","307","probe-145","","","","","1","[object Object]","33","0","0","","","",""
"","html-keyboard-response","175","500150","0.0-96.0-1.0","""event"",""trial"",""time""
""fullscreenenter"",""0"",""3126""
","
","
","""event"",""trial"",""time""
""fullscreenenter"",""0"",""3126""
","
","null","<p></p>","null","","","","","","","","","","","","","","","","","","","","","","","",""
"","do_trial","176","503812","0.0-97.0-0.0","""event"",""trial"",""time""
""fullscreenenter"",""0"",""3126""
","
","
","""event"",""trial"",""time""
""fullscreenenter"",""0"",""3126""
","
","1118.5","","","","","","","","49","0,1,1","6","blank","308","null","0.062293613445659146","0.6109153822828869","0.29445867754280475","0","","","","","","","","",""
"","html-keyboard-response","177","504817","0.0-97.0-1.0","""event"",""trial"",""time""
""fullscreenenter"",""0"",""3126""
","
","
","""event"",""trial"",""time""
""fullscreenenter"",""0"",""3126""
","
","null","<p></p>","null","","","","","","","","","","","","","","","","","","","","","","","",""
"","break","178","506201","0.0-98.0-0.0","""event"",""trial"",""time""
""fullscreenenter"",""0"",""3126""
","
","
","""event"",""trial"",""time""
""fullscreenenter"",""0"",""3126""
","
","1382.6000000005588","<div class='center'><p>Time to take a quick break! You have 2 minutes to rest, but you can move on sooner if you'd like.</p><p> Press the <b>space bar</b> to continue.</p></div>","32","","","","","","","","","","","","","","","","","","","","","","","",""
"","do_trial","179","509853","0.0-98.0-1.0","""event"",""trial"",""time""
""fullscreenenter"",""0"",""3126""
","
","
","""event"",""trial"",""time""
""fullscreenenter"",""0"",""3126""
","
","1107.199999999255","","","","","","","","49","0,1,0","6","blank","309","null","0.14174358236108942","0.5590675850782292","0.2196380667483435","0","","","","","","","","",""
"","html-keyboard-response","180","510858","0.0-98.0-2.0","""event"",""trial"",""time""
""fullscreenenter"",""0"",""3126""
","
","
","""event"",""trial"",""time""
""fullscreenenter"",""0"",""3126""
","
","null","<p></p>","null","","","","","","","","","","","","","","","","","","","","","","","",""
"","do_trial","181","513759","0.0-99.0-0.0","""event"",""trial"",""time""
""fullscreenenter"",""0"",""3126""
","
","
","""event"",""trial"",""time""
""fullscreenenter"",""0"",""3126""
","
","354.79999999981374","","","","","","","","50","1,0,1","6","blank","310","null","0.21969063660710816","0.47318065741262677","0.3434821239583601","0","","","","","","","","",""
"","html-keyboard-response","182","514764","0.0-99.0-1.0","""event"",""trial"",""time""
""fullscreenenter"",""0"",""3126""
","
","
","""event"",""trial"",""time""
""fullscreenenter"",""0"",""3126""
","
","null","<p></p>","null","","","","","","","","","","","","","","","","","","","","","","","",""
"","do_trial","183","517590","0.0-100.0-0.0","""event"",""trial"",""time""
""fullscreenenter"",""0"",""3126""
","
","
","""event"",""trial"",""time""
""fullscreenenter"",""0"",""3126""
","
","284.70000000018626","","","","","","","","51","0,0,0","6","blank","311","null","0.09186827368458143","0.5847626151429776","0.35594635371178585","0","","","","","","","","",""
"","html-keyboard-response","184","518595","0.0-100.0-1.0","""event"",""trial"",""time""
""fullscreenenter"",""0"",""3126""
","
","
","""event"",""trial"",""time""
""fullscreenenter"",""0"",""3126""
","
","null","<p></p>","null","","","","","","","","","","","","","","","","","","","","","","","",""
"","do_recog","185","521924","0.0-101.0-0.0","""event"",""trial"",""time""
""fullscreenenter"",""0"",""3126""
","
","
","""event"",""trial"",""time""
""fullscreenenter"",""0"",""3126""
","
","1819.0999999996275","","","","","","","","56","","","","312","probe-229","","","","","1","[object Object]","154","3","0","","","",""
"","html-keyboard-response","186","522930","0.0-101.0-1.0","""event"",""trial"",""time""
""fullscreenenter"",""0"",""3126""
","
","
","""event"",""trial"",""time""
""fullscreenenter"",""0"",""3126""
","
","null","<p></p>","null","","","","","","","","","","","","","","","","","","","","","","","",""
"","do_trial","187","526343","0.0-102.0-0.0","""event"",""trial"",""time""
""fullscreenenter"",""0"",""3126""
","
","
","""event"",""trial"",""time""
""fullscreenenter"",""0"",""3126""
","
","866.4000000003725","","","","","","","","49","0,1,0","6","blank","313","null","0.1895730336434009","0.8091250878408776","0.40815371328285777","0","","","","","","","","",""
"","html-keyboard-response","188","527347","0.0-102.0-1.0","""event"",""trial"",""time""
""fullscreenenter"",""0"",""3126""
","
","
","""event"",""trial"",""time""
""fullscreenenter"",""0"",""3126""
","
","null","<p></p>","null","","","","","","","","","","","","","","","","","","","","","","","",""
"","do_trial","189","530274","0.0-103.0-0.0","""event"",""trial"",""time""
""fullscreenenter"",""0"",""3126""
","
","
","""event"",""trial"",""time""
""fullscreenenter"",""0"",""3126""
","
","380.5","","","","","","","","49","0,0,0","6","blank","314","null","0.09794186981222708","0.5057667310614836","0.28002154386657735","0","","","","","","","","",""
"","html-keyboard-response","190","531276","0.0-103.0-1.0","""event"",""trial"",""time""
""fullscreenenter"",""0"",""3126""
","
","
","""event"",""trial"",""time""
""fullscreenenter"",""0"",""3126""
","
","null","<p></p>","null","","","","","","","","","","","","","","","","","","","","","","","",""
"","do_trial","191","534424","0.0-104.0-0.0","""event"",""trial"",""time""
""fullscreenenter"",""0"",""3126""
","
","
","""event"",""trial"",""time""
""fullscreenenter"",""0"",""3126""
","
","608.4000000003725","","","","","","","","49","1,1,0","6","blank","315","null","0.12503533199970743","0.5460576931688492","0.20921517147834498","1","","","","","","","","",""
"","html-keyboard-response","192","535431","0.0-104.0-1.0","""event"",""trial"",""time""
""fullscreenenter"",""0"",""3126""
","
","
","""event"",""trial"",""time""
""fullscreenenter"",""0"",""3126""
","
","null","<p></p>","null","","","","","","","","","","","","","","","","","","","","","","","",""
"","do_trial","193","538374","0.0-105.0-0.0","""event"",""trial"",""time""
""fullscreenenter"",""0"",""3126""
","
","
","""event"",""trial"",""time""
""fullscreenenter"",""0"",""3126""
","
","397","","","","","","","","49","0,1,0","6","blank","316","null","0.17080754770136797","0.6858393749856236","0.1474570022165","0","","","","","","","","",""
"","html-keyboard-response","194","539377","0.0-105.0-1.0","""event"",""trial"",""time""
""fullscreenenter"",""0"",""3126""
","
","
","""event"",""trial"",""time""
""fullscreenenter"",""0"",""3126""
","
","null","<p></p>","null","","","","","","","","","","","","","","","","","","","","","","","",""
"","do_trial","195","542324","0.0-106.0-0.0","""event"",""trial"",""time""
""fullscreenenter"",""0"",""3126""
","
","
","""event"",""trial"",""time""
""fullscreenenter"",""0"",""3126""
","
","404.8999999994412","","","","","","","","49","0,1,0","6","blank","317","null","0.05748933366650272","0.5697452040633634","0.20610478443727043","0","","","","","","","","",""
"","html-keyboard-response","196","543330","0.0-106.0-1.0","""event"",""trial"",""time""
""fullscreenenter"",""0"",""3126""
","
","
","""event"",""trial"",""time""
""fullscreenenter"",""0"",""3126""
","
","null","<p></p>","null","","","","","","","","","","","","","","","","","","","","","","","",""
"","do_recog","197","546711","0.0-107.0-0.0","""event"",""trial"",""time""
""fullscreenenter"",""0"",""3126""
","
","
","""event"",""trial"",""time""
""fullscreenenter"",""0"",""3126""
","
","1870.5","","","","","","","","56","","","","318","probe-44","","","","","1","[object Object]","31","0","0","","","",""
"","html-keyboard-response","198","547717","0.0-107.0-1.0","""event"",""trial"",""time""
""fullscreenenter"",""0"",""3126""
","
","
","""event"",""trial"",""time""
""fullscreenenter"",""0"",""3126""
","
","null","<p></p>","null","","","","","","","","","","","","","","","","","","","","","","","",""
"","do_trial","199","550737","0.0-108.0-0.0","""event"",""trial"",""time""
""fullscreenenter"",""0"",""3126""
","
","
","""event"",""trial"",""time""
""fullscreenenter"",""0"",""3126""
","
","477.5","","","","","","","","49","0,0,0","6","blank","319","null","0.0562063605668336","0.48210544201367145","0.12787356926455656","0","","","","","","","","",""
"","html-keyboard-response","200","551742","0.0-108.0-1.0","""event"",""trial"",""time""
""fullscreenenter"",""0"",""3126""
","
","
","""event"",""trial"",""time""
""fullscreenenter"",""0"",""3126""
","
","null","<p></p>","null","","","","","","","","","","","","","","","","","","","","","","","",""
"","do_trial","201","554724","0.0-109.0-0.0","""event"",""trial"",""time""
""fullscreenenter"",""0"",""3126""
","
","
","""event"",""trial"",""time""
""fullscreenenter"",""0"",""3126""
","
","437.1000000005588","","","","","","","","49","0,1,0","6","blank","320","null","0.21082832815675578","0.5424013230822008","0.2973530000684647","0","","","","","","","","",""
"","html-keyboard-response","202","555730","0.0-109.0-1.0","""event"",""trial"",""time""
""fullscreenenter"",""0"",""3126""
","
","
","""event"",""trial"",""time""
""fullscreenenter"",""0"",""3126""
","
","null","<p></p>","null","","","","","","","","","","","","","","","","","","","","","","","",""
"","do_trial","203","558678","0.0-110.0-0.0","""event"",""trial"",""time""
""fullscreenenter"",""0"",""3126""
","
","
","""event"",""trial"",""time""
""fullscreenenter"",""0"",""3126""
","
","406.40000000037253","","","","","","","","49","0,0,0","6","blank","321","null","0.052049148455018984","0.5681617135745982","0.3860049081263401","0","","","","","","","","",""
"","html-keyboard-response","204","559683","0.0-110.0-1.0","""event"",""trial"",""time""
""fullscreenenter"",""0"",""3126""
","
","
","""event"",""trial"",""time""
""fullscreenenter"",""0"",""3126""
","
","null","<p></p>","null","","","","","","","","","","","","","","","","","","","","","","","",""
"","do_trial","205","562637","0.0-111.0-0.0","""event"",""trial"",""time""
""fullscreenenter"",""0"",""3126""
","
","
","""event"",""trial"",""time""
""fullscreenenter"",""0"",""3126""
","
","414.70000000018626","","","","","","","","49","0,1,1","6","blank","322","null","0.23044791325539923","0.6706182768435359","0.4787590224109958","0","","","","","","","","",""
"","html-keyboard-response","206","563639","0.0-111.0-1.0","""event"",""trial"",""time""
""fullscreenenter"",""0"",""3126""
","
","
","""event"",""trial"",""time""
""fullscreenenter"",""0"",""3126""
","
","null","<p></p>","null","","","","","","","","","","","","","","","","","","","","","","","",""
"","do_trial","207","566577","0.0-112.0-0.0","""event"",""trial"",""time""
""fullscreenenter"",""0"",""3126""
","
","
","""event"",""trial"",""time""
""fullscreenenter"",""0"",""3126""
","
","397.5","","","","","","","","49","0,0,0","6","blank","323","null","0.1345790530914041","0.7554844638508543","0.4301863951852283","0","","","","","","","","",""
"","html-keyboard-response","208","567583","0.0-112.0-1.0","""event"",""trial"",""time""
""fullscreenenter"",""0"",""3126""
","
","
","""event"",""trial"",""time""
""fullscreenenter"",""0"",""3126""
","
","null","<p></p>","null","","","","","","","","","","","","","","","","","","","","","","","",""
"","do_trial","209","570525","0.0-113.0-0.0","""event"",""trial"",""time""
""fullscreenenter"",""0"",""3126""
","
","
","""event"",""trial"",""time""
""fullscreenenter"",""0"",""3126""
","
","398.20000000018626","","","","","","","","50","0,1,0","6","blank","324","null","0.2233121421308828","0.655484105466399","0.2763476210510152","1","","","","","","","","",""
"","html-keyboard-response","210","571531","0.0-113.0-1.0","""event"",""trial"",""time""
""fullscreenenter"",""0"",""3126""
","
","
","""event"",""trial"",""time""
""fullscreenenter"",""0"",""3126""
","
","null","<p></p>","null","","","","","","","","","","","","","","","","","","","","","","","",""
"","do_recog","211","575463","0.0-114.0-0.0","""event"",""trial"",""time""
""fullscreenenter"",""0"",""3126""
","
","
","""event"",""trial"",""time""
""fullscreenenter"",""0"",""3126""
","
","2421.800000000745","","","","","","","","53","","","","325","probe-184","","","","","1","[object Object]","70","1","1","","","",""
"","html-keyboard-response","212","576469","0.0-114.0-1.0","""event"",""trial"",""time""
""fullscreenenter"",""0"",""3126""
","
","
","""event"",""trial"",""time""
""fullscreenenter"",""0"",""3126""
","
","null","<p></p>","null","","","","","","","","","","","","","","","","","","","","","","","",""
"","do_trial","213","580353","0.0-115.0-0.0","""event"",""trial"",""time""
""fullscreenenter"",""0"",""3126""
","
","
","""event"",""trial"",""time""
""fullscreenenter"",""0"",""3126""
","
","1345.3999999994412","","","","","","","","49","0,1,0","6","blank","326","null","0.30119460626847533","0.5513041237249093","0.22258231900820036","0","","","","","","","","",""
"","html-keyboard-response","214","581360","0.0-115.0-1.0","""event"",""trial"",""time""
""fullscreenenter"",""0"",""3126""
","
","
","""event"",""trial"",""time""
""fullscreenenter"",""0"",""3126""
","
","null","<p></p>","null","","","","","","","","","","","","","","","","","","","","","","","",""
"","do_trial","215","584243","0.0-116.0-0.0","""event"",""trial"",""time""
""fullscreenenter"",""0"",""3126""
","
","
","""event"",""trial"",""time""
""fullscreenenter"",""0"",""3126""
","
","337.09999999962747","","","","","","","","50","0,1,0","6","blank","327","null","0.07104672950053896","0.5446037317647207","0.28592394971686963","1","","","","","","","","",""
"","html-keyboard-response","216","585245","0.0-116.0-1.0","""event"",""trial"",""time""
""fullscreenenter"",""0"",""3126""
","
","
","""event"",""trial"",""time""
""fullscreenenter"",""0"",""3126""
","
","null","<p></p>","null","","","","","","","","","","","","","","","","","","","","","","","",""
"","do_trial","217","588296","0.0-117.0-0.0","""event"",""trial"",""time""
""fullscreenenter"",""0"",""3126""
","
","
","""event"",""trial"",""time""
""fullscreenenter"",""0"",""3126""
","
","511.59999999962747","","","","","","","","50","0,0,0","6","blank","328","null","0.13350685162414666","0.589521683238053","0.26217274438238447","0","","","","","","","","",""
"","html-keyboard-response","218","589298","0.0-117.0-1.0","""event"",""trial"",""time""
""fullscreenenter"",""0"",""3126""
","
","
","""event"",""trial"",""time""
""fullscreenenter"",""0"",""3126""
","
","null","<p></p>","null","","","","","","","","","","","","","","","","","","","","","","","",""
"","do_trial","219","592247","0.0-118.0-0.0","""event"",""trial"",""time""
""fullscreenenter"",""0"",""3126""
","
","
","""event"",""trial"",""time""
""fullscreenenter"",""0"",""3126""
","
","402.79999999981374","","","","","","","","50","0,1,0","6","blank","329","null","0.09888946509086242","0.5635459136487578","0.36497480307927616","1","","","","","","","","",""
"","html-keyboard-response","220","593250","0.0-118.0-1.0","""event"",""trial"",""time""
""fullscreenenter"",""0"",""3126""
","
","
","""event"",""trial"",""time""
""fullscreenenter"",""0"",""3126""
","
","null","<p></p>","null","","","","","","","","","","","","","","","","","","","","","","","",""
"","do_trial","221","596694","0.0-119.0-0.0","""event"",""trial"",""time""
""fullscreenenter"",""0"",""3126""
","
","
","""event"",""trial"",""time""
""fullscreenenter"",""0"",""3126""
","
","899.4000000003725","","","","","","","","50","0,1,0","6","blank","330","null","0.09143360531226988","0.43080931173449577","0.26526914383060507","1","","","","","","","","",""
"","html-keyboard-response","222","597696","0.0-119.0-1.0","""event"",""trial"",""time""
""fullscreenenter"",""0"",""3126""
","
","
","""event"",""trial"",""time""
""fullscreenenter"",""0"",""3126""
","
","null","<p></p>","null","","","","","","","","","","","","","","","","","","","","","","","",""
"","do_recog","223","601260","0.0-120.0-0.0","""event"",""trial"",""time""
""fullscreenenter"",""0"",""3126""
","
","
","""event"",""trial"",""time""
""fullscreenenter"",""0"",""3126""
","
","2054.7000000001863","","","","","","","","53","","","","331","probe-79","","","","","1","[object Object]","110","2","1","","","",""
"","html-keyboard-response","224","602264","0.0-120.0-1.0","""event"",""trial"",""time""
""fullscreenenter"",""0"",""3126""
","
","
","""event"",""trial"",""time""
""fullscreenenter"",""0"",""3126""
","
","null","<p></p>","null","","","","","","","","","","","","","","","","","","","","","","","",""
"","do_trial","225","605721","0.0-121.0-0.0","""event"",""trial"",""time""
""fullscreenenter"",""0"",""3126""
","
","
","""event"",""trial"",""time""
""fullscreenenter"",""0"",""3126""
","
","914.9000000003725","","","","","","","","50","0,1,0","6","blank","332","null","0.07031383572070313","0.47313909131941495","0.4104026863319023","1","","","","","","","","",""
"","html-keyboard-response","226","606727","0.0-121.0-1.0","""event"",""trial"",""time""
""fullscreenenter"",""0"",""3126""
","
","
","""event"",""trial"",""time""
""fullscreenenter"",""0"",""3126""
","
","null","<p></p>","null","","","","","","","","","","","","","","","","","","","","","","","",""
"","do_recog","227","609968","0.0-122.0-0.0","""event"",""trial"",""time""
""fullscreenenter"",""0"",""3126""
","
","
","""event"",""trial"",""time""
""fullscreenenter"",""0"",""3126""
","
","1730.7000000001863","","","","","","","","56","","","","333","probe-172","","","","","1","[object Object]","114","2","0","","","",""
"","html-keyboard-response","228","610972","0.0-122.0-1.0","""event"",""trial"",""time""
""fullscreenenter"",""0"",""3126""
","
","
","""event"",""trial"",""time""
""fullscreenenter"",""0"",""3126""
","
","null","<p></p>","null","","","","","","","","","","","","","","","","","","","","","","","",""
"","do_trial","229","614103","0.0-123.0-0.0","""event"",""trial"",""time""
""fullscreenenter"",""0"",""3126""
","
","
","""event"",""trial"",""time""
""fullscreenenter"",""0"",""3126""
","
","586.5","","","","","","","","50","0,0,0","6","blank","334","null","0.1556725358079927","0.49995605503405743","0.21455989103515954","0","","","","","","","","",""
"","html-keyboard-response","230","615109","0.0-123.0-1.0","""event"",""trial"",""time""
""fullscreenenter"",""0"",""3126""
","
","
","""event"",""trial"",""time""
""fullscreenenter"",""0"",""3126""
","
","null","<p></p>","null","","","","","","","","","","","","","","","","","","","","","","","",""
"","do_recog","231","618738","0.0-124.0-0.0","""event"",""trial"",""time""
""fullscreenenter"",""0"",""3126""
","
","
","""event"",""trial"",""time""
""fullscreenenter"",""0"",""3126""
","
","2119.699999999255","","","","","","","","56","","","","335","probe-61","","","","","1","[object Object]","74","1","0","","","",""
"","html-keyboard-response","232","619743","0.0-124.0-1.0","""event"",""trial"",""time""
""fullscreenenter"",""0"",""3126""
","
","
","""event"",""trial"",""time""
""fullscreenenter"",""0"",""3126""
","
","null","<p></p>","null","","","","","","","","","","","","","","","","","","","","","","","",""
"","do_trial","233","623700","0.0-125.0-0.0","""event"",""trial"",""time""
""fullscreenenter"",""0"",""3126""
","
","
","""event"",""trial"",""time""
""fullscreenenter"",""0"",""3126""
","
","1414.5999999996275","","","","","","","","50","0,1,1","6","blank","336","null","0.06226421697415575","0.4549228135917018","0.2614018885935053","1","","","","","","","","",""
"","html-keyboard-response","234","624705","0.0-125.0-1.0","""event"",""trial"",""time""
""fullscreenenter"",""0"",""3126""
","
","
","""event"",""trial"",""time""
""fullscreenenter"",""0"",""3126""
","
","null","<p></p>","null","","","","","","","","","","","","","","","","","","","","","","","",""
"","do_trial","235","627659","0.0-126.0-0.0","""event"",""trial"",""time""
""fullscreenenter"",""0"",""3126""
","
","
","""event"",""trial"",""time""
""fullscreenenter"",""0"",""3126""
","
","413","","","","","","","","50","0,1,1","6","blank","337","null","0.12183274440989099","0.5516005344776956","0.27101005868740535","1","","","","","","","","",""
"","html-keyboard-response","236","628663","0.0-126.0-1.0","""event"",""trial"",""time""
""fullscreenenter"",""0"",""3126""
","
","
","""event"",""trial"",""time""
""fullscreenenter"",""0"",""3126""
","
","null","<p></p>","null","","","","","","","","","","","","","","","","","","","","","","","",""
"","do_recog","237","631991","0.0-127.0-0.0","""event"",""trial"",""time""
""fullscreenenter"",""0"",""3126""
","
","
","""event"",""trial"",""time""
""fullscreenenter"",""0"",""3126""
","
","1817.5","","","","","","","","53","","","","338","probe-52","","","","","1","[object Object]","38","0","1","","","",""
"","html-keyboard-response","238","632993","0.0-127.0-1.0","""event"",""trial"",""time""
""fullscreenenter"",""0"",""3126""
","
","
","""event"",""trial"",""time""
""fullscreenenter"",""0"",""3126""
","
","null","<p></p>","null","","","","","","","","","","","","","","","","","","","","","","","",""
"","do_trial","239","636398","0.0-128.0-0.0","""event"",""trial"",""time""
""fullscreenenter"",""0"",""3126""
","
","
","""event"",""trial"",""time""
""fullscreenenter"",""0"",""3126""
","
","858.5","","","","","","","","50","0,0,1","6","blank","339","null","0.09518183114089666","0.506308383325927","0.220766401839608","0","","","","","","","","",""
"","html-keyboard-response","240","637404","0.0-128.0-1.0","""event"",""trial"",""time""
""fullscreenenter"",""0"",""3126""
","
","
","""event"",""trial"",""time""
""fullscreenenter"",""0"",""3126""
","
","null","<p></p>","null","","","","","","","","","","","","","","","","","","","","","","","",""
"","do_trial","241","640335","0.0-129.0-0.0","""event"",""trial"",""time""
""fullscreenenter"",""0"",""3126""
","
","
","""event"",""trial"",""time""
""fullscreenenter"",""0"",""3126""
","
","384.3999999994412","","","","","","","","50","0,1,1","6","blank","340","null","0.118275040683498","0.5901967109120133","0.31815251163816166","1","","","","","","","","",""
"","html-keyboard-response","242","641338","0.0-129.0-1.0","""event"",""trial"",""time""
""fullscreenenter"",""0"",""3126""
","
","
","""event"",""trial"",""time""
""fullscreenenter"",""0"",""3126""
","
","null","<p></p>","null","","","","","","","","","","","","","","","","","","","","","","","",""
"","do_trial","243","644448","0.0-130.0-0.0","""event"",""trial"",""time""
""fullscreenenter"",""0"",""3126""
","
","
","""event"",""trial"",""time""
""fullscreenenter"",""0"",""3126""
","
","565.7000000001863","","","","","","","","50","0,1,0","6","blank","341","null","0.12317700984165257","0.6400829246647495","0.3272385947510364","1","","","","","","","","",""
"","html-keyboard-response","244","645452","0.0-130.0-1.0","""event"",""trial"",""time""
""fullscreenenter"",""0"",""3126""
","
","
","""event"",""trial"",""time""
""fullscreenenter"",""0"",""3126""
","
","null","<p></p>","null","","","","","","","","","","","","","","","","","","","","","","","",""
"","do_recog","245","649187","0.0-131.0-0.0","""event"",""trial"",""time""
""fullscreenenter"",""0"",""3126""
","
","
","""event"",""trial"",""time""
""fullscreenenter"",""0"",""3126""
","
","2224.699999999255","","","","","","","","53","","","","342","probe-149","","","","","1","[object Object]","111","2","1","","","",""
"","html-keyboard-response","246","650191","0.0-131.0-1.0","""event"",""trial"",""time""
""fullscreenenter"",""0"",""3126""
","
","
","""event"",""trial"",""time""
""fullscreenenter"",""0"",""3126""
","
","null","<p></p>","null","","","","","","","","","","","","","","","","","","","","","","","",""
"","do_trial","247","653553","0.0-132.0-0.0","""event"",""trial"",""time""
""fullscreenenter"",""0"",""3126""
","
","
","""event"",""trial"",""time""
""fullscreenenter"",""0"",""3126""
","
","816.2999999998137","","","","","","","","50","0,0,0","6","blank","343","null","0.0696915967645747","0.7005501564341762","0.2997927735595873","0","","","","","","","","",""
"","html-keyboard-response","248","654557","0.0-132.0-1.0","""event"",""trial"",""time""
""fullscreenenter"",""0"",""3126""
","
","
","""event"",""trial"",""time""
""fullscreenenter"",""0"",""3126""
","
","null","<p></p>","null","","","","","","","","","","","","","","","","","","","","","","","",""
"","do_recog","249","657968","0.0-133.0-0.0","""event"",""trial"",""time""
""fullscreenenter"",""0"",""3126""
","
","
","""event"",""trial"",""time""
""fullscreenenter"",""0"",""3126""
","
","1900.8999999994412","","","","","","","","56","","","","344","probe-243","","","","","0","[object Object]","null","null","1","","","",""
"","html-keyboard-response","250","658973","0.0-133.0-1.0","""event"",""trial"",""time""
""fullscreenenter"",""0"",""3126""
","
","
","""event"",""trial"",""time""
""fullscreenenter"",""0"",""3126""
","
","null","<p></p>","null","","","","","","","","","","","","","","","","","","","","","","","",""
"","do_trial","251","662472","0.0-134.0-0.0","""event"",""trial"",""time""
""fullscreenenter"",""0"",""3126""
","
","
","""event"",""trial"",""time""
""fullscreenenter"",""0"",""3126""
","
","954.5","","","","","","","","50","1,1,0","6","blank","345","null","0.09864087869432303","0.6177917507510453","0.2980492898374054","1","","","","","","","","",""
"","html-keyboard-response","252","663475","0.0-134.0-1.0","""event"",""trial"",""time""
""fullscreenenter"",""0"",""3126""
","
","
","""event"",""trial"",""time""
""fullscreenenter"",""0"",""3126""
","
","null","<p></p>","null","","","","","","","","","","","","","","","","","","","","","","","",""
"","do_trial","253","666613","0.0-135.0-0.0","""event"",""trial"",""time""
""fullscreenenter"",""0"",""3126""
","
","
","""event"",""trial"",""time""
""fullscreenenter"",""0"",""3126""
","
","595.1000000005588","","","","","","","","50","0,1,0","6","blank","346","null","0.07931327235016056","0.5830556456347549","0.22711936201956257","1","","","","","","","","",""
"","html-keyboard-response","254","667619","0.0-135.0-1.0","""event"",""trial"",""time""
""fullscreenenter"",""0"",""3126""
","
","
","""event"",""trial"",""time""
""fullscreenenter"",""0"",""3126""
","
","null","<p></p>","null","","","","","","","","","","","","","","","","","","","","","","","",""
"","do_trial","255","670624","0.0-136.0-0.0","""event"",""trial"",""time""
""fullscreenenter"",""0"",""3126""
","
","
","""event"",""trial"",""time""
""fullscreenenter"",""0"",""3126""
","
","458.20000000018626","","","","","","","","50","0,1,0","6","blank","347","null","0.13720516928135582","0.5071941638075145","0.2176776433233236","1","","","","","","","","",""
"","html-keyboard-response","256","671626","0.0-136.0-1.0","""event"",""trial"",""time""
""fullscreenenter"",""0"",""3126""
","
","
","""event"",""trial"",""time""
""fullscreenenter"",""0"",""3126""
","
","null","<p></p>","null","","","","","","","","","","","","","","","","","","","","","","","",""
"","do_trial","257","674638","0.0-137.0-0.0","""event"",""trial"",""time""
""fullscreenenter"",""0"",""3126""
","
","
","""event"",""trial"",""time""
""fullscreenenter"",""0"",""3126""
","
","466.29999999981374","","","","","","","","50","0,1,0","6","blank","348","null","0.2607474256347818","0.5600865850267991","0.2221574694828337","1","","","","","","","","",""
"","html-keyboard-response","258","675644","0.0-137.0-1.0","""event"",""trial"",""time""
""fullscreenenter"",""0"",""3126""
","
","
","""event"",""trial"",""time""
""fullscreenenter"",""0"",""3126""
","
","null","<p></p>","null","","","","","","","","","","","","","","","","","","","","","","","",""
"","break","259","677828","0.0-138.0-0.0","""event"",""trial"",""time""
""fullscreenenter"",""0"",""3126""
","
","
","""event"",""trial"",""time""
""fullscreenenter"",""0"",""3126""
","
","2182.9000000003725","<div class='center'><p>Time to take a quick break! You have 2 minutes to rest, but you can move on sooner if you'd like.</p><p> Press the <b>space bar</b> to continue.</p></div>","32","","","","","","","","","","","","","","","","","","","","","","","",""
"","do_recog","260","681204","0.0-138.0-1.0","""event"",""trial"",""time""
""fullscreenenter"",""0"",""3126""
","
","
","""event"",""trial"",""time""
""fullscreenenter"",""0"",""3126""
","
","1866.7000000001863","","","","","","","","53","","","","349","probe-180","","","","","1","[object Object]","78","1","1","","","",""
"","html-keyboard-response","261","682211","0.0-138.0-2.0","""event"",""trial"",""time""
""fullscreenenter"",""0"",""3126""
","
","
","""event"",""trial"",""time""
""fullscreenenter"",""0"",""3126""
","
","null","<p></p>","null","","","","","","","","","","","","","","","","","","","","","","","",""
"","do_trial","262","685680","0.0-139.0-0.0","""event"",""trial"",""time""
""fullscreenenter"",""0"",""3126""
","
","
","""event"",""trial"",""time""
""fullscreenenter"",""0"",""3126""
","
","923.5","","","","","","","","50","1,0,1","6","blank","350","null","0.425132455921452","0.34736215353309363","0.23966327893723527","0","","","","","","","","",""
"","html-keyboard-response","263","686686","0.0-139.0-1.0","""event"",""trial"",""time""
""fullscreenenter"",""0"",""3126""
","
","
","""event"",""trial"",""time""
""fullscreenenter"",""0"",""3126""
","
","null","<p></p>","null","","","","","","","","","","","","","","","","","","","","","","","",""
"","do_trial","264","689621","0.0-140.0-0.0","""event"",""trial"",""time""
""fullscreenenter"",""0"",""3126""
","
","
","""event"",""trial"",""time""
""fullscreenenter"",""0"",""3126""
","
","388","","","","","","","","50","1,0,0","6","blank","351","null","0.5401271501740402","0.27534796323600225","0.20314273372241073","0","","","","","","","","",""
"","html-keyboard-response","265","690626","0.0-140.0-1.0","""event"",""trial"",""time""
""fullscreenenter"",""0"",""3126""
","
","
","""event"",""trial"",""time""
""fullscreenenter"",""0"",""3126""
","
","null","<p></p>","null","","","","","","","","","","","","","","","","","","","","","","","",""
"","do_trial","266","693648","0.0-141.0-0.0","""event"",""trial"",""time""
""fullscreenenter"",""0"",""3126""
","
","
","""event"",""trial"",""time""
""fullscreenenter"",""0"",""3126""
","
","480.70000000018626","","","","","","","","50","0,0,1","6","blank","352","null","0.5134390222790639","0.1193072434258614","0.2940033321941421","0","","","","","","","","",""
"","html-keyboard-response","267","694654","0.0-141.0-1.0","""event"",""trial"",""time""
""fullscreenenter"",""0"",""3126""
","
","
","""event"",""trial"",""time""
""fullscreenenter"",""0"",""3126""
","
","null","<p></p>","null","","","","","","","","","","","","","","","","","","","","","","","",""
"","do_trial","268","697616","0.0-142.0-0.0","""event"",""trial"",""time""
""fullscreenenter"",""0"",""3126""
","
","
","""event"",""trial"",""time""
""fullscreenenter"",""0"",""3126""
","
","415.09999999962747","","","","","","","","51","0,0,1","6","blank","353","null","0.4424218625167846","0.0610035725548886","0.36254952636399074","1","","","","","","","","",""
"","html-keyboard-response","269","698622","0.0-142.0-1.0","""event"",""trial"",""time""
""fullscreenenter"",""0"",""3126""
","
","
","""event"",""trial"",""time""
""fullscreenenter"",""0"",""3126""
","
","null","<p></p>","null","","","","","","","","","","","","","","","","","","","","","","","",""
"","do_trial","270","701695","0.0-143.0-0.0","""event"",""trial"",""time""
""fullscreenenter"",""0"",""3126""
","
","
","""event"",""trial"",""time""
""fullscreenenter"",""0"",""3126""
","
","529.0999999996275","","","","","","","","51","1,0,1","6","blank","354","null","0.6153248059619697","0.12612022241753323","0.37274590201344227","1","","","","","","","","",""
"","html-keyboard-response","271","702701","0.0-143.0-1.0","""event"",""trial"",""time""
""fullscreenenter"",""0"",""3126""
","
","
","""event"",""trial"",""time""
""fullscreenenter"",""0"",""3126""
","
","null","<p></p>","null","","","","","","","","","","","","","","","","","","","","","","","",""
"","do_trial","272","705619","0.0-144.0-0.0","""event"",""trial"",""time""
""fullscreenenter"",""0"",""3126""
","
","
","""event"",""trial"",""time""
""fullscreenenter"",""0"",""3126""
","
","370.8999999994412","","","","","","","","51","0,0,0","6","blank","355","null","0.47717233246086077","0.15413340353232907","0.34844812030752187","0","","","","","","","","",""
"","html-keyboard-response","273","706625","0.0-144.0-1.0","""event"",""trial"",""time""
""fullscreenenter"",""0"",""3126""
","
","
","""event"",""trial"",""time""
""fullscreenenter"",""0"",""3126""
","
","null","<p></p>","null","","","","","","","","","","","","","","","","","","","","","","","",""
"","do_recog","274","710485","0.0-145.0-0.0","""event"",""trial"",""time""
""fullscreenenter"",""0"",""3126""
","
","
","""event"",""trial"",""time""
""fullscreenenter"",""0"",""3126""
","
","2349.5999999996275","","","","","","","","53","","","","356","probe-199","","","","","1","[object Object]","199","4","1","","","",""
"","html-keyboard-response","275","711489","0.0-145.0-1.0","""event"",""trial"",""time""
""fullscreenenter"",""0"",""3126""
","
","
","""event"",""trial"",""time""
""fullscreenenter"",""0"",""3126""
","
","null","<p></p>","null","","","","","","","","","","","","","","","","","","","","","","","",""
"","do_trial","276","714485","0.0-146.0-0.0","""event"",""trial"",""time""
""fullscreenenter"",""0"",""3126""
","
","
","""event"",""trial"",""time""
""fullscreenenter"",""0"",""3126""
","
","450.20000000018626","","","","","","","","51","1,0,0","6","blank","357","null","0.4705967048525901","0.14638539725789362","0.3701438468705646","0","","","","","","","","",""
"","html-keyboard-response","277","715489","0.0-146.0-1.0","""event"",""trial"",""time""
""fullscreenenter"",""0"",""3126""
","
","
","""event"",""trial"",""time""
