"success","trial_type","trial_index","time_elapsed","internal_node_id","interactions","blur_events","focus_events","fullscreenenter_events","fullscreenexit_events","rt","stimulus","key_press","subject_id","participant_id","age","gender","prompt","response","choice_outcomes","context_n","context_img_id","trial_n","probe_img_id","pR_red","pR_white","pR_black","outcome","is_valid","image_to_show","probed_trial","probed_context","correct","probe","probed_trial_n","probed_context_n","context_im"
"true","fullscreen","0","4880","0.0-0.0","""event"",""trial"",""time""
""fullscreenenter"",""0"",""3894""
","
","
","""event"",""trial"",""time""
""fullscreenenter"",""0"",""3894""
","
","","","","","","","","","","","","","","","","","","","","","","","","","","",""
"","pavlovia","1","4887","0.0-1.0","""event"",""trial"",""time""
""fullscreenenter"",""0"",""3894""
","
","
","""event"",""trial"",""time""
""fullscreenenter"",""0"",""3894""
","
","","","","","","","","","","","","","","","","","","","","","","","","","","",""
"","welc_back","2","14751","0.0-2.0","""event"",""trial"",""time""
""fullscreenenter"",""0"",""3894""
","
","
","""event"",""trial"",""time""
""fullscreenenter"",""0"",""3894""
","
","null","run_exp/static/audio/clip_29_welcome_back.m4a","null","874","1182","17","Female","<div class='center'><p>Welcome to day 2!</p><p> Yesterday, you were the head captain of a pirate ship. You asked your fellow pirates to rob other ships of their gold across six different islands.</p></div>","","","","","","","","","","","","","","","","","","",""
"","html-keyboard-response","3","15675","0.0-3.0","""event"",""trial"",""time""
""fullscreenenter"",""0"",""3894""
","
","
","""event"",""trial"",""time""
""fullscreenenter"",""0"",""3894""
","
","922.6000000014901","<div class='center'><p>Welcome to day 2!</p><p> Yesterday, you were the head captain of a pirate ship. You asked your fellow pirates to rob other ships of their gold across six different islands.</p><p><b>[Press the space bar to continue]</b></p></div>","32","","","","","","","","","","","","","","","","","","","","","","","",""
"","day_1_summary_goal","4","33140","0.0-4.0","""event"",""trial"",""time""
""fullscreenenter"",""0"",""3894""
","
","
","""event"",""trial"",""time""
""fullscreenenter"",""0"",""3894""
","
","null","run_exp/static/audio/clip_30_goal_of_game.m4a","null","","","","","<div class='center'><p>Today, like yesterday, you get to pick which pirate you want to rob the next ship.</p><p>If the pirate is successful in robbing a ship, you get gold coins that look like this: </p><p><img src='run_exp/static/images/tutorial/reward.png' height='150'></p><p> If they were not successful in robbing the ship, then you will get no gold coins and you'll see a big red x like this: </p><p><img src='run_exp/static/images/tutorial/reward_no.png' height='150'></p></div>","","","","","","","","","","","","","","","","","","",""
"","html-keyboard-response","5","256236","0.0-5.0","""event"",""trial"",""time""
""fullscreenenter"",""0"",""3894""
","
","
","""event"",""trial"",""time""
""fullscreenenter"",""0"",""3894""
","
","223094.09999999963","<div class='center'><p>Today, like yesterday, you get to pick which pirate you want to rob the next ship.</p><p>If the pirate is successful in robbing a ship, you get gold coins that look like this: </p><p><img src='run_exp/static/images/tutorial/reward.png' height='150'></p><p> If they were not successful in robbing the ship, then you will get no gold coins and you'll see a big red x like this: </p><p><img src='run_exp/static/images/tutorial/reward_no.png' height='150'></p><p><b>[Press the space bar to continue]</b></p></div>","32","","","","","","","","","","","","","","","","","","","","","","","",""
"","day_1_summary_pick","6","271109","0.0-6.0","""event"",""trial"",""time""
""fullscreenenter"",""0"",""3894""
","
","
","""event"",""trial"",""time""
""fullscreenenter"",""0"",""3894""
","
","null","run_exp/static/audio/clip_31_how_to_pick_a_pirate.m4a","null","","","","","<div class='center'><p>Also, just like yesterday, you will use the 1,2,3 keys on your keyboard to pick a pirate. Press '1' to choose red beard, '2' to choose white beard, and '3' to choose black beard . You only have 3 seconds to pick a pirate, so please make a choice quickly!</p></div>","","","","","","","","","","","","","","","","","","",""
"","html-keyboard-response","7","365234","0.0-7.0","""event"",""trial"",""time""
""fullscreenenter"",""0"",""3894""
","
","
","""event"",""trial"",""time""
""fullscreenenter"",""0"",""3894""
","
","94123.59999999963","<div class='center'><p>Also, just like yesterday, you will use the 1,2,3 keys on your keyboard to pick a pirate. Press '1' to choose red beard, '2' to choose white beard, and '3' to choose black beard . You only have 3 seconds to pick a pirate, so please make a choice quickly!</p><p><b>[Press the space bar to continue]</b></p></div>","32","","","","","","","","","","","","","","","","","","","","","","","",""
"","test_phase_begin","8","395809","0.0-8.0","""event"",""trial"",""time""
""fullscreenenter"",""0"",""3894""
","
","
","""event"",""trial"",""time""
""fullscreenenter"",""0"",""3894""
","
","null","run_exp/static/audio/clip_32_final_place.m4a","null","","","","","<div class='center'><p>You’ve arrived at the final island of your journey! Unfortunately, it’s very foggy out, so you won’t be able to see it in the distance like the other islands you've visited.</p><p>You’ll still be deciding which pirate you want to rob a ship like before. However, because of the fog, you also won’t be able to see the ship.</p><p>This means you do not have to remember the ships you rob on this island.</p><p>Unlike yesterday, you won't be visiting multiple islands today. You will stay on this island for the entire game. This game will last ~30 minutes.</p></div>","","","","","","","","","","","","","","","","","","",""
"","html-keyboard-response","9","528963","0.0-9.0","""event"",""trial"",""time""
""fullscreenenter"",""0"",""3894""
","
","
","""event"",""trial"",""time""
""fullscreenenter"",""0"",""3894""
","
","133152.80000000075","<div class='center'><p>You’ve arrived at the final island of your journey! Unfortunately, it’s very foggy out, so you won’t be able to see it in the distance like the other islands you've visited.</p><p>You’ll still be deciding which pirate you want to rob a ship like before. However, because of the fog, you also won’t be able to see the ship.</p><p>This means you do not have to remember the ships you rob on this island.</p><p>Unlike yesterday, you won't be visiting multiple islands today. You will stay on this island for the entire game. This game will last ~30 minutes.</p><p><b>[Press the space bar to continue]</b></p></div>","32","","","","","","","","","","","","","","","","","","","","","","","",""
"","explain_probe_1","10","536870","0.0-10.0","""event"",""trial"",""time""
""fullscreenenter"",""0"",""3894""
","
","
","""event"",""trial"",""time""
""fullscreenenter"",""0"",""3894""
","
","null","run_exp/static/audio/clip_33_recognition_1.m4a","null","","","","","<div class='center'><p> Sometimes you’ll be shown a ship, and you will be asked if you saw this ship on a past island.</p><p> Here is an example of what you will see.</p><p><img src='run_exp/static/images/tutorial/example_recog_trial.png' height='500'></p></div>","","","","","","","","","","","","","","","","","","",""
"","html-keyboard-response","11","557045","0.0-11.0","""event"",""trial"",""time""
""fullscreenenter"",""0"",""3894""
","
","
","""event"",""trial"",""time""
""fullscreenenter"",""0"",""3894""
","
","20173.199999999255","<div class='center'><p> Sometimes you’ll be shown a ship, and you will be asked if you saw this ship on a past island.</p><p> Here is an example of what you will see.</p><p><img src='run_exp/static/images/tutorial/example_recog_trial.png' height='500'></p><p><b>[Press the space bar to continue]</b></p></div>","32","","","","","","","","","","","","","","","","","","","","","","","",""
"","explain_probe_2","12","578886","0.0-12.0","""event"",""trial"",""time""
""fullscreenenter"",""0"",""3894""
","
","
","""event"",""trial"",""time""
""fullscreenenter"",""0"",""3894""
","
","null","run_exp/static/audio/clip_34_recognition_2.m4a","null","","","","","<div class='center'><p> You will press the 5, 6, 7, 8 keys on your keyboard to respond.</p><p>If you are sure you saw the ship, press <b>5</b> on your keyboard.</p><p> If you think you saw it before but aren't sure, then press <b>6</b>.</p><p> If you think you have <b>not</b> seen it before but aren't sure, then press <b>7</b>.</p><p> If you are sure you did <b>not</b> see the ship before, then press <b>8</b>.</p><p><img src='run_exp/static/images/tutorial/example_recog_trial.png' height='500'></p></div>","","","","","","","","","","","","","","","","","","",""
"","html-keyboard-response","13","644203","0.0-13.0","""event"",""trial"",""time""
""fullscreenenter"",""0"",""3894""
","
","
","""event"",""trial"",""time""
""fullscreenenter"",""0"",""3894""
","
","65314.90000000037","<div class='center'><p> You will press the 5, 6, 7, 8 keys on your keyboard to respond.</p><p>If you are sure you saw the ship, press <b>5</b> on your keyboard.</p><p> If you think you saw it before but aren't sure, then press <b>6</b>.</p><p> If you think you have <b>not</b> seen it before but aren't sure, then press <b>7</b>.</p><p> If you are sure you did <b>not</b> see the ship before, then press <b>8</b>.</p><p><img src='run_exp/static/images/tutorial/example_recog_trial.png' height='500'></p><p><b>[Press the space bar to continue]</b></p></div>","32","","","","","","","","","","","","","","","","","","","","","","","",""
"","explain_outcome","14","661594","0.0-14.0","""event"",""trial"",""time""
""fullscreenenter"",""0"",""3894""
","
","
","""event"",""trial"",""time""
""fullscreenenter"",""0"",""3894""
","
","null","run_exp/static/audio/clip_35_recognition_3.m4a","null","","","","","<div class='center'><p> If you remember correctly, then you’ll get a gold coin like this: </p><p><img src='run_exp/static/images/tutorial/reward_small.png' height='200'></p><p>If you do not remember correctly, then you'll see a red x like this: </p><p><img src='run_exp/static/images/tutorial/reward_no.png' height='200'></p><p>Importantly, when you are shown a ship, take the time to remind yourself which island you saw it on. This will help you in the next part of the study.</p></div>","","","","","","","","","","","","","","","","","","",""
"","html-keyboard-response","15","678789","0.0-15.0","""event"",""trial"",""time""
""fullscreenenter"",""0"",""3894""
","
","
","""event"",""trial"",""time""
""fullscreenenter"",""0"",""3894""
","
","17193.699999999255","<div class='center'><p> If you remember correctly, then you’ll get a gold coin like this: </p><p><img src='run_exp/static/images/tutorial/reward_small.png' height='200'></p><p>If you do not remember correctly, then you'll see a red x like this: </p><p><img src='run_exp/static/images/tutorial/reward_no.png' height='200'></p><p>Importantly, when you are shown a ship, take the time to remind yourself which island you saw it on. This will help you in the next part of the study.</p><p><b>[Press the space bar to continue]</b></p></div>","32","","","","","","","","","","","","","","","","","","","","","","","",""
"","begin_test_phase","16","694774","0.0-16.0","""event"",""trial"",""time""
""fullscreenenter"",""0"",""3894""
","
","
","""event"",""trial"",""time""
""fullscreenenter"",""0"",""3894""
","
","null","run_exp/static/audio/clip_36_begin_final.m4a","null","","","","","<div class='center'><p>Let's go over the important points again. Your job is to: </p><p>1. Pick the pirate who is best at robbing ships and will bring you back gold coins. </p><p>2. Correctly remember whether or not you saw a ship before. If you did see the ship before, remind yourself on which island you saw it. </p></div>","","","","","","","","","","","","","","","","","","",""
"","html-keyboard-response","17","767178","0.0-17.0","""event"",""trial"",""time""
""fullscreenenter"",""0"",""3894""
","
","
","""event"",""trial"",""time""
""fullscreenenter"",""0"",""3894""
","
","72328.09999999963","<div class='center'><p>Let's go over the important points again. Your job is to: </p><p>1. Pick the pirate who is best at robbing ships and will bring you back gold coins. </p><p>2. Correctly remember whether or not you saw a ship before. If you did see the ship before, remind yourself on which island you saw it. </p><p><b>[Press the space bar to continue]</b></p></div>","32","","","","","","","","","","","","","","","","","","","","","","","",""
"","do_welcome","18","771187","0.0-18.0","""event"",""trial"",""time""
""fullscreenenter"",""0"",""3894""
","
","
","""event"",""trial"",""time""
""fullscreenenter"",""0"",""3894""
","
","null","","","","","","","","null","","","","","","","","","","","","","","","","","",""
"","do_trial","19","775201","0.0-19.0-0.0","""event"",""trial"",""time""
""fullscreenenter"",""0"",""3894""
","
","
","""event"",""trial"",""time""
""fullscreenenter"",""0"",""3894""
","
","1427.4000000003725","","","","","","","","50","0,1,0","6","blank","230","null","0.10208024342431016","0.6670388687868091","0.4177381665409173","1","","","","","","","","",""
"","html-keyboard-response","20","776207","0.0-19.0-1.0","""event"",""trial"",""time""
""fullscreenenter"",""0"",""3894""
","
","
","""event"",""trial"",""time""
""fullscreenenter"",""0"",""3894""
","
","null","<p></p>","null","","","","","","","","","","","","","","","","","","","","","","","",""
"","do_trial","21","779145","0.0-20.0-0.0","""event"",""trial"",""time""
""fullscreenenter"",""0"",""3894""
","
","
","""event"",""trial"",""time""
""fullscreenenter"",""0"",""3894""
","
","361.90000000037253","","","","","","","","51","0,0,0","6","blank","231","null","0.2037265887834467","0.6835407831523398","0.4169634946302486","0","","","","","","","","",""
"","html-keyboard-response","22","780147","0.0-20.0-1.0","""event"",""trial"",""time""
""fullscreenenter"",""0"",""3894""
","
","
","""event"",""trial"",""time""
""fullscreenenter"",""0"",""3894""
","
","null","<p></p>","null","","","","","","","","","","","","","","","","","","","","","","","",""
"","do_trial","23","783507","0.0-21.0-0.0","""event"",""trial"",""time""
""fullscreenenter"",""0"",""3894""
","
","
","""event"",""trial"",""time""
""fullscreenenter"",""0"",""3894""
","
","783.6999999992549","","","","","","","","50","0,1,1","6","blank","232","null","0.1415182043069854","0.7602980740967099","0.3686219101246862","1","","","","","","","","",""
"","html-keyboard-response","24","784509","0.0-21.0-1.0","""event"",""trial"",""time""
""fullscreenenter"",""0"",""3894""
","
","
","""event"",""trial"",""time""
""fullscreenenter"",""0"",""3894""
","
","null","<p></p>","null","","","","","","","","","","","","","","","","","","","","","","","",""
"","do_trial","25","787330","0.0-22.0-0.0","""event"",""trial"",""time""
""fullscreenenter"",""0"",""3894""
","
","
","""event"",""trial"",""time""
""fullscreenenter"",""0"",""3894""
","
","246.40000000037253","","","","","","","","50","0,0,0","6","blank","233","null","0.12543800780717917","0.7929805730193766","0.25076337615217204","0","","","","","","","","",""
"","html-keyboard-response","26","788333","0.0-22.0-1.0","""event"",""trial"",""time""
""fullscreenenter"",""0"",""3894""
","
","
","""event"",""trial"",""time""
""fullscreenenter"",""0"",""3894""
","
","null","<p></p>","null","","","","","","","","","","","","","","","","","","","","","","","",""
"","do_trial","27","791163","0.0-23.0-0.0","""event"",""trial"",""time""
""fullscreenenter"",""0"",""3894""
","
","
","""event"",""trial"",""time""
""fullscreenenter"",""0"",""3894""
","
","254.19999999925494","","","","","","","","49","0,1,0","6","blank","234","null","0.08244706175799581","0.6754698958273353","0.1842960830996837","0","","","","","","","","",""
"","html-keyboard-response","28","792165","0.0-23.0-1.0","""event"",""trial"",""time""
""fullscreenenter"",""0"",""3894""
","
","
","""event"",""trial"",""time""
""fullscreenenter"",""0"",""3894""
","
","null","<p></p>","null","","","","","","","","","","","","","","","","","","","","","","","",""
"","do_trial","29","795117","0.0-24.0-0.0","""event"",""trial"",""time""
""fullscreenenter"",""0"",""3894""
","
","
","""event"",""trial"",""time""
""fullscreenenter"",""0"",""3894""
","
","374.1000000014901","","","","","","","","50","0,1,0","6","blank","235","null","0.17050904835137826","0.5838262353184202","0.17379491841813036","1","","","","","","","","",""
"","html-keyboard-response","30","796119","0.0-24.0-1.0","""event"",""trial"",""time""
""fullscreenenter"",""0"",""3894""
","
","
","""event"",""trial"",""time""
""fullscreenenter"",""0"",""3894""
","
","null","<p></p>","null","","","","","","","","","","","","","","","","","","","","","","","",""
"","do_trial","31","801298","0.0-25.0-0.0","""event"",""trial"",""time""
""fullscreenenter"",""0"",""3894""
","
","
","""event"",""trial"",""time""
""fullscreenenter"",""0"",""3894""
","
","2604.199999999255","","","","","","","","50","0,1,0","6","blank","236","null","0.0639885955214216","0.6455121881384058","0.21796374315530054","1","","","","","","","","",""
"","html-keyboard-response","32","802300","0.0-25.0-1.0","""event"",""trial"",""time""
""fullscreenenter"",""0"",""3894""
","
","
","""event"",""trial"",""time""
""fullscreenenter"",""0"",""3894""
","
","null","<p></p>","null","","","","","","","","","","","","","","","","","","","","","","","",""
"","do_trial","33","805493","0.0-26.0-0.0","""event"",""trial"",""time""
""fullscreenenter"",""0"",""3894""
","
","
","""event"",""trial"",""time""
""fullscreenenter"",""0"",""3894""
","
","617.9000000003725","","","","","","","","51","0,1,1","6","blank","237","null","0.24504816231176535","0.6531744679362218","0.2711366130576976","1","","","","","","","","",""
"","html-keyboard-response","34","806495","0.0-26.0-1.0","""event"",""trial"",""time""
""fullscreenenter"",""0"",""3894""
","
","
","""event"",""trial"",""time""
""fullscreenenter"",""0"",""3894""
","
","null","<p></p>","null","","","","","","","","","","","","","","","","","","","","","","","",""
"","do_trial","35","809537","0.0-27.0-0.0","""event"",""trial"",""time""
""fullscreenenter"",""0"",""3894""
","
","
","""event"",""trial"",""time""
""fullscreenenter"",""0"",""3894""
","
","466.59999999962747","","","","","","","","49","1,0,0","6","blank","238","null","0.15578285302219538","0.5966303980957224","0.23259132598908827","1","","","","","","","","",""
"","html-keyboard-response","36","810539","0.0-27.0-1.0","""event"",""trial"",""time""
""fullscreenenter"",""0"",""3894""
","
","
","""event"",""trial"",""time""
""fullscreenenter"",""0"",""3894""
","
","null","<p></p>","null","","","","","","","","","","","","","","","","","","","","","","","",""
"","do_trial","37","813591","0.0-28.0-0.0","""event"",""trial"",""time""
""fullscreenenter"",""0"",""3894""
","
","
","""event"",""trial"",""time""
""fullscreenenter"",""0"",""3894""
","
","476.09999999962747","","","","","","","","50","1,0,0","6","blank","239","null","0.131928919354568","0.6493265167939084","0.4263426505308459","0","","","","","","","","",""
"","html-keyboard-response","38","814594","0.0-28.0-1.0","""event"",""trial"",""time""
""fullscreenenter"",""0"",""3894""
","
","
","""event"",""trial"",""time""
""fullscreenenter"",""0"",""3894""
","
","null","<p></p>","null","","","","","","","","","","","","","","","","","","","","","","","",""
"","do_trial","39","817698","0.0-29.0-0.0","""event"",""trial"",""time""
""fullscreenenter"",""0"",""3894""
","
","
","""event"",""trial"",""time""
""fullscreenenter"",""0"",""3894""
","
","528.4000000003725","","","","","","","","49","1,0,0","6","blank","240","null","0.27351696683399135","0.47080582611722743","0.470394845997012","1","","","","","","","","",""
"","html-keyboard-response","40","818700","0.0-29.0-1.0","""event"",""trial"",""time""
""fullscreenenter"",""0"",""3894""
","
","
","""event"",""trial"",""time""
""fullscreenenter"",""0"",""3894""
","
","null","<p></p>","null","","","","","","","","","","","","","","","","","","","","","","","",""
"","do_trial","41","821783","0.0-30.0-0.0","""event"",""trial"",""time""
""fullscreenenter"",""0"",""3894""
","
","
","""event"",""trial"",""time""
""fullscreenenter"",""0"",""3894""
","
","507.2999999988824","","","","","","","","49","1,1,1","6","blank","241","null","0.3934696335740162","0.571688326680689","0.4785299817000112","1","","","","","","","","",""
"","html-keyboard-response","42","822785","0.0-30.0-1.0","""event"",""trial"",""time""
""fullscreenenter"",""0"",""3894""
","
","
","""event"",""trial"",""time""
""fullscreenenter"",""0"",""3894""
","
","null","<p></p>","null","","","","","","","","","","","","","","","","","","","","","","","",""
"","do_trial","43","825807","0.0-31.0-0.0","""event"",""trial"",""time""
""fullscreenenter"",""0"",""3894""
","
","
","""event"",""trial"",""time""
""fullscreenenter"",""0"",""3894""
","
","446.8999999985099","","","","","","","","49","0,1,0","6","blank","242","null","0.3549690990320607","0.21182087988484188","0.4674633856380052","0","","","","","","","","",""
"","html-keyboard-response","44","826812","0.0-31.0-1.0","""event"",""trial"",""time""
""fullscreenenter"",""0"",""3894""
","
","
","""event"",""trial"",""time""
""fullscreenenter"",""0"",""3894""
","
","null","<p></p>","null","","","","","","","","","","","","","","","","","","","","","","","",""
"","do_trial","45","830125","0.0-32.0-0.0","""event"",""trial"",""time""
""fullscreenenter"",""0"",""3894""
","
","
","""event"",""trial"",""time""
""fullscreenenter"",""0"",""3894""
","
","736.7999999988824","","","","","","","","50","0,1,0","6","blank","243","null","0.2332007870154253","0.22864631242601607","0.3968956527794485","1","","","","","","","","",""
"","html-keyboard-response","46","831127","0.0-32.0-1.0","""event"",""trial"",""time""
""fullscreenenter"",""0"",""3894""
","
","
","""event"",""trial"",""time""
""fullscreenenter"",""0"",""3894""
","
","null","<p></p>","null","","","","","","","","","","","","","","","","","","","","","","","",""
"","do_trial","47","834185","0.0-33.0-0.0","""event"",""trial"",""time""
""fullscreenenter"",""0"",""3894""
","
","
","""event"",""trial"",""time""
""fullscreenenter"",""0"",""3894""
","
","484.5","","","","","","","","50","0,0,1","6","blank","244","null","0.28961624666177416","0.12694371445706945","0.38102882419703366","0","","","","","","","","",""
"","html-keyboard-response","48","835187","0.0-33.0-1.0","""event"",""trial"",""time""
""fullscreenenter"",""0"",""3894""
","
","
","""event"",""trial"",""time""
""fullscreenenter"",""0"",""3894""
","
","null","<p></p>","null","","","","","","","","","","","","","","","","","","","","","","","",""
"","do_recog","49","839519","0.0-34.0-0.0","""event"",""trial"",""time""
""fullscreenenter"",""0"",""3894""
","
","
","""event"",""trial"",""time""
""fullscreenenter"",""0"",""3894""
","
","2822.4000000003725","","","","","","","","53","","","","245","probe-180","","","","","1","[object Object]","157","3","1","","","",""
"","html-keyboard-response","50","840521","0.0-34.0-1.0","""event"",""trial"",""time""
""fullscreenenter"",""0"",""3894""
","
","
","""event"",""trial"",""time""
""fullscreenenter"",""0"",""3894""
","
","null","<p></p>","null","","","","","","","","","","","","","","","","","","","","","","","",""
"","do_trial","51","844629","0.0-35.0-0.0","""event"",""trial"",""time""
""fullscreenenter"",""0"",""3894""
","
","
","""event"",""trial"",""time""
""fullscreenenter"",""0"",""3894""
","
","1532.300000000745","","","","","","","","50","1,1,1","6","blank","246","null","0.33340185724926263","0.162368323836034","0.5991659910799105","1","","","","","","","","",""
"","html-keyboard-response","52","845631","0.0-35.0-1.0","""event"",""trial"",""time""
""fullscreenenter"",""0"",""3894""
","
","
","""event"",""trial"",""time""
""fullscreenenter"",""0"",""3894""
","
","null","<p></p>","null","","","","","","","","","","","","","","","","","","","","","","","",""
"","do_recog","53","848494","0.0-36.0-0.0","""event"",""trial"",""time""
""fullscreenenter"",""0"",""3894""
","
","
","""event"",""trial"",""time""
""fullscreenenter"",""0"",""3894""
","
","1352.7999999988824","","","","","","","","53","","","","247","probe-200","","","","","1","[object Object]","77","1","1","","","",""
"","html-keyboard-response","54","849496","0.0-36.0-1.0","""event"",""trial"",""time""
""fullscreenenter"",""0"",""3894""
","
","
","""event"",""trial"",""time""
""fullscreenenter"",""0"",""3894""
","
","null","<p></p>","null","","","","","","","","","","","","","","","","","","","","","","","",""
"","do_trial","55","852682","0.0-37.0-0.0","""event"",""trial"",""time""
""fullscreenenter"",""0"",""3894""
","
","
","""event"",""trial"",""time""
""fullscreenenter"",""0"",""3894""
","
","610","","","","","","","","50","0,0,1","6","blank","248","null","0.27540395450544536","0.16119715046508748","0.560781898489722","0","","","","","","","","",""
"","html-keyboard-response","56","853684","0.0-37.0-1.0","""event"",""trial"",""time""
""fullscreenenter"",""0"",""3894""
","
","
","""event"",""trial"",""time""
""fullscreenenter"",""0"",""3894""
","
","null","<p></p>","null","","","","","","","","","","","","","","","","","","","","","","","",""
"","do_trial","57","857434","0.0-38.0-0.0","""event"",""trial"",""time""
""fullscreenenter"",""0"",""3894""
","
","
","""event"",""trial"",""time""
""fullscreenenter"",""0"",""3894""
","
","1172.9000000003725","","","","","","","","51","0,0,0","6","blank","249","null","0.20124893816703146","0.0936916297986562","0.6042431633308424","0","","","","","","","","",""
"","html-keyboard-response","58","858437","0.0-38.0-1.0","""event"",""trial"",""time""
""fullscreenenter"",""0"",""3894""
","
","
","""event"",""trial"",""time""
""fullscreenenter"",""0"",""3894""
","
","null","<p></p>","null","","","","","","","","","","","","","","","","","","","","","","","",""
"","do_trial","59","861422","0.0-39.0-0.0","""event"",""trial"",""time""
""fullscreenenter"",""0"",""3894""
","
","
","""event"",""trial"",""time""
""fullscreenenter"",""0"",""3894""
","
","410.19999999925494","","","","","","","","50","1,0,1","6","blank","250","null","0.19600216648786753","0.051018198365189865","0.5362843198510452","0","","","","","","","","",""
"","html-keyboard-response","60","862424","0.0-39.0-1.0","""event"",""trial"",""time""
""fullscreenenter"",""0"",""3894""
","
","
","""event"",""trial"",""time""
""fullscreenenter"",""0"",""3894""
","
","null","<p></p>","null","","","","","","","","","","","","","","","","","","","","","","","",""
"","do_trial","61","865970","0.0-40.0-0.0","""event"",""trial"",""time""
""fullscreenenter"",""0"",""3894""
","
","
","""event"",""trial"",""time""
""fullscreenenter"",""0"",""3894""
","
","970.6000000014901","","","","","","","","49","0,0,1","6","blank","251","null","0.2063903688723476","0.2210933948572086","0.46148444805257394","0","","","","","","","","",""
"","html-keyboard-response","62","866973","0.0-40.0-1.0","""event"",""trial"",""time""
""fullscreenenter"",""0"",""3894""
","
","
","""event"",""trial"",""time""
""fullscreenenter"",""0"",""3894""
","
","null","<p></p>","null","","","","","","","","","","","","","","","","","","","","","","","",""
"","do_trial","63","870621","0.0-41.0-0.0","""event"",""trial"",""time""
""fullscreenenter"",""0"",""3894""
","
","
","""event"",""trial"",""time""
""fullscreenenter"",""0"",""3894""
","
","1071.199999999255","","","","","","","","50","0,0,0","6","blank","252","null","0.2353072830668566","0.22010126844195504","0.5331549621802906","0","","","","","","","","",""
"","html-keyboard-response","64","871623","0.0-41.0-1.0","""event"",""trial"",""time""
""fullscreenenter"",""0"",""3894""
","
","
","""event"",""trial"",""time""
""fullscreenenter"",""0"",""3894""
","
","null","<p></p>","null","","","","","","","","","","","","","","","","","","","","","","","",""
"","do_trial","65","875549","0.0-42.0-0.0","""event"",""trial"",""time""
""fullscreenenter"",""0"",""3894""
","
","
","""event"",""trial"",""time""
""fullscreenenter"",""0"",""3894""
","
","1351.5","","","","","","","","50","0,0,1","6","blank","253","null","0.2409390695523506","0.17069287322302207","0.5281238739816753","0","","","","","","","","",""
"","html-keyboard-response","66","876552","0.0-42.0-1.0","""event"",""trial"",""time""
""fullscreenenter"",""0"",""3894""
","
","
","""event"",""trial"",""time""
""fullscreenenter"",""0"",""3894""
","
","null","<p></p>","null","","","","","","","","","","","","","","","","","","","","","","","",""
"","do_trial","67","879662","0.0-43.0-0.0","""event"",""trial"",""time""
""fullscreenenter"",""0"",""3894""
","
","
","""event"",""trial"",""time""
""fullscreenenter"",""0"",""3894""
","
","536","","","","","","","","50","0,0,1","6","blank","254","null","0.10090111658566048","0.06446000777311886","0.5620481872614732","0","","","","","","","","",""
"","html-keyboard-response","68","880664","0.0-43.0-1.0","""event"",""trial"",""time""
""fullscreenenter"",""0"",""3894""
","
","
","""event"",""trial"",""time""
""fullscreenenter"",""0"",""3894""
","
","null","<p></p>","null","","","","","","","","","","","","","","","","","","","","","","","",""
"","do_recog","69","883882","0.0-44.0-0.0","""event"",""trial"",""time""
""fullscreenenter"",""0"",""3894""
","
","
","""event"",""trial"",""time""
""fullscreenenter"",""0"",""3894""
","
","1708.300000000745","","","","","","","","54","","","","255","probe-165","","","","","1","[object Object]","193","4","1","","","",""
"","html-keyboard-response","70","884884","0.0-44.0-1.0","""event"",""trial"",""time""
""fullscreenenter"",""0"",""3894""
","
","
","""event"",""trial"",""time""
""fullscreenenter"",""0"",""3894""
","
","null","<p></p>","null","","","","","","","","","","","","","","","","","","","","","","","",""
"","do_trial","71","888351","0.0-45.0-0.0","""event"",""trial"",""time""
""fullscreenenter"",""0"",""3894""
","
","
","""event"",""trial"",""time""
""fullscreenenter"",""0"",""3894""
","
","891.5999999996275","","","","","","","","50","0,0,0","6","blank","256","null","0.25446501639891494","0.08741960543876325","0.5336052075128551","0","","","","","","","","",""
"","html-keyboard-response","72","889353","0.0-45.0-1.0","""event"",""trial"",""time""
""fullscreenenter"",""0"",""3894""
","
","
","""event"",""trial"",""time""
""fullscreenenter"",""0"",""3894""
","
","null","<p></p>","null","","","","","","","","","","","","","","","","","","","","","","","",""
"","do_trial","73","892770","0.0-46.0-0.0","""event"",""trial"",""time""
""fullscreenenter"",""0"",""3894""
","
","
","""event"",""trial"",""time""
""fullscreenenter"",""0"",""3894""
","
","842.0999999996275","","","","","","","","50","0,0,0","6","blank","257","null","0.25583009877511886","0.09616441903305578","0.5707505545435982","0","","","","","","","","",""
"","html-keyboard-response","74","893773","0.0-46.0-1.0","""event"",""trial"",""time""
""fullscreenenter"",""0"",""3894""
","
","
","""event"",""trial"",""time""
""fullscreenenter"",""0"",""3894""
","
","null","<p></p>","null","","","","","","","","","","","","","","","","","","","","","","","",""
"","do_trial","75","897727","0.0-47.0-0.0","""event"",""trial"",""time""
""fullscreenenter"",""0"",""3894""
","
","
","""event"",""trial"",""time""
""fullscreenenter"",""0"",""3894""
","
","1380.0999999996275","","","","","","","","51","0,0,1","6","blank","258","null","0.238436635604089","0.21042233462935528","0.6180604983506836","1","","","","","","","","",""
"","html-keyboard-response","76","898730","0.0-47.0-1.0","""event"",""trial"",""time""
""fullscreenenter"",""0"",""3894""
","
","
","""event"",""trial"",""time""
""fullscreenenter"",""0"",""3894""
","
","null","<p></p>","null","","","","","","","","","","","","","","","","","","","","","","","",""
"","do_trial","77","902696","0.0-48.0-0.0","""event"",""trial"",""time""
""fullscreenenter"",""0"",""3894""
","
","
","""event"",""trial"",""time""
""fullscreenenter"",""0"",""3894""
","
","1392.300000000745","","","","","","","","50","0,1,1","6","blank","259","null","0.37955011778596887","0.16064304615200947","0.7967001643833939","1","","","","","","","","",""
"","html-keyboard-response","78","903699","0.0-48.0-1.0","""event"",""trial"",""time""
""fullscreenenter"",""0"",""3894""
","
","
","""event"",""trial"",""time""
""fullscreenenter"",""0"",""3894""
","
","null","<p></p>","null","","","","","","","","","","","","","","","","","","","","","","","",""
"","do_recog","79","907026","0.0-49.0-0.0","""event"",""trial"",""time""
""fullscreenenter"",""0"",""3894""
","
","
","""event"",""trial"",""time""
""fullscreenenter"",""0"",""3894""
","
","1819.5","","","","","","","","53","","","","260","probe-164","","","","","1","[object Object]","195","4","1","","","",""
"","html-keyboard-response","80","908028","0.0-49.0-1.0","""event"",""trial"",""time""
""fullscreenenter"",""0"",""3894""
","
","
","""event"",""trial"",""time""
""fullscreenenter"",""0"",""3894""
","
","null","<p></p>","null","","","","","","","","","","","","","","","","","","","","","","","",""
"","do_trial","81","911198","0.0-50.0-0.0","""event"",""trial"",""time""
""fullscreenenter"",""0"",""3894""
","
","
","""event"",""trial"",""time""
""fullscreenenter"",""0"",""3894""
","
","594.5","","","","","","","","50","1,0,1","6","blank","261","null","0.29200702649354854","0.13121684071544348","0.7338421674273653","0","","","","","","","","",""
"","html-keyboard-response","82","912201","0.0-50.0-1.0","""event"",""trial"",""time""
""fullscreenenter"",""0"",""3894""
","
","
","""event"",""trial"",""time""
""fullscreenenter"",""0"",""3894""
","
","null","<p></p>","null","","","","","","","","","","","","","","","","","","","","","","","",""
"","do_trial","83","915207","0.0-51.0-0.0","""event"",""trial"",""time""
""fullscreenenter"",""0"",""3894""
","
","
","""event"",""trial"",""time""
""fullscreenenter"",""0"",""3894""
","
","432.2000000011176","","","","","","","","51","0,0,1","6","blank","262","null","0.27074454038411244","0.19864145027958496","0.8375383605016277","1","","","","","","","","",""
"","html-keyboard-response","84","916209","0.0-51.0-1.0","""event"",""trial"",""time""
""fullscreenenter"",""0"",""3894""
","
","
","""event"",""trial"",""time""
""fullscreenenter"",""0"",""3894""
","
","null","<p></p>","null","","","","","","","","","","","","","","","","","","","","","","","",""
"","do_trial","85","919405","0.0-52.0-0.0","""event"",""trial"",""time""
""fullscreenenter"",""0"",""3894""
","
","
","""event"",""trial"",""time""
""fullscreenenter"",""0"",""3894""
","
","617.0999999996275","","","","","","","","50","1,1,0","6","blank","263","null","0.27248556694632436","0.18083742151495877","0.6957812729681583","1","","","","","","","","",""
"","html-keyboard-response","86","920408","0.0-52.0-1.0","""event"",""trial"",""time""
""fullscreenenter"",""0"",""3894""
","
","
","""event"",""trial"",""time""
""fullscreenenter"",""0"",""3894""
","
","null","<p></p>","null","","","","","","","","","","","","","","","","","","","","","","","",""
"","do_trial","87","923362","0.0-53.0-0.0","""event"",""trial"",""time""
""fullscreenenter"",""0"",""3894""
","
","
","""event"",""trial"",""time""
""fullscreenenter"",""0"",""3894""
","
","378.2999999988824","","","","","","","","51","0,0,1","6","blank","264","null","0.22114593140637226","0.30998698182938766","0.7245147127913307","1","","","","","","","","",""
"","html-keyboard-response","88","924365","0.0-53.0-1.0","""event"",""trial"",""time""
""fullscreenenter"",""0"",""3894""
","
","
","""event"",""trial"",""time""
""fullscreenenter"",""0"",""3894""
","
","null","<p></p>","null","","","","","","","","","","","","","","","","","","","","","","","",""
"","do_recog","89","927851","0.0-54.0-0.0","""event"",""trial"",""time""
""fullscreenenter"",""0"",""3894""
","
","
","""event"",""trial"",""time""
""fullscreenenter"",""0"",""3894""
","
","1978.7000000011176","","","","","","","","55","","","","265","probe-43","","","","","1","[object Object]","37","0","0","","","",""
"","html-keyboard-response","90","928853","0.0-54.0-1.0","""event"",""trial"",""time""
""fullscreenenter"",""0"",""3894""
","
","
","""event"",""trial"",""time""
""fullscreenenter"",""0"",""3894""
","
","null","<p></p>","null","","","","","","","","","","","","","","","","","","","","","","","",""
"","do_trial","91","932146","0.0-55.0-0.0","""event"",""trial"",""time""
""fullscreenenter"",""0"",""3894""
","
","
","""event"",""trial"",""time""
""fullscreenenter"",""0"",""3894""
","
","718.6999999992549","","","","","","","","50","0,0,1","6","blank","266","null","0.1875771798734718","0.20634717389995808","0.7773216466032533","0","","","","","","","","",""
"","html-keyboard-response","92","933148","0.0-55.0-1.0","""event"",""trial"",""time""
""fullscreenenter"",""0"",""3894""
","
","
","""event"",""trial"",""time""
""fullscreenenter"",""0"",""3894""
","
","null","<p></p>","null","","","","","","","","","","","","","","","","","","","","","","","",""
"","do_trial","93","936077","0.0-56.0-0.0","""event"",""trial"",""time""
""fullscreenenter"",""0"",""3894""
","
","
","""event"",""trial"",""time""
""fullscreenenter"",""0"",""3894""
","
","353.6000000014901","","","","","","","","51","1,0,1","6","blank","267","null","0.16199934660345694","0.17989812796981114","0.6609847682931447","1","","","","","","","","",""
"","html-keyboard-response","94","937079","0.0-56.0-1.0","""event"",""trial"",""time""
""fullscreenenter"",""0"",""3894""
","
","
","""event"",""trial"",""time""
""fullscreenenter"",""0"",""3894""
","
","null","<p></p>","null","","","","","","","","","","","","","","","","","","","","","","","",""
"","do_recog","95","940623","0.0-57.0-0.0","""event"",""trial"",""time""
""fullscreenenter"",""0"",""3894""
","
","
","""event"",""trial"",""time""
""fullscreenenter"",""0"",""3894""
","
","2036.699999999255","","","","","","","","54","","","","268","probe-239","","","","","0","[object Object]","null","null","0","","","",""
"","html-keyboard-response","96","941625","0.0-57.0-1.0","""event"",""trial"",""time""
""fullscreenenter"",""0"",""3894""
","
","
","""event"",""trial"",""time""
""fullscreenenter"",""0"",""3894""
","
","null","<p></p>","null","","","","","","","","","","","","","","","","","","","","","","","",""
"","break","97","1061627","0.0-58.0-0.0","""event"",""trial"",""time""
""fullscreenenter"",""0"",""3894""
","
","
","""event"",""trial"",""time""
""fullscreenenter"",""0"",""3894""
","
","null","<div class='center'><p>Time to take a quick break! You have 2 minutes to rest, but you can move on sooner if you'd like.</p><p> Press the <b>space bar</b> to continue.</p></div>","null","","","","","","","","","","","","","","","","","","","","","","","",""
"","do_trial","98","1065834","0.0-58.0-1.0","""event"",""trial"",""time""
""fullscreenenter"",""0"",""3894""
","
","
","""event"",""trial"",""time""
""fullscreenenter"",""0"",""3894""
","
","1631.4000000003725","","","","","","","","50","0,0,0","6","blank","269","null","0.28209018843407024","0.1316202917812988","0.7100631915958715","0","","","","","","","","",""
"","html-keyboard-response","99","1066836","0.0-58.0-2.0","""event"",""trial"",""time""
""fullscreenenter"",""0"",""3894""
","
","
","""event"",""trial"",""time""
""fullscreenenter"",""0"",""3894""
","
","null","<p></p>","null","","","","","","","","","","","","","","","","","","","","","","","",""
"","do_trial","100","1071086","0.0-59.0-0.0","""event"",""trial"",""time""
""fullscreenenter"",""0"",""3894""
","
","
","""event"",""trial"",""time""
""fullscreenenter"",""0"",""3894""
","
","1674.800000000745","","","","","","","","51","0,0,1","6","blank","270","null","0.1903802288557344","0.2900965793621211","0.6707892487629242","1","","","","","","","","",""
"","html-keyboard-response","101","1072089","0.0-59.0-1.0","""event"",""trial"",""time""
""fullscreenenter"",""0"",""3894""
","
","
","""event"",""trial"",""time""
""fullscreenenter"",""0"",""3894""
","
","null","<p></p>","null","","","","","","","","","","","","","","","","","","","","","","","",""
"","do_trial","102","1077347","0.0-60.0-0.0","""event"",""trial"",""time""
""fullscreenenter"",""0"",""3894""
","
","
","""event"",""trial"",""time""
""fullscreenenter"",""0"",""3894""
","
","2684.5999999996275","","","","","","","","50","0,0,0","6","blank","271","null","0.06944192783231344","0.15382295183216402","0.5255486672522532","0","","","","","","","","",""
"","html-keyboard-response","103","1078349","0.0-60.0-1.0","""event"",""trial"",""time""
""fullscreenenter"",""0"",""3894""
","
","
","""event"",""trial"",""time""
""fullscreenenter"",""0"",""3894""
","
","null","<p></p>","null","","","","","","","","","","","","","","","","","","","","","","","",""
"","do_trial","104","1081654","0.0-61.0-0.0","""event"",""trial"",""time""
""fullscreenenter"",""0"",""3894""
","
","
","""event"",""trial"",""time""
""fullscreenenter"",""0"",""3894""
","
","727","","","","","","","","50","0,0,1","6","blank","272","null","0.2776599752348641","0.08078110283656191","0.44646315368496875","0","","","","","","","","",""
"","html-keyboard-response","105","1082656","0.0-61.0-1.0","""event"",""trial"",""time""
""fullscreenenter"",""0"",""3894""
","
","
","""event"",""trial"",""time""
""fullscreenenter"",""0"",""3894""
","
","null","<p></p>","null","","","","","","","","","","","","","","","","","","","","","","","",""
"","do_trial","106","1085316","0.0-62.0-0.0","""event"",""trial"",""time""
""fullscreenenter"",""0"",""3894""
","
","
","""event"",""trial"",""time""
""fullscreenenter"",""0"",""3894""
","
","83.30000000074506","","","","","","","","51","0,0,1","6","blank","273","null","0.27816856959059094","0.1389248733752959","0.5358012333195139","1","","","","","","","","",""
"","html-keyboard-response","107","1086319","0.0-62.0-1.0","""event"",""trial"",""time""
""fullscreenenter"",""0"",""3894""
","
","
","""event"",""trial"",""time""
""fullscreenenter"",""0"",""3894""
","
","null","<p></p>","null","","","","","","","","","","","","","","","","","","","","","","","",""
"","do_recog","108","1089753","0.0-63.0-0.0","""event"",""trial"",""time""
""fullscreenenter"",""0"",""3894""
","
","
","""event"",""trial"",""time""
""fullscreenenter"",""0"",""3894""
","
","1925.5","","","","","","","","53","","","","274","probe-171","","","","","1","[object Object]","158","3","1","","","",""
"","html-keyboard-response","109","1090755","0.0-63.0-1.0","""event"",""trial"",""time""
""fullscreenenter"",""0"",""3894""
","
","
","""event"",""trial"",""time""
""fullscreenenter"",""0"",""3894""
","
","null","<p></p>","null","","","","","","","","","","","","","","","","","","","","","","","",""
"","do_trial","110","1094182","0.0-64.0-0.0","""event"",""trial"",""time""
""fullscreenenter"",""0"",""3894""
","
","
","""event"",""trial"",""time""
""fullscreenenter"",""0"",""3894""
","
","851.7999999988824","","","","","","","","50","0,0,0","6","blank","275","null","0.33155744345831784","0.1848006601968458","0.5540798770033426","0","","","","","","","","",""
"","html-keyboard-response","111","1095184","0.0-64.0-1.0","""event"",""trial"",""time""
""fullscreenenter"",""0"",""3894""
","
","
","""event"",""trial"",""time""
""fullscreenenter"",""0"",""3894""
","
","null","<p></p>","null","","","","","","","","","","","","","","","","","","","","","","","",""
"","do_trial","112","1098084","0.0-65.0-0.0","""event"",""trial"",""time""
""fullscreenenter"",""0"",""3894""
","
","
","""event"",""trial"",""time""
""fullscreenenter"",""0"",""3894""
","
","323.90000000037253","","","","","","","","51","0,0,1","6","blank","276","null","0.28854054703761095","0.22487771670533419","0.5973404967355769","1","","","","","","","","",""
"","html-keyboard-response","113","1099086","0.0-65.0-1.0","""event"",""trial"",""time""
""fullscreenenter"",""0"",""3894""
","
","
","""event"",""trial"",""time""
""fullscreenenter"",""0"",""3894""
","
","null","<p></p>","null","","","","","","","","","","","","","","","","","","","","","","","",""
"","do_trial","114","1102672","0.0-66.0-0.0","""event"",""trial"",""time""
""fullscreenenter"",""0"",""3894""
","
","
","""event"",""trial"",""time""
""fullscreenenter"",""0"",""3894""
","
","1011.5","","","","","","","","49","0,0,1","6","blank","277","null","0.25764987091551766","0.17679531504861054","0.6161595971875028","0","","","","","","","","",""
"","html-keyboard-response","115","1103674","0.0-66.0-1.0","""event"",""trial"",""time""
""fullscreenenter"",""0"",""3894""
","
","
","""event"",""trial"",""time""
""fullscreenenter"",""0"",""3894""
","
","null","<p></p>","null","","","","","","","","","","","","","","","","","","","","","","","",""
"","do_recog","116","1107176","0.0-67.0-0.0","""event"",""trial"",""time""
""fullscreenenter"",""0"",""3894""
","
","
","""event"",""trial"",""time""
""fullscreenenter"",""0"",""3894""
","
","1993.4000000003725","","","","","","","","53","","","","278","probe-254","","","","","0","[object Object]","null","null","0","","","",""
"","html-keyboard-response","117","1108178","0.0-67.0-1.0","""event"",""trial"",""time""
""fullscreenenter"",""0"",""3894""
","
","
","""event"",""trial"",""time""
""fullscreenenter"",""0"",""3894""
","
","null","<p></p>","null","","","","","","","","","","","","","","","","","","","","","","","",""
"","do_trial","118","1111578","0.0-68.0-0.0","""event"",""trial"",""time""
""fullscreenenter"",""0"",""3894""
","
","
","""event"",""trial"",""time""
""fullscreenenter"",""0"",""3894""
","
","825.3000000007451","","","","","","","","50","1,0,0","6","blank","279","null","0.40139466028873005","0.18282382352634893","0.4680162476914794","0","","","","","","","","",""
"","html-keyboard-response","119","1112581","0.0-68.0-1.0","""event"",""trial"",""time""
""fullscreenenter"",""0"",""3894""
","
","
","""event"",""trial"",""time""
""fullscreenenter"",""0"",""3894""
","
","null","<p></p>","null","","","","","","","","","","","","","","","","","","","","","","","",""
"","do_trial","120","1115551","0.0-69.0-0.0","""event"",""trial"",""time""
""fullscreenenter"",""0"",""3894""
","
","
","""event"",""trial"",""time""
""fullscreenenter"",""0"",""3894""
","
","395.7999999988824","","","","","","","","51","0,0,0","6","blank","280","null","0.3111931334592967","0.23362563052946214","0.5156740297745356","0","","","","","","","","",""
"","html-keyboard-response","121","1116553","0.0-69.0-1.0","""event"",""trial"",""time""
""fullscreenenter"",""0"",""3894""
","
","
","""event"",""trial"",""time""
""fullscreenenter"",""0"",""3894""
","
","null","<p></p>","null","","","","","","","","","","","","","","","","","","","","","","","",""
"","do_trial","122","1119692","0.0-70.0-0.0","""event"",""trial"",""time""
""fullscreenenter"",""0"",""3894""
","
","
","""event"",""trial"",""time""
""fullscreenenter"",""0"",""3894""
","
","566.3000000007451","","","","","","","","50","0,0,1","6","blank","281","null","0.43358161425510733","0.1988127885711179","0.6421257812314751","0","","","","","","","","",""
"","html-keyboard-response","123","1120695","0.0-70.0-1.0","""event"",""trial"",""time""
""fullscreenenter"",""0"",""3894""
","
","
","""event"",""trial"",""time""
""fullscreenenter"",""0"",""3894""
","
","null","<p></p>","null","","","","","","","","","","","","","","","","","","","","","","","",""
"","do_trial","124","1124519","0.0-71.0-0.0","""event"",""trial"",""time""
""fullscreenenter"",""0"",""3894""
","
","
","""event"",""trial"",""time""
""fullscreenenter"",""0"",""3894""
","
","1250.6000000014901","","","","","","","","50","0,0,0","6","blank","282","null","0.36691013604219874","0.059057275088235155","0.6365325448713298","0","","","","","","","","",""
"","html-keyboard-response","125","1125521","0.0-71.0-1.0","""event"",""trial"",""time""
""fullscreenenter"",""0"",""3894""
","
","
","""event"",""trial"",""time""
""fullscreenenter"",""0"",""3894""
","
","null","<p></p>","null","","","","","","","","","","","","","","","","","","","","","","","",""
"","do_recog","126","1128699","0.0-72.0-0.0","""event"",""trial"",""time""
""fullscreenenter"",""0"",""3894""
","
","
","""event"",""trial"",""time""
""fullscreenenter"",""0"",""3894""
","
","1670.1000000014901","","","","","","","","53","","","","283","probe-125","","","","","1","[object Object]","194","4","1","","","",""
"","html-keyboard-response","127","1129701","0.0-72.0-1.0","""event"",""trial"",""time""
""fullscreenenter"",""0"",""3894""
","
","
","""event"",""trial"",""time""
""fullscreenenter"",""0"",""3894""
","
","null","<p></p>","null","","","","","","","","","","","","","","","","","","","","","","","",""
"","do_trial","128","1134195","0.0-73.0-0.0","""event"",""trial"",""time""
""fullscreenenter"",""0"",""3894""
","
","
","""event"",""trial"",""time""
""fullscreenenter"",""0"",""3894""
","
","1919.1000000014901","","","","","","","","51","0,0,1","6","blank","284","null","0.4554026666876069","0.1786471180085013","0.4969589449368082","1","","","","","","","","",""
"","html-keyboard-response","129","1135197","0.0-73.0-1.0","""event"",""trial"",""time""
""fullscreenenter"",""0"",""3894""
","
","
","""event"",""trial"",""time""
""fullscreenenter"",""0"",""3894""
","
","null","<p></p>","null","","","","","","","","","","","","","","","","","","","","","","","",""
"","do_recog","130","1139623","0.0-74.0-0.0","""event"",""trial"",""time""
""fullscreenenter"",""0"",""3894""
","
","
","""event"",""trial"",""time""
""fullscreenenter"",""0"",""3894""
","
","2917.4000000003725","","","","","","","","53","","","","285","probe-157","","","","","1","[object Object]","151","3","1","","","",""
"","html-keyboard-response","131","1140625","0.0-74.0-1.0","""event"",""trial"",""time""
""fullscreenenter"",""0"",""3894""
","
","
","""event"",""trial"",""time""
""fullscreenenter"",""0"",""3894""
","
","null","<p></p>","null","","","","","","","","","","","","","","","","","","","","","","","",""
"","do_trial","132","1144442","0.0-75.0-0.0","""event"",""trial"",""time""
""fullscreenenter"",""0"",""3894""
","
","
","""event"",""trial"",""time""
""fullscreenenter"",""0"",""3894""
","
","1242.0999999996275","","","","","","","","50","0,0,0","6","blank","286","null","0.4868964906935436","0.2246431865568535","0.619108496603041","0","","","","","","","","",""
"","html-keyboard-response","133","1145444","0.0-75.0-1.0","""event"",""trial"",""time""
""fullscreenenter"",""0"",""3894""
","
","
","""event"",""trial"",""time""
""fullscreenenter"",""0"",""3894""
","
","null","<p></p>","null","","","","","","","","","","","","","","","","","","","","","","","",""
"","do_trial","134","1148543","0.0-76.0-0.0","""event"",""trial"",""time""
""fullscreenenter"",""0"",""3894""
","
","
","""event"",""trial"",""time""
""fullscreenenter"",""0"",""3894""
","
","525","","","","","","","","51","1,0,1","6","blank","287","null","0.37149382322754837","0.25545621600850604","0.7006870460155815","1","","","","","","","","",""
"","html-keyboard-response","135","1149545","0.0-76.0-1.0","""event"",""trial"",""time""
""fullscreenenter"",""0"",""3894""
","
","
","""event"",""trial"",""time""
""fullscreenenter"",""0"",""3894""
","
","null","<p></p>","null","","","","","","","","","","","","","","","","","","","","","","","",""
"","do_trial","136","1153045","0.0-77.0-0.0","""event"",""trial"",""time""
""fullscreenenter"",""0"",""3894""
","
","
","""event"",""trial"",""time""
""fullscreenenter"",""0"",""3894""
","
","926.0999999996275","","","","","","","","51","0,0,1","6","blank","288","null","0.3569795752349563","0.19846474570484926","0.6722306641472727","1","","","","","","","","",""
"","html-keyboard-response","137","1154047","0.0-77.0-1.0","""event"",""trial"",""time""
""fullscreenenter"",""0"",""3894""
","
","
","""event"",""trial"",""time""
""fullscreenenter"",""0"",""3894""
","
","null","<p></p>","null","","","","","","","","","","","","","","","","","","","","","","","",""
"","do_trial","138","1157252","0.0-78.0-0.0","""event"",""trial"",""time""
""fullscreenenter"",""0"",""3894""
","
","
","""event"",""trial"",""time""
""fullscreenenter"",""0"",""3894""
","
","628.9000000003725","","","","","","","","51","0,0,0","6","blank","289","null","0.2697379118438129","0.10295208101233988","0.5868796885774991","0","","","","","","","","",""
"","html-keyboard-response","139","1158254","0.0-78.0-1.0","""event"",""trial"",""time""
""fullscreenenter"",""0"",""3894""
","
","
","""event"",""trial"",""time""
""fullscreenenter"",""0"",""3894""
","
","null","<p></p>","null","","","","","","","","","","","","","","","","","","","","","","","",""
"","do_trial","140","1161151","0.0-79.0-0.0","""event"",""trial"",""time""
""fullscreenenter"",""0"",""3894""
","
","
","""event"",""trial"",""time""
""fullscreenenter"",""0"",""3894""
","
","321.5","","","","","","","","50","0,0,1","6","blank","290","null","0.3914711206655895","0.17456157092236635","0.38427534574890637","0","","","","","","","","",""
"","html-keyboard-response","141","1162153","0.0-79.0-1.0","""event"",""trial"",""time""
""fullscreenenter"",""0"",""3894""
","
","
","""event"",""trial"",""time""
""fullscreenenter"",""0"",""3894""
","
","null","<p></p>","null","","","","","","","","","","","","","","","","","","","","","","","",""
"","do_trial","142","1164975","0.0-80.0-0.0","""event"",""trial"",""time""
""fullscreenenter"",""0"",""3894""
","
","
","""event"",""trial"",""time""
""fullscreenenter"",""0"",""3894""
","
","247.5","","","","","","","","51","0,0,0","6","blank","291","null","0.46557417097601184","0.10800170825824733","0.33745860671453204","0","","","","","","","","",""
"","html-keyboard-response","143","1165977","0.0-80.0-1.0","""event"",""trial"",""time""
""fullscreenenter"",""0"",""3894""
","
","
","""event"",""trial"",""time""
""fullscreenenter"",""0"",""3894""
","
","null","<p></p>","null","","","","","","","","","","","","","","","","","","","","","","","",""
"","do_trial","144","1168750","0.0-81.0-0.0","""event"",""trial"",""time""
""fullscreenenter"",""0"",""3894""
","
","
","""event"",""trial"",""time""
""fullscreenenter"",""0"",""3894""
","
","197.59999999962747","","","","","","","","51","1,0,1","6","blank","292","null","0.570304026975347","0.06759972780663635","0.28212316036319585","1","","","","","","","","",""
"","html-keyboard-response","145","1169752","0.0-81.0-1.0","""event"",""trial"",""time""
""fullscreenenter"",""0"",""3894""
","
","
","""event"",""trial"",""time""
""fullscreenenter"",""0"",""3894""
","
","null","<p></p>","null","","","","","","","","","","","","","","","","","","","","","","","",""
"","do_recog","146","1172889","0.0-82.0-0.0","""event"",""trial"",""time""
""fullscreenenter"",""0"",""3894""
","
","
","""event"",""trial"",""time""
""fullscreenenter"",""0"",""3894""
","
","1628.9000000003725","","","","","","","","53","","","","293","probe-61","","","","","1","[object Object]","71","1","1","","","",""
"","html-keyboard-response","147","1173892","0.0-82.0-1.0","""event"",""trial"",""time""
""fullscreenenter"",""0"",""3894""
","
","
","""event"",""trial"",""time""
""fullscreenenter"",""0"",""3894""
","
","null","<p></p>","null","","","","","","","","","","","","","","","","","","","","","","","",""
"","do_trial","148","1177074","0.0-83.0-0.0","""event"",""trial"",""time""
""fullscreenenter"",""0"",""3894""
","
","
","""event"",""trial"",""time""
""fullscreenenter"",""0"",""3894""
","
","607.2999999988824","","","","","","","","50","0,0,0","6","blank","294","null","0.5182258585590064","0.05230544259985832","0.16559371340900364","0","","","","","","","","",""
"","html-keyboard-response","149","1178076","0.0-83.0-1.0","""event"",""trial"",""time""
""fullscreenenter"",""0"",""3894""
","
","
","""event"",""trial"",""time""
""fullscreenenter"",""0"",""3894""
","
","null","<p></p>","null","","","","","","","","","","","","","","","","","","","","","","","",""
"","do_recog","150","1180795","0.0-84.0-0.0","""event"",""trial"",""time""
""fullscreenenter"",""0"",""3894""
","
","
","""event"",""trial"",""time""
""fullscreenenter"",""0"",""3894""
","
","1210.5","","","","","","","","53","","","","295","probe-216","","","","","1","[object Object]","74","1","1","","","",""
"","html-keyboard-response","151","1181797","0.0-84.0-1.0","""event"",""trial"",""time""
""fullscreenenter"",""0"",""3894""
","
","
","""event"",""trial"",""time""
""fullscreenenter"",""0"",""3894""
","
","null","<p></p>","null","","","","","","","","","","","","","","","","","","","","","","","",""
"","do_trial","152","1185230","0.0-85.0-0.0","""event"",""trial"",""time""
""fullscreenenter"",""0"",""3894""
","
","
","""event"",""trial"",""time""
""fullscreenenter"",""0"",""3894""
","
","857.2999999988824","","","","","","","","50","0,0,0","6","blank","296","null","0.5040218759582986","0.1583620133140267","0.0705273445294406","0","","","","","","","","",""
"","html-keyboard-response","153","1186232","0.0-85.0-1.0","""event"",""trial"",""time""
""fullscreenenter"",""0"",""3894""
","
","
","""event"",""trial"",""time""
""fullscreenenter"",""0"",""3894""
","
","null","<p></p>","null","","","","","","","","","","","","","","","","","","","","","","","",""
"","do_recog","154","1189041","0.0-86.0-0.0","""event"",""trial"",""time""
""fullscreenenter"",""0"",""3894""
","
","
","""event"",""trial"",""time""
""fullscreenenter"",""0"",""3894""
","
","1301.7000000011176","","","","","","","","53","","","","297","probe-31","","","","","1","[object Object]","153","3","1","","","",""
"","html-keyboard-response","155","1190044","0.0-86.0-1.0","""event"",""trial"",""time""
""fullscreenenter"",""0"",""3894""
","
","
","""event"",""trial"",""time""
""fullscreenenter"",""0"",""3894""
","
","null","<p></p>","null","","","","","","","","","","","","","","","","","","","","","","","",""
"","do_trial","156","1194027","0.0-87.0-0.0","""event"",""trial"",""time""
""fullscreenenter"",""0"",""3894""
","
","
","""event"",""trial"",""time""
""fullscreenenter"",""0"",""3894""
","
","1407.800000000745","","","","","","","","51","0,1,0","6","blank","298","null","0.34854991795971674","0.1335434873671318","0.10445592309507964","0","","","","","","","","",""
"","html-keyboard-response","157","1195029","0.0-87.0-1.0","""event"",""trial"",""time""
""fullscreenenter"",""0"",""3894""
","
","
","""event"",""trial"",""time""
""fullscreenenter"",""0"",""3894""
","
","null","<p></p>","null","","","","","","","","","","","","","","","","","","","","","","","",""
"","do_recog","158","1197849","0.0-88.0-0.0","""event"",""trial"",""time""
""fullscreenenter"",""0"",""3894""
","
","
","""event"",""trial"",""time""
""fullscreenenter"",""0"",""3894""
","
","1312","","","","","","","","53","","","","299","probe-01","","","","","1","[object Object]","75","1","1","","","",""
"","html-keyboard-response","159","1198852","0.0-88.0-1.0","""event"",""trial"",""time""
""fullscreenenter"",""0"",""3894""
","
","
","""event"",""trial"",""time""
""fullscreenenter"",""0"",""3894""
","
","null","<p></p>","null","","","","","","","","","","","","","","","","","","","","","","","",""
"","do_trial","160","1202458","0.0-89.0-0.0","""event"",""trial"",""time""
""fullscreenenter"",""0"",""3894""
","
","
","""event"",""trial"",""time""
""fullscreenenter"",""0"",""3894""
","
","1031.5","","","","","","","","51","1,0,0","6","blank","300","null","0.5118176129046783","0.30985922056517196","0.1590524683178505","0","","","","","","","","",""
"","html-keyboard-response","161","1203460","0.0-89.0-1.0","""event"",""trial"",""time""
""fullscreenenter"",""0"",""3894""
","
","
","""event"",""trial"",""time""
""fullscreenenter"",""0"",""3894""
","
","null","<p></p>","null","","","","","","","","","","","","","","","","","","","","","","","",""
"","do_trial","162","1206879","0.0-90.0-0.0","""event"",""trial"",""time""
""fullscreenenter"",""0"",""3894""
","
","
","""event"",""trial"",""time""
""fullscreenenter"",""0"",""3894""
","
","844.6000000014901","","","","","","","","51","1,0,0","6","blank","301","null","0.7460416922121844","0.2794841899885279","0.10455154802431423","0","","","","","","","","",""
"","html-keyboard-response","163","1207881","0.0-90.0-1.0","""event"",""trial"",""time""
""fullscreenenter"",""0"",""3894""
","
","
","""event"",""trial"",""time""
""fullscreenenter"",""0"",""3894""
","
","null","<p></p>","null","","","","","","","","","","","","","","","","","","","","","","","",""
"","do_recog","164","1211587","0.0-91.0-0.0","""event"",""trial"",""time""
""fullscreenenter"",""0"",""3894""
","
","
","""event"",""trial"",""time""
""fullscreenenter"",""0"",""3894""
","
","2197.89999999851","","","","","","","","53","","","","302","probe-211","","","","","1","[object Object]","159","3","1","","","",""
"","html-keyboard-response","165","1212589","0.0-91.0-1.0","""event"",""trial"",""time""
""fullscreenenter"",""0"",""3894""
","
","
","""event"",""trial"",""time""
""fullscreenenter"",""0"",""3894""
","
","null","<p></p>","null","","","","","","","","","","","","","","","","","","","","","","","",""
"","do_trial","166","1215866","0.0-92.0-0.0","""event"",""trial"",""time""
""fullscreenenter"",""0"",""3894""
","
","
","""event"",""trial"",""time""
""fullscreenenter"",""0"",""3894""
","
","701.8000000007451","","","","","","","","51","1,0,1","6","blank","303","null","0.6857446697988945","0.1870477806380197","0.1337836057665315","1","","","","","","","","",""
"","html-keyboard-response","167","1216868","0.0-92.0-1.0","""event"",""trial"",""time""
""fullscreenenter"",""0"",""3894""
","
","
","""event"",""trial"",""time""
""fullscreenenter"",""0"",""3894""
","
","null","<p></p>","null","","","","","","","","","","","","","","","","","","","","","","","",""
"","do_trial","168","1222225","0.0-93.0-0.0","""event"",""trial"",""time""
""fullscreenenter"",""0"",""3894""
","
","
","""event"",""trial"",""time""
""fullscreenenter"",""0"",""3894""
","
","2781.60000000149","","","","","","","","51","1,1,1","6","blank","304","null","0.6584024115800813","0.3276964867178046","0.27120756565931636","1","","","","","","","","",""
"","html-keyboard-response","169","1223227","0.0-93.0-1.0","""event"",""trial"",""time""
""fullscreenenter"",""0"",""3894""
","
","
","""event"",""trial"",""time""
""fullscreenenter"",""0"",""3894""
","
","null","<p></p>","null","","","","","","","","","","","","","","","","","","","","","","","",""
"","do_trial","170","1226465","0.0-94.0-0.0","""event"",""trial"",""time""
""fullscreenenter"",""0"",""3894""
","
","
","""event"",""trial"",""time""
""fullscreenenter"",""0"",""3894""
","
","663.2000000011176","","","","","","","","50","1,1,0","6","blank","305","null","0.60171632176721","0.3864208224344394","0.2002983577349957","1","","","","","","","","",""
"","html-keyboard-response","171","1227467","0.0-94.0-1.0","""event"",""trial"",""time""
""fullscreenenter"",""0"",""3894""
","
","
","""event"",""trial"",""time""
""fullscreenenter"",""0"",""3894""
","
","null","<p></p>","null","","","","","","","","","","","","","","","","","","","","","","","",""
"","do_recog","172","1230449","0.0-95.0-0.0","""event"",""trial"",""time""
""fullscreenenter"",""0"",""3894""
","
","
","""event"",""trial"",""time""
""fullscreenenter"",""0"",""3894""
","
","1473.5999999996275","","","","","","","","53","","","","306","probe-116","","","","","1","[object Object]","196","4","1","","","",""
"","html-keyboard-response","173","1231452","0.0-95.0-1.0","""event"",""trial"",""time""
""fullscreenenter"",""0"",""3894""
","
","
","""event"",""trial"",""time""
""fullscreenenter"",""0"",""3894""
","
","null","<p></p>","null","","","","","","","","","","","","","","","","","","","","","","","",""
"","do_trial","174","1236199","0.0-96.0-0.0","""event"",""trial"",""time""
""fullscreenenter"",""0"",""3894""
","
","
","""event"",""trial"",""time""
""fullscreenenter"",""0"",""3894""
","
","2171.0999999996275","","","","","","","","50","0,0,0","6","blank","307","null","0.5601743544634099","0.4875812960461848","0.18051680547946752","0","","","","","","","","",""
"","html-keyboard-response","175","1237201","0.0-96.0-1.0","""event"",""trial"",""time""
""fullscreenenter"",""0"",""3894""
","
","
","""event"",""trial"",""time""
""fullscreenenter"",""0"",""3894""
","
","null","<p></p>","null","","","","","","","","","","","","","","","","","","","","","","","",""
"","do_trial","176","1241015","0.0-97.0-0.0","""event"",""trial"",""time""
""fullscreenenter"",""0"",""3894""
","
","
","""event"",""trial"",""time""
""fullscreenenter"",""0"",""3894""
","
","1239.300000000745","","","","","","","","50","1,0,0","6","blank","308","null","0.6364510873550411","0.3470311765836678","0.14335066471317684","0","","","","","","","","",""
"","html-keyboard-response","177","1242017","0.0-97.0-1.0","""event"",""trial"",""time""
""fullscreenenter"",""0"",""3894""
","
","
","""event"",""trial"",""time""
""fullscreenenter"",""0"",""3894""
","
","null","<p></p>","null","","","","","","","","","","","","","","","","","","","","","","","",""
"","break","178","1243874","0.0-98.0-0.0","""event"",""trial"",""time""
""fullscreenenter"",""0"",""3894""
","
","
","""event"",""trial"",""time""
""fullscreenenter"",""0"",""3894""
","
","1854.9000000003725","<div class='center'><p>Time to take a quick break! You have 2 minutes to rest, but you can move on sooner if you'd like.</p><p> Press the <b>space bar</b> to continue.</p></div>","32","","","","","","","","","","","","","","","","","","","","","","","",""
"","do_trial","179","1247056","0.0-98.0-1.0","""event"",""trial"",""time""
""fullscreenenter"",""0"",""3894""
","
","
","""event"",""trial"",""time""
""fullscreenenter"",""0"",""3894""
","
","607.5","","","","","","","","51","1,0,1","6","blank","309","null","0.6947793391628578","0.24373885148125043","0.17237141260624086","1","","","","","","","","",""
"","html-keyboard-response","180","1248058","0.0-98.0-2.0","""event"",""trial"",""time""
""fullscreenenter"",""0"",""3894""
","
","
","""event"",""trial"",""time""
""fullscreenenter"",""0"",""3894""
","
","null","<p></p>","null","","","","","","","","","","","","","","","","","","","","","","","",""
"","do_trial","181","1251180","0.0-99.0-0.0","""event"",""trial"",""time""
""fullscreenenter"",""0"",""3894""
","
","
","""event"",""trial"",""time""
""fullscreenenter"",""0"",""3894""
","
","547.2000000011176","","","","","","","","51","1,0,0","6","blank","310","null","0.767767567663137","0.21082757372654898","0.17204172951110594","0","","","","","","","","",""
"","html-keyboard-response","182","1252183","0.0-99.0-1.0","""event"",""trial"",""time""
""fullscreenenter"",""0"",""3894""
","
","
","""event"",""trial"",""time""
""fullscreenenter"",""0"",""3894""
","
","null","<p></p>","null","","","","","","","","","","","","","","","","","","","","","","","",""
"","do_trial","183","1255333","0.0-100.0-0.0","""event"",""trial"",""time""
""fullscreenenter"",""0"",""3894""
","
","
","""event"",""trial"",""time""
""fullscreenenter"",""0"",""3894""
","
","575.1000000014901","","","","","","","","50","1,1,1","6","blank","311","null","0.749647716183932","0.2598441893913992","0.26491159197229547","1","","","","","","","","",""
"","html-keyboard-response","184","1256335","0.0-100.0-1.0","""event"",""trial"",""time""
""fullscreenenter"",""0"",""3894""
","
","
","""event"",""trial"",""time""
""fullscreenenter"",""0"",""3894""
","
","null","<p></p>","null","","","","","","","","","","","","","","","","","","","","","","","",""
"","do_trial","185","1259075","0.0-101.0-0.0","""event"",""trial"",""time""
""fullscreenenter"",""0"",""3894""
","
","
","""event"",""trial"",""time""
""fullscreenenter"",""0"",""3894""
","
","164.89999999850988","","","","","","","","51","0,0,0","6","blank","312","null","0.6307174567749784","0.3515250944601443","0.23959319088803432","0","","","","","","","","",""
"","html-keyboard-response","186","1260077","0.0-101.0-1.0","""event"",""trial"",""time""
""fullscreenenter"",""0"",""3894""
","
","
","""event"",""trial"",""time""
""fullscreenenter"",""0"",""3894""
","
","null","<p></p>","null","","","","","","","","","","","","","","","","","","","","","","","",""
"","do_recog","187","1263111","0.0-102.0-0.0","""event"",""trial"",""time""
""fullscreenenter"",""0"",""3894""
","
","
","""event"",""trial"",""time""
""fullscreenenter"",""0"",""3894""
","
","1526.5","","","","","","","","53","","","","313","probe-214","","","","","1","[object Object]","191","4","1","","","",""
"","html-keyboard-response","188","1264113","0.0-102.0-1.0","""event"",""trial"",""time""
""fullscreenenter"",""0"",""3894""
","
","
","""event"",""trial"",""time""
""fullscreenenter"",""0"",""3894""
","
","null","<p></p>","null","","","","","","","","","","","","","","","","","","","","","","","",""
"","do_trial","189","1267793","0.0-103.0-0.0","""event"",""trial"",""time""
""fullscreenenter"",""0"",""3894""
","
","
","""event"",""trial"",""time""
""fullscreenenter"",""0"",""3894""
","
","1105.9000000003725","","","","","","","","51","0,0,0","6","blank","314","null","0.7315428014966396","0.2587447030309803","0.17958283220059756","0","","","","","","","","",""
"","html-keyboard-response","190","1268795","0.0-103.0-1.0","""event"",""trial"",""time""
""fullscreenenter"",""0"",""3894""
","
","
","""event"",""trial"",""time""
""fullscreenenter"",""0"",""3894""
","
","null","<p></p>","null","","","","","","","","","","","","","","","","","","","","","","","",""
"","do_trial","191","1271637","0.0-104.0-0.0","""event"",""trial"",""time""
""fullscreenenter"",""0"",""3894""
","
","
","""event"",""trial"",""time""
""fullscreenenter"",""0"",""3894""
","
","266.5","","","","","","","","50","1,0,1","6","blank","315","null","0.6116189359409662","0.26833332189485104","0.16123597754380062","0","","","","","","","","",""
"","html-keyboard-response","192","1272640","0.0-104.0-1.0","""event"",""trial"",""time""
""fullscreenenter"",""0"",""3894""
","
","
","""event"",""trial"",""time""
""fullscreenenter"",""0"",""3894""
","
","null","<p></p>","null","","","","","","","","","","","","","","","","","","","","","","","",""
"","do_recog","193","1275656","0.0-105.0-0.0","""event"",""trial"",""time""
""fullscreenenter"",""0"",""3894""
","
","
","""event"",""trial"",""time""
""fullscreenenter"",""0"",""3894""
","
","1508.300000000745","","","","","","","","53","","","","316","probe-50","","","","","1","[object Object]","116","2","1","","","",""
"","html-keyboard-response","194","1276659","0.0-105.0-1.0","""event"",""trial"",""time""
""fullscreenenter"",""0"",""3894""
","
","
","""event"",""trial"",""time""
""fullscreenenter"",""0"",""3894""
","
","null","<p></p>","null","","","","","","","","","","","","","","","","","","","","","","","",""
"","do_trial","195","1279761","0.0-106.0-0.0","""event"",""trial"",""time""
""fullscreenenter"",""0"",""3894""
","
","
","""event"",""trial"",""time""
""fullscreenenter"",""0"",""3894""
","
","528.0999999996275","","","","","","","","49","1,0,0","6","blank","317","null","0.49529048361544087","0.29995967892168784","0.13189226265042886","1","","","","","","","","",""
"","html-keyboard-response","196","1280763","0.0-106.0-1.0","""event"",""trial"",""time""
""fullscreenenter"",""0"",""3894""
","
","
","""event"",""trial"",""time""
""fullscreenenter"",""0"",""3894""
","
","null","<p></p>","null","","","","","","","","","","","","","","","","","","","","","","","",""
"","do_trial","197","1283731","0.0-107.0-0.0","""event"",""trial"",""time""
""fullscreenenter"",""0"",""3894""
","
","
","""event"",""trial"",""time""
""fullscreenenter"",""0"",""3894""
","
","392.40000000037253","","","","","","","","49","1,0,0","6","blank","318","null","0.5876485818530232","0.2016152578929781","0.05597822216193678","1","","","","","","","","",""
"","html-keyboard-response","198","1284733","0.0-107.0-1.0","""event"",""trial"",""time""
""fullscreenenter"",""0"",""3894""
","
","
","""event"",""trial"",""time""
""fullscreenenter"",""0"",""3894""
","
","null","<p></p>","null","","","","","","","","","","","","","","","","","","","","","","","",""
"","do_trial","199","1287669","0.0-108.0-0.0","""event"",""trial"",""time""
""fullscreenenter"",""0"",""3894""
","
","
","""event"",""trial"",""time""
""fullscreenenter"",""0"",""3894""
","
","361.19999999925494","","","","","","","","50","1,0,0","6","blank","319","null","0.6750360062419535","0.2853075327166365","0.060210089855977554","0","","","","","","","","",""
"","html-keyboard-response","200","1288672","0.0-108.0-1.0","""event"",""trial"",""time""
""fullscreenenter"",""0"",""3894""
","
","
","""event"",""trial"",""time""
""fullscreenenter"",""0"",""3894""
","
","null","<p></p>","null","","","","","","","","","","","","","","","","","","","","","","","",""
"","do_recog","201","1291836","0.0-109.0-0.0","""event"",""trial"",""time""
""fullscreenenter"",""0"",""3894""
","
","
","""event"",""trial"",""time""
""fullscreenenter"",""0"",""3894""
","
","1656.5","","","","","","","","53","","","","320","probe-230","","","","","1","[object Object]","192","4","1","","","",""
"","html-keyboard-response","202","1292839","0.0-109.0-1.0","""event"",""trial"",""time""
""fullscreenenter"",""0"",""3894""
","
","
","""event"",""trial"",""time""
""fullscreenenter"",""0"",""3894""
","
","null","<p></p>","null","","","","","","","","","","","","","","","","","","","","","","","",""
"","do_trial","203","1297371","0.0-110.0-0.0","""event"",""trial"",""time""
""fullscreenenter"",""0"",""3894""
","
","
","""event"",""trial"",""time""
""fullscreenenter"",""0"",""3894""
","
","1956.7999999988824","","","","","","","","50","1,0,0","6","blank","321","null","0.5344659811621008","0.4100765555790069","0.14278319998308397","0","","","","","","","","",""
"","html-keyboard-response","204","1298374","0.0-110.0-1.0","""event"",""trial"",""time""
""fullscreenenter"",""0"",""3894""
","
","
","""event"",""trial"",""time""
""fullscreenenter"",""0"",""3894""
","
","null","<p></p>","null","","","","","","","","","","","","","","","","","","","","","","","",""
"","do_recog","205","1302087","0.0-111.0-0.0","""event"",""trial"",""time""
""fullscreenenter"",""0"",""3894""
","
","
","""event"",""trial"",""time""
""fullscreenenter"",""0"",""3894""
","
","2205.300000000745","","","","","","","","54","","","","322","probe-88","","","","","1","[object Object]","114","2","1","","","",""
"","html-keyboard-response","206","1303090","0.0-111.0-1.0","""event"",""trial"",""time""
""fullscreenenter"",""0"",""3894""
","
","
","""event"",""trial"",""time""
""fullscreenenter"",""0"",""3894""
","
","null","<p></p>","null","","","","","","","","","","","","","","","","","","","","","","","",""
"","do_trial","207","1306911","0.0-112.0-0.0","""event"",""trial"",""time""
""fullscreenenter"",""0"",""3894""
","
","
","""event"",""trial"",""time""
""fullscreenenter"",""0"",""3894""
","
","1245.7999999988824","","","","","","","","50","1,0,0","6","blank","323","null","0.46940370230422035","0.4455552313732354","0.08223345083679895","0","","","","","","","","",""
"","html-keyboard-response","208","1307913","0.0-112.0-1.0","""event"",""trial"",""time""
""fullscreenenter"",""0"",""3894""
","
","
","""event"",""trial"",""time""
""fullscreenenter"",""0"",""3894""
","
","null","<p></p>","null","","","","","","","","","","","","","","","","","","","","","","","",""
"","do_trial","209","1311497","0.0-113.0-0.0","""event"",""trial"",""time""
""fullscreenenter"",""0"",""3894""
","
","
","""event"",""trial"",""time""
""fullscreenenter"",""0"",""3894""
","
","1008.9000000003725","","","","","","","","51","1,1,0","6","blank","324","null","0.559885660516028","0.4201101478322962","0.10732337817038687","0","","","","","","","","",""
"","html-keyboard-response","210","1312499","0.0-113.0-1.0","""event"",""trial"",""time""
""fullscreenenter"",""0"",""3894""
","
","
","""event"",""trial"",""time""
""fullscreenenter"",""0"",""3894""
","
","null","<p></p>","null","","","","","","","","","","","","","","","","","","","","","","","",""
"","do_trial","211","1315516","0.0-114.0-0.0","""event"",""trial"",""time""
""fullscreenenter"",""0"",""3894""
","
","
","""event"",""trial"",""time""
""fullscreenenter"",""0"",""3894""
","
","442.09999999962747","","","","","","","","49","1,1,0","6","blank","325","null","0.6369710448998676","0.3953856833852578","0.11327117515684851","1","","","","","","","","",""
"","html-keyboard-response","212","1316518","0.0-114.0-1.0","""event"",""trial"",""time""
""fullscreenenter"",""0"",""3894""
","
","
","""event"",""trial"",""time""
""fullscreenenter"",""0"",""3894""
","
","null","<p></p>","null","","","","","","","","","","","","","","","","","","","","","","","",""
"","do_trial","213","1319871","0.0-115.0-0.0","""event"",""trial"",""time""
""fullscreenenter"",""0"",""3894""
","
","
","""event"",""trial"",""time""
""fullscreenenter"",""0"",""3894""
","
","777.1999999992549","","","","","","","","51","0,0,0","6","blank","326","null","0.767153528276289","0.36967711321837243","0.18045722085887028","0","","","","","","","","",""
"","html-keyboard-response","214","1320874","0.0-115.0-1.0","""event"",""trial"",""time""
""fullscreenenter"",""0"",""3894""
","
","
","""event"",""trial"",""time""
""fullscreenenter"",""0"",""3894""
","
","null","<p></p>","null","","","","","","","","","","","","","","","","","","","","","","","",""
"","do_trial","215","1324407","0.0-116.0-0.0","""event"",""trial"",""time""
""fullscreenenter"",""0"",""3894""
","
","
","""event"",""trial"",""time""
""fullscreenenter"",""0"",""3894""
","
","957.9000000003725","","","","","","","","49","0,0,0","6","blank","327","null","0.7047103756867952","0.32358392111943013","0.10726201203963653","0","","","","","","","","",""
"","html-keyboard-response","216","1325409","0.0-116.0-1.0","""event"",""trial"",""time""
""fullscreenenter"",""0"",""3894""
","
","
","""event"",""trial"",""time""
""fullscreenenter"",""0"",""3894""
","
","null","<p></p>","null","","","","","","","","","","","","","","","","","","","","","","","",""
"","do_recog","217","1328963","0.0-117.0-0.0","""event"",""trial"",""time""
""fullscreenenter"",""0"",""3894""
","
","
","""event"",""trial"",""time""
""fullscreenenter"",""0"",""3894""
","
","2045.9000000003725","","","","","","","","53","","","","328","probe-170","","","","","1","[object Object]","36","0","1","","","",""
"","html-keyboard-response","218","1329965","0.0-117.0-1.0","""event"",""trial"",""time""
""fullscreenenter"",""0"",""3894""
","
","
","""event"",""trial"",""time""
""fullscreenenter"",""0"",""3894""
","
","null","<p></p>","null","","","","","","","","","","","","","","","","","","","","","","","",""
"","do_trial","219","1333029","0.0-118.0-0.0","""event"",""trial"",""time""
""fullscreenenter"",""0"",""3894""
","
","
","""event"",""trial"",""time""
""fullscreenenter"",""0"",""3894""
","
","488.6000000014901","","","","","","","","50","0,1,0","6","blank","329","null","0.6394383673707978","0.15627823995949697","0.08866303757242536","1","","","","","","","","",""
"","html-keyboard-response","220","1334031","0.0-118.0-1.0","""event"",""trial"",""time""
""fullscreenenter"",""0"",""3894""
","
","
","""event"",""trial"",""time""
""fullscreenenter"",""0"",""3894""
","
","null","<p></p>","null","","","","","","","","","","","","","","","","","","","","","","","",""
"","do_trial","221","1337107","0.0-119.0-0.0","""event"",""trial"",""time""
""fullscreenenter"",""0"",""3894""
","
","
","""event"",""trial"",""time""
""fullscreenenter"",""0"",""3894""
","
","501","","","","","","","","51","1,0,0","6","blank","330","null","0.5628061676102702","0.13243217933880908","0.10332700976940076","0","","","","","","","","",""
"","html-keyboard-response","222","1338110","0.0-119.0-1.0","""event"",""trial"",""time""
""fullscreenenter"",""0"",""3894""
","
","
","""event"",""trial"",""time""
""fullscreenenter"",""0"",""3894""
","
","null","<p></p>","null","","","","","","","","","","","","","","","","","","","","","","","",""
"","do_recog","223","1341100","0.0-120.0-0.0","""event"",""trial"",""time""
""fullscreenenter"",""0"",""3894""
","
","
","""event"",""trial"",""time""
""fullscreenenter"",""0"",""3894""
","
","1481.9000000003725","","","","","","","","54","","","","331","probe-131","","","","","1","[object Object]","197","4","1","","","",""
"","html-keyboard-response","224","1342102","0.0-120.0-1.0","""event"",""trial"",""time""
""fullscreenenter"",""0"",""3894""
","
","
","""event"",""trial"",""time""
""fullscreenenter"",""0"",""3894""
","
","null","<p></p>","null","","","","","","","","","","","","","","","","","","","","","","","",""
"","do_trial","225","1345227","0.0-121.0-0.0","""event"",""trial"",""time""
""fullscreenenter"",""0"",""3894""
","
","
","""event"",""trial"",""time""
""fullscreenenter"",""0"",""3894""
","
","544.7000000011176","","","","","","","","50","0,0,0","6","blank","332","null","0.4771260568989471","0.1887675474224314","0.14351604558755005","0","","","","","","","","",""
"","html-keyboard-response","226","1346230","0.0-121.0-1.0","""event"",""trial"",""time""
""fullscreenenter"",""0"",""3894""
","
","
","""event"",""trial"",""time""
""fullscreenenter"",""0"",""3894""
","
","null","<p></p>","null","","","","","","","","","","","","","","","","","","","","","","","",""
"","do_trial","227","1349141","0.0-122.0-0.0","""event"",""trial"",""time""
""fullscreenenter"",""0"",""3894""
","
","
","""event"",""trial"",""time""
""fullscreenenter"",""0"",""3894""
","
","336.8999999985099","","","","","","","","51","0,0,0","6","blank","333","null","0.5498468006867229","0.15587115518149522","0.1714982582211468","0","","","","","","","","",""
"","html-keyboard-response","228","1350144","0.0-122.0-1.0","""event"",""trial"",""time""
""fullscreenenter"",""0"",""3894""
","
","
","""event"",""trial"",""time""
""fullscreenenter"",""0"",""3894""
","
","null","<p></p>","null","","","","","","","","","","","","","","","","","","","","","","","",""
"","do_trial","229","1353299","0.0-123.0-0.0","""event"",""trial"",""time""
""fullscreenenter"",""0"",""3894""
","
","
","""event"",""trial"",""time""
""fullscreenenter"",""0"",""3894""
","
","580.1999999992549","","","","","","","","49","1,0,0","6","blank","334","null","0.660923658016821","0.18998794451248976","0.19669924060734242","1","","","","","","","","",""
"","html-keyboard-response","230","1354301","0.0-123.0-1.0","""event"",""trial"",""time""
""fullscreenenter"",""0"",""3894""
","
","
","""event"",""trial"",""time""
""fullscreenenter"",""0"",""3894""
","
","null","<p></p>","null","","","","","","","","","","","","","","","","","","","","","","","",""
"","do_recog","231","1357496","0.0-124.0-0.0","""event"",""trial"",""time""
""fullscreenenter"",""0"",""3894""
","
","
","""event"",""trial"",""time""
""fullscreenenter"",""0"",""3894""
","
","1687.0999999996275","","","","","","","","53","","","","335","probe-215","","","","","1","[object Object]","155","3","1","","","",""
"","html-keyboard-response","232","1358499","0.0-124.0-1.0","""event"",""trial"",""time""
""fullscreenenter"",""0"",""3894""
","
","
","""event"",""trial"",""time""
""fullscreenenter"",""0"",""3894""
","
","null","<p></p>","null","","","","","","","","","","","","","","","","","","","","","","","",""
"","do_trial","233","1361676","0.0-125.0-0.0","""event"",""trial"",""time""
""fullscreenenter"",""0"",""3894""
","
","
","""event"",""trial"",""time""
""fullscreenenter"",""0"",""3894""
","
","602.5999999996275","","","","","","","","51","1,1,0","6","blank","336","null","0.7314330861633727","0.33844330403251766","0.22976799623424352","0","","","","","","","","",""
"","html-keyboard-response","234","1362678","0.0-125.0-1.0","""event"",""trial"",""time""
""fullscreenenter"",""0"",""3894""
","
","
","""event"",""trial"",""time""
""fullscreenenter"",""0"",""3894""
","
","null","<p></p>","null","","","","","","","","","","","","","","","","","","","","","","","",""
"","do_trial","235","1365997","0.0-126.0-0.0","""event"",""trial"",""time""
""fullscreenenter"",""0"",""3894""
","
","
","""event"",""trial"",""time""
""fullscreenenter"",""0"",""3894""
","
","744","","","","","","","","50","1,0,0","6","blank","337","null","0.6672097224638462","0.20371385356734614","0.08784328153248887","0","","","","","","","","",""
"","html-keyboard-response","236","1367000","0.0-126.0-1.0","""event"",""trial"",""time""
""fullscreenenter"",""0"",""3894""
","
","
","""event"",""trial"",""time""
""fullscreenenter"",""0"",""3894""
","
","null","<p></p>","null","","","","","","","","","","","","","","","","","","","","","","","",""
"","do_trial","237","1370211","0.0-127.0-0.0","""event"",""trial"",""time""
""fullscreenenter"",""0"",""3894""
","
","
","""event"",""trial"",""time""
""fullscreenenter"",""0"",""3894""
","
","636.2000000011176","","","","","","","","49","0,0,0","6","blank","338","null","0.7864782875605866","0.2268981383245263","0.12590607074526566","0","","","","","","","","",""
"","html-keyboard-response","238","1371215","0.0-127.0-1.0","""event"",""trial"",""time""
""fullscreenenter"",""0"",""3894""
","
","
","""event"",""trial"",""time""
""fullscreenenter"",""0"",""3894""
","
","null","<p></p>","null","","","","","","","","","","","","","","","","","","","","","","","",""
"","do_recog","239","1374130","0.0-128.0-0.0","""event"",""trial"",""time""
""fullscreenenter"",""0"",""3894""
","
","
","""event"",""trial"",""time""
""fullscreenenter"",""0"",""3894""
","
","1406.7000000011176","","","","","","","","53","","","","339","probe-55","","","","","1","[object Object]","35","0","1","","","",""
"","html-keyboard-response","240","1375132","0.0-128.0-1.0","""event"",""trial"",""time""
""fullscreenenter"",""0"",""3894""
","
","
","""event"",""trial"",""time""
""fullscreenenter"",""0"",""3894""
","
","null","<p></p>","null","","","","","","","","","","","","","","","","","","","","","","","",""
"","do_trial","241","1379774","0.0-129.0-0.0","""event"",""trial"",""time""
""fullscreenenter"",""0"",""3894""
","
","
","""event"",""trial"",""time""
""fullscreenenter"",""0"",""3894""
","
","2066.10000000149","","","","","","","","51","1,0,0","6","blank","340","null","0.7113417393375447","0.2878302067185411","0.08519762070567158","0","","","","","","","","",""
"","html-keyboard-response","242","1380776","0.0-129.0-1.0","""event"",""trial"",""time""
""fullscreenenter"",""0"",""3894""
","
","
","""event"",""trial"",""time""
""fullscreenenter"",""0"",""3894""
","
","null","<p></p>","null","","","","","","","","","","","","","","","","","","","","","","","",""
"","do_trial","243","1383846","0.0-130.0-0.0","""event"",""trial"",""time""
""fullscreenenter"",""0"",""3894""
","
","
","""event"",""trial"",""time""
""fullscreenenter"",""0"",""3894""
","
","492.59999999962747","","","","","","","","50","1,0,0","6","blank","341","null","0.6866900388659575","0.3629187238641613","0.1756679204217127","0","","","","","","","","",""
"","html-keyboard-response","244","1384849","0.0-130.0-1.0","""event"",""trial"",""time""
""fullscreenenter"",""0"",""3894""
","
","
","""event"",""trial"",""time""
""fullscreenenter"",""0"",""3894""
","
","null","<p></p>","null","","","","","","","","","","","","","","","","","","","","","","","",""
"","do_recog","245","1387741","0.0-131.0-0.0","""event"",""trial"",""time""
""fullscreenenter"",""0"",""3894""
","
","
","""event"",""trial"",""time""
""fullscreenenter"",""0"",""3894""
","
","1384","","","","","","","","53","","","","342","probe-98","","","","","1","[object Object]","72","1","1","","","",""
"","html-keyboard-response","246","1388743","0.0-131.0-1.0","""event"",""trial"",""time""
""fullscreenenter"",""0"",""3894""
","
","
","""event"",""trial"",""time""
""fullscreenenter"",""0"",""3894""
","
","null","<p></p>","null","","","","","","","","","","","","","","","","","","","","","","","",""
"","do_trial","247","1391651","0.0-132.0-0.0","""event"",""trial"",""time""
""fullscreenenter"",""0"",""3894""
","
","
","""event"",""trial"",""time""
""fullscreenenter"",""0"",""3894""
","
","332.80000000074506","","","","","","","","50","0,1,0","6","blank","343","null","0.5851484121552819","0.3620854763810635","0.12279603466695636","1","","","","","","","","",""
"","html-keyboard-response","248","1392653","0.0-132.0-1.0","""event"",""trial"",""time""
""fullscreenenter"",""0"",""3894""
","
","
","""event"",""trial"",""time""
""fullscreenenter"",""0"",""3894""
","
","null","<p></p>","null","","","","","","","","","","","","","","","","","","","","","","","",""
"","do_trial","249","1395745","0.0-133.0-0.0","""event"",""trial"",""time""
""fullscreenenter"",""0"",""3894""
","
","
","""event"",""trial"",""time""
""fullscreenenter"",""0"",""3894""
","
","517.4000000003725","","","","","","","","50","0,1,0","6","blank","344","null","0.46227553418604955","0.4552544763450886","0.11794075151980142","1","","","","","","","","",""
"","html-keyboard-response","250","1396748","0.0-133.0-1.0","""event"",""trial"",""time""
""fullscreenenter"",""0"",""3894""
","
","
","""event"",""trial"",""time""
""fullscreenenter"",""0"",""3894""
","
","null","<p></p>","null","","","","","","","","","","","","","","","","","","","","","","","",""
"","do_trial","251","1399648","0.0-134.0-0.0","""event"",""trial"",""time""
""fullscreenenter"",""0"",""3894""
","
","
","""event"",""trial"",""time""
""fullscreenenter"",""0"",""3894""
","
","324.90000000037253","","","","","","","","50","0,0,1","6","blank","345","null","0.541217668392037","0.4242536818928408","0.14739081984732186","0","","","","","","","","",""
"","html-keyboard-response","252","1400650","0.0-134.0-1.0","""event"",""trial"",""time""
""fullscreenenter"",""0"",""3894""
","
","
","""event"",""trial"",""time""
""fullscreenenter"",""0"",""3894""
","
","null","<p></p>","null","","","","","","","","","","","","","","","","","","","","","","","",""
"","do_trial","253","1403545","0.0-135.0-0.0","""event"",""trial"",""time""
""fullscreenenter"",""0"",""3894""
","
","
","""event"",""trial"",""time""
""fullscreenenter"",""0"",""3894""
","
","320.2000000011176","","","","","","","","49","1,0,0","6","blank","346","null","0.5245959249237949","0.2621832334106345","0.10483776080432647","1","","","","","","","","",""
"","html-keyboard-response","254","1404548","0.0-135.0-1.0","""event"",""trial"",""time""
""fullscreenenter"",""0"",""3894""
","
","
","""event"",""trial"",""time""
""fullscreenenter"",""0"",""3894""
","
","null","<p></p>","null","","","","","","","","","","","","","","","","","","","","","","","",""
"","do_trial","255","1407525","0.0-136.0-0.0","""event"",""trial"",""time""
""fullscreenenter"",""0"",""3894""
","
","
","""event"",""trial"",""time""
""fullscreenenter"",""0"",""3894""
","
","402.69999999925494","","","","","","","","51","1,0,0","6","blank","347","null","0.45007640051575865","0.39637800790596894","0.07841910186794786","0","","","","","","","","",""
"","html-keyboard-response","256","1408528","0.0-136.0-1.0","""event"",""trial"",""time""
""fullscreenenter"",""0"",""3894""
","
","
","""event"",""trial"",""time""
""fullscreenenter"",""0"",""3894""
","
","null","<p></p>","null","","","","","","","","","","","","","","","","","","","","","","","",""
"","do_recog","257","1412086","0.0-137.0-0.0","""event"",""trial"",""time""
""fullscreenenter"",""0"",""3894""
","
","
","""event"",""trial"",""time""
""fullscreenenter"",""0"",""3894""
","
","2050","","","","","","","","53","","","","348","probe-117","","","","","1","[object Object]","156","3","1","","","",""
"","html-keyboard-response","258","1413089","0.0-137.0-1.0","""event"",""trial"",""time""
""fullscreenenter"",""0"",""3894""
","
","
","""event"",""trial"",""time""
""fullscreenenter"",""0"",""3894""
","
","null","<p></p>","null","","","","","","","","","","","","","","","","","","","","","","","",""
"","break","259","1533092","0.0-138.0-0.0","""event"",""trial"",""time""
""fullscreenenter"",""0"",""3894""
","
","
","""event"",""trial"",""time""
""fullscreenenter"",""0"",""3894""
","
","null","<div class='center'><p>Time to take a quick break! You have 2 minutes to rest, but you can move on sooner if you'd like.</p><p> Press the <b>space bar</b> to continue.</p></div>","null","","","","","","","","","","","","","","","","","","","","","","","",""
"","do_trial","260","1539168","0.0-138.0-1.0","""event"",""trial"",""time""
""fullscreenenter"",""0"",""3894""
","
","
","""event"",""trial"",""time""
""fullscreenenter"",""0"",""3894""
","
","null","","","","","","","","null","1,1,0","6","blank","349","null","0.38249492891948755","0.5877923742777865","0.2617235770718256","","","","","","","","","",""
"","html-keyboard-response","261","1540171","0.0-138.0-2.0","""event"",""trial"",""time""
""fullscreenenter"",""0"",""3894""
","
","
","""event"",""trial"",""time""
""fullscreenenter"",""0"",""3894""
","
","null","<p></p>","null","","","","","","","","","","","","","","","","","","","","","","","",""
"","do_trial","262","1546246","0.0-139.0-0.0","""event"",""trial"",""time""
""fullscreenenter"",""0"",""3894""
","
","
","""event"",""trial"",""time""
""fullscreenenter"",""0"",""3894""
","
","null","","","","","","","","null","1,1,0","6","blank","350","null","0.25690879471336586","0.5066893142813493","0.11887220143763795","","","","","","","","","",""
"","html-keyboard-response","263","1547249","0.0-139.0-1.0","""event"",""trial"",""time""
""fullscreenenter"",""0"",""3894""
","
","
","""event"",""trial"",""time""
""fullscreenenter"",""0"",""3894""
","
","null","<p></p>","null","","","","","","","","","","","","","","","","","","","","","","","",""
"","do_trial","264","1553324","0.0-140.0-0.0","""event"",""trial"",""time""
""fullscreenenter"",""0"",""3894""
","
","
","""event"",""trial"",""time""
""fullscreenenter"",""0"",""3894""
","
","null","","","","","","","","null","0,0,0","6","blank","351","null","0.10470841510935702","0.6262176614317828","0.05581160855161708","","","","","","","","","",""
"","html-keyboard-response","265","1554327","0.0-140.0-1.0","""event"",""trial"",""time""
""fullscreenenter"",""0"",""3894""
","
","
","""event"",""trial"",""time""
""fullscreenenter"",""0"",""3894""
","
","null","<p></p>","null","","","","","","","","","","","","","","","","","","","","","","","",""
"","do_trial","266","1560402","0.0-141.0-0.0","""event"",""trial"",""time""
""fullscreenenter"",""0"",""3894""
","
","
","""event"",""trial"",""time""
""fullscreenenter"",""0"",""3894""
","
","null","","","","","","","","null","0,1,0","6","blank","352","null","0.1317706907446655","0.7504012760306377","0.18523196251984567","","","","","","","","","",""
"","html-keyboard-response","267","1561405","0.0-141.0-1.0","""event"",""trial"",""time""
""fullscreenenter"",""0"",""3894""
","
","
","""event"",""trial"",""time""
""fullscreenenter"",""0"",""3894""
","
","null","<p></p>","null","","","","","","","","","","","","","","","","","","","","","","","",""
"","do_trial","268","1565707","0.0-142.0-0.0","""event"",""trial"",""time""
""fullscreenenter"",""0"",""3894""
","
","
","""event"",""trial"",""time""
""fullscreenenter"",""0"",""3894""
","
","1727.300000000745","","","","","","","","51","0,0,0","6","blank","353","null","0.26531485688618167","0.740354931671632","0.08954425272596009","0","","","","","","","","",""
"","html-keyboard-response","269","1566710","0.0-142.0-1.0","""event"",""trial"",""time""
""fullscreenenter"",""0"",""3894""
","
","
","""event"",""trial"",""time""
""fullscreenenter"",""0"",""3894""
","
","null","<p></p>","null","","","","","","","","","","","","","","","","","","","","","","","",""
"","do_recog","270","1572719","0.0-143.0-0.0","""event"",""trial"",""time""
""fullscreenenter"",""0"",""3894""
","
","
","""event"",""trial"",""time""
""fullscreenenter"",""0"",""3894""
","
","null","","","","","","","","null","","","","354","probe-235","","","","","0","[object Object]","null","null","0","","","",""
"","html-keyboard-response","271","1573721","0.0-143.0-1.0","""event"",""trial"",""time""
""fullscreenenter"",""0"",""3894""
","
","
","""event"",""trial"",""time""
""fullscreenenter"",""0"",""3894""
","
","null","<p></p>","null","","","","","","","","","","","","","","","","","","","","","","","",""
"","do_trial","272","1576959","0.0-144.0-0.0","""event"",""trial"",""time""
""fullscreenenter"",""0"",""3894""
","
","
","""event"",""trial"",""time""
""fullscreenenter"",""0"",""3894""
","
","663","","","","","","","","50","0,1,0","6","blank","355","null","0.4414791065688257","0.6669723527420329","0.10133317393562666","1","","","","","","","","",""
"","html-keyboard-response","273","1577961","0.0-144.0-1.0","""event"",""trial"",""time""
""fullscreenenter"",""0"",""3894""
","
","
","""event"",""trial"",""time""
""fullscreenenter"",""0"",""3894""
","
","null","<p></p>","null","","","","","","","","","","","","","","","","","","","","","","","",""
"","do_recog","274","1580923","0.0-145.0-0.0","""event"",""trial"",""time""
""fullscreenenter"",""0"",""3894""
","
","
","""event"",""trial"",""time""
""fullscreenenter"",""0"",""3894""
","
","1454.6000000014901","","","","","","","","54","","","","356","probe-114","","","","","1","[object Object]","199","4","1","","","",""
"","html-keyboard-response","275","1581926","0.0-145.0-1.0","""event"",""trial"",""time""
""fullscreenenter"",""0"",""3894""
","
","
","""event"",""trial"",""time""
""fullscreenenter"",""0"",""3894""
","
","null","<p></p>","null","","","","","","","","","","","","","","","","","","","","","","","",""
"","do_trial","276","1586042","0.0-146.0-0.0","""event"",""trial"",""time""
""fullscreenenter"",""0"",""3894""
","
","
","""event"",""trial"",""time""
""fullscreenenter"",""0"",""3894""
","
