"success","trial_type","trial_index","time_elapsed","internal_node_id","interactions","blur_events","focus_events","fullscreenenter_events","fullscreenexit_events","rt","stimulus","key_press","subject_id","participant_id","age","gender","prompt","response","choice_outcomes","context_n","context_img_id","trial_n","probe_img_id","pR_red","pR_white","pR_black","outcome","is_valid","image_to_show","probed_trial","probed_context","correct","probe","probed_trial_n","probed_context_n","context_im"
"true","fullscreen","0","3125","0.0-0.0","""event"",""trial"",""time""
""fullscreenenter"",""0"",""2139""
","
","
","""event"",""trial"",""time""
""fullscreenenter"",""0"",""2139""
","
","","","","","","","","","","","","","","","","","","","","","","","","","","",""
"","pavlovia","1","3129","0.0-1.0","""event"",""trial"",""time""
""fullscreenenter"",""0"",""2139""
","
","
","""event"",""trial"",""time""
""fullscreenenter"",""0"",""2139""
","
","","","","","","","","","","","","","","","","","","","","","","","","","","",""
"","welc_back","2","12948","0.0-2.0","""event"",""trial"",""time""
""fullscreenenter"",""0"",""2139""
","
","
","""event"",""trial"",""time""
""fullscreenenter"",""0"",""2139""
","
","null","run_exp/static/audio/clip_29_welcome_back.m4a","null","2937","2712","23","Male","<div class='center'><p>Welcome to day 2!</p><p> Yesterday, you were the head captain of a pirate ship. You asked your fellow pirates to rob other ships of their gold across six different islands.</p></div>","","","","","","","","","","","","","","","","","","",""
"","html-keyboard-response","3","15325","0.0-3.0","""event"",""trial"",""time""
""fullscreenenter"",""0"",""2139""
","
","
","""event"",""trial"",""time""
""fullscreenenter"",""0"",""2139""
","
","2375.800000000745","<div class='center'><p>Welcome to day 2!</p><p> Yesterday, you were the head captain of a pirate ship. You asked your fellow pirates to rob other ships of their gold across six different islands.</p><p><b>[Press the space bar to continue]</b></p></div>","32","","","","","","","","","","","","","","","","","","","","","","","",""
"","day_1_summary_goal","4","32543","0.0-4.0","""event"",""trial"",""time""
""fullscreenenter"",""0"",""2139""
","
","
","""event"",""trial"",""time""
""fullscreenenter"",""0"",""2139""
","
","null","run_exp/static/audio/clip_30_goal_of_game.m4a","null","","","","","<div class='center'><p>Today, like yesterday, you get to pick which pirate you want to rob the next ship.</p><p>If the pirate is successful in robbing a ship, you get gold coins that look like this: </p><p><img src='run_exp/static/images/tutorial/reward.png' height='150'></p><p> If they were not successful in robbing the ship, then you will get no gold coins and you'll see a big red x like this: </p><p><img src='run_exp/static/images/tutorial/reward_no.png' height='150'></p></div>","","","","","","","","","","","","","","","","","","",""
"","html-keyboard-response","5","33501","0.0-5.0","""event"",""trial"",""time""
""fullscreenenter"",""0"",""2139""
","
","
","""event"",""trial"",""time""
""fullscreenenter"",""0"",""2139""
","
","956.8000000007451","<div class='center'><p>Today, like yesterday, you get to pick which pirate you want to rob the next ship.</p><p>If the pirate is successful in robbing a ship, you get gold coins that look like this: </p><p><img src='run_exp/static/images/tutorial/reward.png' height='150'></p><p> If they were not successful in robbing the ship, then you will get no gold coins and you'll see a big red x like this: </p><p><img src='run_exp/static/images/tutorial/reward_no.png' height='150'></p><p><b>[Press the space bar to continue]</b></p></div>","32","","","","","","","","","","","","","","","","","","","","","","","",""
"","day_1_summary_pick","6","48194","0.0-6.0","""event"",""trial"",""time""
""fullscreenenter"",""0"",""2139""
","
","
","""event"",""trial"",""time""
""fullscreenenter"",""0"",""2139""
","
","null","run_exp/static/audio/clip_31_how_to_pick_a_pirate.m4a","null","","","","","<div class='center'><p>Also, just like yesterday, you will use the 1,2,3 keys on your keyboard to pick a pirate. Press '1' to choose red beard, '2' to choose white beard, and '3' to choose black beard . You only have 3 seconds to pick a pirate, so please make a choice quickly!</p></div>","","","","","","","","","","","","","","","","","","",""
"","html-keyboard-response","7","49035","0.0-7.0","""event"",""trial"",""time""
""fullscreenenter"",""0"",""2139""
","
","
","""event"",""trial"",""time""
""fullscreenenter"",""0"",""2139""
","
","840.1999999992549","<div class='center'><p>Also, just like yesterday, you will use the 1,2,3 keys on your keyboard to pick a pirate. Press '1' to choose red beard, '2' to choose white beard, and '3' to choose black beard . You only have 3 seconds to pick a pirate, so please make a choice quickly!</p><p><b>[Press the space bar to continue]</b></p></div>","32","","","","","","","","","","","","","","","","","","","","","","","",""
"","test_phase_begin","8","79472","0.0-8.0","""event"",""trial"",""time""
""fullscreenenter"",""0"",""2139""
","
","
","""event"",""trial"",""time""
""fullscreenenter"",""0"",""2139""
","
","null","run_exp/static/audio/clip_32_final_place.m4a","null","","","","","<div class='center'><p>You’ve arrived at the final island of your journey! Unfortunately, it’s very foggy out, so you won’t be able to see it in the distance like the other islands you've visited.</p><p>You’ll still be deciding which pirate you want to rob a ship like before. However, because of the fog, you also won’t be able to see the ship.</p><p>This means you do not have to remember the ships you rob on this island.</p><p>Unlike yesterday, you won't be visiting multiple islands today. You will stay on this island for the entire game. This game will last ~30 minutes.</p></div>","","","","","","","","","","","","","","","","","","",""
"","html-keyboard-response","9","80093","0.0-9.0","""event"",""trial"",""time""
""fullscreenenter"",""0"",""2139""
","
","
","""event"",""trial"",""time""
""fullscreenenter"",""0"",""2139""
","
","620.1999999992549","<div class='center'><p>You’ve arrived at the final island of your journey! Unfortunately, it’s very foggy out, so you won’t be able to see it in the distance like the other islands you've visited.</p><p>You’ll still be deciding which pirate you want to rob a ship like before. However, because of the fog, you also won’t be able to see the ship.</p><p>This means you do not have to remember the ships you rob on this island.</p><p>Unlike yesterday, you won't be visiting multiple islands today. You will stay on this island for the entire game. This game will last ~30 minutes.</p><p><b>[Press the space bar to continue]</b></p></div>","32","","","","","","","","","","","","","","","","","","","","","","","",""
"","explain_probe_1","10","87809","0.0-10.0","""event"",""trial"",""time""
""fullscreenenter"",""0"",""2139""
","
","
","""event"",""trial"",""time""
""fullscreenenter"",""0"",""2139""
","
","null","run_exp/static/audio/clip_33_recognition_1.m4a","null","","","","","<div class='center'><p> Sometimes you’ll be shown a ship, and you will be asked if you saw this ship on a past island.</p><p> Here is an example of what you will see.</p><p><img src='run_exp/static/images/tutorial/example_recog_trial.png' height='500'></p></div>","","","","","","","","","","","","","","","","","","",""
"","html-keyboard-response","11","93569","0.0-11.0","""event"",""trial"",""time""
""fullscreenenter"",""0"",""2139""
","
","
","""event"",""trial"",""time""
""fullscreenenter"",""0"",""2139""
","
","5759.70000000298","<div class='center'><p> Sometimes you’ll be shown a ship, and you will be asked if you saw this ship on a past island.</p><p> Here is an example of what you will see.</p><p><img src='run_exp/static/images/tutorial/example_recog_trial.png' height='500'></p><p><b>[Press the space bar to continue]</b></p></div>","32","","","","","","","","","","","","","","","","","","","","","","","",""
"","explain_probe_2","12","115279","0.0-12.0","""event"",""trial"",""time""
""fullscreenenter"",""0"",""2139""
","
","
","""event"",""trial"",""time""
""fullscreenenter"",""0"",""2139""
","
","null","run_exp/static/audio/clip_34_recognition_2.m4a","null","","","","","<div class='center'><p> You will press the 5, 6, 7, 8 keys on your keyboard to respond.</p><p>If you are sure you saw the ship, press <b>5</b> on your keyboard.</p><p> If you think you saw it before but aren't sure, then press <b>6</b>.</p><p> If you think you have <b>not</b> seen it before but aren't sure, then press <b>7</b>.</p><p> If you are sure you did <b>not</b> see the ship before, then press <b>8</b>.</p><p><img src='run_exp/static/images/tutorial/example_recog_trial.png' height='500'></p></div>","","","","","","","","","","","","","","","","","","",""
"","html-keyboard-response","13","116905","0.0-13.0","""event"",""trial"",""time""
""fullscreenenter"",""0"",""2139""
","
","
","""event"",""trial"",""time""
""fullscreenenter"",""0"",""2139""
","
","1625.6000000014901","<div class='center'><p> You will press the 5, 6, 7, 8 keys on your keyboard to respond.</p><p>If you are sure you saw the ship, press <b>5</b> on your keyboard.</p><p> If you think you saw it before but aren't sure, then press <b>6</b>.</p><p> If you think you have <b>not</b> seen it before but aren't sure, then press <b>7</b>.</p><p> If you are sure you did <b>not</b> see the ship before, then press <b>8</b>.</p><p><img src='run_exp/static/images/tutorial/example_recog_trial.png' height='500'></p><p><b>[Press the space bar to continue]</b></p></div>","32","","","","","","","","","","","","","","","","","","","","","","","",""
"","explain_outcome","14","134111","0.0-14.0","""event"",""trial"",""time""
""fullscreenenter"",""0"",""2139""
","
","
","""event"",""trial"",""time""
""fullscreenenter"",""0"",""2139""
","
","null","run_exp/static/audio/clip_35_recognition_3.m4a","null","","","","","<div class='center'><p> If you remember correctly, then you’ll get a gold coin like this: </p><p><img src='run_exp/static/images/tutorial/reward_small.png' height='200'></p><p>If you do not remember correctly, then you'll see a red x like this: </p><p><img src='run_exp/static/images/tutorial/reward_no.png' height='200'></p><p>Importantly, when you are shown a ship, take the time to remind yourself which island you saw it on. This will help you in the next part of the study.</p></div>","","","","","","","","","","","","","","","","","","",""
"","html-keyboard-response","15","138421","0.0-15.0","""event"",""trial"",""time""
""fullscreenenter"",""0"",""2139""
","
","
","""event"",""trial"",""time""
""fullscreenenter"",""0"",""2139""
","
","4309.300000000745","<div class='center'><p> If you remember correctly, then you’ll get a gold coin like this: </p><p><img src='run_exp/static/images/tutorial/reward_small.png' height='200'></p><p>If you do not remember correctly, then you'll see a red x like this: </p><p><img src='run_exp/static/images/tutorial/reward_no.png' height='200'></p><p>Importantly, when you are shown a ship, take the time to remind yourself which island you saw it on. This will help you in the next part of the study.</p><p><b>[Press the space bar to continue]</b></p></div>","32","","","","","","","","","","","","","","","","","","","","","","","",""
"","begin_test_phase","16","154243","0.0-16.0","""event"",""trial"",""time""
""fullscreenenter"",""0"",""2139""
","
","
","""event"",""trial"",""time""
""fullscreenenter"",""0"",""2139""
","
","null","run_exp/static/audio/clip_36_begin_final.m4a","null","","","","","<div class='center'><p>Let's go over the important points again. Your job is to: </p><p>1. Pick the pirate who is best at robbing ships and will bring you back gold coins. </p><p>2. Correctly remember whether or not you saw a ship before. If you did see the ship before, remind yourself on which island you saw it. </p></div>","","","","","","","","","","","","","","","","","","",""
"","html-keyboard-response","17","160787","0.0-17.0","""event"",""trial"",""time""
""fullscreenenter"",""0"",""2139""
","
","
","""event"",""trial"",""time""
""fullscreenenter"",""0"",""2139""
","
","6496.199999999255","<div class='center'><p>Let's go over the important points again. Your job is to: </p><p>1. Pick the pirate who is best at robbing ships and will bring you back gold coins. </p><p>2. Correctly remember whether or not you saw a ship before. If you did see the ship before, remind yourself on which island you saw it. </p><p><b>[Press the space bar to continue]</b></p></div>","32","","","","","","","","","","","","","","","","","","","","","","","",""
"","do_welcome","18","164802","0.0-18.0","""event"",""trial"",""time""
""fullscreenenter"",""0"",""2139""
","
","
","""event"",""trial"",""time""
""fullscreenenter"",""0"",""2139""
","
","null","","","","","","","","null","","","","","","","","","","","","","","","","","",""
"","do_trial","19","168285","0.0-19.0-0.0","""event"",""trial"",""time""
""fullscreenenter"",""0"",""2139""
","
","
","""event"",""trial"",""time""
""fullscreenenter"",""0"",""2139""
","
","940.5999999977648","","","","","","","","49","1,0,1","6","blank","230","null","0.3165975653112122","0.20829322399658629","0.7091915373505484","1","","","","","","","","",""
"","html-keyboard-response","20","169291","0.0-19.0-1.0","""event"",""trial"",""time""
""fullscreenenter"",""0"",""2139""
","
","
","""event"",""trial"",""time""
""fullscreenenter"",""0"",""2139""
","
","null","<p></p>","null","","","","","","","","","","","","","","","","","","","","","","","",""
"","do_trial","21","172266","0.0-20.0-0.0","""event"",""trial"",""time""
""fullscreenenter"",""0"",""2139""
","
","
","""event"",""trial"",""time""
""fullscreenenter"",""0"",""2139""
","
","433.1000000014901","","","","","","","","49","0,0,0","6","blank","231","null","0.33542517920592974","0.05168278920194107","0.6249623413988081","0","","","","","","","","",""
"","html-keyboard-response","22","173271","0.0-20.0-1.0","""event"",""trial"",""time""
""fullscreenenter"",""0"",""2139""
","
","
","""event"",""trial"",""time""
""fullscreenenter"",""0"",""2139""
","
","null","<p></p>","null","","","","","","","","","","","","","","","","","","","","","","","",""
"","do_trial","23","176080","0.0-21.0-0.0","""event"",""trial"",""time""
""fullscreenenter"",""0"",""2139""
","
","
","""event"",""trial"",""time""
""fullscreenenter"",""0"",""2139""
","
","269.20000000298023","","","","","","","","49","0,0,1","6","blank","232","null","0.20951314859610473","0.12122325624693651","0.5920495560452474","0","","","","","","","","",""
"","html-keyboard-response","24","177086","0.0-21.0-1.0","""event"",""trial"",""time""
""fullscreenenter"",""0"",""2139""
","
","
","""event"",""trial"",""time""
""fullscreenenter"",""0"",""2139""
","
","null","<p></p>","null","","","","","","","","","","","","","","","","","","","","","","","",""
"","do_trial","25","179632","0.0-22.0-0.0","""event"",""trial"",""time""
""fullscreenenter"",""0"",""2139""
","
","
","""event"",""trial"",""time""
""fullscreenenter"",""0"",""2139""
","
","0.09999999776482582","","","","","","","","49","0,0,1","6","blank","233","null","0.14785700440844524","0.15137242113283234","0.6348058398246191","0","","","","","","","","",""
"","html-keyboard-response","26","180638","0.0-22.0-1.0","""event"",""trial"",""time""
""fullscreenenter"",""0"",""2139""
","
","
","""event"",""trial"",""time""
""fullscreenenter"",""0"",""2139""
","
","null","<p></p>","null","","","","","","","","","","","","","","","","","","","","","","","",""
"","do_trial","27","183226","0.0-23.0-0.0","""event"",""trial"",""time""
""fullscreenenter"",""0"",""2139""
","
","
","""event"",""trial"",""time""
""fullscreenenter"",""0"",""2139""
","
","45.29999999701977","","","","","","","","49","0,0,0","6","blank","234","null","0.2650766347062574","0.16768486656460005","0.6046003566251331","0","","","","","","","","",""
"","html-keyboard-response","28","184228","0.0-23.0-1.0","""event"",""trial"",""time""
""fullscreenenter"",""0"",""2139""
","
","
","""event"",""trial"",""time""
""fullscreenenter"",""0"",""2139""
","
","null","<p></p>","null","","","","","","","","","","","","","","","","","","","","","","","",""
"","do_trial","29","187007","0.0-24.0-0.0","""event"",""trial"",""time""
""fullscreenenter"",""0"",""2139""
","
","
","""event"",""trial"",""time""
""fullscreenenter"",""0"",""2139""
","
","235.80000000074506","","","","","","","","49","0,0,0","6","blank","235","null","0.36268257777996477","0.17175878795018604","0.5076916559735171","0","","","","","","","","",""
"","html-keyboard-response","30","188013","0.0-24.0-1.0","""event"",""trial"",""time""
""fullscreenenter"",""0"",""2139""
","
","
","""event"",""trial"",""time""
""fullscreenenter"",""0"",""2139""
","
","null","<p></p>","null","","","","","","","","","","","","","","","","","","","","","","","",""
"","do_trial","31","190596","0.0-25.0-0.0","""event"",""trial"",""time""
""fullscreenenter"",""0"",""2139""
","
","
","""event"",""trial"",""time""
""fullscreenenter"",""0"",""2139""
","
","38.69999999925494","","","","","","","","49","0,0,1","6","blank","236","null","0.3154534793376833","0.15816980483139215","0.6424054376749685","0","","","","","","","","",""
"","html-keyboard-response","32","191602","0.0-25.0-1.0","""event"",""trial"",""time""
""fullscreenenter"",""0"",""2139""
","
","
","""event"",""trial"",""time""
""fullscreenenter"",""0"",""2139""
","
","null","<p></p>","null","","","","","","","","","","","","","","","","","","","","","","","",""
"","do_trial","33","194147","0.0-26.0-0.0","""event"",""trial"",""time""
""fullscreenenter"",""0"",""2139""
","
","
","""event"",""trial"",""time""
""fullscreenenter"",""0"",""2139""
","
","0","","","","","","","","49","1,0,0","6","blank","237","null","0.35382488182866473","0.11694535845364484","0.634221762531121","1","","","","","","","","",""
"","html-keyboard-response","34","195152","0.0-26.0-1.0","""event"",""trial"",""time""
""fullscreenenter"",""0"",""2139""
","
","
","""event"",""trial"",""time""
""fullscreenenter"",""0"",""2139""
","
","null","<p></p>","null","","","","","","","","","","","","","","","","","","","","","","","",""
"","do_trial","35","197973","0.0-27.0-0.0","""event"",""trial"",""time""
""fullscreenenter"",""0"",""2139""
","
","
","""event"",""trial"",""time""
""fullscreenenter"",""0"",""2139""
","
","277.1000000014901","","","","","","","","49","1,0,1","6","blank","238","null","0.4269593799003403","0.05964594455021488","0.55389964462886","1","","","","","","","","",""
"","html-keyboard-response","36","198977","0.0-27.0-1.0","""event"",""trial"",""time""
""fullscreenenter"",""0"",""2139""
","
","
","""event"",""trial"",""time""
""fullscreenenter"",""0"",""2139""
","
","null","<p></p>","null","","","","","","","","","","","","","","","","","","","","","","","",""
"","do_trial","37","201780","0.0-28.0-0.0","""event"",""trial"",""time""
""fullscreenenter"",""0"",""2139""
","
","
","""event"",""trial"",""time""
""fullscreenenter"",""0"",""2139""
","
","261.1000000014901","","","","","","","","49","0,0,1","6","blank","239","null","0.3456387946705153","0.07170427674482381","0.5473520445424265","0","","","","","","","","",""
"","html-keyboard-response","38","202783","0.0-28.0-1.0","""event"",""trial"",""time""
""fullscreenenter"",""0"",""2139""
","
","
","""event"",""trial"",""time""
""fullscreenenter"",""0"",""2139""
","
","null","<p></p>","null","","","","","","","","","","","","","","","","","","","","","","","",""
"","do_trial","39","205649","0.0-29.0-0.0","""event"",""trial"",""time""
""fullscreenenter"",""0"",""2139""
","
","
","""event"",""trial"",""time""
""fullscreenenter"",""0"",""2139""
","
","321.1000000014901","","","","","","","","50","0,0,0","6","blank","240","null","0.36216493365766","0.10611431567581849","0.42588880048145383","0","","","","","","","","",""
"","html-keyboard-response","40","206655","0.0-29.0-1.0","""event"",""trial"",""time""
""fullscreenenter"",""0"",""2139""
","
","
","""event"",""trial"",""time""
""fullscreenenter"",""0"",""2139""
","
","null","<p></p>","null","","","","","","","","","","","","","","","","","","","","","","","",""
"","do_recog","41","212665","0.0-30.0-0.0","""event"",""trial"",""time""
""fullscreenenter"",""0"",""2139""
","
","
","""event"",""trial"",""time""
""fullscreenenter"",""0"",""2139""
","
","null","","","","","","","","null","","","","241","probe-33","","","","","1","[object Object]","35","0","0","","","",""
"","html-keyboard-response","42","213668","0.0-30.0-1.0","""event"",""trial"",""time""
""fullscreenenter"",""0"",""2139""
","
","
","""event"",""trial"",""time""
""fullscreenenter"",""0"",""2139""
","
","null","<p></p>","null","","","","","","","","","","","","","","","","","","","","","","","",""
"","do_trial","43","217712","0.0-31.0-0.0","""event"",""trial"",""time""
""fullscreenenter"",""0"",""2139""
","
","
","""event"",""trial"",""time""
""fullscreenenter"",""0"",""2139""
","
","1501.300000000745","","","","","","","","50","0,0,1","6","blank","242","null","0.4407749522873182","0.20616248187384956","0.33768910827087256","0","","","","","","","","",""
"","html-keyboard-response","44","218715","0.0-31.0-1.0","""event"",""trial"",""time""
""fullscreenenter"",""0"",""2139""
","
","
","""event"",""trial"",""time""
""fullscreenenter"",""0"",""2139""
","
","null","<p></p>","null","","","","","","","","","","","","","","","","","","","","","","","",""
"","do_trial","45","222116","0.0-32.0-0.0","""event"",""trial"",""time""
""fullscreenenter"",""0"",""2139""
","
","
","""event"",""trial"",""time""
""fullscreenenter"",""0"",""2139""
","
","861.5","","","","","","","","50","0,1,1","6","blank","243","null","0.5792124750864422","0.23961869196940788","0.33786815264689096","1","","","","","","","","",""
"","html-keyboard-response","46","223123","0.0-32.0-1.0","""event"",""trial"",""time""
""fullscreenenter"",""0"",""2139""
","
","
","""event"",""trial"",""time""
""fullscreenenter"",""0"",""2139""
","
","null","<p></p>","null","","","","","","","","","","","","","","","","","","","","","","","",""
"","do_trial","47","225948","0.0-33.0-0.0","""event"",""trial"",""time""
""fullscreenenter"",""0"",""2139""
","
","
","""event"",""trial"",""time""
""fullscreenenter"",""0"",""2139""
","
","283.19999999925494","","","","","","","","50","1,0,0","6","blank","244","null","0.5613548508282452","0.10405338574148414","0.38362444562410064","0","","","","","","","","",""
"","html-keyboard-response","48","226953","0.0-33.0-1.0","""event"",""trial"",""time""
""fullscreenenter"",""0"",""2139""
","
","
","""event"",""trial"",""time""
""fullscreenenter"",""0"",""2139""
","
","null","<p></p>","null","","","","","","","","","","","","","","","","","","","","","","","",""
"","do_trial","49","229822","0.0-34.0-0.0","""event"",""trial"",""time""
""fullscreenenter"",""0"",""2139""
","
","
","""event"",""trial"",""time""
""fullscreenenter"",""0"",""2139""
","
","324.30000000074506","","","","","","","","50","0,0,0","6","blank","245","null","0.5632998540926569","0.13142045421825516","0.4412514583645421","0","","","","","","","","",""
"","html-keyboard-response","50","230828","0.0-34.0-1.0","""event"",""trial"",""time""
""fullscreenenter"",""0"",""2139""
","
","
","""event"",""trial"",""time""
""fullscreenenter"",""0"",""2139""
","
","null","<p></p>","null","","","","","","","","","","","","","","","","","","","","","","","",""
"","do_recog","51","235308","0.0-35.0-0.0","""event"",""trial"",""time""
""fullscreenenter"",""0"",""2139""
","
","
","""event"",""trial"",""time""
""fullscreenenter"",""0"",""2139""
","
","2971.5","","","","","","","","56","","","","246","probe-88","","","","","1","[object Object]","197","4","0","","","",""
"","html-keyboard-response","52","236313","0.0-35.0-1.0","""event"",""trial"",""time""
""fullscreenenter"",""0"",""2139""
","
","
","""event"",""trial"",""time""
""fullscreenenter"",""0"",""2139""
","
","null","<p></p>","null","","","","","","","","","","","","","","","","","","","","","","","",""
"","do_trial","53","239665","0.0-36.0-0.0","""event"",""trial"",""time""
""fullscreenenter"",""0"",""2139""
","
","
","""event"",""trial"",""time""
""fullscreenenter"",""0"",""2139""
","
","811.3000000007451","","","","","","","","50","1,0,1","6","blank","247","null","0.5982989611188156","0.09162113690351924","0.3662644161703818","0","","","","","","","","",""
"","html-keyboard-response","54","240668","0.0-36.0-1.0","""event"",""trial"",""time""
""fullscreenenter"",""0"",""2139""
","
","
","""event"",""trial"",""time""
""fullscreenenter"",""0"",""2139""
","
","null","<p></p>","null","","","","","","","","","","","","","","","","","","","","","","","",""
"","do_trial","55","243623","0.0-37.0-0.0","""event"",""trial"",""time""
""fullscreenenter"",""0"",""2139""
","
","
","""event"",""trial"",""time""
""fullscreenenter"",""0"",""2139""
","
","410.69999999925494","","","","","","","","50","1,0,0","6","blank","248","null","0.48880569953772446","0.11695701118607511","0.4226585512641626","0","","","","","","","","",""
"","html-keyboard-response","56","244628","0.0-37.0-1.0","""event"",""trial"",""time""
""fullscreenenter"",""0"",""2139""
","
","
","""event"",""trial"",""time""
""fullscreenenter"",""0"",""2139""
","
","null","<p></p>","null","","","","","","","","","","","","","","","","","","","","","","","",""
"","do_trial","57","247615","0.0-38.0-0.0","""event"",""trial"",""time""
""fullscreenenter"",""0"",""2139""
","
","
","""event"",""trial"",""time""
""fullscreenenter"",""0"",""2139""
","
","440.9000000022352","","","","","","","","50","1,0,0","6","blank","249","null","0.6485808735957016","0.07093778513440255","0.45484828726611176","0","","","","","","","","",""
"","html-keyboard-response","58","248620","0.0-38.0-1.0","""event"",""trial"",""time""
""fullscreenenter"",""0"",""2139""
","
","
","""event"",""trial"",""time""
""fullscreenenter"",""0"",""2139""
","
","null","<p></p>","null","","","","","","","","","","","","","","","","","","","","","","","",""
"","do_recog","59","252719","0.0-39.0-0.0","""event"",""trial"",""time""
""fullscreenenter"",""0"",""2139""
","
","
","""event"",""trial"",""time""
""fullscreenenter"",""0"",""2139""
","
","2592","","","","","","","","53","","","","250","probe-58","","","","","1","[object Object]","77","1","1","","","",""
"","html-keyboard-response","60","253723","0.0-39.0-1.0","""event"",""trial"",""time""
""fullscreenenter"",""0"",""2139""
","
","
","""event"",""trial"",""time""
""fullscreenenter"",""0"",""2139""
","
","null","<p></p>","null","","","","","","","","","","","","","","","","","","","","","","","",""
"","do_trial","61","256892","0.0-40.0-0.0","""event"",""trial"",""time""
""fullscreenenter"",""0"",""2139""
","
","
","""event"",""trial"",""time""
""fullscreenenter"",""0"",""2139""
","
","624.0999999977648","","","","","","","","50","1,0,1","6","blank","251","null","0.6082797413593789","0.059505657692396935","0.3164005015040592","0","","","","","","","","",""
"","html-keyboard-response","62","257894","0.0-40.0-1.0","""event"",""trial"",""time""
""fullscreenenter"",""0"",""2139""
","
","
","""event"",""trial"",""time""
""fullscreenenter"",""0"",""2139""
","
","null","<p></p>","null","","","","","","","","","","","","","","","","","","","","","","","",""
"","do_trial","63","260700","0.0-41.0-0.0","""event"",""trial"",""time""
""fullscreenenter"",""0"",""2139""
","
","
","""event"",""trial"",""time""
""fullscreenenter"",""0"",""2139""
","
","261.5","","","","","","","","50","0,0,0","6","blank","252","null","0.6495442749925069","0.10286137025126864","0.300492909848978","0","","","","","","","","",""
"","html-keyboard-response","64","261706","0.0-41.0-1.0","""event"",""trial"",""time""
""fullscreenenter"",""0"",""2139""
","
","
","""event"",""trial"",""time""
""fullscreenenter"",""0"",""2139""
","
","null","<p></p>","null","","","","","","","","","","","","","","","","","","","","","","","",""
"","do_trial","65","264469","0.0-42.0-0.0","""event"",""trial"",""time""
""fullscreenenter"",""0"",""2139""
","
","
","""event"",""trial"",""time""
""fullscreenenter"",""0"",""2139""
","
","220","","","","","","","","51","1,0,1","6","blank","253","null","0.6901932902832703","0.1837842027095263","0.4199416194694072","1","","","","","","","","",""
"","html-keyboard-response","66","265470","0.0-42.0-1.0","""event"",""trial"",""time""
""fullscreenenter"",""0"",""2139""
","
","
","""event"",""trial"",""time""
""fullscreenenter"",""0"",""2139""
","
","null","<p></p>","null","","","","","","","","","","","","","","","","","","","","","","","",""
"","do_recog","67","271484","0.0-43.0-0.0","""event"",""trial"",""time""
""fullscreenenter"",""0"",""2139""
","
","
","""event"",""trial"",""time""
""fullscreenenter"",""0"",""2139""
","
","null","","","","","","","","null","","","","254","probe-202","","","","","1","[object Object]","157","3","0","","","",""
"","html-keyboard-response","68","272486","0.0-43.0-1.0","""event"",""trial"",""time""
""fullscreenenter"",""0"",""2139""
","
","
","""event"",""trial"",""time""
""fullscreenenter"",""0"",""2139""
","
","null","<p></p>","null","","","","","","","","","","","","","","","","","","","","","","","",""
"","do_trial","69","275359","0.0-44.0-0.0","""event"",""trial"",""time""
""fullscreenenter"",""0"",""2139""
","
","
","""event"",""trial"",""time""
""fullscreenenter"",""0"",""2139""
","
","327.0999999977648","","","","","","","","51","1,1,1","6","blank","255","null","0.789271730977279","0.26221807190194574","0.377432252476066","1","","","","","","","","",""
"","html-keyboard-response","70","276364","0.0-44.0-1.0","""event"",""trial"",""time""
""fullscreenenter"",""0"",""2139""
","
","
","""event"",""trial"",""time""
""fullscreenenter"",""0"",""2139""
","
","null","<p></p>","null","","","","","","","","","","","","","","","","","","","","","","","",""
"","do_trial","71","279435","0.0-45.0-0.0","""event"",""trial"",""time""
""fullscreenenter"",""0"",""2139""
","
","
","""event"",""trial"",""time""
""fullscreenenter"",""0"",""2139""
","
","527.5999999977648","","","","","","","","51","1,0,0","6","blank","256","null","0.609868299786921","0.19355924443973824","0.39463330032566446","0","","","","","","","","",""
"","html-keyboard-response","72","280441","0.0-45.0-1.0","""event"",""trial"",""time""
""fullscreenenter"",""0"",""2139""
","
","
","""event"",""trial"",""time""
""fullscreenenter"",""0"",""2139""
","
","null","<p></p>","null","","","","","","","","","","","","","","","","","","","","","","","",""
"","do_trial","73","283150","0.0-46.0-0.0","""event"",""trial"",""time""
""fullscreenenter"",""0"",""2139""
","
","
","""event"",""trial"",""time""
""fullscreenenter"",""0"",""2139""
","
","168.39999999850988","","","","","","","","51","0,0,0","6","blank","257","null","0.6568923967334274","0.24262228034870142","0.3582242559058566","0","","","","","","","","",""
"","html-keyboard-response","74","284155","0.0-46.0-1.0","""event"",""trial"",""time""
""fullscreenenter"",""0"",""2139""
","
","
","""event"",""trial"",""time""
""fullscreenenter"",""0"",""2139""
","
","null","<p></p>","null","","","","","","","","","","","","","","","","","","","","","","","",""
"","do_trial","75","286857","0.0-47.0-0.0","""event"",""trial"",""time""
""fullscreenenter"",""0"",""2139""
","
","
","""event"",""trial"",""time""
""fullscreenenter"",""0"",""2139""
","
","157.09999999776483","","","","","","","","51","0,1,1","6","blank","258","null","0.723799938491022","0.1844461773324792","0.41583543834685976","1","","","","","","","","",""
"","html-keyboard-response","76","287863","0.0-47.0-1.0","""event"",""trial"",""time""
""fullscreenenter"",""0"",""2139""
","
","
","""event"",""trial"",""time""
""fullscreenenter"",""0"",""2139""
","
","null","<p></p>","null","","","","","","","","","","","","","","","","","","","","","","","",""
"","do_trial","77","290803","0.0-48.0-0.0","""event"",""trial"",""time""
""fullscreenenter"",""0"",""2139""
","
","
","""event"",""trial"",""time""
""fullscreenenter"",""0"",""2139""
","
","399","","","","","","","","51","1,1,1","6","blank","259","null","0.6834837474585767","0.1481374493937266","0.48309944150907597","1","","","","","","","","",""
"","html-keyboard-response","78","291809","0.0-48.0-1.0","""event"",""trial"",""time""
""fullscreenenter"",""0"",""2139""
","
","
","""event"",""trial"",""time""
""fullscreenenter"",""0"",""2139""
","
","null","<p></p>","null","","","","","","","","","","","","","","","","","","","","","","","",""
"","do_recog","79","295587","0.0-49.0-0.0","""event"",""trial"",""time""
""fullscreenenter"",""0"",""2139""
","
","
","""event"",""trial"",""time""
""fullscreenenter"",""0"",""2139""
","
","2269.699999999255","","","","","","","","56","","","","260","probe-51","","","","","1","[object Object]","31","0","0","","","",""
"","html-keyboard-response","80","296589","0.0-49.0-1.0","""event"",""trial"",""time""
""fullscreenenter"",""0"",""2139""
","
","
","""event"",""trial"",""time""
""fullscreenenter"",""0"",""2139""
","
","null","<p></p>","null","","","","","","","","","","","","","","","","","","","","","","","",""
"","do_trial","81","299950","0.0-50.0-0.0","""event"",""trial"",""time""
""fullscreenenter"",""0"",""2139""
","
","
","""event"",""trial"",""time""
""fullscreenenter"",""0"",""2139""
","
","817","","","","","","","","51","0,0,0","6","blank","261","null","0.685566807211213","0.19858148684111754","0.5369431285056822","0","","","","","","","","",""
"","html-keyboard-response","82","300954","0.0-50.0-1.0","""event"",""trial"",""time""
""fullscreenenter"",""0"",""2139""
","
","
","""event"",""trial"",""time""
""fullscreenenter"",""0"",""2139""
","
","null","<p></p>","null","","","","","","","","","","","","","","","","","","","","","","","",""
"","do_recog","83","304560","0.0-51.0-0.0","""event"",""trial"",""time""
""fullscreenenter"",""0"",""2139""
","
","
","""event"",""trial"",""time""
""fullscreenenter"",""0"",""2139""
","
","2096.099999997765","","","","","","","","56","","","","262","probe-250","","","","","0","[object Object]","null","null","1","","","",""
"","html-keyboard-response","84","305565","0.0-51.0-1.0","""event"",""trial"",""time""
""fullscreenenter"",""0"",""2139""
","
","
","""event"",""trial"",""time""
""fullscreenenter"",""0"",""2139""
","
","null","<p></p>","null","","","","","","","","","","","","","","","","","","","","","","","",""
"","do_trial","85","308580","0.0-52.0-0.0","""event"",""trial"",""time""
""fullscreenenter"",""0"",""2139""
","
","
","""event"",""trial"",""time""
""fullscreenenter"",""0"",""2139""
","
","470.69999999925494","","","","","","","","51","1,0,1","6","blank","263","null","0.6421713119689507","0.15450336426241135","0.4384645829246649","1","","","","","","","","",""
"","html-keyboard-response","86","309586","0.0-52.0-1.0","""event"",""trial"",""time""
""fullscreenenter"",""0"",""2139""
","
","
","""event"",""trial"",""time""
""fullscreenenter"",""0"",""2139""
","
","null","<p></p>","null","","","","","","","","","","","","","","","","","","","","","","","",""
"","do_recog","87","313094","0.0-53.0-0.0","""event"",""trial"",""time""
""fullscreenenter"",""0"",""2139""
","
","
","""event"",""trial"",""time""
""fullscreenenter"",""0"",""2139""
","
","2002.1000000014901","","","","","","","","56","","","","264","probe-173","","","","","1","[object Object]","151","3","0","","","",""
"","html-keyboard-response","88","314098","0.0-53.0-1.0","""event"",""trial"",""time""
""fullscreenenter"",""0"",""2139""
","
","
","""event"",""trial"",""time""
""fullscreenenter"",""0"",""2139""
","
","null","<p></p>","null","","","","","","","","","","","","","","","","","","","","","","","",""
"","do_trial","89","317094","0.0-54.0-0.0","""event"",""trial"",""time""
""fullscreenenter"",""0"",""2139""
","
","
","""event"",""trial"",""time""
""fullscreenenter"",""0"",""2139""
","
","454.6000000014901","","","","","","","","51","0,0,1","6","blank","265","null","0.6799906480212089","0.09705084165467823","0.24269432296950802","1","","","","","","","","",""
"","html-keyboard-response","90","318098","0.0-54.0-1.0","""event"",""trial"",""time""
""fullscreenenter"",""0"",""2139""
","
","
","""event"",""trial"",""time""
""fullscreenenter"",""0"",""2139""
","
","null","<p></p>","null","","","","","","","","","","","","","","","","","","","","","","","",""
"","do_trial","91","320822","0.0-55.0-0.0","""event"",""trial"",""time""
""fullscreenenter"",""0"",""2139""
","
","
","""event"",""trial"",""time""
""fullscreenenter"",""0"",""2139""
","
","178.59999999776483","","","","","","","","51","1,0,0","6","blank","266","null","0.6334966809501349","0.14063923145716406","0.3234460147278279","0","","","","","","","","",""
"","html-keyboard-response","92","321827","0.0-55.0-1.0","""event"",""trial"",""time""
""fullscreenenter"",""0"",""2139""
","
","
","""event"",""trial"",""time""
""fullscreenenter"",""0"",""2139""
","
","null","<p></p>","null","","","","","","","","","","","","","","","","","","","","","","","",""
"","do_trial","93","324437","0.0-56.0-0.0","""event"",""trial"",""time""
""fullscreenenter"",""0"",""2139""
","
","
","""event"",""trial"",""time""
""fullscreenenter"",""0"",""2139""
","
","68.5","","","","","","","","51","1,0,1","6","blank","267","null","0.576614196097673","0.19197935061642135","0.29669512037171397","1","","","","","","","","",""
"","html-keyboard-response","94","325440","0.0-56.0-1.0","""event"",""trial"",""time""
""fullscreenenter"",""0"",""2139""
","
","
","""event"",""trial"",""time""
""fullscreenenter"",""0"",""2139""
","
","null","<p></p>","null","","","","","","","","","","","","","","","","","","","","","","","",""
"","do_trial","95","328432","0.0-57.0-0.0","""event"",""trial"",""time""
""fullscreenenter"",""0"",""2139""
","
","
","""event"",""trial"",""time""
""fullscreenenter"",""0"",""2139""
","
","449.69999999925494","","","","","","","","51","0,0,0","6","blank","268","null","0.5507713554561365","0.09764596878121953","0.2624247385855999","0","","","","","","","","",""
"","html-keyboard-response","96","329438","0.0-57.0-1.0","""event"",""trial"",""time""
""fullscreenenter"",""0"",""2139""
","
","
","""event"",""trial"",""time""
""fullscreenenter"",""0"",""2139""
","
","null","<p></p>","null","","","","","","","","","","","","","","","","","","","","","","","",""
"","break","97","366761","0.0-58.0-0.0","""event"",""trial"",""time""
""fullscreenenter"",""0"",""2139""
","
","
","""event"",""trial"",""time""
""fullscreenenter"",""0"",""2139""
","
","37321.5","<div class='center'><p>Time to take a quick break! You have 2 minutes to rest, but you can move on sooner if you'd like.</p><p> Press the <b>space bar</b> to continue.</p></div>","32","","","","","","","","","","","","","","","","","","","","","","","",""
"","do_recog","98","370481","0.0-58.0-1.0","""event"",""trial"",""time""
""fullscreenenter"",""0"",""2139""
","
","
","""event"",""trial"",""time""
""fullscreenenter"",""0"",""2139""
","
","2209.7999999970198","","","","","","","","53","","","","269","probe-231","","","","","0","[object Object]","null","null","0","","","",""
"","html-keyboard-response","99","371487","0.0-58.0-2.0","""event"",""trial"",""time""
""fullscreenenter"",""0"",""2139""
","
","
","""event"",""trial"",""time""
""fullscreenenter"",""0"",""2139""
","
","null","<p></p>","null","","","","","","","","","","","","","","","","","","","","","","","",""
"","do_trial","100","375386","0.0-59.0-0.0","""event"",""trial"",""time""
""fullscreenenter"",""0"",""2139""
","
","
","""event"",""trial"",""time""
""fullscreenenter"",""0"",""2139""
","
","1357","","","","","","","","51","0,0,1","6","blank","270","null","0.5631171829790792","0.05856352140940229","0.2402145599348888","1","","","","","","","","",""
"","html-keyboard-response","101","376392","0.0-59.0-1.0","""event"",""trial"",""time""
""fullscreenenter"",""0"",""2139""
","
","
","""event"",""trial"",""time""
""fullscreenenter"",""0"",""2139""
","
","null","<p></p>","null","","","","","","","","","","","","","","","","","","","","","","","",""
"","do_trial","102","379323","0.0-60.0-0.0","""event"",""trial"",""time""
""fullscreenenter"",""0"",""2139""
","
","
","""event"",""trial"",""time""
""fullscreenenter"",""0"",""2139""
","
","391.5","","","","","","","","51","0,0,0","6","blank","271","null","0.4438364069011446","0.23342398499506378","0.19594265151425394","0","","","","","","","","",""
"","html-keyboard-response","103","380324","0.0-60.0-1.0","""event"",""trial"",""time""
""fullscreenenter"",""0"",""2139""
","
","
","""event"",""trial"",""time""
""fullscreenenter"",""0"",""2139""
","
","null","<p></p>","null","","","","","","","","","","","","","","","","","","","","","","","",""
"","do_trial","104","383120","0.0-61.0-0.0","""event"",""trial"",""time""
""fullscreenenter"",""0"",""2139""
","
","
","""event"",""trial"",""time""
""fullscreenenter"",""0"",""2139""
","
","251","","","","","","","","51","1,1,0","6","blank","272","null","0.5798893764809233","0.20108090987718824","0.17812468944196577","0","","","","","","","","",""
"","html-keyboard-response","105","384126","0.0-61.0-1.0","""event"",""trial"",""time""
""fullscreenenter"",""0"",""2139""
","
","
","""event"",""trial"",""time""
""fullscreenenter"",""0"",""2139""
","
","null","<p></p>","null","","","","","","","","","","","","","","","","","","","","","","","",""
"","do_recog","106","387900","0.0-62.0-0.0","""event"",""trial"",""time""
""fullscreenenter"",""0"",""2139""
","
","
","""event"",""trial"",""time""
""fullscreenenter"",""0"",""2139""
","
","2263.60000000149","","","","","","","","53","","","","273","probe-238","","","","","0","[object Object]","null","null","0","","","",""
"","html-keyboard-response","107","388905","0.0-62.0-1.0","""event"",""trial"",""time""
""fullscreenenter"",""0"",""2139""
","
","
","""event"",""trial"",""time""
""fullscreenenter"",""0"",""2139""
","
","null","<p></p>","null","","","","","","","","","","","","","","","","","","","","","","","",""
"","do_trial","108","392396","0.0-63.0-0.0","""event"",""trial"",""time""
""fullscreenenter"",""0"",""2139""
","
","
","""event"",""trial"",""time""
""fullscreenenter"",""0"",""2139""
","
","947","","","","","","","","51","0,0,0","6","blank","274","null","0.6894825451245543","0.07095024617680386","0.223010910817232","0","","","","","","","","",""
"","html-keyboard-response","109","393402","0.0-63.0-1.0","""event"",""trial"",""time""
""fullscreenenter"",""0"",""2139""
","
","
","""event"",""trial"",""time""
""fullscreenenter"",""0"",""2139""
","
","null","<p></p>","null","","","","","","","","","","","","","","","","","","","","","","","",""
"","do_recog","110","396919","0.0-64.0-0.0","""event"",""trial"",""time""
""fullscreenenter"",""0"",""2139""
","
","
","""event"",""trial"",""time""
""fullscreenenter"",""0"",""2139""
","
","2006.199999999255","","","","","","","","53","","","","275","probe-165","","","","","1","[object Object]","118","2","1","","","",""
"","html-keyboard-response","111","397921","0.0-64.0-1.0","""event"",""trial"",""time""
""fullscreenenter"",""0"",""2139""
","
","
","""event"",""trial"",""time""
""fullscreenenter"",""0"",""2139""
","
","null","<p></p>","null","","","","","","","","","","","","","","","","","","","","","","","",""
"","do_trial","112","400882","0.0-65.0-0.0","""event"",""trial"",""time""
""fullscreenenter"",""0"",""2139""
","
","
","""event"",""trial"",""time""
""fullscreenenter"",""0"",""2139""
","
","414.9000000022352","","","","","","","","51","1,0,0","6","blank","276","null","0.7170521126565182","0.08632509433530146","0.3008911318355925","0","","","","","","","","",""
"","html-keyboard-response","113","401888","0.0-65.0-1.0","""event"",""trial"",""time""
""fullscreenenter"",""0"",""2139""
","
","
","""event"",""trial"",""time""
""fullscreenenter"",""0"",""2139""
","
","null","<p></p>","null","","","","","","","","","","","","","","","","","","","","","","","",""
"","do_recog","114","405222","0.0-66.0-0.0","""event"",""trial"",""time""
""fullscreenenter"",""0"",""2139""
","
","
","""event"",""trial"",""time""
""fullscreenenter"",""0"",""2139""
","
","1825.3999999985099","","","","","","","","53","","","","277","probe-120","","","","","1","[object Object]","115","2","1","","","",""
"","html-keyboard-response","115","406226","0.0-66.0-1.0","""event"",""trial"",""time""
""fullscreenenter"",""0"",""2139""
","
","
","""event"",""trial"",""time""
""fullscreenenter"",""0"",""2139""
","
","null","<p></p>","null","","","","","","","","","","","","","","","","","","","","","","","",""
"","do_trial","116","409259","0.0-67.0-0.0","""event"",""trial"",""time""
""fullscreenenter"",""0"",""2139""
","
","
","""event"",""trial"",""time""
""fullscreenenter"",""0"",""2139""
","
","488.6000000014901","","","","","","","","51","1,0,1","6","blank","278","null","0.730659055033406","0.11725905703846767","0.37186856103610866","1","","","","","","","","",""
"","html-keyboard-response","117","410265","0.0-67.0-1.0","""event"",""trial"",""time""
""fullscreenenter"",""0"",""2139""
","
","
","""event"",""trial"",""time""
""fullscreenenter"",""0"",""2139""
","
","null","<p></p>","null","","","","","","","","","","","","","","","","","","","","","","","",""
"","do_trial","118","413339","0.0-68.0-0.0","""event"",""trial"",""time""
""fullscreenenter"",""0"",""2139""
","
","
","""event"",""trial"",""time""
""fullscreenenter"",""0"",""2139""
","
","533.2999999970198","","","","","","","","51","0,1,0","6","blank","279","null","0.7627698914851755","0.3227197232177299","0.42690254339755884","0","","","","","","","","",""
"","html-keyboard-response","119","414345","0.0-68.0-1.0","""event"",""trial"",""time""
""fullscreenenter"",""0"",""2139""
","
","
","""event"",""trial"",""time""
""fullscreenenter"",""0"",""2139""
","
","null","<p></p>","null","","","","","","","","","","","","","","","","","","","","","","","",""
"","do_trial","120","417174","0.0-69.0-0.0","""event"",""trial"",""time""
""fullscreenenter"",""0"",""2139""
","
","
","""event"",""trial"",""time""
""fullscreenenter"",""0"",""2139""
","
","288.3999999985099","","","","","","","","51","1,1,0","6","blank","280","null","0.8434483561296507","0.24417122105759057","0.438200731655025","0","","","","","","","","",""
"","html-keyboard-response","121","418179","0.0-69.0-1.0","""event"",""trial"",""time""
""fullscreenenter"",""0"",""2139""
","
","
","""event"",""trial"",""time""
""fullscreenenter"",""0"",""2139""
","
","null","<p></p>","null","","","","","","","","","","","","","","","","","","","","","","","",""
"","do_recog","122","421435","0.0-70.0-0.0","""event"",""trial"",""time""
""fullscreenenter"",""0"",""2139""
","
","
","""event"",""trial"",""time""
""fullscreenenter"",""0"",""2139""
","
","1751.3999999985099","","","","","","","","53","","","","281","probe-194","","","","","1","[object Object]","114","2","1","","","",""
"","html-keyboard-response","123","422440","0.0-70.0-1.0","""event"",""trial"",""time""
""fullscreenenter"",""0"",""2139""
","
","
","""event"",""trial"",""time""
""fullscreenenter"",""0"",""2139""
","
","null","<p></p>","null","","","","","","","","","","","","","","","","","","","","","","","",""
"","do_trial","124","425374","0.0-71.0-0.0","""event"",""trial"",""time""
""fullscreenenter"",""0"",""2139""
","
","
","""event"",""trial"",""time""
""fullscreenenter"",""0"",""2139""
","
","394.19999999925494","","","","","","","","51","1,0,1","6","blank","282","null","0.7178078730357613","0.07210141526654283","0.4654831896941143","1","","","","","","","","",""
"","html-keyboard-response","125","426379","0.0-71.0-1.0","""event"",""trial"",""time""
""fullscreenenter"",""0"",""2139""
","
","
","""event"",""trial"",""time""
""fullscreenenter"",""0"",""2139""
","
","null","<p></p>","null","","","","","","","","","","","","","","","","","","","","","","","",""
"","do_trial","126","429182","0.0-72.0-0.0","""event"",""trial"",""time""
""fullscreenenter"",""0"",""2139""
","
","
","""event"",""trial"",""time""
""fullscreenenter"",""0"",""2139""
","
","260.4000000022352","","","","","","","","51","1,0,1","6","blank","283","null","0.6082493622586238","0.08434154234085443","0.2890140203930623","1","","","","","","","","",""
"","html-keyboard-response","127","430187","0.0-72.0-1.0","""event"",""trial"",""time""
""fullscreenenter"",""0"",""2139""
","
","
","""event"",""trial"",""time""
""fullscreenenter"",""0"",""2139""
","
","null","<p></p>","null","","","","","","","","","","","","","","","","","","","","","","","",""
"","do_recog","128","433847","0.0-73.0-0.0","""event"",""trial"",""time""
""fullscreenenter"",""0"",""2139""
","
","
","""event"",""trial"",""time""
""fullscreenenter"",""0"",""2139""
","
","2154","","","","","","","","53","","","","284","probe-199","","","","","1","[object Object]","30","0","1","","","",""
"","html-keyboard-response","129","434852","0.0-73.0-1.0","""event"",""trial"",""time""
""fullscreenenter"",""0"",""2139""
","
","
","""event"",""trial"",""time""
""fullscreenenter"",""0"",""2139""
","
","null","<p></p>","null","","","","","","","","","","","","","","","","","","","","","","","",""
"","do_trial","130","437870","0.0-74.0-0.0","""event"",""trial"",""time""
""fullscreenenter"",""0"",""2139""
","
","
","""event"",""trial"",""time""
""fullscreenenter"",""0"",""2139""
","
","472.80000000074506","","","","","","","","51","0,0,0","6","blank","285","null","0.5763336009958382","0.08476806812152239","0.2882198488147242","0","","","","","","","","",""
"","html-keyboard-response","131","438874","0.0-74.0-1.0","""event"",""trial"",""time""
""fullscreenenter"",""0"",""2139""
","
","
","""event"",""trial"",""time""
""fullscreenenter"",""0"",""2139""
","
","null","<p></p>","null","","","","","","","","","","","","","","","","","","","","","","","",""
"","do_trial","132","441786","0.0-75.0-0.0","""event"",""trial"",""time""
""fullscreenenter"",""0"",""2139""
","
","
","""event"",""trial"",""time""
""fullscreenenter"",""0"",""2139""
","
","369.69999999925494","","","","","","","","51","1,0,0","6","blank","286","null","0.5868239828426929","0.1700282770098396","0.2886808304825053","0","","","","","","","","",""
"","html-keyboard-response","133","442791","0.0-75.0-1.0","""event"",""trial"",""time""
""fullscreenenter"",""0"",""2139""
","
","
","""event"",""trial"",""time""
""fullscreenenter"",""0"",""2139""
","
","null","<p></p>","null","","","","","","","","","","","","","","","","","","","","","","","",""
"","do_trial","134","445722","0.0-76.0-0.0","""event"",""trial"",""time""
""fullscreenenter"",""0"",""2139""
","
","
","""event"",""trial"",""time""
""fullscreenenter"",""0"",""2139""
","
","387","","","","","","","","51","1,0,1","6","blank","287","null","0.7003462448694944","0.05780313614242567","0.31091246139197826","1","","","","","","","","",""
"","html-keyboard-response","135","446727","0.0-76.0-1.0","""event"",""trial"",""time""
""fullscreenenter"",""0"",""2139""
","
","
","""event"",""trial"",""time""
""fullscreenenter"",""0"",""2139""
","
","null","<p></p>","null","","","","","","","","","","","","","","","","","","","","","","","",""
"","do_trial","136","449664","0.0-77.0-0.0","""event"",""trial"",""time""
""fullscreenenter"",""0"",""2139""
","
","
","""event"",""trial"",""time""
""fullscreenenter"",""0"",""2139""
","
","392.69999999925494","","","","","","","","50","0,0,0","6","blank","288","null","0.6353112281791845","0.0955142951402373","0.20204839858003382","0","","","","","","","","",""
"","html-keyboard-response","137","450669","0.0-77.0-1.0","""event"",""trial"",""time""
""fullscreenenter"",""0"",""2139""
","
","
","""event"",""trial"",""time""
""fullscreenenter"",""0"",""2139""
","
","null","<p></p>","null","","","","","","","","","","","","","","","","","","","","","","","",""
"","do_trial","138","453488","0.0-78.0-0.0","""event"",""trial"",""time""
""fullscreenenter"",""0"",""2139""
","
","
","""event"",""trial"",""time""
""fullscreenenter"",""0"",""2139""
","
","274.80000000074506","","","","","","","","50","0,0,0","6","blank","289","null","0.5755516234085931","0.14818928780394636","0.30631435978959587","0","","","","","","","","",""
"","html-keyboard-response","139","454494","0.0-78.0-1.0","""event"",""trial"",""time""
""fullscreenenter"",""0"",""2139""
","
","
","""event"",""trial"",""time""
""fullscreenenter"",""0"",""2139""
","
","null","<p></p>","null","","","","","","","","","","","","","","","","","","","","","","","",""
"","do_recog","140","458091","0.0-79.0-0.0","""event"",""trial"",""time""
""fullscreenenter"",""0"",""2139""
","
","
","""event"",""trial"",""time""
""fullscreenenter"",""0"",""2139""
","
","2090.5","","","","","","","","53","","","","290","probe-195","","","","","1","[object Object]","194","4","1","","","",""
"","html-keyboard-response","141","459095","0.0-79.0-1.0","""event"",""trial"",""time""
""fullscreenenter"",""0"",""2139""
","
","
","""event"",""trial"",""time""
""fullscreenenter"",""0"",""2139""
","
","null","<p></p>","null","","","","","","","","","","","","","","","","","","","","","","","",""
"","do_trial","142","462034","0.0-80.0-0.0","""event"",""trial"",""time""
""fullscreenenter"",""0"",""2139""
","
","
","""event"",""trial"",""time""
""fullscreenenter"",""0"",""2139""
","
","397.3999999985099","","","","","","","","50","1,0,1","6","blank","291","null","0.5305824878090212","0.24656832064532452","0.33039026049520204","0","","","","","","","","",""
"","html-keyboard-response","143","463040","0.0-80.0-1.0","""event"",""trial"",""time""
""fullscreenenter"",""0"",""2139""
","
","
","""event"",""trial"",""time""
""fullscreenenter"",""0"",""2139""
","
","null","<p></p>","null","","","","","","","","","","","","","","","","","","","","","","","",""
"","do_recog","144","466965","0.0-81.0-0.0","""event"",""trial"",""time""
""fullscreenenter"",""0"",""2139""
","
","
","""event"",""trial"",""time""
""fullscreenenter"",""0"",""2139""
","
","2419.89999999851","","","","","","","","56","","","","292","probe-03","","","","","1","[object Object]","155","3","0","","","",""
"","html-keyboard-response","145","467971","0.0-81.0-1.0","""event"",""trial"",""time""
""fullscreenenter"",""0"",""2139""
","
","
","""event"",""trial"",""time""
""fullscreenenter"",""0"",""2139""
","
","null","<p></p>","null","","","","","","","","","","","","","","","","","","","","","","","",""
"","do_trial","146","470915","0.0-82.0-0.0","""event"",""trial"",""time""
""fullscreenenter"",""0"",""2139""
","
","
","""event"",""trial"",""time""
""fullscreenenter"",""0"",""2139""
","
","404.19999999925494","","","","","","","","50","0,0,1","6","blank","293","null","0.6067465325547201","0.0515323628639568","0.25985213766144566","0","","","","","","","","",""
"","html-keyboard-response","147","471920","0.0-82.0-1.0","""event"",""trial"",""time""
""fullscreenenter"",""0"",""2139""
","
","
","""event"",""trial"",""time""
""fullscreenenter"",""0"",""2139""
","
","null","<p></p>","null","","","","","","","","","","","","","","","","","","","","","","","",""
"","do_recog","148","475455","0.0-83.0-0.0","""event"",""trial"",""time""
""fullscreenenter"",""0"",""2139""
","
","
","""event"",""trial"",""time""
""fullscreenenter"",""0"",""2139""
","
","2029","","","","","","","","56","","","","294","probe-218","","","","","1","[object Object]","75","1","0","","","",""
"","html-keyboard-response","149","476458","0.0-83.0-1.0","""event"",""trial"",""time""
""fullscreenenter"",""0"",""2139""
","
","
","""event"",""trial"",""time""
""fullscreenenter"",""0"",""2139""
","
","null","<p></p>","null","","","","","","","","","","","","","","","","","","","","","","","",""
"","do_trial","150","479547","0.0-84.0-0.0","""event"",""trial"",""time""
""fullscreenenter"",""0"",""2139""
","
","
","""event"",""trial"",""time""
""fullscreenenter"",""0"",""2139""
","
","544.6999999992549","","","","","","","","50","1,0,0","6","blank","295","null","0.7730698568328239","0.11014896117576052","0.40475072391845973","0","","","","","","","","",""
"","html-keyboard-response","151","480553","0.0-84.0-1.0","""event"",""trial"",""time""
""fullscreenenter"",""0"",""2139""
","
","
","""event"",""trial"",""time""
""fullscreenenter"",""0"",""2139""
","
","null","<p></p>","null","","","","","","","","","","","","","","","","","","","","","","","",""
"","do_trial","152","483119","0.0-85.0-0.0","""event"",""trial"",""time""
""fullscreenenter"",""0"",""2139""
","
","
","""event"",""trial"",""time""
""fullscreenenter"",""0"",""2139""
","
","24.300000000745058","","","","","","","","50","1,0,0","6","blank","296","null","0.7760666911311169","0.1469035320178555","0.4422398276123285","0","","","","","","","","",""
"","html-keyboard-response","153","484124","0.0-85.0-1.0","""event"",""trial"",""time""
""fullscreenenter"",""0"",""2139""
","
","
","""event"",""trial"",""time""
""fullscreenenter"",""0"",""2139""
","
","null","<p></p>","null","","","","","","","","","","","","","","","","","","","","","","","",""
"","do_recog","154","488277","0.0-86.0-0.0","""event"",""trial"",""time""
""fullscreenenter"",""0"",""2139""
","
","
","""event"",""trial"",""time""
""fullscreenenter"",""0"",""2139""
","
","2647.199999999255","","","","","","","","54","","","","297","probe-170","","","","","1","[object Object]","78","1","1","","","",""
"","html-keyboard-response","155","489281","0.0-86.0-1.0","""event"",""trial"",""time""
""fullscreenenter"",""0"",""2139""
","
","
","""event"",""trial"",""time""
""fullscreenenter"",""0"",""2139""
","
","null","<p></p>","null","","","","","","","","","","","","","","","","","","","","","","","",""
"","do_trial","156","492502","0.0-87.0-0.0","""event"",""trial"",""time""
""fullscreenenter"",""0"",""2139""
","
","
","""event"",""trial"",""time""
""fullscreenenter"",""0"",""2139""
","
","677.8000000007451","","","","","","","","50","0,0,1","6","blank","298","null","0.8098706162272242","0.1449729322480425","0.3883225640868085","0","","","","","","","","",""
"","html-keyboard-response","157","493507","0.0-87.0-1.0","""event"",""trial"",""time""
""fullscreenenter"",""0"",""2139""
","
","
","""event"",""trial"",""time""
""fullscreenenter"",""0"",""2139""
","
","null","<p></p>","null","","","","","","","","","","","","","","","","","","","","","","","",""
"","do_trial","158","496416","0.0-88.0-0.0","""event"",""trial"",""time""
""fullscreenenter"",""0"",""2139""
","
","
","""event"",""trial"",""time""
""fullscreenenter"",""0"",""2139""
","
","364.8999999985099","","","","","","","","50","1,0,1","6","blank","299","null","0.5664532098514607","0.1493892590095212","0.4510707810471309","0","","","","","","","","",""
"","html-keyboard-response","159","497422","0.0-88.0-1.0","""event"",""trial"",""time""
""fullscreenenter"",""0"",""2139""
","
","
","""event"",""trial"",""time""
""fullscreenenter"",""0"",""2139""
","
","null","<p></p>","null","","","","","","","","","","","","","","","","","","","","","","","",""
"","do_trial","160","500259","0.0-89.0-0.0","""event"",""trial"",""time""
""fullscreenenter"",""0"",""2139""
","
","
","""event"",""trial"",""time""
""fullscreenenter"",""0"",""2139""
","
","296.3999999985099","","","","","","","","49","1,0,0","6","blank","300","null","0.5647989807035011","0.25025067871146195","0.38259469692971615","1","","","","","","","","",""
"","html-keyboard-response","161","501260","0.0-89.0-1.0","""event"",""trial"",""time""
""fullscreenenter"",""0"",""2139""
","
","
","""event"",""trial"",""time""
""fullscreenenter"",""0"",""2139""
","
","null","<p></p>","null","","","","","","","","","","","","","","","","","","","","","","","",""
"","do_trial","162","504082","0.0-90.0-0.0","""event"",""trial"",""time""
""fullscreenenter"",""0"",""2139""
","
","
","""event"",""trial"",""time""
""fullscreenenter"",""0"",""2139""
","
","278.5","","","","","","","","49","0,0,1","6","blank","301","null","0.32628896062865836","0.32998925066646784","0.4889387432916575","0","","","","","","","","",""
"","html-keyboard-response","163","505087","0.0-90.0-1.0","""event"",""trial"",""time""
""fullscreenenter"",""0"",""2139""
","
","
","""event"",""trial"",""time""
""fullscreenenter"",""0"",""2139""
","
","null","<p></p>","null","","","","","","","","","","","","","","","","","","","","","","","",""
"","do_trial","164","507676","0.0-91.0-0.0","""event"",""trial"",""time""
""fullscreenenter"",""0"",""2139""
","
","
","""event"",""trial"",""time""
""fullscreenenter"",""0"",""2139""
","
","50.69999999925494","","","","","","","","49","1,0,0","6","blank","302","null","0.3466013839717271","0.15534567082432996","0.5254595316241972","1","","","","","","","","",""
"","html-keyboard-response","165","508683","0.0-91.0-1.0","""event"",""trial"",""time""
""fullscreenenter"",""0"",""2139""
","
","
","""event"",""trial"",""time""
""fullscreenenter"",""0"",""2139""
","
","null","<p></p>","null","","","","","","","","","","","","","","","","","","","","","","","",""
"","do_trial","166","511508","0.0-92.0-0.0","""event"",""trial"",""time""
""fullscreenenter"",""0"",""2139""
","
","
","""event"",""trial"",""time""
""fullscreenenter"",""0"",""2139""
","
","281.6000000014901","","","","","","","","49","1,0,1","6","blank","303","null","0.42158351598954386","0.30720248087943464","0.571071481781066","1","","","","","","","","",""
"","html-keyboard-response","167","512514","0.0-92.0-1.0","""event"",""trial"",""time""
""fullscreenenter"",""0"",""2139""
","
","
","""event"",""trial"",""time""
""fullscreenenter"",""0"",""2139""
","
","null","<p></p>","null","","","","","","","","","","","","","","","","","","","","","","","",""
"","do_recog","168","516063","0.0-93.0-0.0","""event"",""trial"",""time""
""fullscreenenter"",""0"",""2139""
","
","
","""event"",""trial"",""time""
""fullscreenenter"",""0"",""2139""
","
","2041.6000000014901","","","","","","","","53","","","","304","probe-112","","","","","1","[object Object]","38","0","1","","","",""
"","html-keyboard-response","169","517064","0.0-93.0-1.0","""event"",""trial"",""time""
""fullscreenenter"",""0"",""2139""
","
","
","""event"",""trial"",""time""
""fullscreenenter"",""0"",""2139""
","
","null","<p></p>","null","","","","","","","","","","","","","","","","","","","","","","","",""
"","do_trial","170","519947","0.0-94.0-0.0","""event"",""trial"",""time""
""fullscreenenter"",""0"",""2139""
","
","
","""event"",""trial"",""time""
""fullscreenenter"",""0"",""2139""
","
","337.69999999925494","","","","","","","","49","0,0,1","6","blank","305","null","0.284707468112757","0.19190875888059036","0.6320837760443881","0","","","","","","","","",""
"","html-keyboard-response","171","520952","0.0-94.0-1.0","""event"",""trial"",""time""
""fullscreenenter"",""0"",""2139""
","
","
","""event"",""trial"",""time""
""fullscreenenter"",""0"",""2139""
","
","null","<p></p>","null","","","","","","","","","","","","","","","","","","","","","","","",""
"","do_recog","172","524234","0.0-95.0-0.0","""event"",""trial"",""time""
""fullscreenenter"",""0"",""2139""
","
","
","""event"",""trial"",""time""
""fullscreenenter"",""0"",""2139""
","
","1778.199999999255","","","","","","","","53","","","","306","probe-151","","","","","1","[object Object]","199","4","1","","","",""
"","html-keyboard-response","173","525236","0.0-95.0-1.0","""event"",""trial"",""time""
""fullscreenenter"",""0"",""2139""
","
","
","""event"",""trial"",""time""
""fullscreenenter"",""0"",""2139""
","
","null","<p></p>","null","","","","","","","","","","","","","","","","","","","","","","","",""
"","do_trial","174","528165","0.0-96.0-0.0","""event"",""trial"",""time""
""fullscreenenter"",""0"",""2139""
","
","
","""event"",""trial"",""time""
""fullscreenenter"",""0"",""2139""
","
","383.5999999977648","","","","","","","","49","0,1,1","6","blank","307","null","0.2563593312766779","0.2666821269464203","0.5821463779522289","0","","","","","","","","",""
"","html-keyboard-response","175","529170","0.0-96.0-1.0","""event"",""trial"",""time""
""fullscreenenter"",""0"",""2139""
","
","
","""event"",""trial"",""time""
""fullscreenenter"",""0"",""2139""
","
","null","<p></p>","null","","","","","","","","","","","","","","","","","","","","","","","",""
"","do_recog","176","532174","0.0-97.0-0.0","""event"",""trial"",""time""
""fullscreenenter"",""0"",""2139""
","
","
","""event"",""trial"",""time""
""fullscreenenter"",""0"",""2139""
","
","1496.300000000745","","","","","","","","53","","","","308","probe-62","","","","","1","[object Object]","36","0","1","","","",""
"","html-keyboard-response","177","533180","0.0-97.0-1.0","""event"",""trial"",""time""
""fullscreenenter"",""0"",""2139""
","
","
","""event"",""trial"",""time""
""fullscreenenter"",""0"",""2139""
","
","null","<p></p>","null","","","","","","","","","","","","","","","","","","","","","","","",""
"","break","178","536175","0.0-98.0-0.0","""event"",""trial"",""time""
""fullscreenenter"",""0"",""2139""
","
","
","""event"",""trial"",""time""
""fullscreenenter"",""0"",""2139""
","
","2994.300000000745","<div class='center'><p>Time to take a quick break! You have 2 minutes to rest, but you can move on sooner if you'd like.</p><p> Press the <b>space bar</b> to continue.</p></div>","32","","","","","","","","","","","","","","","","","","","","","","","",""
"","do_trial","179","539645","0.0-98.0-1.0","""event"",""trial"",""time""
""fullscreenenter"",""0"",""2139""
","
","
","""event"",""trial"",""time""
""fullscreenenter"",""0"",""2139""
","
","926.8999999985099","","","","","","","","49","0,0,1","6","blank","309","null","0.3690488867504874","0.09767513484609991","0.4261906680414544","0","","","","","","","","",""
"","html-keyboard-response","180","540651","0.0-98.0-2.0","""event"",""trial"",""time""
""fullscreenenter"",""0"",""2139""
","
","
","""event"",""trial"",""time""
""fullscreenenter"",""0"",""2139""
","
","null","<p></p>","null","","","","","","","","","","","","","","","","","","","","","","","",""
"","do_trial","181","543700","0.0-99.0-0.0","""event"",""trial"",""time""
""fullscreenenter"",""0"",""2139""
","
","
","""event"",""trial"",""time""
""fullscreenenter"",""0"",""2139""
","
","509.5","","","","","","","","49","0,0,1","6","blank","310","null","0.4154493202680007","0.05311573377539415","0.4606668838548983","0","","","","","","","","",""
"","html-keyboard-response","182","544706","0.0-99.0-1.0","""event"",""trial"",""time""
""fullscreenenter"",""0"",""2139""
","
","
","""event"",""trial"",""time""
""fullscreenenter"",""0"",""2139""
","
","null","<p></p>","null","","","","","","","","","","","","","","","","","","","","","","","",""
"","do_trial","183","547597","0.0-100.0-0.0","""event"",""trial"",""time""
""fullscreenenter"",""0"",""2139""
","
","
","""event"",""trial"",""time""
""fullscreenenter"",""0"",""2139""
","
","349.5999999977648","","","","","","","","49","1,0,1","6","blank","311","null","0.3700289840930477","0.058361198777862104","0.6241165268889134","1","","","","","","","","",""
"","html-keyboard-response","184","548602","0.0-100.0-1.0","""event"",""trial"",""time""
""fullscreenenter"",""0"",""2139""
","
","
","""event"",""trial"",""time""
""fullscreenenter"",""0"",""2139""
","
","null","<p></p>","null","","","","","","","","","","","","","","","","","","","","","","","",""
"","do_trial","185","551417","0.0-101.0-0.0","""event"",""trial"",""time""
""fullscreenenter"",""0"",""2139""
","
","
","""event"",""trial"",""time""
""fullscreenenter"",""0"",""2139""
","
","270.3999999985099","","","","","","","","49","0,0,0","6","blank","312","null","0.4247501552050668","0.16741023927208631","0.48097062637071214","0","","","","","","","","",""
"","html-keyboard-response","186","552418","0.0-101.0-1.0","""event"",""trial"",""time""
""fullscreenenter"",""0"",""2139""
","
","
","""event"",""trial"",""time""
""fullscreenenter"",""0"",""2139""
","
","null","<p></p>","null","","","","","","","","","","","","","","","","","","","","","","","",""
"","do_trial","187","555345","0.0-102.0-0.0","""event"",""trial"",""time""
""fullscreenenter"",""0"",""2139""
","
","
","""event"",""trial"",""time""
""fullscreenenter"",""0"",""2139""
","
","385.0999999977648","","","","","","","","49","1,0,1","6","blank","313","null","0.3227133397516739","0.1748430336572909","0.6105659270853826","1","","","","","","","","",""
"","html-keyboard-response","188","556351","0.0-102.0-1.0","""event"",""trial"",""time""
""fullscreenenter"",""0"",""2139""
","
","
","""event"",""trial"",""time""
""fullscreenenter"",""0"",""2139""
","
","null","<p></p>","null","","","","","","","","","","","","","","","","","","","","","","","",""
"","do_trial","189","559034","0.0-103.0-0.0","""event"",""trial"",""time""
""fullscreenenter"",""0"",""2139""
","
","
","""event"",""trial"",""time""
""fullscreenenter"",""0"",""2139""
","
","142.19999999925494","","","","","","","","49","1,0,1","6","blank","314","null","0.3810900098891223","0.08384093069686685","0.4523429643633249","1","","","","","","","","",""
"","html-keyboard-response","190","560037","0.0-103.0-1.0","""event"",""trial"",""time""
""fullscreenenter"",""0"",""2139""
","
","
","""event"",""trial"",""time""
""fullscreenenter"",""0"",""2139""
","
","null","<p></p>","null","","","","","","","","","","","","","","","","","","","","","","","",""
"","do_recog","191","562973","0.0-104.0-0.0","""event"",""trial"",""time""
""fullscreenenter"",""0"",""2139""
","
","
","""event"",""trial"",""time""
""fullscreenenter"",""0"",""2139""
","
","1424.3999999985099","","","","","","","","53","","","","315","probe-224","","","","","1","[object Object]","190","4","1","","","",""
"","html-keyboard-response","192","563979","0.0-104.0-1.0","""event"",""trial"",""time""
""fullscreenenter"",""0"",""2139""
","
","
","""event"",""trial"",""time""
""fullscreenenter"",""0"",""2139""
","
","null","<p></p>","null","","","","","","","","","","","","","","","","","","","","","","","",""
"","do_trial","193","566944","0.0-105.0-0.0","""event"",""trial"",""time""
""fullscreenenter"",""0"",""2139""
","
","
","""event"",""trial"",""time""
""fullscreenenter"",""0"",""2139""
","
","422.19999999925494","","","","","","","","49","1,0,1","6","blank","316","null","0.41078213923225987","0.23430598339002046","0.415596172740497","1","","","","","","","","",""
"","html-keyboard-response","194","567949","0.0-105.0-1.0","""event"",""trial"",""time""
""fullscreenenter"",""0"",""2139""
","
","
","""event"",""trial"",""time""
""fullscreenenter"",""0"",""2139""
","
","null","<p></p>","null","","","","","","","","","","","","","","","","","","","","","","","",""
"","do_trial","195","570734","0.0-106.0-0.0","""event"",""trial"",""time""
""fullscreenenter"",""0"",""2139""
","
","
","""event"",""trial"",""time""
""fullscreenenter"",""0"",""2139""
","
","245.79999999701977","","","","","","","","49","0,0,1","6","blank","317","null","0.31440759277264074","0.1666563391109608","0.3606760231530838","0","","","","","","","","",""
"","html-keyboard-response","196","571740","0.0-106.0-1.0","""event"",""trial"",""time""
""fullscreenenter"",""0"",""2139""
","
","
","""event"",""trial"",""time""
""fullscreenenter"",""0"",""2139""
","
","null","<p></p>","null","","","","","","","","","","","","","","","","","","","","","","","",""
"","do_trial","197","574317","0.0-107.0-0.0","""event"",""trial"",""time""
""fullscreenenter"",""0"",""2139""
","
","
","""event"",""trial"",""time""
""fullscreenenter"",""0"",""2139""
","
","33.19999999925494","","","","","","","","49","0,1,0","6","blank","318","null","0.35309454755712394","0.3019374135468701","0.570719354101263","0","","","","","","","","",""
"","html-keyboard-response","198","575322","0.0-107.0-1.0","""event"",""trial"",""time""
""fullscreenenter"",""0"",""2139""
","
","
","""event"",""trial"",""time""
""fullscreenenter"",""0"",""2139""
","
","null","<p></p>","null","","","","","","","","","","","","","","","","","","","","","","","",""
"","do_trial","199","577865","0.0-108.0-0.0","""event"",""trial"",""time""
""fullscreenenter"",""0"",""2139""
","
","
","""event"",""trial"",""time""
""fullscreenenter"",""0"",""2139""
","
","0.10000000149011612","","","","","","","","49","0,1,1","6","blank","319","null","0.3601477805957148","0.4674431266262053","0.5165776431781489","0","","","","","","","","",""
"","html-keyboard-response","200","578870","0.0-108.0-1.0","""event"",""trial"",""time""
""fullscreenenter"",""0"",""2139""
","
","
","""event"",""trial"",""time""
""fullscreenenter"",""0"",""2139""
","
","null","<p></p>","null","","","","","","","","","","","","","","","","","","","","","","","",""
"","do_trial","201","581747","0.0-109.0-0.0","""event"",""trial"",""time""
""fullscreenenter"",""0"",""2139""
","
","
","""event"",""trial"",""time""
""fullscreenenter"",""0"",""2139""
","
","332.69999999925494","","","","","","","","50","0,0,1","6","blank","320","null","0.28411057168291015","0.42139054004248794","0.5833121266375433","0","","","","","","","","",""
"","html-keyboard-response","202","582752","0.0-109.0-1.0","""event"",""trial"",""time""
""fullscreenenter"",""0"",""2139""
","
","
","""event"",""trial"",""time""
""fullscreenenter"",""0"",""2139""
","
","null","<p></p>","null","","","","","","","","","","","","","","","","","","","","","","","",""
"","do_trial","203","585539","0.0-110.0-0.0","""event"",""trial"",""time""
""fullscreenenter"",""0"",""2139""
","
","
","""event"",""trial"",""time""
""fullscreenenter"",""0"",""2139""
","
","242.5","","","","","","","","50","1,1,0","6","blank","321","null","0.18063400714806988","0.23384550763887618","0.4112059737619046","1","","","","","","","","",""
"","html-keyboard-response","204","586542","0.0-110.0-1.0","""event"",""trial"",""time""
""fullscreenenter"",""0"",""2139""
","
","
","""event"",""trial"",""time""
""fullscreenenter"",""0"",""2139""
","
","null","<p></p>","null","","","","","","","","","","","","","","","","","","","","","","","",""
"","do_trial","205","589343","0.0-111.0-0.0","""event"",""trial"",""time""
""fullscreenenter"",""0"",""2139""
","
","
","""event"",""trial"",""time""
""fullscreenenter"",""0"",""2139""
","
","260.3999999985099","","","","","","","","50","0,1,0","6","blank","322","null","0.19393480760091614","0.24721850675282478","0.5669066258878902","1","","","","","","","","",""
"","html-keyboard-response","206","590346","0.0-111.0-1.0","""event"",""trial"",""time""
""fullscreenenter"",""0"",""2139""
","
","
","""event"",""trial"",""time""
""fullscreenenter"",""0"",""2139""
","
","null","<p></p>","null","","","","","","","","","","","","","","","","","","","","","","","",""
"","do_recog","207","593326","0.0-112.0-0.0","""event"",""trial"",""time""
""fullscreenenter"",""0"",""2139""
","
","
","""event"",""trial"",""time""
""fullscreenenter"",""0"",""2139""
","
","1469.5999999977648","","","","","","","","53","","","","323","probe-20","","","","","1","[object Object]","192","4","1","","","",""
"","html-keyboard-response","208","594328","0.0-112.0-1.0","""event"",""trial"",""time""
""fullscreenenter"",""0"",""2139""
","
","
","""event"",""trial"",""time""
""fullscreenenter"",""0"",""2139""
","
","null","<p></p>","null","","","","","","","","","","","","","","","","","","","","","","","",""
"","do_trial","209","597184","0.0-113.0-0.0","""event"",""trial"",""time""
""fullscreenenter"",""0"",""2139""
","
","
","""event"",""trial"",""time""
""fullscreenenter"",""0"",""2139""
","
","311.30000000074506","","","","","","","","50","0,0,0","6","blank","324","null","0.22426343958890582","0.07831342025379048","0.6668756048376433","0","","","","","","","","",""
"","html-keyboard-response","210","598190","0.0-113.0-1.0","""event"",""trial"",""time""
""fullscreenenter"",""0"",""2139""
","
","
","""event"",""trial"",""time""
""fullscreenenter"",""0"",""2139""
","
","null","<p></p>","null","","","","","","","","","","","","","","","","","","","","","","","",""
"","do_trial","211","600750","0.0-114.0-0.0","""event"",""trial"",""time""
""fullscreenenter"",""0"",""2139""
","
","
","""event"",""trial"",""time""
""fullscreenenter"",""0"",""2139""
","
","16.600000001490116","","","","","","","","50","0,0,1","6","blank","325","null","0.2070487000990998","0.07440478026505622","0.4528772700431091","0","","","","","","","","",""
"","html-keyboard-response","212","601756","0.0-114.0-1.0","""event"",""trial"",""time""
""fullscreenenter"",""0"",""2139""
","
","
","""event"",""trial"",""time""
""fullscreenenter"",""0"",""2139""
","
","null","<p></p>","null","","","","","","","","","","","","","","","","","","","","","","","",""
"","do_trial","213","604590","0.0-115.0-0.0","""event"",""trial"",""time""
""fullscreenenter"",""0"",""2139""
","
","
","""event"",""trial"",""time""
""fullscreenenter"",""0"",""2139""
","
","288.80000000074506","","","","","","","","50","0,1,0","6","blank","326","null","0.23872844200291485","0.14229211762513022","0.5503671914624374","1","","","","","","","","",""
"","html-keyboard-response","214","605592","0.0-115.0-1.0","""event"",""trial"",""time""
""fullscreenenter"",""0"",""2139""
","
","
","""event"",""trial"",""time""
""fullscreenenter"",""0"",""2139""
","
","null","<p></p>","null","","","","","","","","","","","","","","","","","","","","","","","",""
"","do_trial","215","608429","0.0-116.0-0.0","""event"",""trial"",""time""
""fullscreenenter"",""0"",""2139""
","
","
","""event"",""trial"",""time""
""fullscreenenter"",""0"",""2139""
","
","292.1000000014901","","","","","","","","50","1,1,1","6","blank","327","null","0.34496376815731916","0.2669471960314921","0.5552409767749044","1","","","","","","","","",""
"","html-keyboard-response","216","609433","0.0-116.0-1.0","""event"",""trial"",""time""
""fullscreenenter"",""0"",""2139""
","
","
","""event"",""trial"",""time""
""fullscreenenter"",""0"",""2139""
","
","null","<p></p>","null","","","","","","","","","","","","","","","","","","","","","","","",""
"","do_trial","217","612214","0.0-117.0-0.0","""event"",""trial"",""time""
""fullscreenenter"",""0"",""2139""
","
","
","""event"",""trial"",""time""
""fullscreenenter"",""0"",""2139""
","
","236.19999999925494","","","","","","","","50","1,0,0","6","blank","328","null","0.3886435402961667","0.09814827009255747","0.5743849090626638","0","","","","","","","","",""
"","html-keyboard-response","218","613220","0.0-117.0-1.0","""event"",""trial"",""time""
""fullscreenenter"",""0"",""2139""
","
","
","""event"",""trial"",""time""
""fullscreenenter"",""0"",""2139""
","
","null","<p></p>","null","","","","","","","","","","","","","","","","","","","","","","","",""
"","do_recog","219","616357","0.0-118.0-0.0","""event"",""trial"",""time""
""fullscreenenter"",""0"",""2139""
","
","
","""event"",""trial"",""time""
""fullscreenenter"",""0"",""2139""
","
","1628.1000000014901","","","","","","","","53","","","","329","probe-109","","","","","1","[object Object]","193","4","1","","","",""
"","html-keyboard-response","220","617358","0.0-118.0-1.0","""event"",""trial"",""time""
""fullscreenenter"",""0"",""2139""
","
","
","""event"",""trial"",""time""
""fullscreenenter"",""0"",""2139""
","
","null","<p></p>","null","","","","","","","","","","","","","","","","","","","","","","","",""
"","do_trial","221","620313","0.0-119.0-0.0","""event"",""trial"",""time""
""fullscreenenter"",""0"",""2139""
","
","
","""event"",""trial"",""time""
""fullscreenenter"",""0"",""2139""
","
","410.30000000074506","","","","","","","","50","0,0,1","6","blank","330","null","0.33877611004542685","0.12682562017800417","0.6087423162483678","0","","","","","","","","",""
"","html-keyboard-response","222","621318","0.0-119.0-1.0","""event"",""trial"",""time""
""fullscreenenter"",""0"",""2139""
","
","
","""event"",""trial"",""time""
""fullscreenenter"",""0"",""2139""
","
","null","<p></p>","null","","","","","","","","","","","","","","","","","","","","","","","",""
"","do_trial","223","624259","0.0-120.0-0.0","""event"",""trial"",""time""
""fullscreenenter"",""0"",""2139""
","
","
","""event"",""trial"",""time""
""fullscreenenter"",""0"",""2139""
","
","400.8999999985099","","","","","","","","50","0,0,1","6","blank","331","null","0.4511500038247006","0.05289714853504728","0.5133670726830352","0","","","","","","","","",""
"","html-keyboard-response","224","625262","0.0-120.0-1.0","""event"",""trial"",""time""
""fullscreenenter"",""0"",""2139""
","
","
","""event"",""trial"",""time""
""fullscreenenter"",""0"",""2139""
","
","null","<p></p>","null","","","","","","","","","","","","","","","","","","","","","","","",""
"","do_trial","225","628032","0.0-121.0-0.0","""event"",""trial"",""time""
""fullscreenenter"",""0"",""2139""
","
","
","""event"",""trial"",""time""
""fullscreenenter"",""0"",""2139""
","
","230","","","","","","","","51","0,0,1","6","blank","332","null","0.4115883828471867","0.08041091061862407","0.5152993853812375","1","","","","","","","","",""
"","html-keyboard-response","226","629037","0.0-121.0-1.0","""event"",""trial"",""time""
""fullscreenenter"",""0"",""2139""
","
","
","""event"",""trial"",""time""
""fullscreenenter"",""0"",""2139""
","
","null","<p></p>","null","","","","","","","","","","","","","","","","","","","","","","","",""
"","do_trial","227","631976","0.0-122.0-0.0","""event"",""trial"",""time""
""fullscreenenter"",""0"",""2139""
","
","
","""event"",""trial"",""time""
""fullscreenenter"",""0"",""2139""
","
","394.3999999985099","","","","","","","","51","0,0,0","6","blank","333","null","0.24392586153271426","0.06956609902531469","0.4851635822076545","0","","","","","","","","",""
"","html-keyboard-response","228","632981","0.0-122.0-1.0","""event"",""trial"",""time""
""fullscreenenter"",""0"",""2139""
","
","
","""event"",""trial"",""time""
""fullscreenenter"",""0"",""2139""
","
","null","<p></p>","null","","","","","","","","","","","","","","","","","","","","","","","",""
"","do_trial","229","635794","0.0-123.0-0.0","""event"",""trial"",""time""
""fullscreenenter"",""0"",""2139""
","
","
","""event"",""trial"",""time""
""fullscreenenter"",""0"",""2139""
","
","273.0999999977648","","","","","","","","51","0,0,1","6","blank","334","null","0.23281337993153867","0.06159151425713432","0.49451642040953375","1","","","","","","","","",""
"","html-keyboard-response","230","636798","0.0-123.0-1.0","""event"",""trial"",""time""
""fullscreenenter"",""0"",""2139""
","
","
","""event"",""trial"",""time""
""fullscreenenter"",""0"",""2139""
","
","null","<p></p>","null","","","","","","","","","","","","","","","","","","","","","","","",""
"","do_trial","231","639563","0.0-124.0-0.0","""event"",""trial"",""time""
""fullscreenenter"",""0"",""2139""
","
","
","""event"",""trial"",""time""
""fullscreenenter"",""0"",""2139""
","
","224.90000000223517","","","","","","","","51","1,0,1","6","blank","335","null","0.23660763202068752","0.14840144838102037","0.6095903661803389","1","","","","","","","","",""
"","html-keyboard-response","232","640566","0.0-124.0-1.0","""event"",""trial"",""time""
""fullscreenenter"",""0"",""2139""
","
","
","""event"",""trial"",""time""
""fullscreenenter"",""0"",""2139""
","
","null","<p></p>","null","","","","","","","","","","","","","","","","","","","","","","","",""
"","do_recog","233","643171","0.0-125.0-0.0","""event"",""trial"",""time""
""fullscreenenter"",""0"",""2139""
","
","
","""event"",""trial"",""time""
""fullscreenenter"",""0"",""2139""
","
","1094.3999999985099","","","","","","","","53","","","","336","probe-225","","","","","1","[object Object]","150","3","1","","","",""
"","html-keyboard-response","234","644174","0.0-125.0-1.0","""event"",""trial"",""time""
""fullscreenenter"",""0"",""2139""
","
","
","""event"",""trial"",""time""
""fullscreenenter"",""0"",""2139""
","
","null","<p></p>","null","","","","","","","","","","","","","","","","","","","","","","","",""
"","do_trial","235","647107","0.0-126.0-0.0","""event"",""trial"",""time""
""fullscreenenter"",""0"",""2139""
","
","
","""event"",""trial"",""time""
""fullscreenenter"",""0"",""2139""
","
","388.6000000014901","","","","","","","","51","0,0,1","6","blank","337","null","0.2317055413831479","0.08177208555831232","0.6105053415908488","1","","","","","","","","",""
"","html-keyboard-response","236","648113","0.0-126.0-1.0","""event"",""trial"",""time""
""fullscreenenter"",""0"",""2139""
","
","
","""event"",""trial"",""time""
""fullscreenenter"",""0"",""2139""
","
","null","<p></p>","null","","","","","","","","","","","","","","","","","","","","","","","",""
"","do_trial","237","650967","0.0-127.0-0.0","""event"",""trial"",""time""
""fullscreenenter"",""0"",""2139""
","
","
","""event"",""trial"",""time""
""fullscreenenter"",""0"",""2139""
","
","308.69999999925494","","","","","","","","51","0,0,1","6","blank","338","null","0.33106371435063736","0.2150528712468307","0.6307165554163245","1","","","","","","","","",""
"","html-keyboard-response","238","651972","0.0-127.0-1.0","""event"",""trial"",""time""
""fullscreenenter"",""0"",""2139""
","
","
","""event"",""trial"",""time""
""fullscreenenter"",""0"",""2139""
","
","null","<p></p>","null","","","","","","","","","","","","","","","","","","","","","","","",""
"","do_trial","239","654793","0.0-128.0-0.0","""event"",""trial"",""time""
""fullscreenenter"",""0"",""2139""
","
","
","""event"",""trial"",""time""
""fullscreenenter"",""0"",""2139""
","
","281.0999999977648","","","","","","","","51","1,0,0","6","blank","339","null","0.36924786623833666","0.1723839606329231","0.5136834932367423","0","","","","","","","","",""
"","html-keyboard-response","240","655799","0.0-128.0-1.0","""event"",""trial"",""time""
""fullscreenenter"",""0"",""2139""
","
","
","""event"",""trial"",""time""
""fullscreenenter"",""0"",""2139""
","
","null","<p></p>","null","","","","","","","","","","","","","","","","","","","","","","","",""
"","do_recog","241","658692","0.0-129.0-0.0","""event"",""trial"",""time""
""fullscreenenter"",""0"",""2139""
","
","
","""event"",""trial"",""time""
""fullscreenenter"",""0"",""2139""
","
","1383.9000000022352","","","","","","","","53","","","","340","probe-240","","","","","0","[object Object]","null","null","0","","","",""
"","html-keyboard-response","242","659697","0.0-129.0-1.0","""event"",""trial"",""time""
""fullscreenenter"",""0"",""2139""
","
","
","""event"",""trial"",""time""
""fullscreenenter"",""0"",""2139""
","
","null","<p></p>","null","","","","","","","","","","","","","","","","","","","","","","","",""
"","do_trial","243","662601","0.0-130.0-0.0","""event"",""trial"",""time""
""fullscreenenter"",""0"",""2139""
","
","
","""event"",""trial"",""time""
""fullscreenenter"",""0"",""2139""
","
","359.69999999925494","","","","","","","","51","1,0,1","6","blank","341","null","0.36078802363034046","0.05419012930758562","0.5783305170061369","1","","","","","","","","",""
"","html-keyboard-response","244","663605","0.0-130.0-1.0","""event"",""trial"",""time""
""fullscreenenter"",""0"",""2139""
","
","
","""event"",""trial"",""time""
""fullscreenenter"",""0"",""2139""
","
","null","<p></p>","null","","","","","","","","","","","","","","","","","","","","","","","",""
"","do_trial","245","666417","0.0-131.0-0.0","""event"",""trial"",""time""
""fullscreenenter"",""0"",""2139""
","
","
","""event"",""trial"",""time""
""fullscreenenter"",""0"",""2139""
","
","272.30000000074506","","","","","","","","51","0,0,1","6","blank","342","null","0.3166506909077017","0.08809660401519684","0.55428005578381","1","","","","","","","","",""
"","html-keyboard-response","246","667423","0.0-131.0-1.0","""event"",""trial"",""time""
""fullscreenenter"",""0"",""2139""
","
","
","""event"",""trial"",""time""
""fullscreenenter"",""0"",""2139""
","
","null","<p></p>","null","","","","","","","","","","","","","","","","","","","","","","","",""
"","do_trial","247","670134","0.0-132.0-0.0","""event"",""trial"",""time""
""fullscreenenter"",""0"",""2139""
","
","
","""event"",""trial"",""time""
""fullscreenenter"",""0"",""2139""
","
","166","","","","","","","","51","0,0,1","6","blank","343","null","0.2705028107090401","0.12937586706807536","0.7327873500621033","1","","","","","","","","",""
"","html-keyboard-response","248","671140","0.0-132.0-1.0","""event"",""trial"",""time""
""fullscreenenter"",""0"",""2139""
","
","
","""event"",""trial"",""time""
""fullscreenenter"",""0"",""2139""
","
","null","<p></p>","null","","","","","","","","","","","","","","","","","","","","","","","",""
"","do_trial","249","673975","0.0-133.0-0.0","""event"",""trial"",""time""
""fullscreenenter"",""0"",""2139""
","
","
","""event"",""trial"",""time""
""fullscreenenter"",""0"",""2139""
","
","292.80000000074506","","","","","","","","51","0,0,1","6","blank","344","null","0.3702036671149096","0.12036709632178666","0.6584903115803485","1","","","","","","","","",""
"","html-keyboard-response","250","674979","0.0-133.0-1.0","""event"",""trial"",""time""
""fullscreenenter"",""0"",""2139""
","
","
","""event"",""trial"",""time""
""fullscreenenter"",""0"",""2139""
","
","null","<p></p>","null","","","","","","","","","","","","","","","","","","","","","","","",""
"","do_trial","251","677778","0.0-134.0-0.0","""event"",""trial"",""time""
""fullscreenenter"",""0"",""2139""
","
","
","""event"",""trial"",""time""
""fullscreenenter"",""0"",""2139""
","
","254.10000000149012","","","","","","","","51","1,0,1","6","blank","345","null","0.290946446803233","0.1958073102596491","0.6638405558679282","1","","","","","","","","",""
"","html-keyboard-response","252","678784","0.0-134.0-1.0","""event"",""trial"",""time""
""fullscreenenter"",""0"",""2139""
","
","
","""event"",""trial"",""time""
""fullscreenenter"",""0"",""2139""
","
","null","<p></p>","null","","","","","","","","","","","","","","","","","","","","","","","",""
"","do_trial","253","681563","0.0-135.0-0.0","""event"",""trial"",""time""
""fullscreenenter"",""0"",""2139""
","
","
","""event"",""trial"",""time""
""fullscreenenter"",""0"",""2139""
","
","235.89999999850988","","","","","","","","51","1,1,1","6","blank","346","null","0.20851104490093428","0.3656514714746759","0.5571006678249011","1","","","","","","","","",""
"","html-keyboard-response","254","682569","0.0-135.0-1.0","""event"",""trial"",""time""
""fullscreenenter"",""0"",""2139""
","
","
","""event"",""trial"",""time""
""fullscreenenter"",""0"",""2139""
","
","null","<p></p>","null","","","","","","","","","","","","","","","","","","","","","","","",""
"","do_trial","255","685422","0.0-136.0-0.0","""event"",""trial"",""time""
""fullscreenenter"",""0"",""2139""
","
","
","""event"",""trial"",""time""
""fullscreenenter"",""0"",""2139""
","
","310.69999999925494","","","","","","","","51","0,0,1","6","blank","347","null","0.11746194542662691","0.433419272173816","0.5669848147525683","1","","","","","","","","",""
"","html-keyboard-response","256","686423","0.0-136.0-1.0","""event"",""trial"",""time""
""fullscreenenter"",""0"",""2139""
","
","
","""event"",""trial"",""time""
""fullscreenenter"",""0"",""2139""
","
","null","<p></p>","null","","","","","","","","","","","","","","","","","","","","","","","",""
"","do_recog","257","689431","0.0-137.0-0.0","""event"",""trial"",""time""
""fullscreenenter"",""0"",""2139""
","
","
","""event"",""trial"",""time""
""fullscreenenter"",""0"",""2139""
","
","1496.800000000745","","","","","","","","53","","","","348","probe-45","","","","","1","[object Object]","33","0","1","","","",""
"","html-keyboard-response","258","690436","0.0-137.0-1.0","""event"",""trial"",""time""
""fullscreenenter"",""0"",""2139""
","
","
","""event"",""trial"",""time""
""fullscreenenter"",""0"",""2139""
","
","null","<p></p>","null","","","","","","","","","","","","","","","","","","","","","","","",""
"","break","259","691400","0.0-138.0-0.0","""event"",""trial"",""time""
""fullscreenenter"",""0"",""2139""
","
","
","""event"",""trial"",""time""
""fullscreenenter"",""0"",""2139""
","
","963.3999999985099","<div class='center'><p>Time to take a quick break! You have 2 minutes to rest, but you can move on sooner if you'd like.</p><p> Press the <b>space bar</b> to continue.</p></div>","32","","","","","","","","","","","","","","","","","","","","","","","",""
"","do_trial","260","694800","0.0-138.0-1.0","""event"",""trial"",""time""
""fullscreenenter"",""0"",""2139""
","
","
","""event"",""trial"",""time""
""fullscreenenter"",""0"",""2139""
","
","858.3999999985099","","","","","","","","49","0,1,0","6","blank","349","null","0.15892852026481977","0.5222852464502153","0.4324619869094399","0","","","","","","","","",""
"","html-keyboard-response","261","695806","0.0-138.0-2.0","""event"",""trial"",""time""
""fullscreenenter"",""0"",""2139""
","
","
","""event"",""trial"",""time""
""fullscreenenter"",""0"",""2139""
","
","null","<p></p>","null","","","","","","","","","","","","","","","","","","","","","","","",""
"","do_recog","262","698591","0.0-139.0-0.0","""event"",""trial"",""time""
""fullscreenenter"",""0"",""2139""
","
","
","""event"",""trial"",""time""
""fullscreenenter"",""0"",""2139""
","
","1274.2999999970198","","","","","","","","53","","","","350","probe-175","","","","","1","[object Object]","156","3","1","","","",""
"","html-keyboard-response","263","699596","0.0-139.0-1.0","""event"",""trial"",""time""
""fullscreenenter"",""0"",""2139""
","
","
","""event"",""trial"",""time""
""fullscreenenter"",""0"",""2139""
","
","null","<p></p>","null","","","","","","","","","","","","","","","","","","","","","","","",""
"","do_trial","264","702582","0.0-140.0-0.0","""event"",""trial"",""time""
""fullscreenenter"",""0"",""2139""
","
","
","""event"",""trial"",""time""
""fullscreenenter"",""0"",""2139""
","
","446.1000000014901","","","","","","","","49","0,1,0","6","blank","351","null","0.1195218504704423","0.6250232818194108","0.44912658433454683","0","","","","","","","","",""
"","html-keyboard-response","265","703587","0.0-140.0-1.0","""event"",""trial"",""time""
""fullscreenenter"",""0"",""2139""
","
","
","""event"",""trial"",""time""
""fullscreenenter"",""0"",""2139""
","
","null","<p></p>","null","","","","","","","","","","","","","","","","","","","","","","","",""
"","do_recog","266","706400","0.0-141.0-0.0","""event"",""trial"",""time""
""fullscreenenter"",""0"",""2139""
","
","
","""event"",""trial"",""time""
""fullscreenenter"",""0"",""2139""
","
","1302.5","","","","","","","","53","","","","352","probe-203","","","","","1","[object Object]","79","1","1","","","",""
"","html-keyboard-response","267","707401","0.0-141.0-1.0","""event"",""trial"",""time""
""fullscreenenter"",""0"",""2139""
","
","
","""event"",""trial"",""time""
""fullscreenenter"",""0"",""2139""
","
","null","<p></p>","null","","","","","","","","","","","","","","","","","","","","","","","",""
"","do_trial","268","710282","0.0-142.0-0.0","""event"",""trial"",""time""
""fullscreenenter"",""0"",""2139""
","
","
","""event"",""trial"",""time""
""fullscreenenter"",""0"",""2139""
","
","340.19999999925494","","","","","","","","49","0,1,1","6","blank","353","null","0.2058641616441455","0.5918495047494431","0.38177606899525096","0","","","","","","","","",""
"","html-keyboard-response","269","711288","0.0-142.0-1.0","""event"",""trial"",""time""
""fullscreenenter"",""0"",""2139""
","
","
","""event"",""trial"",""time""
""fullscreenenter"",""0"",""2139""
","
","null","<p></p>","null","","","","","","","","","","","","","","","","","","","","","","","",""
"","do_recog","270","714763","0.0-143.0-0.0","""event"",""trial"",""time""
""fullscreenenter"",""0"",""2139""
","
","
","""event"",""trial"",""time""
""fullscreenenter"",""0"",""2139""
","
","1970","","","","","","","","53","","","","354","probe-53","","","","","1","[object Object]","34","0","1","","","",""
"","html-keyboard-response","271","715765","0.0-143.0-1.0","""event"",""trial"",""time""
""fullscreenenter"",""0"",""2139""
","
","
","""event"",""trial"",""time""
""fullscreenenter"",""0"",""2139""
","
","null","<p></p>","null","","","","","","","","","","","","","","","","","","","","","","","",""
"","do_trial","272","719060","0.0-144.0-0.0","""event"",""trial"",""time""
""fullscreenenter"",""0"",""2139""
","
","
","""event"",""trial"",""time""
""fullscreenenter"",""0"",""2139""
","
","750.5999999977648","","","","","","","","49","0,0,0","6","blank","355","null","0.18978482019017143","0.7038296814374487","0.39834602261182833","0","","","","","","","","",""
"","html-keyboard-response","273","720067","0.0-144.0-1.0","""event"",""trial"",""time""
""fullscreenenter"",""0"",""2139""
","
","
","""event"",""trial"",""time""
""fullscreenenter"",""0"",""2139""
","
","null","<p></p>","null","","","","","","","","","","","","","","","","","","","","","","","",""
"","do_recog","274","723446","0.0-145.0-0.0","""event"",""trial"",""time""
""fullscreenenter"",""0"",""2139""
","
","
","""event"",""trial"",""time""
""fullscreenenter"",""0"",""2139""
","
","1869.5","","","","","","","","56","","","","356","probe-222","","","","","1","[object Object]","196","4","0","","","",""
"","html-keyboard-response","275","724450","0.0-145.0-1.0","""event"",""trial"",""time""
""fullscreenenter"",""0"",""2139""
","
","
","""event"",""trial"",""time""
""fullscreenenter"",""0"",""2139""
","
","null","<p></p>","null","","","","","","","","","","","","","","","","","","","","","","","",""
"","do_trial","276","727377","0.0-146.0-0.0","""event"",""trial"",""time""
""fullscreenenter"",""0"",""2139""
","
","
","""event"",""trial"",""time""
""fullscreenenter"",""0"",""2139""
","
","381.80000000074506","","","","","","","","49","0,1,0","6","blank","357","null","0.20176025910619033","0.5617333440953014","0.23681094832166505","0","","","","","","","","",""
"","html-keyboard-response","277","728383","0.0-146.0-1.0","""event"",""trial"",""time""
""fullscreenenter"",""0"",""2139""
","
","
","""event"",""trial"",""time""
""fullscreenenter"",""0"",""2139""
","
