"success","trial_type","trial_index","time_elapsed","internal_node_id","interactions","blur_events","focus_events","fullscreenenter_events","fullscreenexit_events","rt","stimulus","key_press","subject_id","participant_id","age","gender","prompt","response","choice_outcomes","context_n","context_img_id","trial_n","probe_img_id","pR_red","pR_white","pR_black","outcome","is_valid","image_to_show","probed_trial","probed_context","correct","probe","probed_trial_n","probed_context_n","context_im"
"true","fullscreen","0","11759","0.0-0.0","""event"",""trial"",""time""
""fullscreenenter"",""0"",""10788""
","
","
","""event"",""trial"",""time""
""fullscreenenter"",""0"",""10788""
","
","","","","","","","","","","","","","","","","","","","","","","","","","","",""
"","pavlovia","1","11764","0.0-1.0","""event"",""trial"",""time""
""fullscreenenter"",""0"",""10788""
","
","
","""event"",""trial"",""time""
""fullscreenenter"",""0"",""10788""
","
","","","","","","","","","","","","","","","","","","","","","","","","","","",""
"","welc_back","2","21601","0.0-2.0","""event"",""trial"",""time""
""fullscreenenter"",""0"",""10788""
","
","
","""event"",""trial"",""time""
""fullscreenenter"",""0"",""10788""
","
","null","run_exp/static/audio/clip_29_welcome_back.m4a","null","407","392","18","Female","<div class='center'><p>Welcome to day 2!</p><p> Yesterday, you were the head captain of a pirate ship. You asked your fellow pirates to rob other ships of their gold across six different islands.</p></div>","","","","","","","","","","","","","","","","","","",""
"","html-keyboard-response","3","22392","0.0-3.0","""event"",""trial"",""time""
""fullscreenenter"",""0"",""10788""
","
","
","""event"",""trial"",""time""
""fullscreenenter"",""0"",""10788""
","
","789.7000000029802","<div class='center'><p>Welcome to day 2!</p><p> Yesterday, you were the head captain of a pirate ship. You asked your fellow pirates to rob other ships of their gold across six different islands.</p><p><b>[Press the space bar to continue]</b></p></div>","32","","","","","","","","","","","","","","","","","","","","","","","",""
"","day_1_summary_goal","4","39604","0.0-4.0","""event"",""trial"",""time""
""fullscreenenter"",""0"",""10788""
","
","
","""event"",""trial"",""time""
""fullscreenenter"",""0"",""10788""
","
","null","run_exp/static/audio/clip_30_goal_of_game.m4a","null","","","","","<div class='center'><p>Today, like yesterday, you get to pick which pirate you want to rob the next ship.</p><p>If the pirate is successful in robbing a ship, you get gold coins that look like this: </p><p><img src='run_exp/static/images/tutorial/reward.png' height='150'></p><p> If they were not successful in robbing the ship, then you will get no gold coins and you'll see a big red x like this: </p><p><img src='run_exp/static/images/tutorial/reward_no.png' height='150'></p></div>","","","","","","","","","","","","","","","","","","",""
"","html-keyboard-response","5","40188","0.0-5.0","""event"",""trial"",""time""
""fullscreenenter"",""0"",""10788""
","
","
","""event"",""trial"",""time""
""fullscreenenter"",""0"",""10788""
","
","582.4000000059605","<div class='center'><p>Today, like yesterday, you get to pick which pirate you want to rob the next ship.</p><p>If the pirate is successful in robbing a ship, you get gold coins that look like this: </p><p><img src='run_exp/static/images/tutorial/reward.png' height='150'></p><p> If they were not successful in robbing the ship, then you will get no gold coins and you'll see a big red x like this: </p><p><img src='run_exp/static/images/tutorial/reward_no.png' height='150'></p><p><b>[Press the space bar to continue]</b></p></div>","32","","","","","","","","","","","","","","","","","","","","","","","",""
"","day_1_summary_pick","6","54879","0.0-6.0","""event"",""trial"",""time""
""fullscreenenter"",""0"",""10788""
","
","
","""event"",""trial"",""time""
""fullscreenenter"",""0"",""10788""
","
","null","run_exp/static/audio/clip_31_how_to_pick_a_pirate.m4a","null","","","","","<div class='center'><p>Also, just like yesterday, you will use the 1,2,3 keys on your keyboard to pick a pirate. Press '1' to choose red beard, '2' to choose white beard, and '3' to choose black beard . You only have 3 seconds to pick a pirate, so please make a choice quickly!</p></div>","","","","","","","","","","","","","","","","","","",""
"","html-keyboard-response","7","54963","0.0-7.0","""event"",""trial"",""time""
""fullscreenenter"",""0"",""10788""
","
","
","""event"",""trial"",""time""
""fullscreenenter"",""0"",""10788""
","
","83.5","<div class='center'><p>Also, just like yesterday, you will use the 1,2,3 keys on your keyboard to pick a pirate. Press '1' to choose red beard, '2' to choose white beard, and '3' to choose black beard . You only have 3 seconds to pick a pirate, so please make a choice quickly!</p><p><b>[Press the space bar to continue]</b></p></div>","32","","","","","","","","","","","","","","","","","","","","","","","",""
"","test_phase_begin","8","85342","0.0-8.0","""event"",""trial"",""time""
""fullscreenenter"",""0"",""10788""
","
","
","""event"",""trial"",""time""
""fullscreenenter"",""0"",""10788""
","
","null","run_exp/static/audio/clip_32_final_place.m4a","null","","","","","<div class='center'><p>You’ve arrived at the final island of your journey! Unfortunately, it’s very foggy out, so you won’t be able to see it in the distance like the other islands you've visited.</p><p>You’ll still be deciding which pirate you want to rob a ship like before. However, because of the fog, you also won’t be able to see the ship.</p><p>This means you do not have to remember the ships you rob on this island.</p><p>Unlike yesterday, you won't be visiting multiple islands today. You will stay on this island for the entire game. This game will last ~30 minutes.</p></div>","","","","","","","","","","","","","","","","","","",""
"","html-keyboard-response","9","85757","0.0-9.0","""event"",""trial"",""time""
""fullscreenenter"",""0"",""10788""
","
","
","""event"",""trial"",""time""
""fullscreenenter"",""0"",""10788""
","
","414.59999999403954","<div class='center'><p>You’ve arrived at the final island of your journey! Unfortunately, it’s very foggy out, so you won’t be able to see it in the distance like the other islands you've visited.</p><p>You’ll still be deciding which pirate you want to rob a ship like before. However, because of the fog, you also won’t be able to see the ship.</p><p>This means you do not have to remember the ships you rob on this island.</p><p>Unlike yesterday, you won't be visiting multiple islands today. You will stay on this island for the entire game. This game will last ~30 minutes.</p><p><b>[Press the space bar to continue]</b></p></div>","32","","","","","","","","","","","","","","","","","","","","","","","",""
"","explain_probe_1","10","93469","0.0-10.0","""event"",""trial"",""time""
""fullscreenenter"",""0"",""10788""
","
","
","""event"",""trial"",""time""
""fullscreenenter"",""0"",""10788""
","
","null","run_exp/static/audio/clip_33_recognition_1.m4a","null","","","","","<div class='center'><p> Sometimes you’ll be shown a ship, and you will be asked if you saw this ship on a past island.</p><p> Here is an example of what you will see.</p><p><img src='run_exp/static/images/tutorial/example_recog_trial.png' height='500'></p></div>","","","","","","","","","","","","","","","","","","",""
"","html-keyboard-response","11","99106","0.0-11.0","""event"",""trial"",""time""
""fullscreenenter"",""0"",""10788""
","
","
","""event"",""trial"",""time""
""fullscreenenter"",""0"",""10788""
","
","5635.20000000298","<div class='center'><p> Sometimes you’ll be shown a ship, and you will be asked if you saw this ship on a past island.</p><p> Here is an example of what you will see.</p><p><img src='run_exp/static/images/tutorial/example_recog_trial.png' height='500'></p><p><b>[Press the space bar to continue]</b></p></div>","32","","","","","","","","","","","","","","","","","","","","","","","",""
"","explain_probe_2","12","120818","0.0-12.0","""event"",""trial"",""time""
""fullscreenenter"",""0"",""10788""
","
","
","""event"",""trial"",""time""
""fullscreenenter"",""0"",""10788""
","
","null","run_exp/static/audio/clip_34_recognition_2.m4a","null","","","","","<div class='center'><p> You will press the 5, 6, 7, 8 keys on your keyboard to respond.</p><p>If you are sure you saw the ship, press <b>5</b> on your keyboard.</p><p> If you think you saw it before but aren't sure, then press <b>6</b>.</p><p> If you think you have <b>not</b> seen it before but aren't sure, then press <b>7</b>.</p><p> If you are sure you did <b>not</b> see the ship before, then press <b>8</b>.</p><p><img src='run_exp/static/images/tutorial/example_recog_trial.png' height='500'></p></div>","","","","","","","","","","","","","","","","","","",""
"","html-keyboard-response","13","121515","0.0-13.0","""event"",""trial"",""time""
""fullscreenenter"",""0"",""10788""
","
","
","""event"",""trial"",""time""
""fullscreenenter"",""0"",""10788""
","
","695.9000000059605","<div class='center'><p> You will press the 5, 6, 7, 8 keys on your keyboard to respond.</p><p>If you are sure you saw the ship, press <b>5</b> on your keyboard.</p><p> If you think you saw it before but aren't sure, then press <b>6</b>.</p><p> If you think you have <b>not</b> seen it before but aren't sure, then press <b>7</b>.</p><p> If you are sure you did <b>not</b> see the ship before, then press <b>8</b>.</p><p><img src='run_exp/static/images/tutorial/example_recog_trial.png' height='500'></p><p><b>[Press the space bar to continue]</b></p></div>","32","","","","","","","","","","","","","","","","","","","","","","","",""
"","explain_outcome","14","138716","0.0-14.0","""event"",""trial"",""time""
""fullscreenenter"",""0"",""10788""
","
","
","""event"",""trial"",""time""
""fullscreenenter"",""0"",""10788""
","
","null","run_exp/static/audio/clip_35_recognition_3.m4a","null","","","","","<div class='center'><p> If you remember correctly, then you’ll get a gold coin like this: </p><p><img src='run_exp/static/images/tutorial/reward_small.png' height='200'></p><p>If you do not remember correctly, then you'll see a red x like this: </p><p><img src='run_exp/static/images/tutorial/reward_no.png' height='200'></p><p>Importantly, when you are shown a ship, take the time to remind yourself which island you saw it on. This will help you in the next part of the study.</p></div>","","","","","","","","","","","","","","","","","","",""
"","html-keyboard-response","15","139259","0.0-15.0","""event"",""trial"",""time""
""fullscreenenter"",""0"",""10788""
","
","
","""event"",""trial"",""time""
""fullscreenenter"",""0"",""10788""
","
","541.7000000029802","<div class='center'><p> If you remember correctly, then you’ll get a gold coin like this: </p><p><img src='run_exp/static/images/tutorial/reward_small.png' height='200'></p><p>If you do not remember correctly, then you'll see a red x like this: </p><p><img src='run_exp/static/images/tutorial/reward_no.png' height='200'></p><p>Importantly, when you are shown a ship, take the time to remind yourself which island you saw it on. This will help you in the next part of the study.</p><p><b>[Press the space bar to continue]</b></p></div>","32","","","","","","","","","","","","","","","","","","","","","","","",""
"","begin_test_phase","16","155078","0.0-16.0","""event"",""trial"",""time""
""fullscreenenter"",""0"",""10788""
","
","
","""event"",""trial"",""time""
""fullscreenenter"",""0"",""10788""
","
","null","run_exp/static/audio/clip_36_begin_final.m4a","null","","","","","<div class='center'><p>Let's go over the important points again. Your job is to: </p><p>1. Pick the pirate who is best at robbing ships and will bring you back gold coins. </p><p>2. Correctly remember whether or not you saw a ship before. If you did see the ship before, remind yourself on which island you saw it. </p></div>","","","","","","","","","","","","","","","","","","",""
"","html-keyboard-response","17","155666","0.0-17.0","""event"",""trial"",""time""
""fullscreenenter"",""0"",""10788""
","
","
","""event"",""trial"",""time""
""fullscreenenter"",""0"",""10788""
","
","548.9000000059605","<div class='center'><p>Let's go over the important points again. Your job is to: </p><p>1. Pick the pirate who is best at robbing ships and will bring you back gold coins. </p><p>2. Correctly remember whether or not you saw a ship before. If you did see the ship before, remind yourself on which island you saw it. </p><p><b>[Press the space bar to continue]</b></p></div>","32","","","","","","","","","","","","","","","","","","","","","","","",""
"","do_welcome","18","159678","0.0-18.0","""event"",""trial"",""time""
""fullscreenenter"",""0"",""10788""
","
","
","""event"",""trial"",""time""
""fullscreenenter"",""0"",""10788""
","
","null","","","","","","","","null","","","","","","","","","","","","","","","","","",""
"","do_trial","19","163060","0.0-19.0-0.0","""event"",""trial"",""time""
""fullscreenenter"",""0"",""10788""
","
","
","""event"",""trial"",""time""
""fullscreenenter"",""0"",""10788""
","
","847","","","","","","","","49","0,0,1","6","blank","230","null","0.2819682612423926","0.2272896002433183","0.5706827480798221","0","","","","","","","","",""
"","html-keyboard-response","20","164066","0.0-19.0-1.0","""event"",""trial"",""time""
""fullscreenenter"",""0"",""10788""
","
","
","""event"",""trial"",""time""
""fullscreenenter"",""0"",""10788""
","
","null","<p></p>","null","","","","","","","","","","","","","","","","","","","","","","","",""
"","do_trial","21","167006","0.0-20.0-0.0","""event"",""trial"",""time""
""fullscreenenter"",""0"",""10788""
","
","
","""event"",""trial"",""time""
""fullscreenenter"",""0"",""10788""
","
","396.1000000089407","","","","","","","","50","0,1,1","6","blank","231","null","0.29541831856027634","0.32482401759856216","0.6492583883495915","1","","","","","","","","",""
"","html-keyboard-response","22","168008","0.0-20.0-1.0","""event"",""trial"",""time""
""fullscreenenter"",""0"",""10788""
","
","
","""event"",""trial"",""time""
""fullscreenenter"",""0"",""10788""
","
","null","<p></p>","null","","","","","","","","","","","","","","","","","","","","","","","",""
"","do_trial","23","170854","0.0-21.0-0.0","""event"",""trial"",""time""
""fullscreenenter"",""0"",""10788""
","
","
","""event"",""trial"",""time""
""fullscreenenter"",""0"",""10788""
","
","300.8999999910593","","","","","","","","50","0,0,1","6","blank","232","null","0.27964867339325317","0.13867218808030982","0.5744991429884708","0","","","","","","","","",""
"","html-keyboard-response","24","171859","0.0-21.0-1.0","""event"",""trial"",""time""
""fullscreenenter"",""0"",""10788""
","
","
","""event"",""trial"",""time""
""fullscreenenter"",""0"",""10788""
","
","null","<p></p>","null","","","","","","","","","","","","","","","","","","","","","","","",""
"","do_trial","25","174726","0.0-22.0-0.0","""event"",""trial"",""time""
""fullscreenenter"",""0"",""10788""
","
","
","""event"",""trial"",""time""
""fullscreenenter"",""0"",""10788""
","
","324.40000000596046","","","","","","","","51","0,0,1","6","blank","233","null","0.34554411702081245","0.11602114181728404","0.6540571995342696","1","","","","","","","","",""
"","html-keyboard-response","26","175731","0.0-22.0-1.0","""event"",""trial"",""time""
""fullscreenenter"",""0"",""10788""
","
","
","""event"",""trial"",""time""
""fullscreenenter"",""0"",""10788""
","
","null","<p></p>","null","","","","","","","","","","","","","","","","","","","","","","","",""
"","do_trial","27","178590","0.0-23.0-0.0","""event"",""trial"",""time""
""fullscreenenter"",""0"",""10788""
","
","
","""event"",""trial"",""time""
""fullscreenenter"",""0"",""10788""
","
","314.29999999701977","","","","","","","","51","0,0,0","6","blank","234","null","0.34593222842493726","0.11957116863855585","0.5868094338442795","0","","","","","","","","",""
"","html-keyboard-response","28","179595","0.0-23.0-1.0","""event"",""trial"",""time""
""fullscreenenter"",""0"",""10788""
","
","
","""event"",""trial"",""time""
""fullscreenenter"",""0"",""10788""
","
","null","<p></p>","null","","","","","","","","","","","","","","","","","","","","","","","",""
"","do_trial","29","182473","0.0-24.0-0.0","""event"",""trial"",""time""
""fullscreenenter"",""0"",""10788""
","
","
","""event"",""trial"",""time""
""fullscreenenter"",""0"",""10788""
","
","331.5","","","","","","","","50","0,0,0","6","blank","235","null","0.37313628202787086","0.24246533000153694","0.604026136979378","0","","","","","","","","",""
"","html-keyboard-response","30","183477","0.0-24.0-1.0","""event"",""trial"",""time""
""fullscreenenter"",""0"",""10788""
","
","
","""event"",""trial"",""time""
""fullscreenenter"",""0"",""10788""
","
","null","<p></p>","null","","","","","","","","","","","","","","","","","","","","","","","",""
"","do_trial","31","186233","0.0-25.0-0.0","""event"",""trial"",""time""
""fullscreenenter"",""0"",""10788""
","
","
","""event"",""trial"",""time""
""fullscreenenter"",""0"",""10788""
","
","213.59999999403954","","","","","","","","51","0,1,0","6","blank","236","null","0.29951860549974335","0.2750392464138573","0.5035524880970766","0","","","","","","","","",""
"","html-keyboard-response","32","187236","0.0-25.0-1.0","""event"",""trial"",""time""
""fullscreenenter"",""0"",""10788""
","
","
","""event"",""trial"",""time""
""fullscreenenter"",""0"",""10788""
","
","null","<p></p>","null","","","","","","","","","","","","","","","","","","","","","","","",""
"","do_trial","33","190039","0.0-26.0-0.0","""event"",""trial"",""time""
""fullscreenenter"",""0"",""10788""
","
","
","""event"",""trial"",""time""
""fullscreenenter"",""0"",""10788""
","
","256.70000000298023","","","","","","","","49","0,1,1","6","blank","237","null","0.3665028282107171","0.14232079225370067","0.48603772630208175","0","","","","","","","","",""
"","html-keyboard-response","34","191045","0.0-26.0-1.0","""event"",""trial"",""time""
""fullscreenenter"",""0"",""10788""
","
","
","""event"",""trial"",""time""
""fullscreenenter"",""0"",""10788""
","
","null","<p></p>","null","","","","","","","","","","","","","","","","","","","","","","","",""
"","do_trial","35","193779","0.0-27.0-0.0","""event"",""trial"",""time""
""fullscreenenter"",""0"",""10788""
","
","
","""event"",""trial"",""time""
""fullscreenenter"",""0"",""10788""
","
","192.70000000298023","","","","","","","","51","1,0,1","6","blank","238","null","0.18560926597567728","0.22753117900990993","0.506361937424883","1","","","","","","","","",""
"","html-keyboard-response","36","194783","0.0-27.0-1.0","""event"",""trial"",""time""
""fullscreenenter"",""0"",""10788""
","
","
","""event"",""trial"",""time""
""fullscreenenter"",""0"",""10788""
","
","null","<p></p>","null","","","","","","","","","","","","","","","","","","","","","","","",""
"","do_trial","37","197611","0.0-28.0-0.0","""event"",""trial"",""time""
""fullscreenenter"",""0"",""10788""
","
","
","""event"",""trial"",""time""
""fullscreenenter"",""0"",""10788""
","
","286.3999999910593","","","","","","","","51","0,0,1","6","blank","239","null","0.24878551165164994","0.1381035282786238","0.5443473145638561","1","","","","","","","","",""
"","html-keyboard-response","38","198613","0.0-28.0-1.0","""event"",""trial"",""time""
""fullscreenenter"",""0"",""10788""
","
","
","""event"",""trial"",""time""
""fullscreenenter"",""0"",""10788""
","
","null","<p></p>","null","","","","","","","","","","","","","","","","","","","","","","","",""
"","do_trial","39","201470","0.0-29.0-0.0","""event"",""trial"",""time""
""fullscreenenter"",""0"",""10788""
","
","
","""event"",""trial"",""time""
""fullscreenenter"",""0"",""10788""
","
","321.70000000298023","","","","","","","","51","0,0,0","6","blank","240","null","0.23105551726192292","0.17933943354411583","0.4313537101968572","0","","","","","","","","",""
"","html-keyboard-response","40","202475","0.0-29.0-1.0","""event"",""trial"",""time""
""fullscreenenter"",""0"",""10788""
","
","
","""event"",""trial"",""time""
""fullscreenenter"",""0"",""10788""
","
","null","<p></p>","null","","","","","","","","","","","","","","","","","","","","","","","",""
"","do_trial","41","205340","0.0-30.0-0.0","""event"",""trial"",""time""
""fullscreenenter"",""0"",""10788""
","
","
","""event"",""trial"",""time""
""fullscreenenter"",""0"",""10788""
","
","329.29999999701977","","","","","","","","51","0,0,0","6","blank","241","null","0.1438072491120478","0.05916908062391009","0.3998585954118478","0","","","","","","","","",""
"","html-keyboard-response","42","206343","0.0-30.0-1.0","""event"",""trial"",""time""
""fullscreenenter"",""0"",""10788""
","
","
","""event"",""trial"",""time""
""fullscreenenter"",""0"",""10788""
","
","null","<p></p>","null","","","","","","","","","","","","","","","","","","","","","","","",""
"","do_trial","43","209366","0.0-31.0-0.0","""event"",""trial"",""time""
""fullscreenenter"",""0"",""10788""
","
","
","""event"",""trial"",""time""
""fullscreenenter"",""0"",""10788""
","
","479.29999999701977","","","","","","","","50","0,0,0","6","blank","242","null","0.11617795520638877","0.16190807125426382","0.30912531357614703","0","","","","","","","","",""
"","html-keyboard-response","44","210371","0.0-31.0-1.0","""event"",""trial"",""time""
""fullscreenenter"",""0"",""10788""
","
","
","""event"",""trial"",""time""
""fullscreenenter"",""0"",""10788""
","
","null","<p></p>","null","","","","","","","","","","","","","","","","","","","","","","","",""
"","do_trial","45","213251","0.0-32.0-0.0","""event"",""trial"",""time""
""fullscreenenter"",""0"",""10788""
","
","
","""event"",""trial"",""time""
""fullscreenenter"",""0"",""10788""
","
","330.29999999701977","","","","","","","","51","0,0,0","6","blank","243","null","0.1514685482589828","0.3203583276273627","0.14102474403746013","0","","","","","","","","",""
"","html-keyboard-response","46","214256","0.0-32.0-1.0","""event"",""trial"",""time""
""fullscreenenter"",""0"",""10788""
","
","
","""event"",""trial"",""time""
""fullscreenenter"",""0"",""10788""
","
","null","<p></p>","null","","","","","","","","","","","","","","","","","","","","","","","",""
"","do_trial","47","217245","0.0-33.0-0.0","""event"",""trial"",""time""
""fullscreenenter"",""0"",""10788""
","
","
","""event"",""trial"",""time""
""fullscreenenter"",""0"",""10788""
","
","445","","","","","","","","51","0,0,0","6","blank","244","null","0.12854626354949378","0.5363880207159224","0.11928038136241574","0","","","","","","","","",""
"","html-keyboard-response","48","218248","0.0-33.0-1.0","""event"",""trial"",""time""
""fullscreenenter"",""0"",""10788""
","
","
","""event"",""trial"",""time""
""fullscreenenter"",""0"",""10788""
","
","null","<p></p>","null","","","","","","","","","","","","","","","","","","","","","","","",""
"","do_trial","49","221285","0.0-34.0-0.0","""event"",""trial"",""time""
""fullscreenenter"",""0"",""10788""
","
","
","""event"",""trial"",""time""
""fullscreenenter"",""0"",""10788""
","
","493.1000000089407","","","","","","","","51","0,1,1","6","blank","245","null","0.15831220373122762","0.5817773667442281","0.24753262117231706","1","","","","","","","","",""
"","html-keyboard-response","50","222288","0.0-34.0-1.0","""event"",""trial"",""time""
""fullscreenenter"",""0"",""10788""
","
","
","""event"",""trial"",""time""
""fullscreenenter"",""0"",""10788""
","
","null","<p></p>","null","","","","","","","","","","","","","","","","","","","","","","","",""
"","do_recog","51","228298","0.0-35.0-0.0","""event"",""trial"",""time""
""fullscreenenter"",""0"",""10788""
","
","
","""event"",""trial"",""time""
""fullscreenenter"",""0"",""10788""
","
","null","","","","","","","","null","","","","246","probe-77","","","","","1","[object Object]","75","1","0","","","",""
"","html-keyboard-response","52","229303","0.0-35.0-1.0","""event"",""trial"",""time""
""fullscreenenter"",""0"",""10788""
","
","
","""event"",""trial"",""time""
""fullscreenenter"",""0"",""10788""
","
","null","<p></p>","null","","","","","","","","","","","","","","","","","","","","","","","",""
"","do_trial","53","232621","0.0-36.0-0.0","""event"",""trial"",""time""
""fullscreenenter"",""0"",""10788""
","
","
","""event"",""trial"",""time""
""fullscreenenter"",""0"",""10788""
","
","775.5","","","","","","","","51","0,1,0","6","blank","247","null","0.10496776317503112","0.6587108417095198","0.40321893879918996","0","","","","","","","","",""
"","html-keyboard-response","54","233628","0.0-36.0-1.0","""event"",""trial"",""time""
""fullscreenenter"",""0"",""10788""
","
","
","""event"",""trial"",""time""
""fullscreenenter"",""0"",""10788""
","
","null","<p></p>","null","","","","","","","","","","","","","","","","","","","","","","","",""
"","do_trial","55","236450","0.0-37.0-0.0","""event"",""trial"",""time""
""fullscreenenter"",""0"",""10788""
","
","
","""event"",""trial"",""time""
""fullscreenenter"",""0"",""10788""
","
","276.80000001192093","","","","","","","","50","0,1,0","6","blank","248","null","0.2800787765147111","0.6138719214089344","0.42458231358793685","1","","","","","","","","",""
"","html-keyboard-response","56","237455","0.0-37.0-1.0","""event"",""trial"",""time""
""fullscreenenter"",""0"",""10788""
","
","
","""event"",""trial"",""time""
""fullscreenenter"",""0"",""10788""
","
","null","<p></p>","null","","","","","","","","","","","","","","","","","","","","","","","",""
"","do_recog","57","240392","0.0-38.0-0.0","""event"",""trial"",""time""
""fullscreenenter"",""0"",""10788""
","
","
","""event"",""trial"",""time""
""fullscreenenter"",""0"",""10788""
","
","1427.699999988079","","","","","","","","56","","","","249","probe-235","","","","","0","[object Object]","null","null","1","","","",""
"","html-keyboard-response","58","241397","0.0-38.0-1.0","""event"",""trial"",""time""
""fullscreenenter"",""0"",""10788""
","
","
","""event"",""trial"",""time""
""fullscreenenter"",""0"",""10788""
","
","null","<p></p>","null","","","","","","","","","","","","","","","","","","","","","","","",""
"","do_trial","59","244401","0.0-39.0-0.0","""event"",""trial"",""time""
""fullscreenenter"",""0"",""10788""
","
","
","""event"",""trial"",""time""
""fullscreenenter"",""0"",""10788""
","
","462.29999999701977","","","","","","","","51","0,0,1","6","blank","250","null","0.22409711968294643","0.5860866291016634","0.35049234727150497","1","","","","","","","","",""
"","html-keyboard-response","60","245408","0.0-39.0-1.0","""event"",""trial"",""time""
""fullscreenenter"",""0"",""10788""
","
","
","""event"",""trial"",""time""
""fullscreenenter"",""0"",""10788""
","
","null","<p></p>","null","","","","","","","","","","","","","","","","","","","","","","","",""
"","do_trial","61","248205","0.0-40.0-0.0","""event"",""trial"",""time""
""fullscreenenter"",""0"",""10788""
","
","
","""event"",""trial"",""time""
""fullscreenenter"",""0"",""10788""
","
","254.5","","","","","","","","51","0,0,0","6","blank","251","null","0.056965844517343704","0.5697287253911036","0.4012157088762658","0","","","","","","","","",""
"","html-keyboard-response","62","249208","0.0-40.0-1.0","""event"",""trial"",""time""
""fullscreenenter"",""0"",""10788""
","
","
","""event"",""trial"",""time""
""fullscreenenter"",""0"",""10788""
","
","null","<p></p>","null","","","","","","","","","","","","","","","","","","","","","","","",""
"","do_trial","63","252077","0.0-41.0-0.0","""event"",""trial"",""time""
""fullscreenenter"",""0"",""10788""
","
","
","""event"",""trial"",""time""
""fullscreenenter"",""0"",""10788""
","
","324","","","","","","","","50","0,0,0","6","blank","252","null","0.10698192318934852","0.548433410732059","0.36838253282727634","0","","","","","","","","",""
"","html-keyboard-response","64","253082","0.0-41.0-1.0","""event"",""trial"",""time""
""fullscreenenter"",""0"",""10788""
","
","
","""event"",""trial"",""time""
""fullscreenenter"",""0"",""10788""
","
","null","<p></p>","null","","","","","","","","","","","","","","","","","","","","","","","",""
"","do_trial","65","256064","0.0-42.0-0.0","""event"",""trial"",""time""
""fullscreenenter"",""0"",""10788""
","
","
","""event"",""trial"",""time""
""fullscreenenter"",""0"",""10788""
","
","439","","","","","","","","51","0,1,0","6","blank","253","null","0.05900166796148762","0.5045835499927496","0.2215378948602592","0","","","","","","","","",""
"","html-keyboard-response","66","257071","0.0-42.0-1.0","""event"",""trial"",""time""
""fullscreenenter"",""0"",""10788""
","
","
","""event"",""trial"",""time""
""fullscreenenter"",""0"",""10788""
","
","null","<p></p>","null","","","","","","","","","","","","","","","","","","","","","","","",""
"","do_trial","67","259888","0.0-43.0-0.0","""event"",""trial"",""time""
""fullscreenenter"",""0"",""10788""
","
","
","""event"",""trial"",""time""
""fullscreenenter"",""0"",""10788""
","
","274.90000000596046","","","","","","","","50","0,0,0","6","blank","254","null","0.06377393185298683","0.39908662916819626","0.11428716075299819","0","","","","","","","","",""
"","html-keyboard-response","68","260893","0.0-43.0-1.0","""event"",""trial"",""time""
""fullscreenenter"",""0"",""10788""
","
","
","""event"",""trial"",""time""
""fullscreenenter"",""0"",""10788""
","
","null","<p></p>","null","","","","","","","","","","","","","","","","","","","","","","","",""
"","do_trial","69","263788","0.0-44.0-0.0","""event"",""trial"",""time""
""fullscreenenter"",""0"",""10788""
","
","
","""event"",""trial"",""time""
""fullscreenenter"",""0"",""10788""
","
","349","","","","","","","","50","0,1,0","6","blank","255","null","0.0712736679728535","0.5636123201014124","0.13006186214465917","1","","","","","","","","",""
"","html-keyboard-response","70","264793","0.0-44.0-1.0","""event"",""trial"",""time""
""fullscreenenter"",""0"",""10788""
","
","
","""event"",""trial"",""time""
""fullscreenenter"",""0"",""10788""
","
","null","<p></p>","null","","","","","","","","","","","","","","","","","","","","","","","",""
"","do_recog","71","269025","0.0-45.0-0.0","""event"",""trial"",""time""
""fullscreenenter"",""0"",""10788""
","
","
","""event"",""trial"",""time""
""fullscreenenter"",""0"",""10788""
","
","2725.4000000059605","","","","","","","","53","","","","256","probe-109","","","","","1","[object Object]","38","0","1","","","",""
"","html-keyboard-response","72","270026","0.0-45.0-1.0","""event"",""trial"",""time""
""fullscreenenter"",""0"",""10788""
","
","
","""event"",""trial"",""time""
""fullscreenenter"",""0"",""10788""
","
","null","<p></p>","null","","","","","","","","","","","","","","","","","","","","","","","",""
"","do_trial","73","273614","0.0-46.0-0.0","""event"",""trial"",""time""
""fullscreenenter"",""0"",""10788""
","
","
","""event"",""trial"",""time""
""fullscreenenter"",""0"",""10788""
","
","1046.7000000029802","","","","","","","","51","0,0,0","6","blank","257","null","0.16163756948758218","0.5690199480299493","0.19577004307200768","0","","","","","","","","",""
"","html-keyboard-response","74","274619","0.0-46.0-1.0","""event"",""trial"",""time""
""fullscreenenter"",""0"",""10788""
","
","
","""event"",""trial"",""time""
""fullscreenenter"",""0"",""10788""
","
","null","<p></p>","null","","","","","","","","","","","","","","","","","","","","","","","",""
"","do_trial","75","277497","0.0-47.0-0.0","""event"",""trial"",""time""
""fullscreenenter"",""0"",""10788""
","
","
","""event"",""trial"",""time""
""fullscreenenter"",""0"",""10788""
","
","338.09999999403954","","","","","","","","50","0,1,0","6","blank","258","null","0.05597927404800892","0.6609305543913722","0.3002848748617171","1","","","","","","","","",""
"","html-keyboard-response","76","278502","0.0-47.0-1.0","""event"",""trial"",""time""
""fullscreenenter"",""0"",""10788""
","
","
","""event"",""trial"",""time""
""fullscreenenter"",""0"",""10788""
","
","null","<p></p>","null","","","","","","","","","","","","","","","","","","","","","","","",""
"","do_trial","77","281297","0.0-48.0-0.0","""event"",""trial"",""time""
""fullscreenenter"",""0"",""10788""
","
","
","""event"",""trial"",""time""
""fullscreenenter"",""0"",""10788""
","
","258","","","","","","","","50","1,0,0","6","blank","259","null","0.05372782071186201","0.5331038643419092","0.2868797136681444","0","","","","","","","","",""
"","html-keyboard-response","78","282303","0.0-48.0-1.0","""event"",""trial"",""time""
""fullscreenenter"",""0"",""10788""
","
","
","""event"",""trial"",""time""
""fullscreenenter"",""0"",""10788""
","
","null","<p></p>","null","","","","","","","","","","","","","","","","","","","","","","","",""
"","do_trial","79","285122","0.0-49.0-0.0","""event"",""trial"",""time""
""fullscreenenter"",""0"",""10788""
","
","
","""event"",""trial"",""time""
""fullscreenenter"",""0"",""10788""
","
","275.70000000298023","","","","","","","","50","0,0,0","6","blank","260","null","0.06686677261081647","0.5421174287358783","0.12798783869484712","0","","","","","","","","",""
"","html-keyboard-response","80","286127","0.0-49.0-1.0","""event"",""trial"",""time""
""fullscreenenter"",""0"",""10788""
","
","
","""event"",""trial"",""time""
""fullscreenenter"",""0"",""10788""
","
","null","<p></p>","null","","","","","","","","","","","","","","","","","","","","","","","",""
"","do_recog","81","289863","0.0-50.0-0.0","""event"",""trial"",""time""
""fullscreenenter"",""0"",""10788""
","
","
","""event"",""trial"",""time""
""fullscreenenter"",""0"",""10788""
","
","2226.9000000059605","","","","","","","","56","","","","261","probe-187","","","","","1","[object Object]","76","1","0","","","",""
"","html-keyboard-response","82","290868","0.0-50.0-1.0","""event"",""trial"",""time""
""fullscreenenter"",""0"",""10788""
","
","
","""event"",""trial"",""time""
""fullscreenenter"",""0"",""10788""
","
","null","<p></p>","null","","","","","","","","","","","","","","","","","","","","","","","",""
"","do_trial","83","293913","0.0-51.0-0.0","""event"",""trial"",""time""
""fullscreenenter"",""0"",""10788""
","
","
","""event"",""trial"",""time""
""fullscreenenter"",""0"",""10788""
","
","503.1000000089407","","","","","","","","51","0,0,0","6","blank","262","null","0.09307651675437739","0.5979850287212427","0.28046630871907896","0","","","","","","","","",""
"","html-keyboard-response","84","294918","0.0-51.0-1.0","""event"",""trial"",""time""
""fullscreenenter"",""0"",""10788""
","
","
","""event"",""trial"",""time""
""fullscreenenter"",""0"",""10788""
","
","null","<p></p>","null","","","","","","","","","","","","","","","","","","","","","","","",""
"","do_recog","85","298024","0.0-52.0-0.0","""event"",""trial"",""time""
""fullscreenenter"",""0"",""10788""
","
","
","""event"",""trial"",""time""
""fullscreenenter"",""0"",""10788""
","
","1596.199999988079","","","","","","","","56","","","","263","probe-48","","","","","1","[object Object]","110","2","0","","","",""
"","html-keyboard-response","86","299029","0.0-52.0-1.0","""event"",""trial"",""time""
""fullscreenenter"",""0"",""10788""
","
","
","""event"",""trial"",""time""
""fullscreenenter"",""0"",""10788""
","
","null","<p></p>","null","","","","","","","","","","","","","","","","","","","","","","","",""
"","do_trial","87","302701","0.0-53.0-0.0","""event"",""trial"",""time""
""fullscreenenter"",""0"",""10788""
","
","
","""event"",""trial"",""time""
""fullscreenenter"",""0"",""10788""
","
","1136.7000000029802","","","","","","","","51","0,1,0","6","blank","264","null","0.050248710970784115","0.6984621060753964","0.15598441940546148","0","","","","","","","","",""
"","html-keyboard-response","88","303706","0.0-53.0-1.0","""event"",""trial"",""time""
""fullscreenenter"",""0"",""10788""
","
","
","""event"",""trial"",""time""
""fullscreenenter"",""0"",""10788""
","
","null","<p></p>","null","","","","","","","","","","","","","","","","","","","","","","","",""
"","do_trial","89","306529","0.0-54.0-0.0","""event"",""trial"",""time""
""fullscreenenter"",""0"",""10788""
","
","
","""event"",""trial"",""time""
""fullscreenenter"",""0"",""10788""
","
","281.8999999910593","","","","","","","","50","0,1,0","6","blank","265","null","0.07747639354910324","0.581192075333116","0.34624667443657414","1","","","","","","","","",""
"","html-keyboard-response","90","307531","0.0-54.0-1.0","""event"",""trial"",""time""
""fullscreenenter"",""0"",""10788""
","
","
","""event"",""trial"",""time""
""fullscreenenter"",""0"",""10788""
","
","null","<p></p>","null","","","","","","","","","","","","","","","","","","","","","","","",""
"","do_trial","91","310410","0.0-55.0-0.0","""event"",""trial"",""time""
""fullscreenenter"",""0"",""10788""
","
","
","""event"",""trial"",""time""
""fullscreenenter"",""0"",""10788""
","
","334.70000000298023","","","","","","","","50","0,1,0","6","blank","266","null","0.10708771215522125","0.5992790322215138","0.38971859930614644","1","","","","","","","","",""
"","html-keyboard-response","92","311416","0.0-55.0-1.0","""event"",""trial"",""time""
""fullscreenenter"",""0"",""10788""
","
","
","""event"",""trial"",""time""
""fullscreenenter"",""0"",""10788""
","
","null","<p></p>","null","","","","","","","","","","","","","","","","","","","","","","","",""
"","do_trial","93","314293","0.0-56.0-0.0","""event"",""trial"",""time""
""fullscreenenter"",""0"",""10788""
","
","
","""event"",""trial"",""time""
""fullscreenenter"",""0"",""10788""
","
","336.40000000596046","","","","","","","","50","1,1,1","6","blank","267","null","0.12139380246151975","0.49514612670111663","0.29528031147061695","1","","","","","","","","",""
"","html-keyboard-response","94","315296","0.0-56.0-1.0","""event"",""trial"",""time""
""fullscreenenter"",""0"",""10788""
","
","
","""event"",""trial"",""time""
""fullscreenenter"",""0"",""10788""
","
","null","<p></p>","null","","","","","","","","","","","","","","","","","","","","","","","",""
"","do_trial","95","318156","0.0-57.0-0.0","""event"",""trial"",""time""
""fullscreenenter"",""0"",""10788""
","
","
","""event"",""trial"",""time""
""fullscreenenter"",""0"",""10788""
","
","317.20000000298023","","","","","","","","50","0,1,0","6","blank","268","null","0.16442232062783227","0.5368663542002993","0.39667624006083174","1","","","","","","","","",""
"","html-keyboard-response","96","319159","0.0-57.0-1.0","""event"",""trial"",""time""
""fullscreenenter"",""0"",""10788""
","
","
","""event"",""trial"",""time""
""fullscreenenter"",""0"",""10788""
","
","null","<p></p>","null","","","","","","","","","","","","","","","","","","","","","","","",""
"","break","97","321589","0.0-58.0-0.0","""event"",""trial"",""time""
""fullscreenenter"",""0"",""10788""
","
","
","""event"",""trial"",""time""
""fullscreenenter"",""0"",""10788""
","
","2428.5999999940395","<div class='center'><p>Time to take a quick break! You have 2 minutes to rest, but you can move on sooner if you'd like.</p><p> Press the <b>space bar</b> to continue.</p></div>","32","","","","","","","","","","","","","","","","","","","","","","","",""
"","do_trial","98","325272","0.0-58.0-1.0","""event"",""trial"",""time""
""fullscreenenter"",""0"",""10788""
","
","
","""event"",""trial"",""time""
""fullscreenenter"",""0"",""10788""
","
","1137.4000000059605","","","","","","","","50","0,1,0","6","blank","269","null","0.31670777851445586","0.5513051522090787","0.16572977863199176","1","","","","","","","","",""
"","html-keyboard-response","99","326278","0.0-58.0-2.0","""event"",""trial"",""time""
""fullscreenenter"",""0"",""10788""
","
","
","""event"",""trial"",""time""
""fullscreenenter"",""0"",""10788""
","
","null","<p></p>","null","","","","","","","","","","","","","","","","","","","","","","","",""
"","do_recog","100","329428","0.0-59.0-0.0","""event"",""trial"",""time""
""fullscreenenter"",""0"",""10788""
","
","
","""event"",""trial"",""time""
""fullscreenenter"",""0"",""10788""
","
","1643","","","","","","","","56","","","","270","probe-12","","","","","1","[object Object]","194","4","0","","","",""
"","html-keyboard-response","101","330431","0.0-59.0-1.0","""event"",""trial"",""time""
""fullscreenenter"",""0"",""10788""
","
","
","""event"",""trial"",""time""
""fullscreenenter"",""0"",""10788""
","
","null","<p></p>","null","","","","","","","","","","","","","","","","","","","","","","","",""
"","do_trial","102","333423","0.0-60.0-0.0","""event"",""trial"",""time""
""fullscreenenter"",""0"",""10788""
","
","
","""event"",""trial"",""time""
""fullscreenenter"",""0"",""10788""
","
","446","","","","","","","","50","0,1,0","6","blank","271","null","0.18906615581663938","0.7377918552128842","0.12200779015983582","1","","","","","","","","",""
"","html-keyboard-response","103","334428","0.0-60.0-1.0","""event"",""trial"",""time""
""fullscreenenter"",""0"",""10788""
","
","
","""event"",""trial"",""time""
""fullscreenenter"",""0"",""10788""
","
","null","<p></p>","null","","","","","","","","","","","","","","","","","","","","","","","",""
"","do_recog","104","337629","0.0-61.0-0.0","""event"",""trial"",""time""
""fullscreenenter"",""0"",""10788""
","
","
","""event"",""trial"",""time""
""fullscreenenter"",""0"",""10788""
","
","1693.8999999910593","","","","","","","","56","","","","272","probe-21","","","","","1","[object Object]","190","4","0","","","",""
"","html-keyboard-response","105","338635","0.0-61.0-1.0","""event"",""trial"",""time""
""fullscreenenter"",""0"",""10788""
","
","
","""event"",""trial"",""time""
""fullscreenenter"",""0"",""10788""
","
","null","<p></p>","null","","","","","","","","","","","","","","","","","","","","","","","",""
"","do_trial","106","341990","0.0-62.0-0.0","""event"",""trial"",""time""
""fullscreenenter"",""0"",""10788""
","
","
","""event"",""trial"",""time""
""fullscreenenter"",""0"",""10788""
","
","811.5","","","","","","","","50","0,1,0","6","blank","273","null","0.19417832807292645","0.6285547950627575","0.24875407148552636","1","","","","","","","","",""
"","html-keyboard-response","107","342994","0.0-62.0-1.0","""event"",""trial"",""time""
""fullscreenenter"",""0"",""10788""
","
","
","""event"",""trial"",""time""
""fullscreenenter"",""0"",""10788""
","
","null","<p></p>","null","","","","","","","","","","","","","","","","","","","","","","","",""
"","do_trial","108","345901","0.0-63.0-0.0","""event"",""trial"",""time""
""fullscreenenter"",""0"",""10788""
","
","
","""event"",""trial"",""time""
""fullscreenenter"",""0"",""10788""
","
","363.5","","","","","","","","50","0,0,0","6","blank","274","null","0.1769816288852191","0.4941019233191207","0.2503177135175462","0","","","","","","","","",""
"","html-keyboard-response","109","346906","0.0-63.0-1.0","""event"",""trial"",""time""
""fullscreenenter"",""0"",""10788""
","
","
","""event"",""trial"",""time""
""fullscreenenter"",""0"",""10788""
","
","null","<p></p>","null","","","","","","","","","","","","","","","","","","","","","","","",""
"","do_trial","110","349773","0.0-64.0-0.0","""event"",""trial"",""time""
""fullscreenenter"",""0"",""10788""
","
","
","""event"",""trial"",""time""
""fullscreenenter"",""0"",""10788""
","
","322.80000001192093","","","","","","","","50","0,1,0","6","blank","275","null","0.16294977127798346","0.5382723522790227","0.27263369553998607","1","","","","","","","","",""
"","html-keyboard-response","111","350778","0.0-64.0-1.0","""event"",""trial"",""time""
""fullscreenenter"",""0"",""10788""
","
","
","""event"",""trial"",""time""
""fullscreenenter"",""0"",""10788""
","
","null","<p></p>","null","","","","","","","","","","","","","","","","","","","","","","","",""
"","do_trial","112","353660","0.0-65.0-0.0","""event"",""trial"",""time""
""fullscreenenter"",""0"",""10788""
","
","
","""event"",""trial"",""time""
""fullscreenenter"",""0"",""10788""
","
","338.20000000298023","","","","","","","","50","0,0,0","6","blank","276","null","0.17836574656489657","0.5531553738447997","0.22160731324600133","0","","","","","","","","",""
"","html-keyboard-response","113","354665","0.0-65.0-1.0","""event"",""trial"",""time""
""fullscreenenter"",""0"",""10788""
","
","
","""event"",""trial"",""time""
""fullscreenenter"",""0"",""10788""
","
","null","<p></p>","null","","","","","","","","","","","","","","","","","","","","","","","",""
"","do_trial","114","357211","0.0-66.0-0.0","""event"",""trial"",""time""
""fullscreenenter"",""0"",""10788""
","
","
","""event"",""trial"",""time""
""fullscreenenter"",""0"",""10788""
","
","0.10000000894069672","","","","","","","","50","0,1,1","6","blank","277","null","0.21645080431649955","0.5538263580605413","0.3400809802273427","1","","","","","","","","",""
"","html-keyboard-response","115","358216","0.0-66.0-1.0","""event"",""trial"",""time""
""fullscreenenter"",""0"",""10788""
","
","
","""event"",""trial"",""time""
""fullscreenenter"",""0"",""10788""
","
","null","<p></p>","null","","","","","","","","","","","","","","","","","","","","","","","",""
"","do_trial","116","361077","0.0-67.0-0.0","""event"",""trial"",""time""
""fullscreenenter"",""0"",""10788""
","
","
","""event"",""trial"",""time""
""fullscreenenter"",""0"",""10788""
","
","315.70000000298023","","","","","","","","50","0,0,0","6","blank","278","null","0.22401382873247466","0.6565959637837019","0.2560993851706346","0","","","","","","","","",""
"","html-keyboard-response","117","362081","0.0-67.0-1.0","""event"",""trial"",""time""
""fullscreenenter"",""0"",""10788""
","
","
","""event"",""trial"",""time""
""fullscreenenter"",""0"",""10788""
","
","null","<p></p>","null","","","","","","","","","","","","","","","","","","","","","","","",""
"","do_recog","118","365411","0.0-68.0-0.0","""event"",""trial"",""time""
""fullscreenenter"",""0"",""10788""
","
","
","""event"",""trial"",""time""
""fullscreenenter"",""0"",""10788""
","
","1820.5","","","","","","","","54","","","","279","probe-37","","","","","1","[object Object]","111","2","1","","","",""
"","html-keyboard-response","119","366416","0.0-68.0-1.0","""event"",""trial"",""time""
""fullscreenenter"",""0"",""10788""
","
","
","""event"",""trial"",""time""
""fullscreenenter"",""0"",""10788""
","
","null","<p></p>","null","","","","","","","","","","","","","","","","","","","","","","","",""
"","do_trial","120","371362","0.0-69.0-0.0","""event"",""trial"",""time""
""fullscreenenter"",""0"",""10788""
","
","
","""event"",""trial"",""time""
""fullscreenenter"",""0"",""10788""
","
","2410","","","","","","","","50","0,1,0","6","blank","280","null","0.12800599986988406","0.6544297385675166","0.44275168657379865","1","","","","","","","","",""
"","html-keyboard-response","121","372364","0.0-69.0-1.0","""event"",""trial"",""time""
""fullscreenenter"",""0"",""10788""
","
","
","""event"",""trial"",""time""
""fullscreenenter"",""0"",""10788""
","
","null","<p></p>","null","","","","","","","","","","","","","","","","","","","","","","","",""
"","do_trial","122","375244","0.0-70.0-0.0","""event"",""trial"",""time""
""fullscreenenter"",""0"",""10788""
","
","
","""event"",""trial"",""time""
""fullscreenenter"",""0"",""10788""
","
","334","","","","","","","","50","1,0,0","6","blank","281","null","0.30821064998053227","0.5789129893572177","0.3706467471857747","0","","","","","","","","",""
"","html-keyboard-response","123","376250","0.0-70.0-1.0","""event"",""trial"",""time""
""fullscreenenter"",""0"",""10788""
","
","
","""event"",""trial"",""time""
""fullscreenenter"",""0"",""10788""
","
","null","<p></p>","null","","","","","","","","","","","","","","","","","","","","","","","",""
"","do_trial","124","379167","0.0-71.0-0.0","""event"",""trial"",""time""
""fullscreenenter"",""0"",""10788""
","
","
","""event"",""trial"",""time""
""fullscreenenter"",""0"",""10788""
","
","375.5","","","","","","","","50","0,0,1","6","blank","282","null","0.24689325929357375","0.5812279310262161","0.40863923717325856","0","","","","","","","","",""
"","html-keyboard-response","125","380172","0.0-71.0-1.0","""event"",""trial"",""time""
""fullscreenenter"",""0"",""10788""
","
","
","""event"",""trial"",""time""
""fullscreenenter"",""0"",""10788""
","
","null","<p></p>","null","","","","","","","","","","","","","","","","","","","","","","","",""
"","do_trial","126","383174","0.0-72.0-0.0","""event"",""trial"",""time""
""fullscreenenter"",""0"",""10788""
","
","
","""event"",""trial"",""time""
""fullscreenenter"",""0"",""10788""
","
","461.5","","","","","","","","51","1,0,0","6","blank","283","null","0.2606912336798279","0.4970977265059495","0.3083348667425629","0","","","","","","","","",""
"","html-keyboard-response","127","384178","0.0-72.0-1.0","""event"",""trial"",""time""
""fullscreenenter"",""0"",""10788""
","
","
","""event"",""trial"",""time""
""fullscreenenter"",""0"",""10788""
","
","null","<p></p>","null","","","","","","","","","","","","","","","","","","","","","","","",""
"","do_trial","128","387173","0.0-73.0-0.0","""event"",""trial"",""time""
""fullscreenenter"",""0"",""10788""
","
","
","""event"",""trial"",""time""
""fullscreenenter"",""0"",""10788""
","
","450.09999999403954","","","","","","","","50","0,1,1","6","blank","284","null","0.18843591143307195","0.643661265659333","0.3619753485264697","1","","","","","","","","",""
"","html-keyboard-response","129","388177","0.0-73.0-1.0","""event"",""trial"",""time""
""fullscreenenter"",""0"",""10788""
","
","
","""event"",""trial"",""time""
""fullscreenenter"",""0"",""10788""
","
","null","<p></p>","null","","","","","","","","","","","","","","","","","","","","","","","",""
"","do_trial","130","391115","0.0-74.0-0.0","""event"",""trial"",""time""
""fullscreenenter"",""0"",""10788""
","
","
","""event"",""trial"",""time""
""fullscreenenter"",""0"",""10788""
","
","403.70000000298023","","","","","","","","50","0,0,0","6","blank","285","null","0.11943918242432075","0.6803031789357514","0.3175041228594778","0","","","","","","","","",""
"","html-keyboard-response","131","392119","0.0-74.0-1.0","""event"",""trial"",""time""
""fullscreenenter"",""0"",""10788""
","
","
","""event"",""trial"",""time""
""fullscreenenter"",""0"",""10788""
","
","null","<p></p>","null","","","","","","","","","","","","","","","","","","","","","","","",""
"","do_recog","132","395060","0.0-75.0-0.0","""event"",""trial"",""time""
""fullscreenenter"",""0"",""10788""
","
","
","""event"",""trial"",""time""
""fullscreenenter"",""0"",""10788""
","
","1430.0999999940395","","","","","","","","55","","","","286","probe-201","","","","","1","[object Object]","151","3","0","","","",""
"","html-keyboard-response","133","396067","0.0-75.0-1.0","""event"",""trial"",""time""
""fullscreenenter"",""0"",""10788""
","
","
","""event"",""trial"",""time""
""fullscreenenter"",""0"",""10788""
","
","null","<p></p>","null","","","","","","","","","","","","","","","","","","","","","","","",""
"","do_trial","134","400545","0.0-76.0-0.0","""event"",""trial"",""time""
""fullscreenenter"",""0"",""10788""
","
","
","""event"",""trial"",""time""
""fullscreenenter"",""0"",""10788""
","
","1935","","","","","","","","50","0,1,0","6","blank","287","null","0.14252535632065294","0.6419944349600044","0.16556846742865047","1","","","","","","","","",""
"","html-keyboard-response","135","401550","0.0-76.0-1.0","""event"",""trial"",""time""
""fullscreenenter"",""0"",""10788""
","
","
","""event"",""trial"",""time""
""fullscreenenter"",""0"",""10788""
","
","null","<p></p>","null","","","","","","","","","","","","","","","","","","","","","","","",""
"","do_trial","136","404902","0.0-77.0-0.0","""event"",""trial"",""time""
""fullscreenenter"",""0"",""10788""
","
","
","""event"",""trial"",""time""
""fullscreenenter"",""0"",""10788""
","
","806.2999999970198","","","","","","","","50","0,1,0","6","blank","288","null","0.06082271199899689","0.6609299232839633","0.3410238256087033","1","","","","","","","","",""
"","html-keyboard-response","137","405907","0.0-77.0-1.0","""event"",""trial"",""time""
""fullscreenenter"",""0"",""10788""
","
","
","""event"",""trial"",""time""
""fullscreenenter"",""0"",""10788""
","
","null","<p></p>","null","","","","","","","","","","","","","","","","","","","","","","","",""
"","do_trial","138","408871","0.0-78.0-0.0","""event"",""trial"",""time""
""fullscreenenter"",""0"",""10788""
","
","
","""event"",""trial"",""time""
""fullscreenenter"",""0"",""10788""
","
","419.79999999701977","","","","","","","","50","0,1,1","6","blank","289","null","0.07558582052003714","0.648700693289692","0.21695345495390472","1","","","","","","","","",""
"","html-keyboard-response","139","409876","0.0-78.0-1.0","""event"",""trial"",""time""
""fullscreenenter"",""0"",""10788""
","
","
","""event"",""trial"",""time""
""fullscreenenter"",""0"",""10788""
","
","null","<p></p>","null","","","","","","","","","","","","","","","","","","","","","","","",""
"","do_trial","140","412737","0.0-79.0-0.0","""event"",""trial"",""time""
""fullscreenenter"",""0"",""10788""
","
","
","""event"",""trial"",""time""
""fullscreenenter"",""0"",""10788""
","
","317.69999998807907","","","","","","","","50","0,1,1","6","blank","290","null","0.05157140099332067","0.5461581579754143","0.2790206232782294","1","","","","","","","","",""
"","html-keyboard-response","141","413741","0.0-79.0-1.0","""event"",""trial"",""time""
""fullscreenenter"",""0"",""10788""
","
","
","""event"",""trial"",""time""
""fullscreenenter"",""0"",""10788""
","
","null","<p></p>","null","","","","","","","","","","","","","","","","","","","","","","","",""
"","do_recog","142","417108","0.0-80.0-0.0","""event"",""trial"",""time""
""fullscreenenter"",""0"",""10788""
","
","
","""event"",""trial"",""time""
""fullscreenenter"",""0"",""10788""
","
","1854.199999988079","","","","","","","","55","","","","291","probe-55","","","","","1","[object Object]","154","3","0","","","",""
"","html-keyboard-response","143","418115","0.0-80.0-1.0","""event"",""trial"",""time""
""fullscreenenter"",""0"",""10788""
","
","
","""event"",""trial"",""time""
""fullscreenenter"",""0"",""10788""
","
","null","<p></p>","null","","","","","","","","","","","","","","","","","","","","","","","",""
"","do_trial","144","421166","0.0-81.0-0.0","""event"",""trial"",""time""
""fullscreenenter"",""0"",""10788""
","
","
","""event"",""trial"",""time""
""fullscreenenter"",""0"",""10788""
","
","505.90000000596046","","","","","","","","50","0,1,0","6","blank","292","null","0.25856168272778585","0.4252508871979352","0.18173474071403067","1","","","","","","","","",""
"","html-keyboard-response","145","422171","0.0-81.0-1.0","""event"",""trial"",""time""
""fullscreenenter"",""0"",""10788""
","
","
","""event"",""trial"",""time""
""fullscreenenter"",""0"",""10788""
","
","null","<p></p>","null","","","","","","","","","","","","","","","","","","","","","","","",""
"","do_recog","146","425489","0.0-82.0-0.0","""event"",""trial"",""time""
""fullscreenenter"",""0"",""10788""
","
","
","""event"",""trial"",""time""
""fullscreenenter"",""0"",""10788""
","
","1805.5999999940395","","","","","","","","53","","","","293","probe-225","","","","","1","[object Object]","112","2","1","","","",""
"","html-keyboard-response","147","426494","0.0-82.0-1.0","""event"",""trial"",""time""
""fullscreenenter"",""0"",""10788""
","
","
","""event"",""trial"",""time""
""fullscreenenter"",""0"",""10788""
","
","null","<p></p>","null","","","","","","","","","","","","","","","","","","","","","","","",""
"","do_trial","148","430965","0.0-83.0-0.0","""event"",""trial"",""time""
""fullscreenenter"",""0"",""10788""
","
","
","""event"",""trial"",""time""
""fullscreenenter"",""0"",""10788""
","
","1927.699999988079","","","","","","","","50","1,0,1","6","blank","294","null","0.4863129076469794","0.2987059062142181","0.07163333292001327","0","","","","","","","","",""
"","html-keyboard-response","149","431970","0.0-83.0-1.0","""event"",""trial"",""time""
""fullscreenenter"",""0"",""10788""
","
","
","""event"",""trial"",""time""
""fullscreenenter"",""0"",""10788""
","
","null","<p></p>","null","","","","","","","","","","","","","","","","","","","","","","","",""
"","do_trial","150","435264","0.0-84.0-0.0","""event"",""trial"",""time""
""fullscreenenter"",""0"",""10788""
","
","
","""event"",""trial"",""time""
""fullscreenenter"",""0"",""10788""
","
","751.5","","","","","","","","51","0,1,1","6","blank","295","null","0.38174355920166064","0.3394682150416962","0.12887708075970214","1","","","","","","","","",""
"","html-keyboard-response","151","436268","0.0-84.0-1.0","""event"",""trial"",""time""
""fullscreenenter"",""0"",""10788""
","
","
","""event"",""trial"",""time""
""fullscreenenter"",""0"",""10788""
","
","null","<p></p>","null","","","","","","","","","","","","","","","","","","","","","","","",""
"","do_recog","152","439146","0.0-85.0-0.0","""event"",""trial"",""time""
""fullscreenenter"",""0"",""10788""
","
","
","""event"",""trial"",""time""
""fullscreenenter"",""0"",""10788""
","
","1368.5999999940395","","","","","","","","53","","","","296","probe-129","","","","","1","[object Object]","156","3","1","","","",""
"","html-keyboard-response","153","440149","0.0-85.0-1.0","""event"",""trial"",""time""
""fullscreenenter"",""0"",""10788""
","
","
","""event"",""trial"",""time""
""fullscreenenter"",""0"",""10788""
","
","null","<p></p>","null","","","","","","","","","","","","","","","","","","","","","","","",""
"","do_trial","154","443247","0.0-86.0-0.0","""event"",""trial"",""time""
""fullscreenenter"",""0"",""10788""
","
","
","""event"",""trial"",""time""
""fullscreenenter"",""0"",""10788""
","
","554.8999999910593","","","","","","","","50","1,0,1","6","blank","297","null","0.44595584049211956","0.20060604916592084","0.1368952659376216","0","","","","","","","","",""
"","html-keyboard-response","155","444252","0.0-86.0-1.0","""event"",""trial"",""time""
""fullscreenenter"",""0"",""10788""
","
","
","""event"",""trial"",""time""
""fullscreenenter"",""0"",""10788""
","
","null","<p></p>","null","","","","","","","","","","","","","","","","","","","","","","","",""
"","do_recog","156","447258","0.0-87.0-0.0","""event"",""trial"",""time""
""fullscreenenter"",""0"",""10788""
","
","
","""event"",""trial"",""time""
""fullscreenenter"",""0"",""10788""
","
","1495.6000000089407","","","","","","","","55","","","","298","probe-194","","","","","1","[object Object]","116","2","0","","","",""
"","html-keyboard-response","157","448261","0.0-87.0-1.0","""event"",""trial"",""time""
""fullscreenenter"",""0"",""10788""
","
","
","""event"",""trial"",""time""
""fullscreenenter"",""0"",""10788""
","
","null","<p></p>","null","","","","","","","","","","","","","","","","","","","","","","","",""
"","do_trial","158","451309","0.0-88.0-0.0","""event"",""trial"",""time""
""fullscreenenter"",""0"",""10788""
","
","
","""event"",""trial"",""time""
""fullscreenenter"",""0"",""10788""
","
","507.29999999701977","","","","","","","","50","1,1,0","6","blank","299","null","0.5947694066554718","0.2319969277077157","0.0529361688486797","1","","","","","","","","",""
"","html-keyboard-response","159","452314","0.0-88.0-1.0","""event"",""trial"",""time""
""fullscreenenter"",""0"",""10788""
","
","
","""event"",""trial"",""time""
""fullscreenenter"",""0"",""10788""
","
","null","<p></p>","null","","","","","","","","","","","","","","","","","","","","","","","",""
"","do_recog","160","455389","0.0-89.0-0.0","""event"",""trial"",""time""
""fullscreenenter"",""0"",""10788""
","
","
","""event"",""trial"",""time""
""fullscreenenter"",""0"",""10788""
","
","1562.5","","","","","","","","56","","","","300","probe-118","","","","","1","[object Object]","191","4","0","","","",""
"","html-keyboard-response","161","456390","0.0-89.0-1.0","""event"",""trial"",""time""
""fullscreenenter"",""0"",""10788""
","
","
","""event"",""trial"",""time""
""fullscreenenter"",""0"",""10788""
","
","null","<p></p>","null","","","","","","","","","","","","","","","","","","","","","","","",""
"","do_trial","162","460146","0.0-90.0-0.0","""event"",""trial"",""time""
""fullscreenenter"",""0"",""10788""
","
","
","""event"",""trial"",""time""
""fullscreenenter"",""0"",""10788""
","
","1220.0999999940395","","","","","","","","50","1,0,0","6","blank","301","null","0.6562697453297244","0.20892058728846366","0.14338486887141522","0","","","","","","","","",""
"","html-keyboard-response","163","461147","0.0-90.0-1.0","""event"",""trial"",""time""
""fullscreenenter"",""0"",""10788""
","
","
","""event"",""trial"",""time""
""fullscreenenter"",""0"",""10788""
","
","null","<p></p>","null","","","","","","","","","","","","","","","","","","","","","","","",""
"","do_recog","164","464267","0.0-91.0-0.0","""event"",""trial"",""time""
""fullscreenenter"",""0"",""10788""
","
","
","""event"",""trial"",""time""
""fullscreenenter"",""0"",""10788""
","
","1607.800000011921","","","","","","","","54","","","","302","probe-126","","","","","1","[object Object]","31","0","1","","","",""
"","html-keyboard-response","165","465272","0.0-91.0-1.0","""event"",""trial"",""time""
""fullscreenenter"",""0"",""10788""
","
","
","""event"",""trial"",""time""
""fullscreenenter"",""0"",""10788""
","
","null","<p></p>","null","","","","","","","","","","","","","","","","","","","","","","","",""
"","do_trial","166","469841","0.0-92.0-0.0","""event"",""trial"",""time""
""fullscreenenter"",""0"",""10788""
","
","
","""event"",""trial"",""time""
""fullscreenenter"",""0"",""10788""
","
","2025.4000000059605","","","","","","","","51","0,0,0","6","blank","303","null","0.7085119419051809","0.11512240051610828","0.2665806049768551","0","","","","","","","","",""
"","html-keyboard-response","167","470846","0.0-92.0-1.0","""event"",""trial"",""time""
""fullscreenenter"",""0"",""10788""
","
","
","""event"",""trial"",""time""
""fullscreenenter"",""0"",""10788""
","
","null","<p></p>","null","","","","","","","","","","","","","","","","","","","","","","","",""
"","do_trial","168","473681","0.0-93.0-0.0","""event"",""trial"",""time""
""fullscreenenter"",""0"",""10788""
","
","
","""event"",""trial"",""time""
""fullscreenenter"",""0"",""10788""
","
","291.90000000596046","","","","","","","","49","1,0,1","6","blank","304","null","0.6951486461779599","0.25334678804887967","0.19386290807411757","1","","","","","","","","",""
"","html-keyboard-response","169","474688","0.0-93.0-1.0","""event"",""trial"",""time""
""fullscreenenter"",""0"",""10788""
","
","
","""event"",""trial"",""time""
""fullscreenenter"",""0"",""10788""
","
","null","<p></p>","null","","","","","","","","","","","","","","","","","","","","","","","",""
"","do_recog","170","477490","0.0-94.0-0.0","""event"",""trial"",""time""
""fullscreenenter"",""0"",""10788""
","
","
","""event"",""trial"",""time""
""fullscreenenter"",""0"",""10788""
","
","1290.2000000029802","","","","","","","","55","","","","305","probe-234","","","","","0","[object Object]","null","null","1","","","",""
"","html-keyboard-response","171","478496","0.0-94.0-1.0","""event"",""trial"",""time""
""fullscreenenter"",""0"",""10788""
","
","
","""event"",""trial"",""time""
""fullscreenenter"",""0"",""10788""
","
","null","<p></p>","null","","","","","","","","","","","","","","","","","","","","","","","",""
"","do_trial","172","481947","0.0-95.0-0.0","""event"",""trial"",""time""
""fullscreenenter"",""0"",""10788""
","
","
","""event"",""trial"",""time""
""fullscreenenter"",""0"",""10788""
","
","905.8999999910593","","","","","","","","49","0,0,0","6","blank","306","null","0.7049941655655997","0.3491517393214516","0.17380526628748202","0","","","","","","","","",""
"","html-keyboard-response","173","482952","0.0-95.0-1.0","""event"",""trial"",""time""
""fullscreenenter"",""0"",""10788""
","
","
","""event"",""trial"",""time""
""fullscreenenter"",""0"",""10788""
","
","null","<p></p>","null","","","","","","","","","","","","","","","","","","","","","","","",""
"","do_trial","174","485847","0.0-96.0-0.0","""event"",""trial"",""time""
""fullscreenenter"",""0"",""10788""
","
","
","""event"",""trial"",""time""
""fullscreenenter"",""0"",""10788""
","
","352.8999999910593","","","","","","","","50","1,1,0","6","blank","307","null","0.7035487048069259","0.24688769221540516","0.1215093996209566","1","","","","","","","","",""
"","html-keyboard-response","175","486854","0.0-96.0-1.0","""event"",""trial"",""time""
""fullscreenenter"",""0"",""10788""
","
","
","""event"",""trial"",""time""
""fullscreenenter"",""0"",""10788""
","
","null","<p></p>","null","","","","","","","","","","","","","","","","","","","","","","","",""
"","do_recog","176","489642","0.0-97.0-0.0","""event"",""trial"",""time""
""fullscreenenter"",""0"",""10788""
","
","
","""event"",""trial"",""time""
""fullscreenenter"",""0"",""10788""
","
","1279.3999999910593","","","","","","","","56","","","","308","probe-212","","","","","1","[object Object]","193","4","0","","","",""
"","html-keyboard-response","177","490647","0.0-97.0-1.0","""event"",""trial"",""time""
""fullscreenenter"",""0"",""10788""
","
","
","""event"",""trial"",""time""
""fullscreenenter"",""0"",""10788""
","
","null","<p></p>","null","","","","","","","","","","","","","","","","","","","","","","","",""
"","break","178","493024","0.0-98.0-0.0","""event"",""trial"",""time""
""fullscreenenter"",""0"",""10788""
","
","
","""event"",""trial"",""time""
""fullscreenenter"",""0"",""10788""
","
","2375.5999999940395","<div class='center'><p>Time to take a quick break! You have 2 minutes to rest, but you can move on sooner if you'd like.</p><p> Press the <b>space bar</b> to continue.</p></div>","32","","","","","","","","","","","","","","","","","","","","","","","",""
"","do_trial","179","496372","0.0-98.0-1.0","""event"",""trial"",""time""
""fullscreenenter"",""0"",""10788""
","
","
","""event"",""trial"",""time""
""fullscreenenter"",""0"",""10788""
","
","808.2000000029802","","","","","","","","50","1,1,0","6","blank","309","null","0.6763694466163496","0.2689533942877321","0.14386766695725142","1","","","","","","","","",""
"","html-keyboard-response","180","497378","0.0-98.0-2.0","""event"",""trial"",""time""
""fullscreenenter"",""0"",""10788""
","
","
","""event"",""trial"",""time""
""fullscreenenter"",""0"",""10788""
","
","null","<p></p>","null","","","","","","","","","","","","","","","","","","","","","","","",""
"","do_trial","181","500225","0.0-99.0-0.0","""event"",""trial"",""time""
""fullscreenenter"",""0"",""10788""
","
","
","""event"",""trial"",""time""
""fullscreenenter"",""0"",""10788""
","
","303.29999999701977","","","","","","","","50","0,1,0","6","blank","310","null","0.6886054004949466","0.2572611347537796","0.2006500923304977","1","","","","","","","","",""
"","html-keyboard-response","182","501229","0.0-99.0-1.0","""event"",""trial"",""time""
""fullscreenenter"",""0"",""10788""
","
","
","""event"",""trial"",""time""
""fullscreenenter"",""0"",""10788""
","
","null","<p></p>","null","","","","","","","","","","","","","","","","","","","","","","","",""
"","do_trial","183","504214","0.0-100.0-0.0","""event"",""trial"",""time""
""fullscreenenter"",""0"",""10788""
","
","
","""event"",""trial"",""time""
""fullscreenenter"",""0"",""10788""
","
","441.1000000089407","","","","","","","","50","1,0,1","6","blank","311","null","0.6205576325715124","0.2566309002424122","0.21899471155479652","0","","","","","","","","",""
"","html-keyboard-response","184","505219","0.0-100.0-1.0","""event"",""trial"",""time""
""fullscreenenter"",""0"",""10788""
","
","
","""event"",""trial"",""time""
""fullscreenenter"",""0"",""10788""
","
","null","<p></p>","null","","","","","","","","","","","","","","","","","","","","","","","",""
"","do_trial","185","508078","0.0-101.0-0.0","""event"",""trial"",""time""
""fullscreenenter"",""0"",""10788""
","
","
","""event"",""trial"",""time""
""fullscreenenter"",""0"",""10788""
","
","318.40000000596046","","","","","","","","49","1,0,0","6","blank","312","null","0.648625081045533","0.21277176939018091","0.14002707612521087","1","","","","","","","","",""
"","html-keyboard-response","186","509083","0.0-101.0-1.0","""event"",""trial"",""time""
""fullscreenenter"",""0"",""10788""
","
","
","""event"",""trial"",""time""
""fullscreenenter"",""0"",""10788""
","
","null","<p></p>","null","","","","","","","","","","","","","","","","","","","","","","","",""
"","do_trial","187","511647","0.0-102.0-0.0","""event"",""trial"",""time""
""fullscreenenter"",""0"",""10788""
","
","
","""event"",""trial"",""time""
""fullscreenenter"",""0"",""10788""
","
","19.200000002980232","","","","","","","","49","1,0,0","6","blank","313","null","0.5605050896748698","0.24450582030511844","0.10735295538262751","1","","","","","","","","",""
"","html-keyboard-response","188","512652","0.0-102.0-1.0","""event"",""trial"",""time""
""fullscreenenter"",""0"",""10788""
","
","
","""event"",""trial"",""time""
""fullscreenenter"",""0"",""10788""
","
","null","<p></p>","null","","","","","","","","","","","","","","","","","","","","","","","",""
"","do_recog","189","515438","0.0-103.0-0.0","""event"",""trial"",""time""
""fullscreenenter"",""0"",""10788""
","
","
","""event"",""trial"",""time""
""fullscreenenter"",""0"",""10788""
","
","1275","","","","","","","","53","","","","314","probe-06","","","","","1","[object Object]","115","2","1","","","",""
"","html-keyboard-response","190","516445","0.0-103.0-1.0","""event"",""trial"",""time""
""fullscreenenter"",""0"",""10788""
","
","
","""event"",""trial"",""time""
""fullscreenenter"",""0"",""10788""
","
","null","<p></p>","null","","","","","","","","","","","","","","","","","","","","","","","",""
"","do_trial","191","519438","0.0-104.0-0.0","""event"",""trial"",""time""
""fullscreenenter"",""0"",""10788""
","
","
","""event"",""trial"",""time""
""fullscreenenter"",""0"",""10788""
","
","450.29999999701977","","","","","","","","49","1,0,0","6","blank","315","null","0.5405988780038495","0.1700801221715234","0.18781001401977285","1","","","","","","","","",""
"","html-keyboard-response","192","520444","0.0-104.0-1.0","""event"",""trial"",""time""
""fullscreenenter"",""0"",""10788""
","
","
","""event"",""trial"",""time""
""fullscreenenter"",""0"",""10788""
","
","null","<p></p>","null","","","","","","","","","","","","","","","","","","","","","","","",""
"","do_recog","193","523129","0.0-105.0-0.0","""event"",""trial"",""time""
""fullscreenenter"",""0"",""10788""
","
","
","""event"",""trial"",""time""
""fullscreenenter"",""0"",""10788""
","
","1175.5","","","","","","","","56","","","","316","probe-31","","","","","1","[object Object]","78","1","0","","","",""
"","html-keyboard-response","194","524135","0.0-105.0-1.0","""event"",""trial"",""time""
""fullscreenenter"",""0"",""10788""
","
","
","""event"",""trial"",""time""
""fullscreenenter"",""0"",""10788""
","
","null","<p></p>","null","","","","","","","","","","","","","","","","","","","","","","","",""
"","do_trial","195","528194","0.0-106.0-0.0","""event"",""trial"",""time""
""fullscreenenter"",""0"",""10788""
","
","
","""event"",""trial"",""time""
""fullscreenenter"",""0"",""10788""
","
","1517.6000000089407","","","","","","","","49","1,0,0","6","blank","317","null","0.6083495925367169","0.2560197836792774","0.1638610089495984","1","","","","","","","","",""
"","html-keyboard-response","196","529199","0.0-106.0-1.0","""event"",""trial"",""time""
""fullscreenenter"",""0"",""10788""
","
","
","""event"",""trial"",""time""
""fullscreenenter"",""0"",""10788""
","
","null","<p></p>","null","","","","","","","","","","","","","","","","","","","","","","","",""
"","do_trial","197","532043","0.0-107.0-0.0","""event"",""trial"",""time""
""fullscreenenter"",""0"",""10788""
","
","
","""event"",""trial"",""time""
""fullscreenenter"",""0"",""10788""
","
","302.40000000596046","","","","","","","","49","1,1,0","6","blank","318","null","0.5860779327314753","0.39453998468153445","0.10610513287627506","1","","","","","","","","",""
"","html-keyboard-response","198","533049","0.0-107.0-1.0","""event"",""trial"",""time""
""fullscreenenter"",""0"",""10788""
","
","
","""event"",""trial"",""time""
""fullscreenenter"",""0"",""10788""
","
","null","<p></p>","null","","","","","","","","","","","","","","","","","","","","","","","",""
"","do_trial","199","535912","0.0-108.0-0.0","""event"",""trial"",""time""
""fullscreenenter"",""0"",""10788""
","
","
","""event"",""trial"",""time""
""fullscreenenter"",""0"",""10788""
","
","317.70000000298023","","","","","","","","49","0,0,0","6","blank","319","null","0.5066535860613736","0.17877501091387668","0.17894367956596618","0","","","","","","","","",""
"","html-keyboard-response","200","536918","0.0-108.0-1.0","""event"",""trial"",""time""
""fullscreenenter"",""0"",""10788""
","
","
","""event"",""trial"",""time""
""fullscreenenter"",""0"",""10788""
","
","null","<p></p>","null","","","","","","","","","","","","","","","","","","","","","","","",""
"","do_trial","201","539919","0.0-109.0-0.0","""event"",""trial"",""time""
""fullscreenenter"",""0"",""10788""
","
","
","""event"",""trial"",""time""
""fullscreenenter"",""0"",""10788""
","
","460.5","","","","","","","","50","0,1,1","6","blank","320","null","0.5764274921999762","0.30407174865942155","0.09466802069997003","1","","","","","","","","",""
"","html-keyboard-response","202","540923","0.0-109.0-1.0","""event"",""trial"",""time""
""fullscreenenter"",""0"",""10788""
","
","
","""event"",""trial"",""time""
""fullscreenenter"",""0"",""10788""
","
","null","<p></p>","null","","","","","","","","","","","","","","","","","","","","","","","",""
"","do_trial","203","543993","0.0-110.0-0.0","""event"",""trial"",""time""
""fullscreenenter"",""0"",""10788""
","
","
","""event"",""trial"",""time""
""fullscreenenter"",""0"",""10788""
","
","526.5","","","","","","","","50","1,0,0","6","blank","321","null","0.6531302406067009","0.3785506580411303","0.10832727703821587","0","","","","","","","","",""
"","html-keyboard-response","204","544998","0.0-110.0-1.0","""event"",""trial"",""time""
""fullscreenenter"",""0"",""10788""
","
","
","""event"",""trial"",""time""
""fullscreenenter"",""0"",""10788""
","
","null","<p></p>","null","","","","","","","","","","","","","","","","","","","","","","","",""
"","do_recog","205","547828","0.0-111.0-0.0","""event"",""trial"",""time""
""fullscreenenter"",""0"",""10788""
","
","
","""event"",""trial"",""time""
""fullscreenenter"",""0"",""10788""
","
","1318.5","","","","","","","","53","","","","322","probe-81","","","","","1","[object Object]","72","1","1","","","",""
"","html-keyboard-response","206","548833","0.0-111.0-1.0","""event"",""trial"",""time""
""fullscreenenter"",""0"",""10788""
","
","
","""event"",""trial"",""time""
""fullscreenenter"",""0"",""10788""
","
","null","<p></p>","null","","","","","","","","","","","","","","","","","","","","","","","",""
"","do_trial","207","552038","0.0-112.0-0.0","""event"",""trial"",""time""
""fullscreenenter"",""0"",""10788""
","
","
","""event"",""trial"",""time""
""fullscreenenter"",""0"",""10788""
","
","664.8999999910593","","","","","","","","49","1,0,0","6","blank","323","null","0.5255203471696723","0.2838935734268151","0.12400991909663106","1","","","","","","","","",""
"","html-keyboard-response","208","553043","0.0-112.0-1.0","""event"",""trial"",""time""
""fullscreenenter"",""0"",""10788""
","
","
","""event"",""trial"",""time""
""fullscreenenter"",""0"",""10788""
","
","null","<p></p>","null","","","","","","","","","","","","","","","","","","","","","","","",""
"","do_trial","209","555965","0.0-113.0-0.0","""event"",""trial"",""time""
""fullscreenenter"",""0"",""10788""
","
","
","""event"",""trial"",""time""
""fullscreenenter"",""0"",""10788""
","
","380.29999999701977","","","","","","","","49","1,0,0","6","blank","324","null","0.5485479250402606","0.44152461456101905","0.05765131112013787","1","","","","","","","","",""
"","html-keyboard-response","210","556972","0.0-113.0-1.0","""event"",""trial"",""time""
""fullscreenenter"",""0"",""10788""
","
","
","""event"",""trial"",""time""
""fullscreenenter"",""0"",""10788""
","
","null","<p></p>","null","","","","","","","","","","","","","","","","","","","","","","","",""
"","do_trial","211","559847","0.0-114.0-0.0","""event"",""trial"",""time""
""fullscreenenter"",""0"",""10788""
","
","
","""event"",""trial"",""time""
""fullscreenenter"",""0"",""10788""
","
","332.20000000298023","","","","","","","","49","0,1,0","6","blank","325","null","0.5547324278325411","0.2355511307867147","0.11029117913684312","0","","","","","","","","",""
"","html-keyboard-response","212","560852","0.0-114.0-1.0","""event"",""trial"",""time""
""fullscreenenter"",""0"",""10788""
","
","
","""event"",""trial"",""time""
""fullscreenenter"",""0"",""10788""
","
","null","<p></p>","null","","","","","","","","","","","","","","","","","","","","","","","",""
"","do_trial","213","563660","0.0-115.0-0.0","""event"",""trial"",""time""
""fullscreenenter"",""0"",""10788""
","
","
","""event"",""trial"",""time""
""fullscreenenter"",""0"",""10788""
","
","263.1000000089407","","","","","","","","49","1,0,0","6","blank","326","null","0.5783063349331632","0.2075634100138326","0.1506459953483391","1","","","","","","","","",""
"","html-keyboard-response","214","564665","0.0-115.0-1.0","""event"",""trial"",""time""
""fullscreenenter"",""0"",""10788""
","
","
","""event"",""trial"",""time""
""fullscreenenter"",""0"",""10788""
","
","null","<p></p>","null","","","","","","","","","","","","","","","","","","","","","","","",""
"","do_trial","215","567587","0.0-116.0-0.0","""event"",""trial"",""time""
""fullscreenenter"",""0"",""10788""
","
","
","""event"",""trial"",""time""
""fullscreenenter"",""0"",""10788""
","
","376.59999999403954","","","","","","","","49","0,1,0","6","blank","327","null","0.5522170002208657","0.1266216463359711","0.062309695603926185","0","","","","","","","","",""
"","html-keyboard-response","216","568589","0.0-116.0-1.0","""event"",""trial"",""time""
""fullscreenenter"",""0"",""10788""
","
","
","""event"",""trial"",""time""
""fullscreenenter"",""0"",""10788""
","
","null","<p></p>","null","","","","","","","","","","","","","","","","","","","","","","","",""
"","do_trial","217","571455","0.0-117.0-0.0","""event"",""trial"",""time""
""fullscreenenter"",""0"",""10788""
","
","
","""event"",""trial"",""time""
""fullscreenenter"",""0"",""10788""
","
","324.6000000089407","","","","","","","","50","1,0,0","6","blank","328","null","0.5748390885526643","0.06995949127275987","0.06595417497982303","0","","","","","","","","",""
"","html-keyboard-response","218","572459","0.0-117.0-1.0","""event"",""trial"",""time""
""fullscreenenter"",""0"",""10788""
","
","
","""event"",""trial"",""time""
""fullscreenenter"",""0"",""10788""
","
","null","<p></p>","null","","","","","","","","","","","","","","","","","","","","","","","",""
"","do_trial","219","575538","0.0-118.0-0.0","""event"",""trial"",""time""
""fullscreenenter"",""0"",""10788""
","
","
","""event"",""trial"",""time""
""fullscreenenter"",""0"",""10788""
","
","536.7999999970198","","","","","","","","51","1,0,0","6","blank","329","null","0.6156937617226954","0.06619238213132801","0.10001171626417317","0","","","","","","","","",""
"","html-keyboard-response","220","576542","0.0-118.0-1.0","""event"",""trial"",""time""
""fullscreenenter"",""0"",""10788""
","
","
","""event"",""trial"",""time""
""fullscreenenter"",""0"",""10788""
","
","null","<p></p>","null","","","","","","","","","","","","","","","","","","","","","","","",""
"","do_recog","221","579553","0.0-119.0-0.0","""event"",""trial"",""time""
""fullscreenenter"",""0"",""10788""
","
","
","""event"",""trial"",""time""
""fullscreenenter"",""0"",""10788""
","
","1504.699999988079","","","","","","","","56","","","","330","probe-190","","","","","1","[object Object]","32","0","0","","","",""
"","html-keyboard-response","222","580558","0.0-119.0-1.0","""event"",""trial"",""time""
""fullscreenenter"",""0"",""10788""
","
","
","""event"",""trial"",""time""
""fullscreenenter"",""0"",""10788""
","
","null","<p></p>","null","","","","","","","","","","","","","","","","","","","","","","","",""
"","do_trial","223","584076","0.0-120.0-0.0","""event"",""trial"",""time""
""fullscreenenter"",""0"",""10788""
","
","
","""event"",""trial"",""time""
""fullscreenenter"",""0"",""10788""
","
","972.5","","","","","","","","49","0,0,0","6","blank","331","null","0.6920066583976693","0.11355212245316879","0.15813741211018234","0","","","","","","","","",""
"","html-keyboard-response","224","585081","0.0-120.0-1.0","""event"",""trial"",""time""
""fullscreenenter"",""0"",""10788""
","
","
","""event"",""trial"",""time""
""fullscreenenter"",""0"",""10788""
","
","null","<p></p>","null","","","","","","","","","","","","","","","","","","","","","","","",""
"","do_recog","225","587866","0.0-121.0-0.0","""event"",""trial"",""time""
""fullscreenenter"",""0"",""10788""
","
","
","""event"",""trial"",""time""
""fullscreenenter"",""0"",""10788""
","
","1274.9000000059605","","","","","","","","53","","","","332","probe-49","","","","","1","[object Object]","155","3","1","","","",""
"","html-keyboard-response","226","588868","0.0-121.0-1.0","""event"",""trial"",""time""
""fullscreenenter"",""0"",""10788""
","
","
","""event"",""trial"",""time""
""fullscreenenter"",""0"",""10788""
","
","null","<p></p>","null","","","","","","","","","","","","","","","","","","","","","","","",""
"","do_trial","227","591946","0.0-122.0-0.0","""event"",""trial"",""time""
""fullscreenenter"",""0"",""10788""
","
","
","""event"",""trial"",""time""
""fullscreenenter"",""0"",""10788""
","
","535","","","","","","","","50","1,1,0","6","blank","333","null","0.6336609279818829","0.08613223455571888","0.10394731283497635","1","","","","","","","","",""
"","html-keyboard-response","228","592951","0.0-122.0-1.0","""event"",""trial"",""time""
""fullscreenenter"",""0"",""10788""
","
","
","""event"",""trial"",""time""
""fullscreenenter"",""0"",""10788""
","
","null","<p></p>","null","","","","","","","","","","","","","","","","","","","","","","","",""
"","do_trial","229","595966","0.0-123.0-0.0","""event"",""trial"",""time""
""fullscreenenter"",""0"",""10788""
","
","
","""event"",""trial"",""time""
""fullscreenenter"",""0"",""10788""
","
","470.8999999910593","","","","","","","","50","1,0,0","6","blank","334","null","0.5287899711993267","0.23705432861151937","0.12475568640252702","0","","","","","","","","",""
"","html-keyboard-response","230","596970","0.0-123.0-1.0","""event"",""trial"",""time""
""fullscreenenter"",""0"",""10788""
","
","
","""event"",""trial"",""time""
""fullscreenenter"",""0"",""10788""
","
","null","<p></p>","null","","","","","","","","","","","","","","","","","","","","","","","",""
"","do_trial","231","599837","0.0-124.0-0.0","""event"",""trial"",""time""
""fullscreenenter"",""0"",""10788""
","
","
","""event"",""trial"",""time""
""fullscreenenter"",""0"",""10788""
","
","316.20000000298023","","","","","","","","50","0,1,0","6","blank","335","null","0.6165189452568683","0.26065896741554856","0.08727600202015533","1","","","","","","","","",""
"","html-keyboard-response","232","600842","0.0-124.0-1.0","""event"",""trial"",""time""
""fullscreenenter"",""0"",""10788""
","
","
","""event"",""trial"",""time""
""fullscreenenter"",""0"",""10788""
","
","null","<p></p>","null","","","","","","","","","","","","","","","","","","","","","","","",""
"","do_trial","233","603891","0.0-125.0-0.0","""event"",""trial"",""time""
""fullscreenenter"",""0"",""10788""
","
","
","""event"",""trial"",""time""
""fullscreenenter"",""0"",""10788""
","
","496.8999999910593","","","","","","","","50","1,0,0","6","blank","336","null","0.6220028868600318","0.32029545202936377","0.08466266660562713","0","","","","","","","","",""
"","html-keyboard-response","234","604896","0.0-125.0-1.0","""event"",""trial"",""time""
""fullscreenenter"",""0"",""10788""
","
","
","""event"",""trial"",""time""
""fullscreenenter"",""0"",""10788""
","
","null","<p></p>","null","","","","","","","","","","","","","","","","","","","","","","","",""
"","do_trial","235","607817","0.0-126.0-0.0","""event"",""trial"",""time""
""fullscreenenter"",""0"",""10788""
","
","
","""event"",""trial"",""time""
""fullscreenenter"",""0"",""10788""
","
","380.79999999701977","","","","","","","","50","0,1,1","6","blank","337","null","0.6419108838206017","0.40337994968233115","0.06811893546030386","1","","","","","","","","",""
"","html-keyboard-response","236","608822","0.0-126.0-1.0","""event"",""trial"",""time""
""fullscreenenter"",""0"",""10788""
","
","
","""event"",""trial"",""time""
""fullscreenenter"",""0"",""10788""
","
","null","<p></p>","null","","","","","","","","","","","","","","","","","","","","","","","",""
"","do_trial","237","611964","0.0-127.0-0.0","""event"",""trial"",""time""
""fullscreenenter"",""0"",""10788""
","
","
","""event"",""trial"",""time""
""fullscreenenter"",""0"",""10788""
","
","594.5","","","","","","","","50","1,1,0","6","blank","338","null","0.74555896377354","0.3619068459196921","0.06907833764230267","1","","","","","","","","",""
"","html-keyboard-response","238","612969","0.0-127.0-1.0","""event"",""trial"",""time""
""fullscreenenter"",""0"",""10788""
","
","
","""event"",""trial"",""time""
""fullscreenenter"",""0"",""10788""
","
","null","<p></p>","null","","","","","","","","","","","","","","","","","","","","","","","",""
"","do_recog","239","615718","0.0-128.0-0.0","""event"",""trial"",""time""
""fullscreenenter"",""0"",""10788""
","
","
","""event"",""trial"",""time""
""fullscreenenter"",""0"",""10788""
","
","1241.5999999940395","","","","","","","","53","","","","339","probe-127","","","","","1","[object Object]","195","4","1","","","",""
"","html-keyboard-response","240","616725","0.0-128.0-1.0","""event"",""trial"",""time""
""fullscreenenter"",""0"",""10788""
","
","
","""event"",""trial"",""time""
""fullscreenenter"",""0"",""10788""
","
","null","<p></p>","null","","","","","","","","","","","","","","","","","","","","","","","",""
"","do_trial","241","619750","0.0-129.0-0.0","""event"",""trial"",""time""
""fullscreenenter"",""0"",""10788""
","
","
","""event"",""trial"",""time""
""fullscreenenter"",""0"",""10788""
","
","480.5","","","","","","","","50","1,0,0","6","blank","340","null","0.6133186687523845","0.372244126743145","0.07417131179701804","0","","","","","","","","",""
"","html-keyboard-response","242","620754","0.0-129.0-1.0","""event"",""trial"",""time""
""fullscreenenter"",""0"",""10788""
","
","
","""event"",""trial"",""time""
""fullscreenenter"",""0"",""10788""
","
","null","<p></p>","null","","","","","","","","","","","","","","","","","","","","","","","",""
"","do_recog","243","623463","0.0-130.0-0.0","""event"",""trial"",""time""
""fullscreenenter"",""0"",""10788""
","
","
","""event"",""trial"",""time""
""fullscreenenter"",""0"",""10788""
","
","1198.5999999940395","","","","","","","","55","","","","341","probe-252","","","","","0","[object Object]","null","null","1","","","",""
"","html-keyboard-response","244","624468","0.0-130.0-1.0","""event"",""trial"",""time""
""fullscreenenter"",""0"",""10788""
","
","
","""event"",""trial"",""time""
""fullscreenenter"",""0"",""10788""
","
","null","<p></p>","null","","","","","","","","","","","","","","","","","","","","","","","",""
"","do_trial","245","627488","0.0-131.0-0.0","""event"",""trial"",""time""
""fullscreenenter"",""0"",""10788""
","
","
","""event"",""trial"",""time""
""fullscreenenter"",""0"",""10788""
","
","475.79999999701977","","","","","","","","50","1,0,0","6","blank","342","null","0.732242764163117","0.3374756423656205","0.1897357732126911","0","","","","","","","","",""
"","html-keyboard-response","246","628492","0.0-131.0-1.0","""event"",""trial"",""time""
""fullscreenenter"",""0"",""10788""
","
","
","""event"",""trial"",""time""
""fullscreenenter"",""0"",""10788""
","
","null","<p></p>","null","","","","","","","","","","","","","","","","","","","","","","","",""
"","do_trial","247","631338","0.0-132.0-0.0","""event"",""trial"",""time""
""fullscreenenter"",""0"",""10788""
","
","
","""event"",""trial"",""time""
""fullscreenenter"",""0"",""10788""
","
","301.59999999403954","","","","","","","","49","0,0,0","6","blank","343","null","0.6343260030109041","0.2965370393851486","0.23883372947804732","0","","","","","","","","",""
"","html-keyboard-response","248","632344","0.0-132.0-1.0","""event"",""trial"",""time""
""fullscreenenter"",""0"",""10788""
","
","
","""event"",""trial"",""time""
""fullscreenenter"",""0"",""10788""
","
","null","<p></p>","null","","","","","","","","","","","","","","","","","","","","","","","",""
"","do_trial","249","635183","0.0-133.0-0.0","""event"",""trial"",""time""
""fullscreenenter"",""0"",""10788""
","
","
","""event"",""trial"",""time""
""fullscreenenter"",""0"",""10788""
","
","293","","","","","","","","51","0,1,0","6","blank","344","null","0.5344791693201796","0.2490561937225292","0.3014577754183922","0","","","","","","","","",""
"","html-keyboard-response","250","636188","0.0-133.0-1.0","""event"",""trial"",""time""
""fullscreenenter"",""0"",""10788""
","
","
","""event"",""trial"",""time""
""fullscreenenter"",""0"",""10788""
","
","null","<p></p>","null","","","","","","","","","","","","","","","","","","","","","","","",""
"","do_trial","251","639036","0.0-134.0-0.0","""event"",""trial"",""time""
""fullscreenenter"",""0"",""10788""
","
","
","""event"",""trial"",""time""
""fullscreenenter"",""0"",""10788""
","
","303.79999999701977","","","","","","","","50","0,1,0","6","blank","345","null","0.5819714397896856","0.3867361643203415","0.29276197342468846","1","","","","","","","","",""
"","html-keyboard-response","252","640041","0.0-134.0-1.0","""event"",""trial"",""time""
""fullscreenenter"",""0"",""10788""
","
","
","""event"",""trial"",""time""
""fullscreenenter"",""0"",""10788""
","
","null","<p></p>","null","","","","","","","","","","","","","","","","","","","","","","","",""
"","do_trial","253","642948","0.0-135.0-0.0","""event"",""trial"",""time""
""fullscreenenter"",""0"",""10788""
","
","
","""event"",""trial"",""time""
""fullscreenenter"",""0"",""10788""
","
","362.80000001192093","","","","","","","","50","1,1,0","6","blank","346","null","0.4517489496314944","0.32849570179066645","0.44464708854913687","1","","","","","","","","",""
"","html-keyboard-response","254","643955","0.0-135.0-1.0","""event"",""trial"",""time""
""fullscreenenter"",""0"",""10788""
","
","
","""event"",""trial"",""time""
""fullscreenenter"",""0"",""10788""
","
","null","<p></p>","null","","","","","","","","","","","","","","","","","","","","","","","",""
"","do_trial","255","646896","0.0-136.0-0.0","""event"",""trial"",""time""
""fullscreenenter"",""0"",""10788""
","
","
","""event"",""trial"",""time""
""fullscreenenter"",""0"",""10788""
","
","396.8999999910593","","","","","","","","50","0,0,1","6","blank","347","null","0.2001691297774554","0.275536558107267","0.5412942020237062","0","","","","","","","","",""
"","html-keyboard-response","256","647900","0.0-136.0-1.0","""event"",""trial"",""time""
""fullscreenenter"",""0"",""10788""
","
","
","""event"",""trial"",""time""
""fullscreenenter"",""0"",""10788""
","
","null","<p></p>","null","","","","","","","","","","","","","","","","","","","","","","","",""
"","do_recog","257","650691","0.0-137.0-0.0","""event"",""trial"",""time""
""fullscreenenter"",""0"",""10788""
","
","
","""event"",""trial"",""time""
""fullscreenenter"",""0"",""10788""
","
","1281.2000000029802","","","","","","","","53","","","","348","probe-104","","","","","1","[object Object]","33","0","1","","","",""
"","html-keyboard-response","258","651695","0.0-137.0-1.0","""event"",""trial"",""time""
""fullscreenenter"",""0"",""10788""
","
","
","""event"",""trial"",""time""
""fullscreenenter"",""0"",""10788""
","
","null","<p></p>","null","","","","","","","","","","","","","","","","","","","","","","","",""
"","break","259","652767","0.0-138.0-0.0","""event"",""trial"",""time""
""fullscreenenter"",""0"",""10788""
","
","
","""event"",""trial"",""time""
""fullscreenenter"",""0"",""10788""
","
","1070.3999999910593","<div class='center'><p>Time to take a quick break! You have 2 minutes to rest, but you can move on sooner if you'd like.</p><p> Press the <b>space bar</b> to continue.</p></div>","32","","","","","","","","","","","","","","","","","","","","","","","",""
"","do_trial","260","656050","0.0-138.0-1.0","""event"",""trial"",""time""
""fullscreenenter"",""0"",""10788""
","
","
","""event"",""trial"",""time""
""fullscreenenter"",""0"",""10788""
","
","737.9000000059605","","","","","","","","51","0,1,0","6","blank","349","null","0.17667013805255302","0.20753931767439512","0.4681547137862087","0","","","","","","","","",""
"","html-keyboard-response","261","657055","0.0-138.0-2.0","""event"",""trial"",""time""
""fullscreenenter"",""0"",""10788""
","
","
","""event"",""trial"",""time""
""fullscreenenter"",""0"",""10788""
","
","null","<p></p>","null","","","","","","","","","","","","","","","","","","","","","","","",""
"","do_trial","262","659953","0.0-139.0-0.0","""event"",""trial"",""time""
""fullscreenenter"",""0"",""10788""
","
","
","""event"",""trial"",""time""
""fullscreenenter"",""0"",""10788""
","
","352.70000000298023","","","","","","","","49","0,0,0","6","blank","350","null","0.06059584258848734","0.07901709746266221","0.4657630616335019","0","","","","","","","","",""
"","html-keyboard-response","263","660958","0.0-139.0-1.0","""event"",""trial"",""time""
""fullscreenenter"",""0"",""10788""
","
","
","""event"",""trial"",""time""
""fullscreenenter"",""0"",""10788""
","
","null","<p></p>","null","","","","","","","","","","","","","","","","","","","","","","","",""
"","do_trial","264","663968","0.0-140.0-0.0","""event"",""trial"",""time""
""fullscreenenter"",""0"",""10788""
","
","
","""event"",""trial"",""time""
""fullscreenenter"",""0"",""10788""
","
","468","","","","","","","","50","1,0,0","6","blank","351","null","0.13823179703268046","0.20833983878352033","0.37641263939961994","0","","","","","","","","",""
"","html-keyboard-response","265","664973","0.0-140.0-1.0","""event"",""trial"",""time""
""fullscreenenter"",""0"",""10788""
","
","
","""event"",""trial"",""time""
""fullscreenenter"",""0"",""10788""
","
","null","<p></p>","null","","","","","","","","","","","","","","","","","","","","","","","",""
"","do_recog","266","667617","0.0-141.0-0.0","""event"",""trial"",""time""
""fullscreenenter"",""0"",""10788""
","
","
","""event"",""trial"",""time""
""fullscreenenter"",""0"",""10788""
","
","1133.5","","","","","","","","53","","","","352","probe-238","","","","","0","[object Object]","null","null","0","","","",""
"","html-keyboard-response","267","668622","0.0-141.0-1.0","""event"",""trial"",""time""
""fullscreenenter"",""0"",""10788""
","
","
","""event"",""trial"",""time""
""fullscreenenter"",""0"",""10788""
","
","null","<p></p>","null","","","","","","","","","","","","","","","","","","","","","","","",""
"","do_trial","268","672398","0.0-142.0-0.0","""event"",""trial"",""time""
""fullscreenenter"",""0"",""10788""
","
","
","""event"",""trial"",""time""
""fullscreenenter"",""0"",""10788""
","
","1230.5999999940395","","","","","","","","49","0,0,1","6","blank","353","null","0.0869557814649475","0.23434697069753122","0.3908043783789829","0","","","","","","","","",""
"","html-keyboard-response","269","673404","0.0-142.0-1.0","""event"",""trial"",""time""
""fullscreenenter"",""0"",""10788""
","
","
","""event"",""trial"",""time""
""fullscreenenter"",""0"",""10788""
","
","null","<p></p>","null","","","","","","","","","","","","","","","","","","","","","","","",""
"","do_trial","270","676287","0.0-143.0-0.0","""event"",""trial"",""time""
""fullscreenenter"",""0"",""10788""
","
","
","""event"",""trial"",""time""
""fullscreenenter"",""0"",""10788""
","
","341.5","","","","","","","","50","0,1,1","6","blank","354","null","0.07634688333935695","0.30895493248133443","0.4092154757649167","1","","","","","","","","",""
"","html-keyboard-response","271","677290","0.0-143.0-1.0","""event"",""trial"",""time""
""fullscreenenter"",""0"",""10788""
","
","
","""event"",""trial"",""time""
""fullscreenenter"",""0"",""10788""
","
","null","<p></p>","null","","","","","","","","","","","","","","","","","","","","","","","",""
"","do_recog","272","679923","0.0-144.0-0.0","""event"",""trial"",""time""
""fullscreenenter"",""0"",""10788""
","
","
","""event"",""trial"",""time""
""fullscreenenter"",""0"",""10788""
","
","1122.8999999910593","","","","","","","","55","","","","355","probe-153","","","","","1","[object Object]","119","2","0","","","",""
"","html-keyboard-response","273","680929","0.0-144.0-1.0","""event"",""trial"",""time""
""fullscreenenter"",""0"",""10788""
","
","
","""event"",""trial"",""time""
""fullscreenenter"",""0"",""10788""
","
","null","<p></p>","null","","","","","","","","","","","","","","","","","","","","","","","",""
"","do_trial","274","685194","0.0-145.0-0.0","""event"",""trial"",""time""
""fullscreenenter"",""0"",""10788""
","
","
","""event"",""trial"",""time""
""fullscreenenter"",""0"",""10788""
","
","1720.7999999970198","","","","","","","","50","0,1,1","6","blank","356","null","0.1511023043806415","0.28731253764617015","0.577369145676404","1","","","","","","","","",""
"","html-keyboard-response","275","686201","0.0-145.0-1.0","""event"",""trial"",""time""
""fullscreenenter"",""0"",""10788""
","
","
","""event"",""trial"",""time""
""fullscreenenter"",""0"",""10788""
","
