"success","trial_type","trial_index","time_elapsed","internal_node_id","interactions","blur_events","focus_events","fullscreenenter_events","fullscreenexit_events","rt","stimulus","key_press","subject_id","participant_id","age","gender","prompt","response","choice_outcomes","context_n","context_img_id","trial_n","probe_img_id","pR_red","pR_white","pR_black","outcome","is_valid","image_to_show","probed_trial","probed_context","correct","probe","probed_trial_n","probed_context_n","context_im"
"true","fullscreen","0","2466","0.0-0.0","""event"",""trial"",""time""
""blur"",""0"",""0""
""focus"",""0"",""0""
""blur"",""0"",""0""
""focus"",""0"",""0""
""fullscreenenter"",""0"",""1485""
","""event"",""trial"",""time""
""blur"",""0"",""0""
""blur"",""0"",""0""
","""event"",""trial"",""time""
""focus"",""0"",""0""
""focus"",""0"",""0""
","""event"",""trial"",""time""
""fullscreenenter"",""0"",""1485""
","
","","","","","","","","","","","","","","","","","","","","","","","","","","",""
"","pavlovia","1","2476","0.0-1.0","""event"",""trial"",""time""
""blur"",""0"",""0""
""focus"",""0"",""0""
""blur"",""0"",""0""
""focus"",""0"",""0""
""fullscreenenter"",""0"",""1485""
""fullscreenexit"",""2"",""4819""
""blur"",""2"",""6694""
""focus"",""2"",""7786""
","""event"",""trial"",""time""
""blur"",""0"",""0""
""blur"",""0"",""0""
""blur"",""2"",""6694""
","""event"",""trial"",""time""
""focus"",""0"",""0""
""focus"",""0"",""0""
""focus"",""2"",""7786""
","""event"",""trial"",""time""
""fullscreenenter"",""0"",""1485""
","""event"",""trial"",""time""
""fullscreenexit"",""2"",""4819""
","","","","","","","","","","","","","","","","","","","","","","","","","","",""
"","welc_back","2","12242","0.0-2.0","""event"",""trial"",""time""
""blur"",""0"",""0""
""focus"",""0"",""0""
""blur"",""0"",""0""
""focus"",""0"",""0""
""fullscreenenter"",""0"",""1485""
""fullscreenexit"",""2"",""4819""
""blur"",""2"",""6694""
""focus"",""2"",""7786""
","""event"",""trial"",""time""
""blur"",""0"",""0""
""blur"",""0"",""0""
""blur"",""2"",""6694""
","""event"",""trial"",""time""
""focus"",""0"",""0""
""focus"",""0"",""0""
""focus"",""2"",""7786""
","""event"",""trial"",""time""
""fullscreenenter"",""0"",""1485""
","""event"",""trial"",""time""
""fullscreenexit"",""2"",""4819""
","null","run_exp/static/audio/clip_29_welcome_back.m4a","null","469","150","15","Male","<div class='center'><p>Welcome to day 2!</p><p> Yesterday, you were the head captain of a pirate ship. You asked your fellow pirates to rob other ships of their gold across six different islands.</p></div>","","","","","","","","","","","","","","","","","","",""
"","html-keyboard-response","3","13079","0.0-3.0","""event"",""trial"",""time""
""blur"",""0"",""0""
""focus"",""0"",""0""
""blur"",""0"",""0""
""focus"",""0"",""0""
""fullscreenenter"",""0"",""1485""
""fullscreenexit"",""2"",""4819""
""blur"",""2"",""6694""
""focus"",""2"",""7786""
""blur"",""4"",""21398""
""focus"",""4"",""21573""
""blur"",""4"",""21586""
""focus"",""4"",""24798""
","""event"",""trial"",""time""
""blur"",""0"",""0""
""blur"",""0"",""0""
""blur"",""2"",""6694""
""blur"",""4"",""21398""
""blur"",""4"",""21586""
","""event"",""trial"",""time""
""focus"",""0"",""0""
""focus"",""0"",""0""
""focus"",""2"",""7786""
""focus"",""4"",""21573""
""focus"",""4"",""24798""
","""event"",""trial"",""time""
""fullscreenenter"",""0"",""1485""
","""event"",""trial"",""time""
""fullscreenexit"",""2"",""4819""
","835.5","<div class='center'><p>Welcome to day 2!</p><p> Yesterday, you were the head captain of a pirate ship. You asked your fellow pirates to rob other ships of their gold across six different islands.</p><p><b>[Press the space bar to continue]</b></p></div>","32","","","","","","","","","","","","","","","","","","","","","","","",""
"","day_1_summary_goal","4","30262","0.0-4.0","""event"",""trial"",""time""
""blur"",""0"",""0""
""focus"",""0"",""0""
""blur"",""0"",""0""
""focus"",""0"",""0""
""fullscreenenter"",""0"",""1485""
""fullscreenexit"",""2"",""4819""
""blur"",""2"",""6694""
""focus"",""2"",""7786""
""blur"",""4"",""21398""
""focus"",""4"",""21573""
""blur"",""4"",""21586""
""focus"",""4"",""24798""
","""event"",""trial"",""time""
""blur"",""0"",""0""
""blur"",""0"",""0""
""blur"",""2"",""6694""
""blur"",""4"",""21398""
""blur"",""4"",""21586""
","""event"",""trial"",""time""
""focus"",""0"",""0""
""focus"",""0"",""0""
""focus"",""2"",""7786""
""focus"",""4"",""21573""
""focus"",""4"",""24798""
","""event"",""trial"",""time""
""fullscreenenter"",""0"",""1485""
","""event"",""trial"",""time""
""fullscreenexit"",""2"",""4819""
","null","run_exp/static/audio/clip_30_goal_of_game.m4a","null","","","","","<div class='center'><p>Today, like yesterday, you get to pick which pirate you want to rob the next ship.</p><p>If the pirate is successful in robbing a ship, you get gold coins that look like this: </p><p><img src='run_exp/static/images/tutorial/reward.png' height='150'></p><p> If they were not successful in robbing the ship, then you will get no gold coins and you'll see a big red x like this: </p><p><img src='run_exp/static/images/tutorial/reward_no.png' height='150'></p></div>","","","","","","","","","","","","","","","","","","",""
"","html-keyboard-response","5","37990","0.0-5.0","""event"",""trial"",""time""
""blur"",""0"",""0""
""focus"",""0"",""0""
""blur"",""0"",""0""
""focus"",""0"",""0""
""fullscreenenter"",""0"",""1485""
""fullscreenexit"",""2"",""4819""
""blur"",""2"",""6694""
""focus"",""2"",""7786""
""blur"",""4"",""21398""
""focus"",""4"",""21573""
""blur"",""4"",""21586""
""focus"",""4"",""24798""
""blur"",""6"",""42750""
""focus"",""6"",""51727""
","""event"",""trial"",""time""
""blur"",""0"",""0""
""blur"",""0"",""0""
""blur"",""2"",""6694""
""blur"",""4"",""21398""
""blur"",""4"",""21586""
""blur"",""6"",""42750""
","""event"",""trial"",""time""
""focus"",""0"",""0""
""focus"",""0"",""0""
""focus"",""2"",""7786""
""focus"",""4"",""21573""
""focus"",""4"",""24798""
""focus"",""6"",""51727""
","""event"",""trial"",""time""
""fullscreenenter"",""0"",""1485""
","""event"",""trial"",""time""
""fullscreenexit"",""2"",""4819""
","7727","<div class='center'><p>Today, like yesterday, you get to pick which pirate you want to rob the next ship.</p><p>If the pirate is successful in robbing a ship, you get gold coins that look like this: </p><p><img src='run_exp/static/images/tutorial/reward.png' height='150'></p><p> If they were not successful in robbing the ship, then you will get no gold coins and you'll see a big red x like this: </p><p><img src='run_exp/static/images/tutorial/reward_no.png' height='150'></p><p><b>[Press the space bar to continue]</b></p></div>","32","","","","","","","","","","","","","","","","","","","","","","","",""
"","day_1_summary_pick","6","52681","0.0-6.0","""event"",""trial"",""time""
""blur"",""0"",""0""
""focus"",""0"",""0""
""blur"",""0"",""0""
""focus"",""0"",""0""
""fullscreenenter"",""0"",""1485""
""fullscreenexit"",""2"",""4819""
""blur"",""2"",""6694""
""focus"",""2"",""7786""
""blur"",""4"",""21398""
""focus"",""4"",""21573""
""blur"",""4"",""21586""
""focus"",""4"",""24798""
""blur"",""6"",""42750""
""focus"",""6"",""51727""
","""event"",""trial"",""time""
""blur"",""0"",""0""
""blur"",""0"",""0""
""blur"",""2"",""6694""
""blur"",""4"",""21398""
""blur"",""4"",""21586""
""blur"",""6"",""42750""
","""event"",""trial"",""time""
""focus"",""0"",""0""
""focus"",""0"",""0""
""focus"",""2"",""7786""
""focus"",""4"",""21573""
""focus"",""4"",""24798""
""focus"",""6"",""51727""
","""event"",""trial"",""time""
""fullscreenenter"",""0"",""1485""
","""event"",""trial"",""time""
""fullscreenexit"",""2"",""4819""
","null","run_exp/static/audio/clip_31_how_to_pick_a_pirate.m4a","null","","","","","<div class='center'><p>Also, just like yesterday, you will use the 1,2,3 keys on your keyboard to pick a pirate. Press '1' to choose red beard, '2' to choose white beard, and '3' to choose black beard . You only have 3 seconds to pick a pirate, so please make a choice quickly!</p></div>","","","","","","","","","","","","","","","","","","",""
"","html-keyboard-response","7","53851","0.0-7.0","""event"",""trial"",""time""
""blur"",""0"",""0""
""focus"",""0"",""0""
""blur"",""0"",""0""
""focus"",""0"",""0""
""fullscreenenter"",""0"",""1485""
""fullscreenexit"",""2"",""4819""
""blur"",""2"",""6694""
""focus"",""2"",""7786""
""blur"",""4"",""21398""
""focus"",""4"",""21573""
""blur"",""4"",""21586""
""focus"",""4"",""24798""
""blur"",""6"",""42750""
""focus"",""6"",""51727""
","""event"",""trial"",""time""
""blur"",""0"",""0""
""blur"",""0"",""0""
""blur"",""2"",""6694""
""blur"",""4"",""21398""
""blur"",""4"",""21586""
""blur"",""6"",""42750""
","""event"",""trial"",""time""
""focus"",""0"",""0""
""focus"",""0"",""0""
""focus"",""2"",""7786""
""focus"",""4"",""21573""
""focus"",""4"",""24798""
""focus"",""6"",""51727""
","""event"",""trial"",""time""
""fullscreenenter"",""0"",""1485""
","""event"",""trial"",""time""
""fullscreenexit"",""2"",""4819""
","1168.5","<div class='center'><p>Also, just like yesterday, you will use the 1,2,3 keys on your keyboard to pick a pirate. Press '1' to choose red beard, '2' to choose white beard, and '3' to choose black beard . You only have 3 seconds to pick a pirate, so please make a choice quickly!</p><p><b>[Press the space bar to continue]</b></p></div>","32","","","","","","","","","","","","","","","","","","","","","","","",""
"","test_phase_begin","8","84223","0.0-8.0","""event"",""trial"",""time""
""blur"",""0"",""0""
""focus"",""0"",""0""
""blur"",""0"",""0""
""focus"",""0"",""0""
""fullscreenenter"",""0"",""1485""
""fullscreenexit"",""2"",""4819""
""blur"",""2"",""6694""
""focus"",""2"",""7786""
""blur"",""4"",""21398""
""focus"",""4"",""21573""
""blur"",""4"",""21586""
""focus"",""4"",""24798""
""blur"",""6"",""42750""
""focus"",""6"",""51727""
","""event"",""trial"",""time""
""blur"",""0"",""0""
""blur"",""0"",""0""
""blur"",""2"",""6694""
""blur"",""4"",""21398""
""blur"",""4"",""21586""
""blur"",""6"",""42750""
","""event"",""trial"",""time""
""focus"",""0"",""0""
""focus"",""0"",""0""
""focus"",""2"",""7786""
""focus"",""4"",""21573""
""focus"",""4"",""24798""
""focus"",""6"",""51727""
","""event"",""trial"",""time""
""fullscreenenter"",""0"",""1485""
","""event"",""trial"",""time""
""fullscreenexit"",""2"",""4819""
","null","run_exp/static/audio/clip_32_final_place.m4a","null","","","","","<div class='center'><p>You’ve arrived at the final island of your journey! Unfortunately, it’s very foggy out, so you won’t be able to see it in the distance like the other islands you've visited.</p><p>You’ll still be deciding which pirate you want to rob a ship like before. However, because of the fog, you also won’t be able to see the ship.</p><p>This means you do not have to remember the ships you rob on this island.</p><p>Unlike yesterday, you won't be visiting multiple islands today. You will stay on this island for the entire game. This game will last ~30 minutes.</p></div>","","","","","","","","","","","","","","","","","","",""
"","html-keyboard-response","9","84865","0.0-9.0","""event"",""trial"",""time""
""blur"",""0"",""0""
""focus"",""0"",""0""
""blur"",""0"",""0""
""focus"",""0"",""0""
""fullscreenenter"",""0"",""1485""
""fullscreenexit"",""2"",""4819""
""blur"",""2"",""6694""
""focus"",""2"",""7786""
""blur"",""4"",""21398""
""focus"",""4"",""21573""
""blur"",""4"",""21586""
""focus"",""4"",""24798""
""blur"",""6"",""42750""
""focus"",""6"",""51727""
","""event"",""trial"",""time""
""blur"",""0"",""0""
""blur"",""0"",""0""
""blur"",""2"",""6694""
""blur"",""4"",""21398""
""blur"",""4"",""21586""
""blur"",""6"",""42750""
","""event"",""trial"",""time""
""focus"",""0"",""0""
""focus"",""0"",""0""
""focus"",""2"",""7786""
""focus"",""4"",""21573""
""focus"",""4"",""24798""
""focus"",""6"",""51727""
","""event"",""trial"",""time""
""fullscreenenter"",""0"",""1485""
","""event"",""trial"",""time""
""fullscreenexit"",""2"",""4819""
","640.6000000238419","<div class='center'><p>You’ve arrived at the final island of your journey! Unfortunately, it’s very foggy out, so you won’t be able to see it in the distance like the other islands you've visited.</p><p>You’ll still be deciding which pirate you want to rob a ship like before. However, because of the fog, you also won’t be able to see the ship.</p><p>This means you do not have to remember the ships you rob on this island.</p><p>Unlike yesterday, you won't be visiting multiple islands today. You will stay on this island for the entire game. This game will last ~30 minutes.</p><p><b>[Press the space bar to continue]</b></p></div>","32","","","","","","","","","","","","","","","","","","","","","","","",""
"","explain_probe_1","10","92582","0.0-10.0","""event"",""trial"",""time""
""blur"",""0"",""0""
""focus"",""0"",""0""
""blur"",""0"",""0""
""focus"",""0"",""0""
""fullscreenenter"",""0"",""1485""
""fullscreenexit"",""2"",""4819""
""blur"",""2"",""6694""
""focus"",""2"",""7786""
""blur"",""4"",""21398""
""focus"",""4"",""21573""
""blur"",""4"",""21586""
""focus"",""4"",""24798""
""blur"",""6"",""42750""
""focus"",""6"",""51727""
","""event"",""trial"",""time""
""blur"",""0"",""0""
""blur"",""0"",""0""
""blur"",""2"",""6694""
""blur"",""4"",""21398""
""blur"",""4"",""21586""
""blur"",""6"",""42750""
","""event"",""trial"",""time""
""focus"",""0"",""0""
""focus"",""0"",""0""
""focus"",""2"",""7786""
""focus"",""4"",""21573""
""focus"",""4"",""24798""
""focus"",""6"",""51727""
","""event"",""trial"",""time""
""fullscreenenter"",""0"",""1485""
","""event"",""trial"",""time""
""fullscreenexit"",""2"",""4819""
","null","run_exp/static/audio/clip_33_recognition_1.m4a","null","","","","","<div class='center'><p> Sometimes you’ll be shown a ship, and you will be asked if you saw this ship on a past island.</p><p> Here is an example of what you will see.</p><p><img src='run_exp/static/images/tutorial/example_recog_trial.png' height='500'></p></div>","","","","","","","","","","","","","","","","","","",""
"","html-keyboard-response","11","93415","0.0-11.0","""event"",""trial"",""time""
""blur"",""0"",""0""
""focus"",""0"",""0""
""blur"",""0"",""0""
""focus"",""0"",""0""
""fullscreenenter"",""0"",""1485""
""fullscreenexit"",""2"",""4819""
""blur"",""2"",""6694""
""focus"",""2"",""7786""
""blur"",""4"",""21398""
""focus"",""4"",""21573""
""blur"",""4"",""21586""
""focus"",""4"",""24798""
""blur"",""6"",""42750""
""focus"",""6"",""51727""
","""event"",""trial"",""time""
""blur"",""0"",""0""
""blur"",""0"",""0""
""blur"",""2"",""6694""
""blur"",""4"",""21398""
""blur"",""4"",""21586""
""blur"",""6"",""42750""
","""event"",""trial"",""time""
""focus"",""0"",""0""
""focus"",""0"",""0""
""focus"",""2"",""7786""
""focus"",""4"",""21573""
""focus"",""4"",""24798""
""focus"",""6"",""51727""
","""event"",""trial"",""time""
""fullscreenenter"",""0"",""1485""
","""event"",""trial"",""time""
""fullscreenexit"",""2"",""4819""
","831.8999999761581","<div class='center'><p> Sometimes you’ll be shown a ship, and you will be asked if you saw this ship on a past island.</p><p> Here is an example of what you will see.</p><p><img src='run_exp/static/images/tutorial/example_recog_trial.png' height='500'></p><p><b>[Press the space bar to continue]</b></p></div>","32","","","","","","","","","","","","","","","","","","","","","","","",""
"","explain_probe_2","12","115122","0.0-12.0","""event"",""trial"",""time""
""blur"",""0"",""0""
""focus"",""0"",""0""
""blur"",""0"",""0""
""focus"",""0"",""0""
""fullscreenenter"",""0"",""1485""
""fullscreenexit"",""2"",""4819""
""blur"",""2"",""6694""
""focus"",""2"",""7786""
""blur"",""4"",""21398""
""focus"",""4"",""21573""
""blur"",""4"",""21586""
""focus"",""4"",""24798""
""blur"",""6"",""42750""
""focus"",""6"",""51727""
","""event"",""trial"",""time""
""blur"",""0"",""0""
""blur"",""0"",""0""
""blur"",""2"",""6694""
""blur"",""4"",""21398""
""blur"",""4"",""21586""
""blur"",""6"",""42750""
","""event"",""trial"",""time""
""focus"",""0"",""0""
""focus"",""0"",""0""
""focus"",""2"",""7786""
""focus"",""4"",""21573""
""focus"",""4"",""24798""
""focus"",""6"",""51727""
","""event"",""trial"",""time""
""fullscreenenter"",""0"",""1485""
","""event"",""trial"",""time""
""fullscreenexit"",""2"",""4819""
","null","run_exp/static/audio/clip_34_recognition_2.m4a","null","","","","","<div class='center'><p> You will press the 5, 6, 7, 8 keys on your keyboard to respond.</p><p>If you are sure you saw the ship, press <b>5</b> on your keyboard.</p><p> If you think you saw it before but aren't sure, then press <b>6</b>.</p><p> If you think you have <b>not</b> seen it before but aren't sure, then press <b>7</b>.</p><p> If you are sure you did <b>not</b> see the ship before, then press <b>8</b>.</p><p><img src='run_exp/static/images/tutorial/example_recog_trial.png' height='500'></p></div>","","","","","","","","","","","","","","","","","","",""
"","html-keyboard-response","13","116451","0.0-13.0","""event"",""trial"",""time""
""blur"",""0"",""0""
""focus"",""0"",""0""
""blur"",""0"",""0""
""focus"",""0"",""0""
""fullscreenenter"",""0"",""1485""
""fullscreenexit"",""2"",""4819""
""blur"",""2"",""6694""
""focus"",""2"",""7786""
""blur"",""4"",""21398""
""focus"",""4"",""21573""
""blur"",""4"",""21586""
""focus"",""4"",""24798""
""blur"",""6"",""42750""
""focus"",""6"",""51727""
","""event"",""trial"",""time""
""blur"",""0"",""0""
""blur"",""0"",""0""
""blur"",""2"",""6694""
""blur"",""4"",""21398""
""blur"",""4"",""21586""
""blur"",""6"",""42750""
","""event"",""trial"",""time""
""focus"",""0"",""0""
""focus"",""0"",""0""
""focus"",""2"",""7786""
""focus"",""4"",""21573""
""focus"",""4"",""24798""
""focus"",""6"",""51727""
","""event"",""trial"",""time""
""fullscreenenter"",""0"",""1485""
","""event"",""trial"",""time""
""fullscreenexit"",""2"",""4819""
","1328.5","<div class='center'><p> You will press the 5, 6, 7, 8 keys on your keyboard to respond.</p><p>If you are sure you saw the ship, press <b>5</b> on your keyboard.</p><p> If you think you saw it before but aren't sure, then press <b>6</b>.</p><p> If you think you have <b>not</b> seen it before but aren't sure, then press <b>7</b>.</p><p> If you are sure you did <b>not</b> see the ship before, then press <b>8</b>.</p><p><img src='run_exp/static/images/tutorial/example_recog_trial.png' height='500'></p><p><b>[Press the space bar to continue]</b></p></div>","32","","","","","","","","","","","","","","","","","","","","","","","",""
"","explain_outcome","14","133622","0.0-14.0","""event"",""trial"",""time""
""blur"",""0"",""0""
""focus"",""0"",""0""
""blur"",""0"",""0""
""focus"",""0"",""0""
""fullscreenenter"",""0"",""1485""
""fullscreenexit"",""2"",""4819""
""blur"",""2"",""6694""
""focus"",""2"",""7786""
""blur"",""4"",""21398""
""focus"",""4"",""21573""
""blur"",""4"",""21586""
""focus"",""4"",""24798""
""blur"",""6"",""42750""
""focus"",""6"",""51727""
","""event"",""trial"",""time""
""blur"",""0"",""0""
""blur"",""0"",""0""
""blur"",""2"",""6694""
""blur"",""4"",""21398""
""blur"",""4"",""21586""
""blur"",""6"",""42750""
","""event"",""trial"",""time""
""focus"",""0"",""0""
""focus"",""0"",""0""
""focus"",""2"",""7786""
""focus"",""4"",""21573""
""focus"",""4"",""24798""
""focus"",""6"",""51727""
","""event"",""trial"",""time""
""fullscreenenter"",""0"",""1485""
","""event"",""trial"",""time""
""fullscreenexit"",""2"",""4819""
","null","run_exp/static/audio/clip_35_recognition_3.m4a","null","","","","","<div class='center'><p> If you remember correctly, then you’ll get a gold coin like this: </p><p><img src='run_exp/static/images/tutorial/reward_small.png' height='200'></p><p>If you do not remember correctly, then you'll see a red x like this: </p><p><img src='run_exp/static/images/tutorial/reward_no.png' height='200'></p><p>Importantly, when you are shown a ship, take the time to remind yourself which island you saw it on. This will help you in the next part of the study.</p></div>","","","","","","","","","","","","","","","","","","",""
"","html-keyboard-response","15","135419","0.0-15.0","""event"",""trial"",""time""
""blur"",""0"",""0""
""focus"",""0"",""0""
""blur"",""0"",""0""
""focus"",""0"",""0""
""fullscreenenter"",""0"",""1485""
""fullscreenexit"",""2"",""4819""
""blur"",""2"",""6694""
""focus"",""2"",""7786""
""blur"",""4"",""21398""
""focus"",""4"",""21573""
""blur"",""4"",""21586""
""focus"",""4"",""24798""
""blur"",""6"",""42750""
""focus"",""6"",""51727""
","""event"",""trial"",""time""
""blur"",""0"",""0""
""blur"",""0"",""0""
""blur"",""2"",""6694""
""blur"",""4"",""21398""
""blur"",""4"",""21586""
""blur"",""6"",""42750""
","""event"",""trial"",""time""
""focus"",""0"",""0""
""focus"",""0"",""0""
""focus"",""2"",""7786""
""focus"",""4"",""21573""
""focus"",""4"",""24798""
""focus"",""6"",""51727""
","""event"",""trial"",""time""
""fullscreenenter"",""0"",""1485""
","""event"",""trial"",""time""
""fullscreenexit"",""2"",""4819""
","1796.1999999284744","<div class='center'><p> If you remember correctly, then you’ll get a gold coin like this: </p><p><img src='run_exp/static/images/tutorial/reward_small.png' height='200'></p><p>If you do not remember correctly, then you'll see a red x like this: </p><p><img src='run_exp/static/images/tutorial/reward_no.png' height='200'></p><p>Importantly, when you are shown a ship, take the time to remind yourself which island you saw it on. This will help you in the next part of the study.</p><p><b>[Press the space bar to continue]</b></p></div>","32","","","","","","","","","","","","","","","","","","","","","","","",""
"","begin_test_phase","16","151223","0.0-16.0","""event"",""trial"",""time""
""blur"",""0"",""0""
""focus"",""0"",""0""
""blur"",""0"",""0""
""focus"",""0"",""0""
""fullscreenenter"",""0"",""1485""
""fullscreenexit"",""2"",""4819""
""blur"",""2"",""6694""
""focus"",""2"",""7786""
""blur"",""4"",""21398""
""focus"",""4"",""21573""
""blur"",""4"",""21586""
""focus"",""4"",""24798""
""blur"",""6"",""42750""
""focus"",""6"",""51727""
","""event"",""trial"",""time""
""blur"",""0"",""0""
""blur"",""0"",""0""
""blur"",""2"",""6694""
""blur"",""4"",""21398""
""blur"",""4"",""21586""
""blur"",""6"",""42750""
","""event"",""trial"",""time""
""focus"",""0"",""0""
""focus"",""0"",""0""
""focus"",""2"",""7786""
""focus"",""4"",""21573""
""focus"",""4"",""24798""
""focus"",""6"",""51727""
","""event"",""trial"",""time""
""fullscreenenter"",""0"",""1485""
","""event"",""trial"",""time""
""fullscreenexit"",""2"",""4819""
","null","run_exp/static/audio/clip_36_begin_final.m4a","null","","","","","<div class='center'><p>Let's go over the important points again. Your job is to: </p><p>1. Pick the pirate who is best at robbing ships and will bring you back gold coins. </p><p>2. Correctly remember whether or not you saw a ship before. If you did see the ship before, remind yourself on which island you saw it. </p></div>","","","","","","","","","","","","","","","","","","",""
"","html-keyboard-response","17","154966","0.0-17.0","""event"",""trial"",""time""
""blur"",""0"",""0""
""focus"",""0"",""0""
""blur"",""0"",""0""
""focus"",""0"",""0""
""fullscreenenter"",""0"",""1485""
""fullscreenexit"",""2"",""4819""
""blur"",""2"",""6694""
""focus"",""2"",""7786""
""blur"",""4"",""21398""
""focus"",""4"",""21573""
""blur"",""4"",""21586""
""focus"",""4"",""24798""
""blur"",""6"",""42750""
""focus"",""6"",""51727""
","""event"",""trial"",""time""
""blur"",""0"",""0""
""blur"",""0"",""0""
""blur"",""2"",""6694""
""blur"",""4"",""21398""
""blur"",""4"",""21586""
""blur"",""6"",""42750""
","""event"",""trial"",""time""
""focus"",""0"",""0""
""focus"",""0"",""0""
""focus"",""2"",""7786""
""focus"",""4"",""21573""
""focus"",""4"",""24798""
""focus"",""6"",""51727""
","""event"",""trial"",""time""
""fullscreenenter"",""0"",""1485""
","""event"",""trial"",""time""
""fullscreenexit"",""2"",""4819""
","3705.5999999046326","<div class='center'><p>Let's go over the important points again. Your job is to: </p><p>1. Pick the pirate who is best at robbing ships and will bring you back gold coins. </p><p>2. Correctly remember whether or not you saw a ship before. If you did see the ship before, remind yourself on which island you saw it. </p><p><b>[Press the space bar to continue]</b></p></div>","32","","","","","","","","","","","","","","","","","","","","","","","",""
"","do_welcome","18","158970","0.0-18.0","""event"",""trial"",""time""
""blur"",""0"",""0""
""focus"",""0"",""0""
""blur"",""0"",""0""
""focus"",""0"",""0""
""fullscreenenter"",""0"",""1485""
""fullscreenexit"",""2"",""4819""
""blur"",""2"",""6694""
""focus"",""2"",""7786""
""blur"",""4"",""21398""
""focus"",""4"",""21573""
""blur"",""4"",""21586""
""focus"",""4"",""24798""
""blur"",""6"",""42750""
""focus"",""6"",""51727""
","""event"",""trial"",""time""
""blur"",""0"",""0""
""blur"",""0"",""0""
""blur"",""2"",""6694""
""blur"",""4"",""21398""
""blur"",""4"",""21586""
""blur"",""6"",""42750""
","""event"",""trial"",""time""
""focus"",""0"",""0""
""focus"",""0"",""0""
""focus"",""2"",""7786""
""focus"",""4"",""21573""
""focus"",""4"",""24798""
""focus"",""6"",""51727""
","""event"",""trial"",""time""
""fullscreenenter"",""0"",""1485""
","""event"",""trial"",""time""
""fullscreenexit"",""2"",""4819""
","null","","","","","","","","null","","","","","","","","","","","","","","","","","",""
"","do_trial","19","165004","0.0-19.0-0.0","""event"",""trial"",""time""
""blur"",""0"",""0""
""focus"",""0"",""0""
""blur"",""0"",""0""
""focus"",""0"",""0""
""fullscreenenter"",""0"",""1485""
""fullscreenexit"",""2"",""4819""
""blur"",""2"",""6694""
""focus"",""2"",""7786""
""blur"",""4"",""21398""
""focus"",""4"",""21573""
""blur"",""4"",""21586""
""focus"",""4"",""24798""
""blur"",""6"",""42750""
""focus"",""6"",""51727""
","""event"",""trial"",""time""
""blur"",""0"",""0""
""blur"",""0"",""0""
""blur"",""2"",""6694""
""blur"",""4"",""21398""
""blur"",""4"",""21586""
""blur"",""6"",""42750""
","""event"",""trial"",""time""
""focus"",""0"",""0""
""focus"",""0"",""0""
""focus"",""2"",""7786""
""focus"",""4"",""21573""
""focus"",""4"",""24798""
""focus"",""6"",""51727""
","""event"",""trial"",""time""
""fullscreenenter"",""0"",""1485""
","""event"",""trial"",""time""
""fullscreenexit"",""2"",""4819""
","null","","","","","","","","null","0,0,0","6","blank","230","null","0.13636582338082165","0.4513745127785119","0.6015923289626381","","","","","","","","","",""
"","html-keyboard-response","20","166006","0.0-19.0-1.0","""event"",""trial"",""time""
""blur"",""0"",""0""
""focus"",""0"",""0""
""blur"",""0"",""0""
""focus"",""0"",""0""
""fullscreenenter"",""0"",""1485""
""fullscreenexit"",""2"",""4819""
""blur"",""2"",""6694""
""focus"",""2"",""7786""
""blur"",""4"",""21398""
""focus"",""4"",""21573""
""blur"",""4"",""21586""
""focus"",""4"",""24798""
""blur"",""6"",""42750""
""focus"",""6"",""51727""
","""event"",""trial"",""time""
""blur"",""0"",""0""
""blur"",""0"",""0""
""blur"",""2"",""6694""
""blur"",""4"",""21398""
""blur"",""4"",""21586""
""blur"",""6"",""42750""
","""event"",""trial"",""time""
""focus"",""0"",""0""
""focus"",""0"",""0""
""focus"",""2"",""7786""
""focus"",""4"",""21573""
""focus"",""4"",""24798""
""focus"",""6"",""51727""
","""event"",""trial"",""time""
""fullscreenenter"",""0"",""1485""
","""event"",""trial"",""time""
""fullscreenexit"",""2"",""4819""
","null","<p></p>","null","","","","","","","","","","","","","","","","","","","","","","","",""
"","do_trial","21","168803","0.0-20.0-0.0","""event"",""trial"",""time""
""blur"",""0"",""0""
""focus"",""0"",""0""
""blur"",""0"",""0""
""focus"",""0"",""0""
""fullscreenenter"",""0"",""1485""
""fullscreenexit"",""2"",""4819""
""blur"",""2"",""6694""
""focus"",""2"",""7786""
""blur"",""4"",""21398""
""focus"",""4"",""21573""
""blur"",""4"",""21586""
""focus"",""4"",""24798""
""blur"",""6"",""42750""
""focus"",""6"",""51727""
","""event"",""trial"",""time""
""blur"",""0"",""0""
""blur"",""0"",""0""
""blur"",""2"",""6694""
""blur"",""4"",""21398""
""blur"",""4"",""21586""
""blur"",""6"",""42750""
","""event"",""trial"",""time""
""focus"",""0"",""0""
""focus"",""0"",""0""
""focus"",""2"",""7786""
""focus"",""4"",""21573""
""focus"",""4"",""24798""
""focus"",""6"",""51727""
","""event"",""trial"",""time""
""fullscreenenter"",""0"",""1485""
","""event"",""trial"",""time""
""fullscreenexit"",""2"",""4819""
","264.39999997615814","","","","","","","","49","0,0,1","6","blank","231","null","0.1313387454155705","0.33648820033625515","0.630370572730131","0","","","","","","","","",""
"","html-keyboard-response","22","169804","0.0-20.0-1.0","""event"",""trial"",""time""
""blur"",""0"",""0""
""focus"",""0"",""0""
""blur"",""0"",""0""
""focus"",""0"",""0""
""fullscreenenter"",""0"",""1485""
""fullscreenexit"",""2"",""4819""
""blur"",""2"",""6694""
""focus"",""2"",""7786""
""blur"",""4"",""21398""
""focus"",""4"",""21573""
""blur"",""4"",""21586""
""focus"",""4"",""24798""
""blur"",""6"",""42750""
""focus"",""6"",""51727""
","""event"",""trial"",""time""
""blur"",""0"",""0""
""blur"",""0"",""0""
""blur"",""2"",""6694""
""blur"",""4"",""21398""
""blur"",""4"",""21586""
""blur"",""6"",""42750""
","""event"",""trial"",""time""
""focus"",""0"",""0""
""focus"",""0"",""0""
""focus"",""2"",""7786""
""focus"",""4"",""21573""
""focus"",""4"",""24798""
""focus"",""6"",""51727""
","""event"",""trial"",""time""
""fullscreenenter"",""0"",""1485""
","""event"",""trial"",""time""
""fullscreenexit"",""2"",""4819""
","null","<p></p>","null","","","","","","","","","","","","","","","","","","","","","","","",""
"","do_trial","23","172585","0.0-21.0-0.0","""event"",""trial"",""time""
""blur"",""0"",""0""
""focus"",""0"",""0""
""blur"",""0"",""0""
""focus"",""0"",""0""
""fullscreenenter"",""0"",""1485""
""fullscreenexit"",""2"",""4819""
""blur"",""2"",""6694""
""focus"",""2"",""7786""
""blur"",""4"",""21398""
""focus"",""4"",""21573""
""blur"",""4"",""21586""
""focus"",""4"",""24798""
""blur"",""6"",""42750""
""focus"",""6"",""51727""
","""event"",""trial"",""time""
""blur"",""0"",""0""
""blur"",""0"",""0""
""blur"",""2"",""6694""
""blur"",""4"",""21398""
""blur"",""4"",""21586""
""blur"",""6"",""42750""
","""event"",""trial"",""time""
""focus"",""0"",""0""
""focus"",""0"",""0""
""focus"",""2"",""7786""
""focus"",""4"",""21573""
""focus"",""4"",""24798""
""focus"",""6"",""51727""
","""event"",""trial"",""time""
""fullscreenenter"",""0"",""1485""
","""event"",""trial"",""time""
""fullscreenexit"",""2"",""4819""
","248.90000009536743","","","","","","","","49","1,0,1","6","blank","232","null","0.2600282876803241","0.30983219207979085","0.5536606028823876","1","","","","","","","","",""
"","html-keyboard-response","24","173587","0.0-21.0-1.0","""event"",""trial"",""time""
""blur"",""0"",""0""
""focus"",""0"",""0""
""blur"",""0"",""0""
""focus"",""0"",""0""
""fullscreenenter"",""0"",""1485""
""fullscreenexit"",""2"",""4819""
""blur"",""2"",""6694""
""focus"",""2"",""7786""
""blur"",""4"",""21398""
""focus"",""4"",""21573""
""blur"",""4"",""21586""
""focus"",""4"",""24798""
""blur"",""6"",""42750""
""focus"",""6"",""51727""
","""event"",""trial"",""time""
""blur"",""0"",""0""
""blur"",""0"",""0""
""blur"",""2"",""6694""
""blur"",""4"",""21398""
""blur"",""4"",""21586""
""blur"",""6"",""42750""
","""event"",""trial"",""time""
""focus"",""0"",""0""
""focus"",""0"",""0""
""focus"",""2"",""7786""
""focus"",""4"",""21573""
""focus"",""4"",""24798""
""focus"",""6"",""51727""
","""event"",""trial"",""time""
""fullscreenenter"",""0"",""1485""
","""event"",""trial"",""time""
""fullscreenexit"",""2"",""4819""
","null","<p></p>","null","","","","","","","","","","","","","","","","","","","","","","","",""
"","do_trial","25","176357","0.0-22.0-0.0","""event"",""trial"",""time""
""blur"",""0"",""0""
""focus"",""0"",""0""
""blur"",""0"",""0""
""focus"",""0"",""0""
""fullscreenenter"",""0"",""1485""
""fullscreenexit"",""2"",""4819""
""blur"",""2"",""6694""
""focus"",""2"",""7786""
""blur"",""4"",""21398""
""focus"",""4"",""21573""
""blur"",""4"",""21586""
""focus"",""4"",""24798""
""blur"",""6"",""42750""
""focus"",""6"",""51727""
","""event"",""trial"",""time""
""blur"",""0"",""0""
""blur"",""0"",""0""
""blur"",""2"",""6694""
""blur"",""4"",""21398""
""blur"",""4"",""21586""
""blur"",""6"",""42750""
","""event"",""trial"",""time""
""focus"",""0"",""0""
""focus"",""0"",""0""
""focus"",""2"",""7786""
""focus"",""4"",""21573""
""focus"",""4"",""24798""
""focus"",""6"",""51727""
","""event"",""trial"",""time""
""fullscreenenter"",""0"",""1485""
","""event"",""trial"",""time""
""fullscreenexit"",""2"",""4819""
","227.39999997615814","","","","","","","","49","0,0,1","6","blank","233","null","0.3564876306779366","0.26009302272930596","0.6352846480475056","0","","","","","","","","",""
"","html-keyboard-response","26","177360","0.0-22.0-1.0","""event"",""trial"",""time""
""blur"",""0"",""0""
""focus"",""0"",""0""
""blur"",""0"",""0""
""focus"",""0"",""0""
""fullscreenenter"",""0"",""1485""
""fullscreenexit"",""2"",""4819""
""blur"",""2"",""6694""
""focus"",""2"",""7786""
""blur"",""4"",""21398""
""focus"",""4"",""21573""
""blur"",""4"",""21586""
""focus"",""4"",""24798""
""blur"",""6"",""42750""
""focus"",""6"",""51727""
","""event"",""trial"",""time""
""blur"",""0"",""0""
""blur"",""0"",""0""
""blur"",""2"",""6694""
""blur"",""4"",""21398""
""blur"",""4"",""21586""
""blur"",""6"",""42750""
","""event"",""trial"",""time""
""focus"",""0"",""0""
""focus"",""0"",""0""
""focus"",""2"",""7786""
""focus"",""4"",""21573""
""focus"",""4"",""24798""
""focus"",""6"",""51727""
","""event"",""trial"",""time""
""fullscreenenter"",""0"",""1485""
","""event"",""trial"",""time""
""fullscreenexit"",""2"",""4819""
","null","<p></p>","null","","","","","","","","","","","","","","","","","","","","","","","",""
"","do_trial","27","179941","0.0-23.0-0.0","""event"",""trial"",""time""
""blur"",""0"",""0""
""focus"",""0"",""0""
""blur"",""0"",""0""
""focus"",""0"",""0""
""fullscreenenter"",""0"",""1485""
""fullscreenexit"",""2"",""4819""
""blur"",""2"",""6694""
""focus"",""2"",""7786""
""blur"",""4"",""21398""
""focus"",""4"",""21573""
""blur"",""4"",""21586""
""focus"",""4"",""24798""
""blur"",""6"",""42750""
""focus"",""6"",""51727""
","""event"",""trial"",""time""
""blur"",""0"",""0""
""blur"",""0"",""0""
""blur"",""2"",""6694""
""blur"",""4"",""21398""
""blur"",""4"",""21586""
""blur"",""6"",""42750""
","""event"",""trial"",""time""
""focus"",""0"",""0""
""focus"",""0"",""0""
""focus"",""2"",""7786""
""focus"",""4"",""21573""
""focus"",""4"",""24798""
""focus"",""6"",""51727""
","""event"",""trial"",""time""
""fullscreenenter"",""0"",""1485""
","""event"",""trial"",""time""
""fullscreenexit"",""2"",""4819""
","31.100000023841858","","","","","","","","49","0,0,1","6","blank","234","null","0.24182639303071207","0.22236005777711298","0.716915736767987","0","","","","","","","","",""
"","html-keyboard-response","28","180943","0.0-23.0-1.0","""event"",""trial"",""time""
""blur"",""0"",""0""
""focus"",""0"",""0""
""blur"",""0"",""0""
""focus"",""0"",""0""
""fullscreenenter"",""0"",""1485""
""fullscreenexit"",""2"",""4819""
""blur"",""2"",""6694""
""focus"",""2"",""7786""
""blur"",""4"",""21398""
""focus"",""4"",""21573""
""blur"",""4"",""21586""
""focus"",""4"",""24798""
""blur"",""6"",""42750""
""focus"",""6"",""51727""
","""event"",""trial"",""time""
""blur"",""0"",""0""
""blur"",""0"",""0""
""blur"",""2"",""6694""
""blur"",""4"",""21398""
""blur"",""4"",""21586""
""blur"",""6"",""42750""
","""event"",""trial"",""time""
""focus"",""0"",""0""
""focus"",""0"",""0""
""focus"",""2"",""7786""
""focus"",""4"",""21573""
""focus"",""4"",""24798""
""focus"",""6"",""51727""
","""event"",""trial"",""time""
""fullscreenenter"",""0"",""1485""
","""event"",""trial"",""time""
""fullscreenexit"",""2"",""4819""
","null","<p></p>","null","","","","","","","","","","","","","","","","","","","","","","","",""
"","do_trial","29","183621","0.0-24.0-0.0","""event"",""trial"",""time""
""blur"",""0"",""0""
""focus"",""0"",""0""
""blur"",""0"",""0""
""focus"",""0"",""0""
""fullscreenenter"",""0"",""1485""
""fullscreenexit"",""2"",""4819""
""blur"",""2"",""6694""
""focus"",""2"",""7786""
""blur"",""4"",""21398""
""focus"",""4"",""21573""
""blur"",""4"",""21586""
""focus"",""4"",""24798""
""blur"",""6"",""42750""
""focus"",""6"",""51727""
","""event"",""trial"",""time""
""blur"",""0"",""0""
""blur"",""0"",""0""
""blur"",""2"",""6694""
""blur"",""4"",""21398""
""blur"",""4"",""21586""
""blur"",""6"",""42750""
","""event"",""trial"",""time""
""focus"",""0"",""0""
""focus"",""0"",""0""
""focus"",""2"",""7786""
""focus"",""4"",""21573""
""focus"",""4"",""24798""
""focus"",""6"",""51727""
","""event"",""trial"",""time""
""fullscreenenter"",""0"",""1485""
","""event"",""trial"",""time""
""fullscreenexit"",""2"",""4819""
","121.20000004768372","","","","","","","","49","1,0,1","6","blank","235","null","0.11046793572210085","0.2618191469054071","0.7526461647387314","1","","","","","","","","",""
"","html-keyboard-response","30","184622","0.0-24.0-1.0","""event"",""trial"",""time""
""blur"",""0"",""0""
""focus"",""0"",""0""
""blur"",""0"",""0""
""focus"",""0"",""0""
""fullscreenenter"",""0"",""1485""
""fullscreenexit"",""2"",""4819""
""blur"",""2"",""6694""
""focus"",""2"",""7786""
""blur"",""4"",""21398""
""focus"",""4"",""21573""
""blur"",""4"",""21586""
""focus"",""4"",""24798""
""blur"",""6"",""42750""
""focus"",""6"",""51727""
","""event"",""trial"",""time""
""blur"",""0"",""0""
""blur"",""0"",""0""
""blur"",""2"",""6694""
""blur"",""4"",""21398""
""blur"",""4"",""21586""
""blur"",""6"",""42750""
","""event"",""trial"",""time""
""focus"",""0"",""0""
""focus"",""0"",""0""
""focus"",""2"",""7786""
""focus"",""4"",""21573""
""focus"",""4"",""24798""
""focus"",""6"",""51727""
","""event"",""trial"",""time""
""fullscreenenter"",""0"",""1485""
","""event"",""trial"",""time""
""fullscreenexit"",""2"",""4819""
","null","<p></p>","null","","","","","","","","","","","","","","","","","","","","","","","",""
"","do_trial","31","187220","0.0-25.0-0.0","""event"",""trial"",""time""
""blur"",""0"",""0""
""focus"",""0"",""0""
""blur"",""0"",""0""
""focus"",""0"",""0""
""fullscreenenter"",""0"",""1485""
""fullscreenexit"",""2"",""4819""
""blur"",""2"",""6694""
""focus"",""2"",""7786""
""blur"",""4"",""21398""
""focus"",""4"",""21573""
""blur"",""4"",""21586""
""focus"",""4"",""24798""
""blur"",""6"",""42750""
""focus"",""6"",""51727""
","""event"",""trial"",""time""
""blur"",""0"",""0""
""blur"",""0"",""0""
""blur"",""2"",""6694""
""blur"",""4"",""21398""
""blur"",""4"",""21586""
""blur"",""6"",""42750""
","""event"",""trial"",""time""
""focus"",""0"",""0""
""focus"",""0"",""0""
""focus"",""2"",""7786""
""focus"",""4"",""21573""
""focus"",""4"",""24798""
""focus"",""6"",""51727""
","""event"",""trial"",""time""
""fullscreenenter"",""0"",""1485""
","""event"",""trial"",""time""
""fullscreenexit"",""2"",""4819""
","63.300000071525574","","","","","","","","50","0,0,1","6","blank","236","null","0.14666612314296193","0.26769339669388154","0.6666695299283315","0","","","","","","","","",""
"","html-keyboard-response","32","188223","0.0-25.0-1.0","""event"",""trial"",""time""
""blur"",""0"",""0""
""focus"",""0"",""0""
""blur"",""0"",""0""
""focus"",""0"",""0""
""fullscreenenter"",""0"",""1485""
""fullscreenexit"",""2"",""4819""
""blur"",""2"",""6694""
""focus"",""2"",""7786""
""blur"",""4"",""21398""
""focus"",""4"",""21573""
""blur"",""4"",""21586""
""focus"",""4"",""24798""
""blur"",""6"",""42750""
""focus"",""6"",""51727""
","""event"",""trial"",""time""
""blur"",""0"",""0""
""blur"",""0"",""0""
""blur"",""2"",""6694""
""blur"",""4"",""21398""
""blur"",""4"",""21586""
""blur"",""6"",""42750""
","""event"",""trial"",""time""
""focus"",""0"",""0""
""focus"",""0"",""0""
""focus"",""2"",""7786""
""focus"",""4"",""21573""
""focus"",""4"",""24798""
""focus"",""6"",""51727""
","""event"",""trial"",""time""
""fullscreenenter"",""0"",""1485""
","""event"",""trial"",""time""
""fullscreenexit"",""2"",""4819""
","null","<p></p>","null","","","","","","","","","","","","","","","","","","","","","","","",""
"","do_trial","33","190980","0.0-26.0-0.0","""event"",""trial"",""time""
""blur"",""0"",""0""
""focus"",""0"",""0""
""blur"",""0"",""0""
""focus"",""0"",""0""
""fullscreenenter"",""0"",""1485""
""fullscreenexit"",""2"",""4819""
""blur"",""2"",""6694""
""focus"",""2"",""7786""
""blur"",""4"",""21398""
""focus"",""4"",""21573""
""blur"",""4"",""21586""
""focus"",""4"",""24798""
""blur"",""6"",""42750""
""focus"",""6"",""51727""
","""event"",""trial"",""time""
""blur"",""0"",""0""
""blur"",""0"",""0""
""blur"",""2"",""6694""
""blur"",""4"",""21398""
""blur"",""4"",""21586""
""blur"",""6"",""42750""
","""event"",""trial"",""time""
""focus"",""0"",""0""
""focus"",""0"",""0""
""focus"",""2"",""7786""
""focus"",""4"",""21573""
""focus"",""4"",""24798""
""focus"",""6"",""51727""
","""event"",""trial"",""time""
""fullscreenenter"",""0"",""1485""
","""event"",""trial"",""time""
""fullscreenexit"",""2"",""4819""
","199.09999990463257","","","","","","","","50","0,1,0","6","blank","237","null","0.1556803979787486","0.24906355805013705","0.8735411875810323","1","","","","","","","","",""
"","html-keyboard-response","34","191982","0.0-26.0-1.0","""event"",""trial"",""time""
""blur"",""0"",""0""
""focus"",""0"",""0""
""blur"",""0"",""0""
""focus"",""0"",""0""
""fullscreenenter"",""0"",""1485""
""fullscreenexit"",""2"",""4819""
""blur"",""2"",""6694""
""focus"",""2"",""7786""
""blur"",""4"",""21398""
""focus"",""4"",""21573""
""blur"",""4"",""21586""
""focus"",""4"",""24798""
""blur"",""6"",""42750""
""focus"",""6"",""51727""
","""event"",""trial"",""time""
""blur"",""0"",""0""
""blur"",""0"",""0""
""blur"",""2"",""6694""
""blur"",""4"",""21398""
""blur"",""4"",""21586""
""blur"",""6"",""42750""
","""event"",""trial"",""time""
""focus"",""0"",""0""
""focus"",""0"",""0""
""focus"",""2"",""7786""
""focus"",""4"",""21573""
""focus"",""4"",""24798""
""focus"",""6"",""51727""
","""event"",""trial"",""time""
""fullscreenenter"",""0"",""1485""
","""event"",""trial"",""time""
""fullscreenexit"",""2"",""4819""
","null","<p></p>","null","","","","","","","","","","","","","","","","","","","","","","","",""
"","do_trial","35","194660","0.0-27.0-0.0","""event"",""trial"",""time""
""blur"",""0"",""0""
""focus"",""0"",""0""
""blur"",""0"",""0""
""focus"",""0"",""0""
""fullscreenenter"",""0"",""1485""
""fullscreenexit"",""2"",""4819""
""blur"",""2"",""6694""
""focus"",""2"",""7786""
""blur"",""4"",""21398""
""focus"",""4"",""21573""
""blur"",""4"",""21586""
""focus"",""4"",""24798""
""blur"",""6"",""42750""
""focus"",""6"",""51727""
","""event"",""trial"",""time""
""blur"",""0"",""0""
""blur"",""0"",""0""
""blur"",""2"",""6694""
""blur"",""4"",""21398""
""blur"",""4"",""21586""
""blur"",""6"",""42750""
","""event"",""trial"",""time""
""focus"",""0"",""0""
""focus"",""0"",""0""
""focus"",""2"",""7786""
""focus"",""4"",""21573""
""focus"",""4"",""24798""
""focus"",""6"",""51727""
","""event"",""trial"",""time""
""fullscreenenter"",""0"",""1485""
","""event"",""trial"",""time""
""fullscreenexit"",""2"",""4819""
","144.60000002384186","","","","","","","","50","0,1,1","6","blank","238","null","0.15723355092980645","0.353634360801389","0.944064220178706","1","","","","","","","","",""
"","html-keyboard-response","36","195662","0.0-27.0-1.0","""event"",""trial"",""time""
""blur"",""0"",""0""
""focus"",""0"",""0""
""blur"",""0"",""0""
""focus"",""0"",""0""
""fullscreenenter"",""0"",""1485""
""fullscreenexit"",""2"",""4819""
""blur"",""2"",""6694""
""focus"",""2"",""7786""
""blur"",""4"",""21398""
""focus"",""4"",""21573""
""blur"",""4"",""21586""
""focus"",""4"",""24798""
""blur"",""6"",""42750""
""focus"",""6"",""51727""
","""event"",""trial"",""time""
""blur"",""0"",""0""
""blur"",""0"",""0""
""blur"",""2"",""6694""
""blur"",""4"",""21398""
""blur"",""4"",""21586""
""blur"",""6"",""42750""
","""event"",""trial"",""time""
""focus"",""0"",""0""
""focus"",""0"",""0""
""focus"",""2"",""7786""
""focus"",""4"",""21573""
""focus"",""4"",""24798""
""focus"",""6"",""51727""
","""event"",""trial"",""time""
""fullscreenenter"",""0"",""1485""
","""event"",""trial"",""time""
""fullscreenexit"",""2"",""4819""
","null","<p></p>","null","","","","","","","","","","","","","","","","","","","","","","","",""
"","do_trial","37","198410","0.0-28.0-0.0","""event"",""trial"",""time""
""blur"",""0"",""0""
""focus"",""0"",""0""
""blur"",""0"",""0""
""focus"",""0"",""0""
""fullscreenenter"",""0"",""1485""
""fullscreenexit"",""2"",""4819""
""blur"",""2"",""6694""
""focus"",""2"",""7786""
""blur"",""4"",""21398""
""focus"",""4"",""21573""
""blur"",""4"",""21586""
""focus"",""4"",""24798""
""blur"",""6"",""42750""
""focus"",""6"",""51727""
","""event"",""trial"",""time""
""blur"",""0"",""0""
""blur"",""0"",""0""
""blur"",""2"",""6694""
""blur"",""4"",""21398""
""blur"",""4"",""21586""
""blur"",""6"",""42750""
","""event"",""trial"",""time""
""focus"",""0"",""0""
""focus"",""0"",""0""
""focus"",""2"",""7786""
""focus"",""4"",""21573""
""focus"",""4"",""24798""
""focus"",""6"",""51727""
","""event"",""trial"",""time""
""fullscreenenter"",""0"",""1485""
","""event"",""trial"",""time""
""fullscreenexit"",""2"",""4819""
","202.80000007152557","","","","","","","","50","0,0,1","6","blank","239","null","0.17517307890519881","0.33103946550318375","0.8004708216542354","0","","","","","","","","",""
"","html-keyboard-response","38","199412","0.0-28.0-1.0","""event"",""trial"",""time""
""blur"",""0"",""0""
""focus"",""0"",""0""
""blur"",""0"",""0""
""focus"",""0"",""0""
""fullscreenenter"",""0"",""1485""
""fullscreenexit"",""2"",""4819""
""blur"",""2"",""6694""
""focus"",""2"",""7786""
""blur"",""4"",""21398""
""focus"",""4"",""21573""
""blur"",""4"",""21586""
""focus"",""4"",""24798""
""blur"",""6"",""42750""
""focus"",""6"",""51727""
","""event"",""trial"",""time""
""blur"",""0"",""0""
""blur"",""0"",""0""
""blur"",""2"",""6694""
""blur"",""4"",""21398""
""blur"",""4"",""21586""
""blur"",""6"",""42750""
","""event"",""trial"",""time""
""focus"",""0"",""0""
""focus"",""0"",""0""
""focus"",""2"",""7786""
""focus"",""4"",""21573""
""focus"",""4"",""24798""
""focus"",""6"",""51727""
","""event"",""trial"",""time""
""fullscreenenter"",""0"",""1485""
","""event"",""trial"",""time""
""fullscreenexit"",""2"",""4819""
","null","<p></p>","null","","","","","","","","","","","","","","","","","","","","","","","",""
"","do_trial","39","202162","0.0-29.0-0.0","""event"",""trial"",""time""
""blur"",""0"",""0""
""focus"",""0"",""0""
""blur"",""0"",""0""
""focus"",""0"",""0""
""fullscreenenter"",""0"",""1485""
""fullscreenexit"",""2"",""4819""
""blur"",""2"",""6694""
""focus"",""2"",""7786""
""blur"",""4"",""21398""
""focus"",""4"",""21573""
""blur"",""4"",""21586""
""focus"",""4"",""24798""
""blur"",""6"",""42750""
""focus"",""6"",""51727""
","""event"",""trial"",""time""
""blur"",""0"",""0""
""blur"",""0"",""0""
""blur"",""2"",""6694""
""blur"",""4"",""21398""
""blur"",""4"",""21586""
""blur"",""6"",""42750""
","""event"",""trial"",""time""
""focus"",""0"",""0""
""focus"",""0"",""0""
""focus"",""2"",""7786""
""focus"",""4"",""21573""
""focus"",""4"",""24798""
""focus"",""6"",""51727""
","""event"",""trial"",""time""
""fullscreenenter"",""0"",""1485""
","""event"",""trial"",""time""
""fullscreenexit"",""2"",""4819""
","205.79999995231628","","","","","","","","50","0,0,1","6","blank","240","null","0.25946294765348843","0.2577925959460631","0.8692203159202581","0","","","","","","","","",""
"","html-keyboard-response","40","203165","0.0-29.0-1.0","""event"",""trial"",""time""
""blur"",""0"",""0""
""focus"",""0"",""0""
""blur"",""0"",""0""
""focus"",""0"",""0""
""fullscreenenter"",""0"",""1485""
""fullscreenexit"",""2"",""4819""
""blur"",""2"",""6694""
""focus"",""2"",""7786""
""blur"",""4"",""21398""
""focus"",""4"",""21573""
""blur"",""4"",""21586""
""focus"",""4"",""24798""
""blur"",""6"",""42750""
""focus"",""6"",""51727""
","""event"",""trial"",""time""
""blur"",""0"",""0""
""blur"",""0"",""0""
""blur"",""2"",""6694""
""blur"",""4"",""21398""
""blur"",""4"",""21586""
""blur"",""6"",""42750""
","""event"",""trial"",""time""
""focus"",""0"",""0""
""focus"",""0"",""0""
""focus"",""2"",""7786""
""focus"",""4"",""21573""
""focus"",""4"",""24798""
""focus"",""6"",""51727""
","""event"",""trial"",""time""
""fullscreenenter"",""0"",""1485""
","""event"",""trial"",""time""
""fullscreenexit"",""2"",""4819""
","null","<p></p>","null","","","","","","","","","","","","","","","","","","","","","","","",""
"","do_trial","41","205715","0.0-30.0-0.0","""event"",""trial"",""time""
""blur"",""0"",""0""
""focus"",""0"",""0""
""blur"",""0"",""0""
""focus"",""0"",""0""
""fullscreenenter"",""0"",""1485""
""fullscreenexit"",""2"",""4819""
""blur"",""2"",""6694""
""focus"",""2"",""7786""
""blur"",""4"",""21398""
""focus"",""4"",""21573""
""blur"",""4"",""21586""
""focus"",""4"",""24798""
""blur"",""6"",""42750""
""focus"",""6"",""51727""
","""event"",""trial"",""time""
""blur"",""0"",""0""
""blur"",""0"",""0""
""blur"",""2"",""6694""
""blur"",""4"",""21398""
""blur"",""4"",""21586""
""blur"",""6"",""42750""
","""event"",""trial"",""time""
""focus"",""0"",""0""
""focus"",""0"",""0""
""focus"",""2"",""7786""
""focus"",""4"",""21573""
""focus"",""4"",""24798""
""focus"",""6"",""51727""
","""event"",""trial"",""time""
""fullscreenenter"",""0"",""1485""
","""event"",""trial"",""time""
""fullscreenexit"",""2"",""4819""
","0.10000002384185791","","","","","","","","51","0,0,0","6","blank","241","null","0.3214753979083584","0.23310333323615556","0.802121821177446","0","","","","","","","","",""
"","html-keyboard-response","42","206716","0.0-30.0-1.0","""event"",""trial"",""time""
""blur"",""0"",""0""
""focus"",""0"",""0""
""blur"",""0"",""0""
""focus"",""0"",""0""
""fullscreenenter"",""0"",""1485""
""fullscreenexit"",""2"",""4819""
""blur"",""2"",""6694""
""focus"",""2"",""7786""
""blur"",""4"",""21398""
""focus"",""4"",""21573""
""blur"",""4"",""21586""
""focus"",""4"",""24798""
""blur"",""6"",""42750""
""focus"",""6"",""51727""
","""event"",""trial"",""time""
""blur"",""0"",""0""
""blur"",""0"",""0""
""blur"",""2"",""6694""
""blur"",""4"",""21398""
""blur"",""4"",""21586""
""blur"",""6"",""42750""
","""event"",""trial"",""time""
""focus"",""0"",""0""
""focus"",""0"",""0""
""focus"",""2"",""7786""
""focus"",""4"",""21573""
""focus"",""4"",""24798""
""focus"",""6"",""51727""
","""event"",""trial"",""time""
""fullscreenenter"",""0"",""1485""
","""event"",""trial"",""time""
""fullscreenexit"",""2"",""4819""
","null","<p></p>","null","","","","","","","","","","","","","","","","","","","","","","","",""
"","do_trial","43","209342","0.0-31.0-0.0","""event"",""trial"",""time""
""blur"",""0"",""0""
""focus"",""0"",""0""
""blur"",""0"",""0""
""focus"",""0"",""0""
""fullscreenenter"",""0"",""1485""
""fullscreenexit"",""2"",""4819""
""blur"",""2"",""6694""
""focus"",""2"",""7786""
""blur"",""4"",""21398""
""focus"",""4"",""21573""
""blur"",""4"",""21586""
""focus"",""4"",""24798""
""blur"",""6"",""42750""
""focus"",""6"",""51727""
","""event"",""trial"",""time""
""blur"",""0"",""0""
""blur"",""0"",""0""
""blur"",""2"",""6694""
""blur"",""4"",""21398""
""blur"",""4"",""21586""
""blur"",""6"",""42750""
","""event"",""trial"",""time""
""focus"",""0"",""0""
""focus"",""0"",""0""
""focus"",""2"",""7786""
""focus"",""4"",""21573""
""focus"",""4"",""24798""
""focus"",""6"",""51727""
","""event"",""trial"",""time""
""fullscreenenter"",""0"",""1485""
","""event"",""trial"",""time""
""fullscreenexit"",""2"",""4819""
","96.20000004768372","","","","","","","","51","1,0,0","6","blank","242","null","0.47500666516378415","0.21256623863428353","0.6146292748053616","0","","","","","","","","",""
"","html-keyboard-response","44","210345","0.0-31.0-1.0","""event"",""trial"",""time""
""blur"",""0"",""0""
""focus"",""0"",""0""
""blur"",""0"",""0""
""focus"",""0"",""0""
""fullscreenenter"",""0"",""1485""
""fullscreenexit"",""2"",""4819""
""blur"",""2"",""6694""
""focus"",""2"",""7786""
""blur"",""4"",""21398""
""focus"",""4"",""21573""
""blur"",""4"",""21586""
""focus"",""4"",""24798""
""blur"",""6"",""42750""
""focus"",""6"",""51727""
","""event"",""trial"",""time""
""blur"",""0"",""0""
""blur"",""0"",""0""
""blur"",""2"",""6694""
""blur"",""4"",""21398""
""blur"",""4"",""21586""
""blur"",""6"",""42750""
","""event"",""trial"",""time""
""focus"",""0"",""0""
""focus"",""0"",""0""
""focus"",""2"",""7786""
""focus"",""4"",""21573""
""focus"",""4"",""24798""
""focus"",""6"",""51727""
","""event"",""trial"",""time""
""fullscreenenter"",""0"",""1485""
","""event"",""trial"",""time""
""fullscreenexit"",""2"",""4819""
","null","<p></p>","null","","","","","","","","","","","","","","","","","","","","","","","",""
"","do_trial","45","213106","0.0-32.0-0.0","""event"",""trial"",""time""
""blur"",""0"",""0""
""focus"",""0"",""0""
""blur"",""0"",""0""
""focus"",""0"",""0""
""fullscreenenter"",""0"",""1485""
""fullscreenexit"",""2"",""4819""
""blur"",""2"",""6694""
""focus"",""2"",""7786""
""blur"",""4"",""21398""
""focus"",""4"",""21573""
""blur"",""4"",""21586""
""focus"",""4"",""24798""
""blur"",""6"",""42750""
""focus"",""6"",""51727""
","""event"",""trial"",""time""
""blur"",""0"",""0""
""blur"",""0"",""0""
""blur"",""2"",""6694""
""blur"",""4"",""21398""
""blur"",""4"",""21586""
""blur"",""6"",""42750""
","""event"",""trial"",""time""
""focus"",""0"",""0""
""focus"",""0"",""0""
""focus"",""2"",""7786""
""focus"",""4"",""21573""
""focus"",""4"",""24798""
""focus"",""6"",""51727""
","""event"",""trial"",""time""
""fullscreenenter"",""0"",""1485""
","""event"",""trial"",""time""
""fullscreenexit"",""2"",""4819""
","203.70000004768372","","","","","","","","51","0,1,0","6","blank","243","null","0.6530921131599874","0.2885837125683176","0.3498846075248715","0","","","","","","","","",""
"","html-keyboard-response","46","214107","0.0-32.0-1.0","""event"",""trial"",""time""
""blur"",""0"",""0""
""focus"",""0"",""0""
""blur"",""0"",""0""
""focus"",""0"",""0""
""fullscreenenter"",""0"",""1485""
""fullscreenexit"",""2"",""4819""
""blur"",""2"",""6694""
""focus"",""2"",""7786""
""blur"",""4"",""21398""
""focus"",""4"",""21573""
""blur"",""4"",""21586""
""focus"",""4"",""24798""
""blur"",""6"",""42750""
""focus"",""6"",""51727""
","""event"",""trial"",""time""
""blur"",""0"",""0""
""blur"",""0"",""0""
""blur"",""2"",""6694""
""blur"",""4"",""21398""
""blur"",""4"",""21586""
""blur"",""6"",""42750""
","""event"",""trial"",""time""
""focus"",""0"",""0""
""focus"",""0"",""0""
""focus"",""2"",""7786""
""focus"",""4"",""21573""
""focus"",""4"",""24798""
""focus"",""6"",""51727""
","""event"",""trial"",""time""
""fullscreenenter"",""0"",""1485""
","""event"",""trial"",""time""
""fullscreenexit"",""2"",""4819""
","null","<p></p>","null","","","","","","","","","","","","","","","","","","","","","","","",""
"","do_trial","47","216900","0.0-33.0-0.0","""event"",""trial"",""time""
""blur"",""0"",""0""
""focus"",""0"",""0""
""blur"",""0"",""0""
""focus"",""0"",""0""
""fullscreenenter"",""0"",""1485""
""fullscreenexit"",""2"",""4819""
""blur"",""2"",""6694""
""focus"",""2"",""7786""
""blur"",""4"",""21398""
""focus"",""4"",""21573""
""blur"",""4"",""21586""
""focus"",""4"",""24798""
""blur"",""6"",""42750""
""focus"",""6"",""51727""
","""event"",""trial"",""time""
""blur"",""0"",""0""
""blur"",""0"",""0""
""blur"",""2"",""6694""
""blur"",""4"",""21398""
""blur"",""4"",""21586""
""blur"",""6"",""42750""
","""event"",""trial"",""time""
""focus"",""0"",""0""
""focus"",""0"",""0""
""focus"",""2"",""7786""
""focus"",""4"",""21573""
""focus"",""4"",""24798""
""focus"",""6"",""51727""
","""event"",""trial"",""time""
""fullscreenenter"",""0"",""1485""
","""event"",""trial"",""time""
""fullscreenexit"",""2"",""4819""
","248","","","","","","","","51","1,0,0","6","blank","244","null","0.5854924355426437","0.11523524596338199","0.17255013006209488","0","","","","","","","","",""
"","html-keyboard-response","48","217901","0.0-33.0-1.0","""event"",""trial"",""time""
""blur"",""0"",""0""
""focus"",""0"",""0""
""blur"",""0"",""0""
""focus"",""0"",""0""
""fullscreenenter"",""0"",""1485""
""fullscreenexit"",""2"",""4819""
""blur"",""2"",""6694""
""focus"",""2"",""7786""
""blur"",""4"",""21398""
""focus"",""4"",""21573""
""blur"",""4"",""21586""
""focus"",""4"",""24798""
""blur"",""6"",""42750""
""focus"",""6"",""51727""
","""event"",""trial"",""time""
""blur"",""0"",""0""
""blur"",""0"",""0""
""blur"",""2"",""6694""
""blur"",""4"",""21398""
""blur"",""4"",""21586""
""blur"",""6"",""42750""
","""event"",""trial"",""time""
""focus"",""0"",""0""
""focus"",""0"",""0""
""focus"",""2"",""7786""
""focus"",""4"",""21573""
""focus"",""4"",""24798""
""focus"",""6"",""51727""
","""event"",""trial"",""time""
""fullscreenenter"",""0"",""1485""
","""event"",""trial"",""time""
""fullscreenexit"",""2"",""4819""
","null","<p></p>","null","","","","","","","","","","","","","","","","","","","","","","","",""
"","do_trial","49","220735","0.0-34.0-0.0","""event"",""trial"",""time""
""blur"",""0"",""0""
""focus"",""0"",""0""
""blur"",""0"",""0""
""focus"",""0"",""0""
""fullscreenenter"",""0"",""1485""
""fullscreenexit"",""2"",""4819""
""blur"",""2"",""6694""
""focus"",""2"",""7786""
""blur"",""4"",""21398""
""focus"",""4"",""21573""
""blur"",""4"",""21586""
""focus"",""4"",""24798""
""blur"",""6"",""42750""
""focus"",""6"",""51727""
","""event"",""trial"",""time""
""blur"",""0"",""0""
""blur"",""0"",""0""
""blur"",""2"",""6694""
""blur"",""4"",""21398""
""blur"",""4"",""21586""
""blur"",""6"",""42750""
","""event"",""trial"",""time""
""focus"",""0"",""0""
""focus"",""0"",""0""
""focus"",""2"",""7786""
""focus"",""4"",""21573""
""focus"",""4"",""24798""
""focus"",""6"",""51727""
","""event"",""trial"",""time""
""fullscreenenter"",""0"",""1485""
","""event"",""trial"",""time""
""fullscreenexit"",""2"",""4819""
","298.10000002384186","","","","","","","","51","1,0,0","6","blank","245","null","0.7324069039453395","0.2711478135350297","0.09260319454489764","0","","","","","","","","",""
"","html-keyboard-response","50","221737","0.0-34.0-1.0","""event"",""trial"",""time""
""blur"",""0"",""0""
""focus"",""0"",""0""
""blur"",""0"",""0""
""focus"",""0"",""0""
""fullscreenenter"",""0"",""1485""
""fullscreenexit"",""2"",""4819""
""blur"",""2"",""6694""
""focus"",""2"",""7786""
""blur"",""4"",""21398""
""focus"",""4"",""21573""
""blur"",""4"",""21586""
""focus"",""4"",""24798""
""blur"",""6"",""42750""
""focus"",""6"",""51727""
","""event"",""trial"",""time""
""blur"",""0"",""0""
""blur"",""0"",""0""
""blur"",""2"",""6694""
""blur"",""4"",""21398""
""blur"",""4"",""21586""
""blur"",""6"",""42750""
","""event"",""trial"",""time""
""focus"",""0"",""0""
""focus"",""0"",""0""
""focus"",""2"",""7786""
""focus"",""4"",""21573""
""focus"",""4"",""24798""
""focus"",""6"",""51727""
","""event"",""trial"",""time""
""fullscreenenter"",""0"",""1485""
","""event"",""trial"",""time""
""fullscreenexit"",""2"",""4819""
","null","<p></p>","null","","","","","","","","","","","","","","","","","","","","","","","",""
"","do_trial","51","225667","0.0-35.0-0.0","""event"",""trial"",""time""
""blur"",""0"",""0""
""focus"",""0"",""0""
""blur"",""0"",""0""
""focus"",""0"",""0""
""fullscreenenter"",""0"",""1485""
""fullscreenexit"",""2"",""4819""
""blur"",""2"",""6694""
""focus"",""2"",""7786""
""blur"",""4"",""21398""
""focus"",""4"",""21573""
""blur"",""4"",""21586""
""focus"",""4"",""24798""
""blur"",""6"",""42750""
""focus"",""6"",""51727""
","""event"",""trial"",""time""
""blur"",""0"",""0""
""blur"",""0"",""0""
""blur"",""2"",""6694""
""blur"",""4"",""21398""
""blur"",""4"",""21586""
""blur"",""6"",""42750""
","""event"",""trial"",""time""
""focus"",""0"",""0""
""focus"",""0"",""0""
""focus"",""2"",""7786""
""focus"",""4"",""21573""
""focus"",""4"",""24798""
""focus"",""6"",""51727""
","""event"",""trial"",""time""
""fullscreenenter"",""0"",""1485""
","""event"",""trial"",""time""
""fullscreenexit"",""2"",""4819""
","1400.3999999761581","","","","","","","","50","0,0,0","6","blank","246","null","0.7757576539090199","0.3639594470332402","0.10908889367715084","0","","","","","","","","",""
"","html-keyboard-response","52","226669","0.0-35.0-1.0","""event"",""trial"",""time""
""blur"",""0"",""0""
""focus"",""0"",""0""
""blur"",""0"",""0""
""focus"",""0"",""0""
""fullscreenenter"",""0"",""1485""
""fullscreenexit"",""2"",""4819""
""blur"",""2"",""6694""
""focus"",""2"",""7786""
""blur"",""4"",""21398""
""focus"",""4"",""21573""
""blur"",""4"",""21586""
""focus"",""4"",""24798""
""blur"",""6"",""42750""
""focus"",""6"",""51727""
","""event"",""trial"",""time""
""blur"",""0"",""0""
""blur"",""0"",""0""
""blur"",""2"",""6694""
""blur"",""4"",""21398""
""blur"",""4"",""21586""
""blur"",""6"",""42750""
","""event"",""trial"",""time""
""focus"",""0"",""0""
""focus"",""0"",""0""
""focus"",""2"",""7786""
""focus"",""4"",""21573""
""focus"",""4"",""24798""
""focus"",""6"",""51727""
","""event"",""trial"",""time""
""fullscreenenter"",""0"",""1485""
","""event"",""trial"",""time""
""fullscreenexit"",""2"",""4819""
","null","<p></p>","null","","","","","","","","","","","","","","","","","","","","","","","",""
"","do_recog","53","232685","0.0-36.0-0.0","""event"",""trial"",""time""
""blur"",""0"",""0""
""focus"",""0"",""0""
""blur"",""0"",""0""
""focus"",""0"",""0""
""fullscreenenter"",""0"",""1485""
""fullscreenexit"",""2"",""4819""
""blur"",""2"",""6694""
""focus"",""2"",""7786""
""blur"",""4"",""21398""
""focus"",""4"",""21573""
""blur"",""4"",""21586""
""focus"",""4"",""24798""
""blur"",""6"",""42750""
""focus"",""6"",""51727""
","""event"",""trial"",""time""
""blur"",""0"",""0""
""blur"",""0"",""0""
""blur"",""2"",""6694""
""blur"",""4"",""21398""
""blur"",""4"",""21586""
""blur"",""6"",""42750""
","""event"",""trial"",""time""
""focus"",""0"",""0""
""focus"",""0"",""0""
""focus"",""2"",""7786""
""focus"",""4"",""21573""
""focus"",""4"",""24798""
""focus"",""6"",""51727""
","""event"",""trial"",""time""
""fullscreenenter"",""0"",""1485""
","""event"",""trial"",""time""
""fullscreenexit"",""2"",""4819""
","null","","","","","","","","null","","","","247","probe-110","","","","","1","[object Object]","70","1","0","","","",""
"","html-keyboard-response","54","233686","0.0-36.0-1.0","""event"",""trial"",""time""
""blur"",""0"",""0""
""focus"",""0"",""0""
""blur"",""0"",""0""
""focus"",""0"",""0""
""fullscreenenter"",""0"",""1485""
""fullscreenexit"",""2"",""4819""
""blur"",""2"",""6694""
""focus"",""2"",""7786""
""blur"",""4"",""21398""
""focus"",""4"",""21573""
""blur"",""4"",""21586""
""focus"",""4"",""24798""
""blur"",""6"",""42750""
""focus"",""6"",""51727""
","""event"",""trial"",""time""
""blur"",""0"",""0""
""blur"",""0"",""0""
""blur"",""2"",""6694""
""blur"",""4"",""21398""
""blur"",""4"",""21586""
""blur"",""6"",""42750""
","""event"",""trial"",""time""
""focus"",""0"",""0""
""focus"",""0"",""0""
""focus"",""2"",""7786""
""focus"",""4"",""21573""
""focus"",""4"",""24798""
""focus"",""6"",""51727""
","""event"",""trial"",""time""
""fullscreenenter"",""0"",""1485""
","""event"",""trial"",""time""
""fullscreenexit"",""2"",""4819""
","null","<p></p>","null","","","","","","","","","","","","","","","","","","","","","","","",""
"","do_trial","55","237630","0.0-37.0-0.0","""event"",""trial"",""time""
""blur"",""0"",""0""
""focus"",""0"",""0""
""blur"",""0"",""0""
""focus"",""0"",""0""
""fullscreenenter"",""0"",""1485""
""fullscreenexit"",""2"",""4819""
""blur"",""2"",""6694""
""focus"",""2"",""7786""
""blur"",""4"",""21398""
""focus"",""4"",""21573""
""blur"",""4"",""21586""
""focus"",""4"",""24798""
""blur"",""6"",""42750""
""focus"",""6"",""51727""
","""event"",""trial"",""time""
""blur"",""0"",""0""
""blur"",""0"",""0""
""blur"",""2"",""6694""
""blur"",""4"",""21398""
""blur"",""4"",""21586""
""blur"",""6"",""42750""
","""event"",""trial"",""time""
""focus"",""0"",""0""
""focus"",""0"",""0""
""focus"",""2"",""7786""
""focus"",""4"",""21573""
""focus"",""4"",""24798""
""focus"",""6"",""51727""
","""event"",""trial"",""time""
""fullscreenenter"",""0"",""1485""
","""event"",""trial"",""time""
""fullscreenexit"",""2"",""4819""
","1412.3000000715256","","","","","","","","50","1,0,0","6","blank","248","null","0.7589438269607617","0.39204004618870725","0.1267795186546586","0","","","","","","","","",""
"","html-keyboard-response","56","238631","0.0-37.0-1.0","""event"",""trial"",""time""
""blur"",""0"",""0""
""focus"",""0"",""0""
""blur"",""0"",""0""
""focus"",""0"",""0""
""fullscreenenter"",""0"",""1485""
""fullscreenexit"",""2"",""4819""
""blur"",""2"",""6694""
""focus"",""2"",""7786""
""blur"",""4"",""21398""
""focus"",""4"",""21573""
""blur"",""4"",""21586""
""focus"",""4"",""24798""
""blur"",""6"",""42750""
""focus"",""6"",""51727""
","""event"",""trial"",""time""
""blur"",""0"",""0""
""blur"",""0"",""0""
""blur"",""2"",""6694""
""blur"",""4"",""21398""
""blur"",""4"",""21586""
""blur"",""6"",""42750""
","""event"",""trial"",""time""
""focus"",""0"",""0""
""focus"",""0"",""0""
""focus"",""2"",""7786""
""focus"",""4"",""21573""
""focus"",""4"",""24798""
""focus"",""6"",""51727""
","""event"",""trial"",""time""
""fullscreenenter"",""0"",""1485""
","""event"",""trial"",""time""
""fullscreenexit"",""2"",""4819""
","null","<p></p>","null","","","","","","","","","","","","","","","","","","","","","","","",""
"","do_trial","57","241845","0.0-38.0-0.0","""event"",""trial"",""time""
""blur"",""0"",""0""
""focus"",""0"",""0""
""blur"",""0"",""0""
""focus"",""0"",""0""
""fullscreenenter"",""0"",""1485""
""fullscreenexit"",""2"",""4819""
""blur"",""2"",""6694""
""focus"",""2"",""7786""
""blur"",""4"",""21398""
""focus"",""4"",""21573""
""blur"",""4"",""21586""
""focus"",""4"",""24798""
""blur"",""6"",""42750""
""focus"",""6"",""51727""
","""event"",""trial"",""time""
""blur"",""0"",""0""
""blur"",""0"",""0""
""blur"",""2"",""6694""
""blur"",""4"",""21398""
""blur"",""4"",""21586""
""blur"",""6"",""42750""
","""event"",""trial"",""time""
""focus"",""0"",""0""
""focus"",""0"",""0""
""focus"",""2"",""7786""
""focus"",""4"",""21573""
""focus"",""4"",""24798""
""focus"",""6"",""51727""
","""event"",""trial"",""time""
""fullscreenenter"",""0"",""1485""
","""event"",""trial"",""time""
""fullscreenexit"",""2"",""4819""
","681.1999999284744","","","","","","","","49","0,0,0","6","blank","249","null","0.6612268730811854","0.24114847285930585","0.1882019399622376","0","","","","","","","","",""
"","html-keyboard-response","58","242845","0.0-38.0-1.0","""event"",""trial"",""time""
""blur"",""0"",""0""
""focus"",""0"",""0""
""blur"",""0"",""0""
""focus"",""0"",""0""
""fullscreenenter"",""0"",""1485""
""fullscreenexit"",""2"",""4819""
""blur"",""2"",""6694""
""focus"",""2"",""7786""
""blur"",""4"",""21398""
""focus"",""4"",""21573""
""blur"",""4"",""21586""
""focus"",""4"",""24798""
""blur"",""6"",""42750""
""focus"",""6"",""51727""
","""event"",""trial"",""time""
""blur"",""0"",""0""
""blur"",""0"",""0""
""blur"",""2"",""6694""
""blur"",""4"",""21398""
""blur"",""4"",""21586""
""blur"",""6"",""42750""
","""event"",""trial"",""time""
""focus"",""0"",""0""
""focus"",""0"",""0""
""focus"",""2"",""7786""
""focus"",""4"",""21573""
""focus"",""4"",""24798""
""focus"",""6"",""51727""
","""event"",""trial"",""time""
""fullscreenenter"",""0"",""1485""
","""event"",""trial"",""time""
""fullscreenexit"",""2"",""4819""
","null","<p></p>","null","","","","","","","","","","","","","","","","","","","","","","","",""
"","do_trial","59","245624","0.0-39.0-0.0","""event"",""trial"",""time""
""blur"",""0"",""0""
""focus"",""0"",""0""
""blur"",""0"",""0""
""focus"",""0"",""0""
""fullscreenenter"",""0"",""1485""
""fullscreenexit"",""2"",""4819""
""blur"",""2"",""6694""
""focus"",""2"",""7786""
""blur"",""4"",""21398""
""focus"",""4"",""21573""
""blur"",""4"",""21586""
""focus"",""4"",""24798""
""blur"",""6"",""42750""
""focus"",""6"",""51727""
","""event"",""trial"",""time""
""blur"",""0"",""0""
""blur"",""0"",""0""
""blur"",""2"",""6694""
""blur"",""4"",""21398""
""blur"",""4"",""21586""
""blur"",""6"",""42750""
","""event"",""trial"",""time""
""focus"",""0"",""0""
""focus"",""0"",""0""
""focus"",""2"",""7786""
""focus"",""4"",""21573""
""focus"",""4"",""24798""
""focus"",""6"",""51727""
","""event"",""trial"",""time""
""fullscreenenter"",""0"",""1485""
","""event"",""trial"",""time""
""fullscreenexit"",""2"",""4819""
","243.39999997615814","","","","","","","","49","0,0,1","6","blank","250","null","0.6668684057284533","0.24393444333406156","0.11194706515261416","0","","","","","","","","",""
"","html-keyboard-response","60","246625","0.0-39.0-1.0","""event"",""trial"",""time""
""blur"",""0"",""0""
""focus"",""0"",""0""
""blur"",""0"",""0""
""focus"",""0"",""0""
""fullscreenenter"",""0"",""1485""
""fullscreenexit"",""2"",""4819""
""blur"",""2"",""6694""
""focus"",""2"",""7786""
""blur"",""4"",""21398""
""focus"",""4"",""21573""
""blur"",""4"",""21586""
""focus"",""4"",""24798""
""blur"",""6"",""42750""
""focus"",""6"",""51727""
","""event"",""trial"",""time""
""blur"",""0"",""0""
""blur"",""0"",""0""
""blur"",""2"",""6694""
""blur"",""4"",""21398""
""blur"",""4"",""21586""
""blur"",""6"",""42750""
","""event"",""trial"",""time""
""focus"",""0"",""0""
""focus"",""0"",""0""
""focus"",""2"",""7786""
""focus"",""4"",""21573""
""focus"",""4"",""24798""
""focus"",""6"",""51727""
","""event"",""trial"",""time""
""fullscreenenter"",""0"",""1485""
","""event"",""trial"",""time""
""fullscreenexit"",""2"",""4819""
","null","<p></p>","null","","","","","","","","","","","","","","","","","","","","","","","",""
"","do_trial","61","249409","0.0-40.0-0.0","""event"",""trial"",""time""
""blur"",""0"",""0""
""focus"",""0"",""0""
""blur"",""0"",""0""
""focus"",""0"",""0""
""fullscreenenter"",""0"",""1485""
""fullscreenexit"",""2"",""4819""
""blur"",""2"",""6694""
""focus"",""2"",""7786""
""blur"",""4"",""21398""
""focus"",""4"",""21573""
""blur"",""4"",""21586""
""focus"",""4"",""24798""
""blur"",""6"",""42750""
""focus"",""6"",""51727""
","""event"",""trial"",""time""
""blur"",""0"",""0""
""blur"",""0"",""0""
""blur"",""2"",""6694""
""blur"",""4"",""21398""
""blur"",""4"",""21586""
""blur"",""6"",""42750""
","""event"",""trial"",""time""
""focus"",""0"",""0""
""focus"",""0"",""0""
""focus"",""2"",""7786""
""focus"",""4"",""21573""
""focus"",""4"",""24798""
""focus"",""6"",""51727""
","""event"",""trial"",""time""
""fullscreenenter"",""0"",""1485""
","""event"",""trial"",""time""
""fullscreenexit"",""2"",""4819""
","252.60000002384186","","","","","","","","49","1,0,0","6","blank","251","null","0.7694462196156584","0.1316959705980591","0.1532205474385853","1","","","","","","","","",""
"","html-keyboard-response","62","250410","0.0-40.0-1.0","""event"",""trial"",""time""
""blur"",""0"",""0""
""focus"",""0"",""0""
""blur"",""0"",""0""
""focus"",""0"",""0""
""fullscreenenter"",""0"",""1485""
""fullscreenexit"",""2"",""4819""
""blur"",""2"",""6694""
""focus"",""2"",""7786""
""blur"",""4"",""21398""
""focus"",""4"",""21573""
""blur"",""4"",""21586""
""focus"",""4"",""24798""
""blur"",""6"",""42750""
""focus"",""6"",""51727""
","""event"",""trial"",""time""
""blur"",""0"",""0""
""blur"",""0"",""0""
""blur"",""2"",""6694""
""blur"",""4"",""21398""
""blur"",""4"",""21586""
""blur"",""6"",""42750""
","""event"",""trial"",""time""
""focus"",""0"",""0""
""focus"",""0"",""0""
""focus"",""2"",""7786""
""focus"",""4"",""21573""
""focus"",""4"",""24798""
""focus"",""6"",""51727""
","""event"",""trial"",""time""
""fullscreenenter"",""0"",""1485""
","""event"",""trial"",""time""
""fullscreenexit"",""2"",""4819""
","null","<p></p>","null","","","","","","","","","","","","","","","","","","","","","","","",""
"","do_trial","63","253307","0.0-41.0-0.0","""event"",""trial"",""time""
""blur"",""0"",""0""
""focus"",""0"",""0""
""blur"",""0"",""0""
""focus"",""0"",""0""
""fullscreenenter"",""0"",""1485""
""fullscreenexit"",""2"",""4819""
""blur"",""2"",""6694""
""focus"",""2"",""7786""
""blur"",""4"",""21398""
""focus"",""4"",""21573""
""blur"",""4"",""21586""
""focus"",""4"",""24798""
""blur"",""6"",""42750""
""focus"",""6"",""51727""
","""event"",""trial"",""time""
""blur"",""0"",""0""
""blur"",""0"",""0""
""blur"",""2"",""6694""
""blur"",""4"",""21398""
""blur"",""4"",""21586""
""blur"",""6"",""42750""
","""event"",""trial"",""time""
""focus"",""0"",""0""
""focus"",""0"",""0""
""focus"",""2"",""7786""
""focus"",""4"",""21573""
""focus"",""4"",""24798""
""focus"",""6"",""51727""
","""event"",""trial"",""time""
""fullscreenenter"",""0"",""1485""
","""event"",""trial"",""time""
""fullscreenexit"",""2"",""4819""
","365.59999990463257","","","","","","","","49","1,0,0","6","blank","252","null","0.7907313420135765","0.12439680231617109","0.13447324427435578","1","","","","","","","","",""
"","html-keyboard-response","64","254308","0.0-41.0-1.0","""event"",""trial"",""time""
""blur"",""0"",""0""
""focus"",""0"",""0""
""blur"",""0"",""0""
""focus"",""0"",""0""
""fullscreenenter"",""0"",""1485""
""fullscreenexit"",""2"",""4819""
""blur"",""2"",""6694""
""focus"",""2"",""7786""
""blur"",""4"",""21398""
""focus"",""4"",""21573""
""blur"",""4"",""21586""
""focus"",""4"",""24798""
""blur"",""6"",""42750""
""focus"",""6"",""51727""
","""event"",""trial"",""time""
""blur"",""0"",""0""
""blur"",""0"",""0""
""blur"",""2"",""6694""
""blur"",""4"",""21398""
""blur"",""4"",""21586""
""blur"",""6"",""42750""
","""event"",""trial"",""time""
""focus"",""0"",""0""
""focus"",""0"",""0""
""focus"",""2"",""7786""
""focus"",""4"",""21573""
""focus"",""4"",""24798""
""focus"",""6"",""51727""
","""event"",""trial"",""time""
""fullscreenenter"",""0"",""1485""
","""event"",""trial"",""time""
""fullscreenexit"",""2"",""4819""
","null","<p></p>","null","","","","","","","","","","","","","","","","","","","","","","","",""
"","do_trial","65","257103","0.0-42.0-0.0","""event"",""trial"",""time""
""blur"",""0"",""0""
""focus"",""0"",""0""
""blur"",""0"",""0""
""focus"",""0"",""0""
""fullscreenenter"",""0"",""1485""
""fullscreenexit"",""2"",""4819""
""blur"",""2"",""6694""
""focus"",""2"",""7786""
""blur"",""4"",""21398""
""focus"",""4"",""21573""
""blur"",""4"",""21586""
""focus"",""4"",""24798""
""blur"",""6"",""42750""
""focus"",""6"",""51727""
","""event"",""trial"",""time""
""blur"",""0"",""0""
""blur"",""0"",""0""
""blur"",""2"",""6694""
""blur"",""4"",""21398""
""blur"",""4"",""21586""
""blur"",""6"",""42750""
","""event"",""trial"",""time""
""focus"",""0"",""0""
""focus"",""0"",""0""
""focus"",""2"",""7786""
""focus"",""4"",""21573""
""focus"",""4"",""24798""
""focus"",""6"",""51727""
","""event"",""trial"",""time""
""fullscreenenter"",""0"",""1485""
","""event"",""trial"",""time""
""fullscreenexit"",""2"",""4819""
","264.60000002384186","","","","","","","","49","1,0,0","6","blank","253","null","0.71240963637018","0.18455408507940094","0.13013540183740832","1","","","","","","","","",""
"","html-keyboard-response","66","258105","0.0-42.0-1.0","""event"",""trial"",""time""
""blur"",""0"",""0""
""focus"",""0"",""0""
""blur"",""0"",""0""
""focus"",""0"",""0""
""fullscreenenter"",""0"",""1485""
""fullscreenexit"",""2"",""4819""
""blur"",""2"",""6694""
""focus"",""2"",""7786""
""blur"",""4"",""21398""
""focus"",""4"",""21573""
""blur"",""4"",""21586""
""focus"",""4"",""24798""
""blur"",""6"",""42750""
""focus"",""6"",""51727""
","""event"",""trial"",""time""
""blur"",""0"",""0""
""blur"",""0"",""0""
""blur"",""2"",""6694""
""blur"",""4"",""21398""
""blur"",""4"",""21586""
""blur"",""6"",""42750""
","""event"",""trial"",""time""
""focus"",""0"",""0""
""focus"",""0"",""0""
""focus"",""2"",""7786""
""focus"",""4"",""21573""
""focus"",""4"",""24798""
""focus"",""6"",""51727""
","""event"",""trial"",""time""
""fullscreenenter"",""0"",""1485""
","""event"",""trial"",""time""
""fullscreenexit"",""2"",""4819""
","null","<p></p>","null","","","","","","","","","","","","","","","","","","","","","","","",""
"","do_recog","67","261931","0.0-43.0-0.0","""event"",""trial"",""time""
""blur"",""0"",""0""
""focus"",""0"",""0""
""blur"",""0"",""0""
""focus"",""0"",""0""
""fullscreenenter"",""0"",""1485""
""fullscreenexit"",""2"",""4819""
""blur"",""2"",""6694""
""focus"",""2"",""7786""
""blur"",""4"",""21398""
""focus"",""4"",""21573""
""blur"",""4"",""21586""
""focus"",""4"",""24798""
""blur"",""6"",""42750""
""focus"",""6"",""51727""
","""event"",""trial"",""time""
""blur"",""0"",""0""
""blur"",""0"",""0""
""blur"",""2"",""6694""
""blur"",""4"",""21398""
""blur"",""4"",""21586""
""blur"",""6"",""42750""
","""event"",""trial"",""time""
""focus"",""0"",""0""
""focus"",""0"",""0""
""focus"",""2"",""7786""
""focus"",""4"",""21573""
""focus"",""4"",""24798""
""focus"",""6"",""51727""
","""event"",""trial"",""time""
""fullscreenenter"",""0"",""1485""
","""event"",""trial"",""time""
""fullscreenexit"",""2"",""4819""
","2314","","","","","","","","56","","","","254","probe-166","","","","","1","[object Object]","38","0","0","","","",""
"","html-keyboard-response","68","262933","0.0-43.0-1.0","""event"",""trial"",""time""
""blur"",""0"",""0""
""focus"",""0"",""0""
""blur"",""0"",""0""
""focus"",""0"",""0""
""fullscreenenter"",""0"",""1485""
""fullscreenexit"",""2"",""4819""
""blur"",""2"",""6694""
""focus"",""2"",""7786""
""blur"",""4"",""21398""
""focus"",""4"",""21573""
""blur"",""4"",""21586""
""focus"",""4"",""24798""
""blur"",""6"",""42750""
""focus"",""6"",""51727""
","""event"",""trial"",""time""
""blur"",""0"",""0""
""blur"",""0"",""0""
""blur"",""2"",""6694""
""blur"",""4"",""21398""
""blur"",""4"",""21586""
""blur"",""6"",""42750""
","""event"",""trial"",""time""
""focus"",""0"",""0""
""focus"",""0"",""0""
""focus"",""2"",""7786""
""focus"",""4"",""21573""
""focus"",""4"",""24798""
""focus"",""6"",""51727""
","""event"",""trial"",""time""
""fullscreenenter"",""0"",""1485""
","""event"",""trial"",""time""
""fullscreenexit"",""2"",""4819""
","null","<p></p>","null","","","","","","","","","","","","","","","","","","","","","","","",""
"","do_trial","69","266259","0.0-44.0-0.0","""event"",""trial"",""time""
""blur"",""0"",""0""
""focus"",""0"",""0""
""blur"",""0"",""0""
""focus"",""0"",""0""
""fullscreenenter"",""0"",""1485""
""fullscreenexit"",""2"",""4819""
""blur"",""2"",""6694""
""focus"",""2"",""7786""
""blur"",""4"",""21398""
""focus"",""4"",""21573""
""blur"",""4"",""21586""
""focus"",""4"",""24798""
""blur"",""6"",""42750""
""focus"",""6"",""51727""
","""event"",""trial"",""time""
""blur"",""0"",""0""
""blur"",""0"",""0""
""blur"",""2"",""6694""
""blur"",""4"",""21398""
""blur"",""4"",""21586""
""blur"",""6"",""42750""
","""event"",""trial"",""time""
""focus"",""0"",""0""
""focus"",""0"",""0""
""focus"",""2"",""7786""
""focus"",""4"",""21573""
""focus"",""4"",""24798""
""focus"",""6"",""51727""
","""event"",""trial"",""time""
""fullscreenenter"",""0"",""1485""
","""event"",""trial"",""time""
""fullscreenexit"",""2"",""4819""
","794.1000000238419","","","","","","","","49","1,0,0","6","blank","255","null","0.7533938933693156","0.22581437694066034","0.11464751478195397","1","","","","","","","","",""
"","html-keyboard-response","70","267261","0.0-44.0-1.0","""event"",""trial"",""time""
""blur"",""0"",""0""
""focus"",""0"",""0""
""blur"",""0"",""0""
""focus"",""0"",""0""
""fullscreenenter"",""0"",""1485""
""fullscreenexit"",""2"",""4819""
""blur"",""2"",""6694""
""focus"",""2"",""7786""
""blur"",""4"",""21398""
""focus"",""4"",""21573""
""blur"",""4"",""21586""
""focus"",""4"",""24798""
""blur"",""6"",""42750""
""focus"",""6"",""51727""
","""event"",""trial"",""time""
""blur"",""0"",""0""
""blur"",""0"",""0""
""blur"",""2"",""6694""
""blur"",""4"",""21398""
""blur"",""4"",""21586""
""blur"",""6"",""42750""
","""event"",""trial"",""time""
""focus"",""0"",""0""
""focus"",""0"",""0""
""focus"",""2"",""7786""
""focus"",""4"",""21573""
""focus"",""4"",""24798""
""focus"",""6"",""51727""
","""event"",""trial"",""time""
""fullscreenenter"",""0"",""1485""
","""event"",""trial"",""time""
""fullscreenexit"",""2"",""4819""
","null","<p></p>","null","","","","","","","","","","","","","","","","","","","","","","","",""
"","do_trial","71","270182","0.0-45.0-0.0","""event"",""trial"",""time""
""blur"",""0"",""0""
""focus"",""0"",""0""
""blur"",""0"",""0""
""focus"",""0"",""0""
""fullscreenenter"",""0"",""1485""
""fullscreenexit"",""2"",""4819""
""blur"",""2"",""6694""
""focus"",""2"",""7786""
""blur"",""4"",""21398""
""focus"",""4"",""21573""
""blur"",""4"",""21586""
""focus"",""4"",""24798""
""blur"",""6"",""42750""
""focus"",""6"",""51727""
","""event"",""trial"",""time""
""blur"",""0"",""0""
""blur"",""0"",""0""
""blur"",""2"",""6694""
""blur"",""4"",""21398""
""blur"",""4"",""21586""
""blur"",""6"",""42750""
","""event"",""trial"",""time""
""focus"",""0"",""0""
""focus"",""0"",""0""
""focus"",""2"",""7786""
""focus"",""4"",""21573""
""focus"",""4"",""24798""
""focus"",""6"",""51727""
","""event"",""trial"",""time""
""fullscreenenter"",""0"",""1485""
","""event"",""trial"",""time""
""fullscreenexit"",""2"",""4819""
","357.2000000476837","","","","","","","","49","0,0,0","6","blank","256","null","0.714076262183533","0.1570875668202438","0.145428908937557","0","","","","","","","","",""
"","html-keyboard-response","72","271182","0.0-45.0-1.0","""event"",""trial"",""time""
""blur"",""0"",""0""
""focus"",""0"",""0""
""blur"",""0"",""0""
""focus"",""0"",""0""
""fullscreenenter"",""0"",""1485""
""fullscreenexit"",""2"",""4819""
""blur"",""2"",""6694""
""focus"",""2"",""7786""
""blur"",""4"",""21398""
""focus"",""4"",""21573""
""blur"",""4"",""21586""
""focus"",""4"",""24798""
""blur"",""6"",""42750""
""focus"",""6"",""51727""
","""event"",""trial"",""time""
""blur"",""0"",""0""
""blur"",""0"",""0""
""blur"",""2"",""6694""
""blur"",""4"",""21398""
""blur"",""4"",""21586""
""blur"",""6"",""42750""
","""event"",""trial"",""time""
""focus"",""0"",""0""
""focus"",""0"",""0""
""focus"",""2"",""7786""
""focus"",""4"",""21573""
""focus"",""4"",""24798""
""focus"",""6"",""51727""
","""event"",""trial"",""time""
""fullscreenenter"",""0"",""1485""
","""event"",""trial"",""time""
""fullscreenexit"",""2"",""4819""
","null","<p></p>","null","","","","","","","","","","","","","","","","","","","","","","","",""
"","do_recog","73","275338","0.0-46.0-0.0","""event"",""trial"",""time""
""blur"",""0"",""0""
""focus"",""0"",""0""
""blur"",""0"",""0""
""focus"",""0"",""0""
""fullscreenenter"",""0"",""1485""
""fullscreenexit"",""2"",""4819""
""blur"",""2"",""6694""
""focus"",""2"",""7786""
""blur"",""4"",""21398""
""focus"",""4"",""21573""
""blur"",""4"",""21586""
""focus"",""4"",""24798""
""blur"",""6"",""42750""
""focus"",""6"",""51727""
","""event"",""trial"",""time""
""blur"",""0"",""0""
""blur"",""0"",""0""
""blur"",""2"",""6694""
""blur"",""4"",""21398""
""blur"",""4"",""21586""
""blur"",""6"",""42750""
","""event"",""trial"",""time""
""focus"",""0"",""0""
""focus"",""0"",""0""
""focus"",""2"",""7786""
""focus"",""4"",""21573""
""focus"",""4"",""24798""
""focus"",""6"",""51727""
","""event"",""trial"",""time""
""fullscreenenter"",""0"",""1485""
","""event"",""trial"",""time""
""fullscreenexit"",""2"",""4819""
","2651.899999976158","","","","","","","","55","","","","257","probe-89","","","","","1","[object Object]","32","0","0","","","",""
"","html-keyboard-response","74","276340","0.0-46.0-1.0","""event"",""trial"",""time""
""blur"",""0"",""0""
""focus"",""0"",""0""
""blur"",""0"",""0""
""focus"",""0"",""0""
""fullscreenenter"",""0"",""1485""
""fullscreenexit"",""2"",""4819""
""blur"",""2"",""6694""
""focus"",""2"",""7786""
""blur"",""4"",""21398""
""focus"",""4"",""21573""
""blur"",""4"",""21586""
""focus"",""4"",""24798""
""blur"",""6"",""42750""
""focus"",""6"",""51727""
","""event"",""trial"",""time""
""blur"",""0"",""0""
""blur"",""0"",""0""
""blur"",""2"",""6694""
""blur"",""4"",""21398""
""blur"",""4"",""21586""
""blur"",""6"",""42750""
","""event"",""trial"",""time""
""focus"",""0"",""0""
""focus"",""0"",""0""
""focus"",""2"",""7786""
""focus"",""4"",""21573""
""focus"",""4"",""24798""
""focus"",""6"",""51727""
","""event"",""trial"",""time""
""fullscreenenter"",""0"",""1485""
","""event"",""trial"",""time""
""fullscreenexit"",""2"",""4819""
","null","<p></p>","null","","","","","","","","","","","","","","","","","","","","","","","",""
"","do_trial","75","279458","0.0-47.0-0.0","""event"",""trial"",""time""
""blur"",""0"",""0""
""focus"",""0"",""0""
""blur"",""0"",""0""
""focus"",""0"",""0""
""fullscreenenter"",""0"",""1485""
""fullscreenexit"",""2"",""4819""
""blur"",""2"",""6694""
""focus"",""2"",""7786""
""blur"",""4"",""21398""
""focus"",""4"",""21573""
""blur"",""4"",""21586""
""focus"",""4"",""24798""
""blur"",""6"",""42750""
""focus"",""6"",""51727""
","""event"",""trial"",""time""
""blur"",""0"",""0""
""blur"",""0"",""0""
""blur"",""2"",""6694""
""blur"",""4"",""21398""
""blur"",""4"",""21586""
""blur"",""6"",""42750""
","""event"",""trial"",""time""
""focus"",""0"",""0""
""focus"",""0"",""0""
""focus"",""2"",""7786""
""focus"",""4"",""21573""
""focus"",""4"",""24798""
""focus"",""6"",""51727""
","""event"",""trial"",""time""
""fullscreenenter"",""0"",""1485""
","""event"",""trial"",""time""
""fullscreenexit"",""2"",""4819""
","560.8000000715256","","","","","","","","49","1,0,1","6","blank","258","null","0.622171677422102","0.15348430285940196","0.11253729635487414","1","","","","","","","","",""
"","html-keyboard-response","76","280460","0.0-47.0-1.0","""event"",""trial"",""time""
""blur"",""0"",""0""
""focus"",""0"",""0""
""blur"",""0"",""0""
""focus"",""0"",""0""
""fullscreenenter"",""0"",""1485""
""fullscreenexit"",""2"",""4819""
""blur"",""2"",""6694""
""focus"",""2"",""7786""
""blur"",""4"",""21398""
""focus"",""4"",""21573""
""blur"",""4"",""21586""
""focus"",""4"",""24798""
""blur"",""6"",""42750""
""focus"",""6"",""51727""
","""event"",""trial"",""time""
""blur"",""0"",""0""
""blur"",""0"",""0""
""blur"",""2"",""6694""
""blur"",""4"",""21398""
""blur"",""4"",""21586""
""blur"",""6"",""42750""
","""event"",""trial"",""time""
""focus"",""0"",""0""
""focus"",""0"",""0""
""focus"",""2"",""7786""
""focus"",""4"",""21573""
""focus"",""4"",""24798""
""focus"",""6"",""51727""
","""event"",""trial"",""time""
""fullscreenenter"",""0"",""1485""
","""event"",""trial"",""time""
""fullscreenexit"",""2"",""4819""
","null","<p></p>","null","","","","","","","","","","","","","","","","","","","","","","","",""
"","do_recog","77","284357","0.0-48.0-0.0","""event"",""trial"",""time""
""blur"",""0"",""0""
""focus"",""0"",""0""
""blur"",""0"",""0""
""focus"",""0"",""0""
""fullscreenenter"",""0"",""1485""
""fullscreenexit"",""2"",""4819""
""blur"",""2"",""6694""
""focus"",""2"",""7786""
""blur"",""4"",""21398""
""focus"",""4"",""21573""
""blur"",""4"",""21586""
""focus"",""4"",""24798""
""blur"",""6"",""42750""
""focus"",""6"",""51727""
","""event"",""trial"",""time""
""blur"",""0"",""0""
""blur"",""0"",""0""
""blur"",""2"",""6694""
""blur"",""4"",""21398""
""blur"",""4"",""21586""
""blur"",""6"",""42750""
","""event"",""trial"",""time""
""focus"",""0"",""0""
""focus"",""0"",""0""
""focus"",""2"",""7786""
""focus"",""4"",""21573""
""focus"",""4"",""24798""
""focus"",""6"",""51727""
","""event"",""trial"",""time""
""fullscreenenter"",""0"",""1485""
","""event"",""trial"",""time""
""fullscreenexit"",""2"",""4819""
","2384.100000023842","","","","","","","","56","","","","259","probe-182","","","","","1","[object Object]","114","2","0","","","",""
"","html-keyboard-response","78","285360","0.0-48.0-1.0","""event"",""trial"",""time""
""blur"",""0"",""0""
""focus"",""0"",""0""
""blur"",""0"",""0""
""focus"",""0"",""0""
""fullscreenenter"",""0"",""1485""
""fullscreenexit"",""2"",""4819""
""blur"",""2"",""6694""
""focus"",""2"",""7786""
""blur"",""4"",""21398""
""focus"",""4"",""21573""
""blur"",""4"",""21586""
""focus"",""4"",""24798""
""blur"",""6"",""42750""
""focus"",""6"",""51727""
","""event"",""trial"",""time""
""blur"",""0"",""0""
""blur"",""0"",""0""
""blur"",""2"",""6694""
""blur"",""4"",""21398""
""blur"",""4"",""21586""
""blur"",""6"",""42750""
","""event"",""trial"",""time""
""focus"",""0"",""0""
""focus"",""0"",""0""
""focus"",""2"",""7786""
""focus"",""4"",""21573""
""focus"",""4"",""24798""
""focus"",""6"",""51727""
","""event"",""trial"",""time""
""fullscreenenter"",""0"",""1485""
","""event"",""trial"",""time""
""fullscreenexit"",""2"",""4819""
","null","<p></p>","null","","","","","","","","","","","","","","","","","","","","","","","",""
"","do_trial","79","288200","0.0-49.0-0.0","""event"",""trial"",""time""
""blur"",""0"",""0""
""focus"",""0"",""0""
""blur"",""0"",""0""
""focus"",""0"",""0""
""fullscreenenter"",""0"",""1485""
""fullscreenexit"",""2"",""4819""
""blur"",""2"",""6694""
""focus"",""2"",""7786""
""blur"",""4"",""21398""
""focus"",""4"",""21573""
""blur"",""4"",""21586""
""focus"",""4"",""24798""
""blur"",""6"",""42750""
""focus"",""6"",""51727""
","""event"",""trial"",""time""
""blur"",""0"",""0""
""blur"",""0"",""0""
""blur"",""2"",""6694""
""blur"",""4"",""21398""
""blur"",""4"",""21586""
""blur"",""6"",""42750""
","""event"",""trial"",""time""
""focus"",""0"",""0""
""focus"",""0"",""0""
""focus"",""2"",""7786""
""focus"",""4"",""21573""
""focus"",""4"",""24798""
""focus"",""6"",""51727""
","""event"",""trial"",""time""
""fullscreenenter"",""0"",""1485""
","""event"",""trial"",""time""
""fullscreenexit"",""2"",""4819""
","306.89999997615814","","","","","","","","49","1,0,0","6","blank","260","null","0.6594732240468352","0.3211469554694588","0.09229596318996056","1","","","","","","","","",""
"","html-keyboard-response","80","289203","0.0-49.0-1.0","""event"",""trial"",""time""
""blur"",""0"",""0""
""focus"",""0"",""0""
""blur"",""0"",""0""
""focus"",""0"",""0""
""fullscreenenter"",""0"",""1485""
""fullscreenexit"",""2"",""4819""
""blur"",""2"",""6694""
""focus"",""2"",""7786""
""blur"",""4"",""21398""
""focus"",""4"",""21573""
""blur"",""4"",""21586""
""focus"",""4"",""24798""
""blur"",""6"",""42750""
""focus"",""6"",""51727""
","""event"",""trial"",""time""
""blur"",""0"",""0""
""blur"",""0"",""0""
""blur"",""2"",""6694""
""blur"",""4"",""21398""
""blur"",""4"",""21586""
""blur"",""6"",""42750""
","""event"",""trial"",""time""
""focus"",""0"",""0""
""focus"",""0"",""0""
""focus"",""2"",""7786""
""focus"",""4"",""21573""
""focus"",""4"",""24798""
""focus"",""6"",""51727""
","""event"",""trial"",""time""
""fullscreenenter"",""0"",""1485""
","""event"",""trial"",""time""
""fullscreenexit"",""2"",""4819""
","null","<p></p>","null","","","","","","","","","","","","","","","","","","","","","","","",""
"","do_recog","81","292406","0.0-50.0-0.0","""event"",""trial"",""time""
""blur"",""0"",""0""
""focus"",""0"",""0""
""blur"",""0"",""0""
""focus"",""0"",""0""
""fullscreenenter"",""0"",""1485""
""fullscreenexit"",""2"",""4819""
""blur"",""2"",""6694""
""focus"",""2"",""7786""
""blur"",""4"",""21398""
""focus"",""4"",""21573""
""blur"",""4"",""21586""
""focus"",""4"",""24798""
""blur"",""6"",""42750""
""focus"",""6"",""51727""
","""event"",""trial"",""time""
""blur"",""0"",""0""
""blur"",""0"",""0""
""blur"",""2"",""6694""
""blur"",""4"",""21398""
""blur"",""4"",""21586""
""blur"",""6"",""42750""
","""event"",""trial"",""time""
""focus"",""0"",""0""
""focus"",""0"",""0""
""focus"",""2"",""7786""
""focus"",""4"",""21573""
""focus"",""4"",""24798""
""focus"",""6"",""51727""
","""event"",""trial"",""time""
""fullscreenenter"",""0"",""1485""
","""event"",""trial"",""time""
""fullscreenexit"",""2"",""4819""
","1699","","","","","","","","53","","","","261","probe-34","","","","","1","[object Object]","116","2","1","","","",""
"","html-keyboard-response","82","293409","0.0-50.0-1.0","""event"",""trial"",""time""
""blur"",""0"",""0""
""focus"",""0"",""0""
""blur"",""0"",""0""
""focus"",""0"",""0""
""fullscreenenter"",""0"",""1485""
""fullscreenexit"",""2"",""4819""
""blur"",""2"",""6694""
""focus"",""2"",""7786""
""blur"",""4"",""21398""
""focus"",""4"",""21573""
""blur"",""4"",""21586""
""focus"",""4"",""24798""
""blur"",""6"",""42750""
""focus"",""6"",""51727""
","""event"",""trial"",""time""
""blur"",""0"",""0""
""blur"",""0"",""0""
""blur"",""2"",""6694""
""blur"",""4"",""21398""
""blur"",""4"",""21586""
""blur"",""6"",""42750""
","""event"",""trial"",""time""
""focus"",""0"",""0""
""focus"",""0"",""0""
""focus"",""2"",""7786""
""focus"",""4"",""21573""
""focus"",""4"",""24798""
""focus"",""6"",""51727""
","""event"",""trial"",""time""
""fullscreenenter"",""0"",""1485""
","""event"",""trial"",""time""
""fullscreenexit"",""2"",""4819""
","null","<p></p>","null","","","","","","","","","","","","","","","","","","","","","","","",""
"","do_trial","83","296336","0.0-51.0-0.0","""event"",""trial"",""time""
""blur"",""0"",""0""
""focus"",""0"",""0""
""blur"",""0"",""0""
""focus"",""0"",""0""
""fullscreenenter"",""0"",""1485""
""fullscreenexit"",""2"",""4819""
""blur"",""2"",""6694""
""focus"",""2"",""7786""
""blur"",""4"",""21398""
""focus"",""4"",""21573""
""blur"",""4"",""21586""
""focus"",""4"",""24798""
""blur"",""6"",""42750""
""focus"",""6"",""51727""
","""event"",""trial"",""time""
""blur"",""0"",""0""
""blur"",""0"",""0""
""blur"",""2"",""6694""
""blur"",""4"",""21398""
""blur"",""4"",""21586""
""blur"",""6"",""42750""
","""event"",""trial"",""time""
""focus"",""0"",""0""
""focus"",""0"",""0""
""focus"",""2"",""7786""
""focus"",""4"",""21573""
""focus"",""4"",""24798""
""focus"",""6"",""51727""
","""event"",""trial"",""time""
""fullscreenenter"",""0"",""1485""
","""event"",""trial"",""time""
""fullscreenexit"",""2"",""4819""
","397.10000002384186","","","","","","","","49","1,0,0","6","blank","262","null","0.7126127947627873","0.2225098889988255","0.06597308106013848","1","","","","","","","","",""
"","html-keyboard-response","84","297339","0.0-51.0-1.0","""event"",""trial"",""time""
""blur"",""0"",""0""
""focus"",""0"",""0""
""blur"",""0"",""0""
""focus"",""0"",""0""
""fullscreenenter"",""0"",""1485""
""fullscreenexit"",""2"",""4819""
""blur"",""2"",""6694""
""focus"",""2"",""7786""
""blur"",""4"",""21398""
""focus"",""4"",""21573""
""blur"",""4"",""21586""
""focus"",""4"",""24798""
""blur"",""6"",""42750""
""focus"",""6"",""51727""
","""event"",""trial"",""time""
""blur"",""0"",""0""
""blur"",""0"",""0""
""blur"",""2"",""6694""
""blur"",""4"",""21398""
""blur"",""4"",""21586""
""blur"",""6"",""42750""
","""event"",""trial"",""time""
""focus"",""0"",""0""
""focus"",""0"",""0""
""focus"",""2"",""7786""
""focus"",""4"",""21573""
""focus"",""4"",""24798""
""focus"",""6"",""51727""
","""event"",""trial"",""time""
""fullscreenenter"",""0"",""1485""
","""event"",""trial"",""time""
""fullscreenexit"",""2"",""4819""
","null","<p></p>","null","","","","","","","","","","","","","","","","","","","","","","","",""
"","do_recog","85","300754","0.0-52.0-0.0","""event"",""trial"",""time""
""blur"",""0"",""0""
""focus"",""0"",""0""
""blur"",""0"",""0""
""focus"",""0"",""0""
""fullscreenenter"",""0"",""1485""
""fullscreenexit"",""2"",""4819""
""blur"",""2"",""6694""
""focus"",""2"",""7786""
""blur"",""4"",""21398""
""focus"",""4"",""21573""
""blur"",""4"",""21586""
""focus"",""4"",""24798""
""blur"",""6"",""42750""
""focus"",""6"",""51727""
","""event"",""trial"",""time""
""blur"",""0"",""0""
""blur"",""0"",""0""
""blur"",""2"",""6694""
""blur"",""4"",""21398""
""blur"",""4"",""21586""
""blur"",""6"",""42750""
","""event"",""trial"",""time""
""focus"",""0"",""0""
""focus"",""0"",""0""
""focus"",""2"",""7786""
""focus"",""4"",""21573""
""focus"",""4"",""24798""
""focus"",""6"",""51727""
","""event"",""trial"",""time""
""fullscreenenter"",""0"",""1485""
","""event"",""trial"",""time""
""fullscreenexit"",""2"",""4819""
","1911","","","","","","","","53","","","","263","probe-224","","","","","1","[object Object]","111","2","1","","","",""
"","html-keyboard-response","86","301756","0.0-52.0-1.0","""event"",""trial"",""time""
""blur"",""0"",""0""
""focus"",""0"",""0""
""blur"",""0"",""0""
""focus"",""0"",""0""
""fullscreenenter"",""0"",""1485""
""fullscreenexit"",""2"",""4819""
""blur"",""2"",""6694""
""focus"",""2"",""7786""
""blur"",""4"",""21398""
""focus"",""4"",""21573""
""blur"",""4"",""21586""
""focus"",""4"",""24798""
""blur"",""6"",""42750""
""focus"",""6"",""51727""
","""event"",""trial"",""time""
""blur"",""0"",""0""
""blur"",""0"",""0""
""blur"",""2"",""6694""
""blur"",""4"",""21398""
""blur"",""4"",""21586""
""blur"",""6"",""42750""
","""event"",""trial"",""time""
""focus"",""0"",""0""
""focus"",""0"",""0""
""focus"",""2"",""7786""
""focus"",""4"",""21573""
""focus"",""4"",""24798""
""focus"",""6"",""51727""
","""event"",""trial"",""time""
""fullscreenenter"",""0"",""1485""
","""event"",""trial"",""time""
""fullscreenexit"",""2"",""4819""
