"success","trial_type","trial_index","time_elapsed","internal_node_id","interactions","blur_events","focus_events","fullscreenenter_events","fullscreenexit_events","rt","stimulus","key_press","subject_id","participant_id","age","gender","prompt","response","choice_outcomes","context_n","context_img_id","trial_n","probe_img_id","pR_red","pR_white","pR_black","outcome","is_valid","image_to_show","probed_trial","probed_context","correct","probe","probed_trial_n","probed_context_n","context_im"
"true","fullscreen","0","4650","0.0-0.0","""event"",""trial"",""time""
""fullscreenenter"",""0"",""3668""
","
","
","""event"",""trial"",""time""
""fullscreenenter"",""0"",""3668""
","
","","","","","","","","","","","","","","","","","","","","","","","","","","",""
"","pavlovia","1","4667","0.0-1.0","""event"",""trial"",""time""
""fullscreenenter"",""0"",""3668""
","
","
","""event"",""trial"",""time""
""fullscreenenter"",""0"",""3668""
","
","","","","","","","","","","","","","","","","","","","","","","","","","","",""
"","welc_back","2","14735","0.0-2.0","""event"",""trial"",""time""
""fullscreenenter"",""0"",""3668""
","
","
","""event"",""trial"",""time""
""fullscreenenter"",""0"",""3668""
","
","null","run_exp/static/audio/clip_29_welcome_back.m4a","null","462","189","14","Male","<div class='center'><p>Welcome to day 2!</p><p> Yesterday, you were the head captain of a pirate ship. You asked your fellow pirates to rob other ships of their gold across six different islands.</p></div>","","","","","","","","","","","","","","","","","","",""
"","html-keyboard-response","3","16603","0.0-3.0","""event"",""trial"",""time""
""fullscreenenter"",""0"",""3668""
","
","
","""event"",""trial"",""time""
""fullscreenenter"",""0"",""3668""
","
","1861.5","<div class='center'><p>Welcome to day 2!</p><p> Yesterday, you were the head captain of a pirate ship. You asked your fellow pirates to rob other ships of their gold across six different islands.</p><p><b>[Press the space bar to continue]</b></p></div>","32","","","","","","","","","","","","","","","","","","","","","","","",""
"","day_1_summary_goal","4","34065","0.0-4.0","""event"",""trial"",""time""
""fullscreenenter"",""0"",""3668""
","
","
","""event"",""trial"",""time""
""fullscreenenter"",""0"",""3668""
","
","null","run_exp/static/audio/clip_30_goal_of_game.m4a","null","","","","","<div class='center'><p>Today, like yesterday, you get to pick which pirate you want to rob the next ship.</p><p>If the pirate is successful in robbing a ship, you get gold coins that look like this: </p><p><img src='run_exp/static/images/tutorial/reward.png' height='150'></p><p> If they were not successful in robbing the ship, then you will get no gold coins and you'll see a big red x like this: </p><p><img src='run_exp/static/images/tutorial/reward_no.png' height='150'></p></div>","","","","","","","","","","","","","","","","","","",""
"","html-keyboard-response","5","34166","0.0-5.0","""event"",""trial"",""time""
""fullscreenenter"",""0"",""3668""
","
","
","""event"",""trial"",""time""
""fullscreenenter"",""0"",""3668""
","
","90.40000000037253","<div class='center'><p>Today, like yesterday, you get to pick which pirate you want to rob the next ship.</p><p>If the pirate is successful in robbing a ship, you get gold coins that look like this: </p><p><img src='run_exp/static/images/tutorial/reward.png' height='150'></p><p> If they were not successful in robbing the ship, then you will get no gold coins and you'll see a big red x like this: </p><p><img src='run_exp/static/images/tutorial/reward_no.png' height='150'></p><p><b>[Press the space bar to continue]</b></p></div>","32","","","","","","","","","","","","","","","","","","","","","","","",""
"","day_1_summary_pick","6","49113","0.0-6.0","""event"",""trial"",""time""
""fullscreenenter"",""0"",""3668""
","
","
","""event"",""trial"",""time""
""fullscreenenter"",""0"",""3668""
","
","null","run_exp/static/audio/clip_31_how_to_pick_a_pirate.m4a","null","","","","","<div class='center'><p>Also, just like yesterday, you will use the 1,2,3 keys on your keyboard to pick a pirate. Press '1' to choose red beard, '2' to choose white beard, and '3' to choose black beard . You only have 3 seconds to pick a pirate, so please make a choice quickly!</p></div>","","","","","","","","","","","","","","","","","","",""
"","html-keyboard-response","7","50740","0.0-7.0","""event"",""trial"",""time""
""fullscreenenter"",""0"",""3668""
","
","
","""event"",""trial"",""time""
""fullscreenenter"",""0"",""3668""
","
","1624.699999999255","<div class='center'><p>Also, just like yesterday, you will use the 1,2,3 keys on your keyboard to pick a pirate. Press '1' to choose red beard, '2' to choose white beard, and '3' to choose black beard . You only have 3 seconds to pick a pirate, so please make a choice quickly!</p><p><b>[Press the space bar to continue]</b></p></div>","32","","","","","","","","","","","","","","","","","","","","","","","",""
"","test_phase_begin","8","81368","0.0-8.0","""event"",""trial"",""time""
""fullscreenenter"",""0"",""3668""
","
","
","""event"",""trial"",""time""
""fullscreenenter"",""0"",""3668""
","
","null","run_exp/static/audio/clip_32_final_place.m4a","null","","","","","<div class='center'><p>You’ve arrived at the final island of your journey! Unfortunately, it’s very foggy out, so you won’t be able to see it in the distance like the other islands you've visited.</p><p>You’ll still be deciding which pirate you want to rob a ship like before. However, because of the fog, you also won’t be able to see the ship.</p><p>This means you do not have to remember the ships you rob on this island.</p><p>Unlike yesterday, you won't be visiting multiple islands today. You will stay on this island for the entire game. This game will last ~30 minutes.</p></div>","","","","","","","","","","","","","","","","","","",""
"","html-keyboard-response","9","84059","0.0-9.0","""event"",""trial"",""time""
""fullscreenenter"",""0"",""3668""
","
","
","""event"",""trial"",""time""
""fullscreenenter"",""0"",""3668""
","
","2686.5999999996275","<div class='center'><p>You’ve arrived at the final island of your journey! Unfortunately, it’s very foggy out, so you won’t be able to see it in the distance like the other islands you've visited.</p><p>You’ll still be deciding which pirate you want to rob a ship like before. However, because of the fog, you also won’t be able to see the ship.</p><p>This means you do not have to remember the ships you rob on this island.</p><p>Unlike yesterday, you won't be visiting multiple islands today. You will stay on this island for the entire game. This game will last ~30 minutes.</p><p><b>[Press the space bar to continue]</b></p></div>","32","","","","","","","","","","","","","","","","","","","","","","","",""
"","explain_probe_1","10","92049","0.0-10.0","""event"",""trial"",""time""
""fullscreenenter"",""0"",""3668""
","
","
","""event"",""trial"",""time""
""fullscreenenter"",""0"",""3668""
","
","null","run_exp/static/audio/clip_33_recognition_1.m4a","null","","","","","<div class='center'><p> Sometimes you’ll be shown a ship, and you will be asked if you saw this ship on a past island.</p><p> Here is an example of what you will see.</p><p><img src='run_exp/static/images/tutorial/example_recog_trial.png' height='500'></p></div>","","","","","","","","","","","","","","","","","","",""
"","html-keyboard-response","11","93896","0.0-11.0","""event"",""trial"",""time""
""fullscreenenter"",""0"",""3668""
","
","
","""event"",""trial"",""time""
""fullscreenenter"",""0"",""3668""
","
","1843.5","<div class='center'><p> Sometimes you’ll be shown a ship, and you will be asked if you saw this ship on a past island.</p><p> Here is an example of what you will see.</p><p><img src='run_exp/static/images/tutorial/example_recog_trial.png' height='500'></p><p><b>[Press the space bar to continue]</b></p></div>","32","","","","","","","","","","","","","","","","","","","","","","","",""
"","explain_probe_2","12","115842","0.0-12.0","""event"",""trial"",""time""
""fullscreenenter"",""0"",""3668""
","
","
","""event"",""trial"",""time""
""fullscreenenter"",""0"",""3668""
","
","null","run_exp/static/audio/clip_34_recognition_2.m4a","null","","","","","<div class='center'><p> You will press the 5, 6, 7, 8 keys on your keyboard to respond.</p><p>If you are sure you saw the ship, press <b>5</b> on your keyboard.</p><p> If you think you saw it before but aren't sure, then press <b>6</b>.</p><p> If you think you have <b>not</b> seen it before but aren't sure, then press <b>7</b>.</p><p> If you are sure you did <b>not</b> see the ship before, then press <b>8</b>.</p><p><img src='run_exp/static/images/tutorial/example_recog_trial.png' height='500'></p></div>","","","","","","","","","","","","","","","","","","",""
"","html-keyboard-response","13","116233","0.0-13.0","""event"",""trial"",""time""
""fullscreenenter"",""0"",""3668""
","
","
","""event"",""trial"",""time""
""fullscreenenter"",""0"",""3668""
","
","386.40000000037253","<div class='center'><p> You will press the 5, 6, 7, 8 keys on your keyboard to respond.</p><p>If you are sure you saw the ship, press <b>5</b> on your keyboard.</p><p> If you think you saw it before but aren't sure, then press <b>6</b>.</p><p> If you think you have <b>not</b> seen it before but aren't sure, then press <b>7</b>.</p><p> If you are sure you did <b>not</b> see the ship before, then press <b>8</b>.</p><p><img src='run_exp/static/images/tutorial/example_recog_trial.png' height='500'></p><p><b>[Press the space bar to continue]</b></p></div>","32","","","","","","","","","","","","","","","","","","","","","","","",""
"","explain_outcome","14","133679","0.0-14.0","""event"",""trial"",""time""
""fullscreenenter"",""0"",""3668""
","
","
","""event"",""trial"",""time""
""fullscreenenter"",""0"",""3668""
","
","null","run_exp/static/audio/clip_35_recognition_3.m4a","null","","","","","<div class='center'><p> If you remember correctly, then you’ll get a gold coin like this: </p><p><img src='run_exp/static/images/tutorial/reward_small.png' height='200'></p><p>If you do not remember correctly, then you'll see a red x like this: </p><p><img src='run_exp/static/images/tutorial/reward_no.png' height='200'></p><p>Importantly, when you are shown a ship, take the time to remind yourself which island you saw it on. This will help you in the next part of the study.</p></div>","","","","","","","","","","","","","","","","","","",""
"","html-keyboard-response","15","134668","0.0-15.0","""event"",""trial"",""time""
""fullscreenenter"",""0"",""3668""
","
","
","""event"",""trial"",""time""
""fullscreenenter"",""0"",""3668""
","
","984.7999999988824","<div class='center'><p> If you remember correctly, then you’ll get a gold coin like this: </p><p><img src='run_exp/static/images/tutorial/reward_small.png' height='200'></p><p>If you do not remember correctly, then you'll see a red x like this: </p><p><img src='run_exp/static/images/tutorial/reward_no.png' height='200'></p><p>Importantly, when you are shown a ship, take the time to remind yourself which island you saw it on. This will help you in the next part of the study.</p><p><b>[Press the space bar to continue]</b></p></div>","32","","","","","","","","","","","","","","","","","","","","","","","",""
"","begin_test_phase","16","150685","0.0-16.0","""event"",""trial"",""time""
""fullscreenenter"",""0"",""3668""
","
","
","""event"",""trial"",""time""
""fullscreenenter"",""0"",""3668""
","
","null","run_exp/static/audio/clip_36_begin_final.m4a","null","","","","","<div class='center'><p>Let's go over the important points again. Your job is to: </p><p>1. Pick the pirate who is best at robbing ships and will bring you back gold coins. </p><p>2. Correctly remember whether or not you saw a ship before. If you did see the ship before, remind yourself on which island you saw it. </p></div>","","","","","","","","","","","","","","","","","","",""
"","html-keyboard-response","17","151163","0.0-17.0","""event"",""trial"",""time""
""fullscreenenter"",""0"",""3668""
","
","
","""event"",""trial"",""time""
""fullscreenenter"",""0"",""3668""
","
","306.19999999925494","<div class='center'><p>Let's go over the important points again. Your job is to: </p><p>1. Pick the pirate who is best at robbing ships and will bring you back gold coins. </p><p>2. Correctly remember whether or not you saw a ship before. If you did see the ship before, remind yourself on which island you saw it. </p><p><b>[Press the space bar to continue]</b></p></div>","32","","","","","","","","","","","","","","","","","","","","","","","",""
"","do_welcome","18","155180","0.0-18.0","""event"",""trial"",""time""
""fullscreenenter"",""0"",""3668""
","
","
","""event"",""trial"",""time""
""fullscreenenter"",""0"",""3668""
","
","null","","","","","","","","null","","","","","","","","","","","","","","","","","",""
"","do_trial","19","160134","0.0-19.0-0.0","""event"",""trial"",""time""
""fullscreenenter"",""0"",""3668""
","
","
","""event"",""trial"",""time""
""fullscreenenter"",""0"",""3668""
","
","2349.699999999255","","","","","","","","49","0,1,1","6","blank","230","null","0.08902820200232928","0.7743563468855618","0.22343645605040252","0","","","","","","","","",""
"","html-keyboard-response","20","161143","0.0-19.0-1.0","""event"",""trial"",""time""
""fullscreenenter"",""0"",""3668""
","
","
","""event"",""trial"",""time""
""fullscreenenter"",""0"",""3668""
","
","null","<p></p>","null","","","","","","","","","","","","","","","","","","","","","","","",""
"","do_trial","21","164687","0.0-20.0-0.0","""event"",""trial"",""time""
""fullscreenenter"",""0"",""3668""
","
","
","""event"",""trial"",""time""
""fullscreenenter"",""0"",""3668""
","
","943","","","","","","","","49","0,0,0","6","blank","231","null","0.10504109861992923","0.6947986371354078","0.3386687813012512","0","","","","","","","","",""
"","html-keyboard-response","22","165691","0.0-20.0-1.0","""event"",""trial"",""time""
""fullscreenenter"",""0"",""3668""
","
","
","""event"",""trial"",""time""
""fullscreenenter"",""0"",""3668""
","
","null","<p></p>","null","","","","","","","","","","","","","","","","","","","","","","","",""
"","do_trial","23","168547","0.0-21.0-0.0","""event"",""trial"",""time""
""fullscreenenter"",""0"",""3668""
","
","
","""event"",""trial"",""time""
""fullscreenenter"",""0"",""3668""
","
","252.40000000037253","","","","","","","","49","0,0,1","6","blank","232","null","0.06430412363395631","0.6627846691729203","0.38191550778393335","0","","","","","","","","",""
"","html-keyboard-response","24","169554","0.0-21.0-1.0","""event"",""trial"",""time""
""fullscreenenter"",""0"",""3668""
","
","
","""event"",""trial"",""time""
""fullscreenenter"",""0"",""3668""
","
","null","<p></p>","null","","","","","","","","","","","","","","","","","","","","","","","",""
"","do_trial","25","172410","0.0-22.0-0.0","""event"",""trial"",""time""
""fullscreenenter"",""0"",""3668""
","
","
","""event"",""trial"",""time""
""fullscreenenter"",""0"",""3668""
","
","246","","","","","","","","49","1,1,0","6","blank","233","null","0.10242073040009775","0.7674640126290959","0.44025380771630673","1","","","","","","","","",""
"","html-keyboard-response","26","173413","0.0-22.0-1.0","""event"",""trial"",""time""
""fullscreenenter"",""0"",""3668""
","
","
","""event"",""trial"",""time""
""fullscreenenter"",""0"",""3668""
","
","null","<p></p>","null","","","","","","","","","","","","","","","","","","","","","","","",""
"","do_trial","27","177102","0.0-23.0-0.0","""event"",""trial"",""time""
""fullscreenenter"",""0"",""3668""
","
","
","""event"",""trial"",""time""
""fullscreenenter"",""0"",""3668""
","
","1087","","","","","","","","50","0,1,0","6","blank","234","null","0.0634804281289706","0.7280266507090513","0.44115910164553124","1","","","","","","","","",""
"","html-keyboard-response","28","178108","0.0-23.0-1.0","""event"",""trial"",""time""
""fullscreenenter"",""0"",""3668""
","
","
","""event"",""trial"",""time""
""fullscreenenter"",""0"",""3668""
","
","null","<p></p>","null","","","","","","","","","","","","","","","","","","","","","","","",""
"","do_trial","29","180990","0.0-24.0-0.0","""event"",""trial"",""time""
""fullscreenenter"",""0"",""3668""
","
","
","""event"",""trial"",""time""
""fullscreenenter"",""0"",""3668""
","
","273.7000000011176","","","","","","","","50","0,0,0","6","blank","235","null","0.14791859351215655","0.68032199405333","0.35522566958263474","0","","","","","","","","",""
"","html-keyboard-response","30","181993","0.0-24.0-1.0","""event"",""trial"",""time""
""fullscreenenter"",""0"",""3668""
","
","
","""event"",""trial"",""time""
""fullscreenenter"",""0"",""3668""
","
","null","<p></p>","null","","","","","","","","","","","","","","","","","","","","","","","",""
"","do_trial","31","184847","0.0-25.0-0.0","""event"",""trial"",""time""
""fullscreenenter"",""0"",""3668""
","
","
","""event"",""trial"",""time""
""fullscreenenter"",""0"",""3668""
","
","253.90000000037253","","","","","","","","51","0,0,1","6","blank","236","null","0.0701796289318739","0.6922184606104433","0.3300017457156263","1","","","","","","","","",""
"","html-keyboard-response","32","185852","0.0-25.0-1.0","""event"",""trial"",""time""
""fullscreenenter"",""0"",""3668""
","
","
","""event"",""trial"",""time""
""fullscreenenter"",""0"",""3668""
","
","null","<p></p>","null","","","","","","","","","","","","","","","","","","","","","","","",""
"","do_trial","33","188741","0.0-26.0-0.0","""event"",""trial"",""time""
""fullscreenenter"",""0"",""3668""
","
","
","""event"",""trial"",""time""
""fullscreenenter"",""0"",""3668""
","
","282.5","","","","","","","","51","0,0,1","6","blank","237","null","0.06450724163148766","0.6214413638323386","0.2542636973847497","1","","","","","","","","",""
"","html-keyboard-response","34","189746","0.0-26.0-1.0","""event"",""trial"",""time""
""fullscreenenter"",""0"",""3668""
","
","
","""event"",""trial"",""time""
""fullscreenenter"",""0"",""3668""
","
","null","<p></p>","null","","","","","","","","","","","","","","","","","","","","","","","",""
"","do_trial","35","192687","0.0-27.0-0.0","""event"",""trial"",""time""
""fullscreenenter"",""0"",""3668""
","
","
","""event"",""trial"",""time""
""fullscreenenter"",""0"",""3668""
","
","331.69999999925494","","","","","","","","51","0,1,1","6","blank","238","null","0.10019530009730698","0.6803812467282436","0.1549775633734378","1","","","","","","","","",""
"","html-keyboard-response","36","193694","0.0-27.0-1.0","""event"",""trial"",""time""
""fullscreenenter"",""0"",""3668""
","
","
","""event"",""trial"",""time""
""fullscreenenter"",""0"",""3668""
","
","null","<p></p>","null","","","","","","","","","","","","","","","","","","","","","","","",""
"","do_trial","37","196528","0.0-28.0-0.0","""event"",""trial"",""time""
""fullscreenenter"",""0"",""3668""
","
","
","""event"",""trial"",""time""
""fullscreenenter"",""0"",""3668""
","
","223.89999999850988","","","","","","","","51","0,0,0","6","blank","239","null","0.07567717386808788","0.7487761970801188","0.1542061120259852","0","","","","","","","","",""
"","html-keyboard-response","38","197535","0.0-28.0-1.0","""event"",""trial"",""time""
""fullscreenenter"",""0"",""3668""
","
","
","""event"",""trial"",""time""
""fullscreenenter"",""0"",""3668""
","
","null","<p></p>","null","","","","","","","","","","","","","","","","","","","","","","","",""
"","do_trial","39","200917","0.0-29.0-0.0","""event"",""trial"",""time""
""fullscreenenter"",""0"",""3668""
","
","
","""event"",""trial"",""time""
""fullscreenenter"",""0"",""3668""
","
","772.2000000011176","","","","","","","","49","0,1,0","6","blank","240","null","0.1437027947003158","0.6672858836539716","0.20446159920956217","0","","","","","","","","",""
"","html-keyboard-response","40","201922","0.0-29.0-1.0","""event"",""trial"",""time""
""fullscreenenter"",""0"",""3668""
","
","
","""event"",""trial"",""time""
""fullscreenenter"",""0"",""3668""
","
","null","<p></p>","null","","","","","","","","","","","","","","","","","","","","","","","",""
"","do_recog","41","207949","0.0-30.0-0.0","""event"",""trial"",""time""
""fullscreenenter"",""0"",""3668""
","
","
","""event"",""trial"",""time""
""fullscreenenter"",""0"",""3668""
","
","null","","","","","","","","null","","","","241","probe-143","","","","","1","[object Object]","72","1","0","","","",""
"","html-keyboard-response","42","208957","0.0-30.0-1.0","""event"",""trial"",""time""
""fullscreenenter"",""0"",""3668""
","
","
","""event"",""trial"",""time""
""fullscreenenter"",""0"",""3668""
","
","null","<p></p>","null","","","","","","","","","","","","","","","","","","","","","","","",""
"","do_trial","43","212646","0.0-31.0-0.0","""event"",""trial"",""time""
""fullscreenenter"",""0"",""3668""
","
","
","""event"",""trial"",""time""
""fullscreenenter"",""0"",""3668""
","
","1077.2000000011176","","","","","","","","49","0,1,1","6","blank","242","null","0.08055060931088556","0.8322063928330045","0.30804501473754825","0","","","","","","","","",""
"","html-keyboard-response","44","213661","0.0-31.0-1.0","""event"",""trial"",""time""
""fullscreenenter"",""0"",""3668""
","
","
","""event"",""trial"",""time""
""fullscreenenter"",""0"",""3668""
","
","null","<p></p>","null","","","","","","","","","","","","","","","","","","","","","","","",""
"","do_trial","45","216718","0.0-32.0-0.0","""event"",""trial"",""time""
""fullscreenenter"",""0"",""3668""
","
","
","""event"",""trial"",""time""
""fullscreenenter"",""0"",""3668""
","
","449.09999999962747","","","","","","","","49","0,1,0","6","blank","243","null","0.15403441725648692","0.4985063831297948","0.3305558306259475","0","","","","","","","","",""
"","html-keyboard-response","46","217728","0.0-32.0-1.0","""event"",""trial"",""time""
""fullscreenenter"",""0"",""3668""
","
","
","""event"",""trial"",""time""
""fullscreenenter"",""0"",""3668""
","
","null","<p></p>","null","","","","","","","","","","","","","","","","","","","","","","","",""
"","do_recog","47","223752","0.0-33.0-0.0","""event"",""trial"",""time""
""fullscreenenter"",""0"",""3668""
","
","
","""event"",""trial"",""time""
""fullscreenenter"",""0"",""3668""
","
","null","","","","","","","","null","","","","244","probe-36","","","","","1","[object Object]","157","3","0","","","",""
"","html-keyboard-response","48","224758","0.0-33.0-1.0","""event"",""trial"",""time""
""fullscreenenter"",""0"",""3668""
","
","
","""event"",""trial"",""time""
""fullscreenenter"",""0"",""3668""
","
","null","<p></p>","null","","","","","","","","","","","","","","","","","","","","","","","",""
"","do_trial","49","228030","0.0-34.0-0.0","""event"",""trial"",""time""
""fullscreenenter"",""0"",""3668""
","
","
","""event"",""trial"",""time""
""fullscreenenter"",""0"",""3668""
","
","663.5999999996275","","","","","","","","49","0,0,1","6","blank","245","null","0.35924471888117326","0.4129565841673288","0.3712895596423113","0","","","","","","","","",""
"","html-keyboard-response","50","229034","0.0-34.0-1.0","""event"",""trial"",""time""
""fullscreenenter"",""0"",""3668""
","
","
","""event"",""trial"",""time""
""fullscreenenter"",""0"",""3668""
","
","null","<p></p>","null","","","","","","","","","","","","","","","","","","","","","","","",""
"","do_recog","51","233023","0.0-35.0-0.0","""event"",""trial"",""time""
""fullscreenenter"",""0"",""3668""
","
","
","""event"",""trial"",""time""
""fullscreenenter"",""0"",""3668""
","
","2462.5","","","","","","","","56","","","","246","probe-152","","","","","1","[object Object]","152","3","0","","","",""
"","html-keyboard-response","52","234028","0.0-35.0-1.0","""event"",""trial"",""time""
""fullscreenenter"",""0"",""3668""
","
","
","""event"",""trial"",""time""
""fullscreenenter"",""0"",""3668""
","
","null","<p></p>","null","","","","","","","","","","","","","","","","","","","","","","","",""
"","do_trial","53","238011","0.0-36.0-0.0","""event"",""trial"",""time""
""fullscreenenter"",""0"",""3668""
","
","
","""event"",""trial"",""time""
""fullscreenenter"",""0"",""3668""
","
","1384.199999999255","","","","","","","","49","1,0,0","6","blank","247","null","0.38941437269193735","0.31308044038062544","0.2090816803499833","1","","","","","","","","",""
"","html-keyboard-response","54","239017","0.0-36.0-1.0","""event"",""trial"",""time""
""fullscreenenter"",""0"",""3668""
","
","
","""event"",""trial"",""time""
""fullscreenenter"",""0"",""3668""
","
","null","<p></p>","null","","","","","","","","","","","","","","","","","","","","","","","",""
"","do_recog","55","242269","0.0-37.0-0.0","""event"",""trial"",""time""
""fullscreenenter"",""0"",""3668""
","
","
","""event"",""trial"",""time""
""fullscreenenter"",""0"",""3668""
","
","1729.300000000745","","","","","","","","53","","","","248","probe-180","","","","","1","[object Object]","196","4","1","","","",""
"","html-keyboard-response","56","243272","0.0-37.0-1.0","""event"",""trial"",""time""
""fullscreenenter"",""0"",""3668""
","
","
","""event"",""trial"",""time""
""fullscreenenter"",""0"",""3668""
","
","null","<p></p>","null","","","","","","","","","","","","","","","","","","","","","","","",""
"","do_trial","57","247190","0.0-38.0-0.0","""event"",""trial"",""time""
""fullscreenenter"",""0"",""3668""
","
","
","""event"",""trial"",""time""
""fullscreenenter"",""0"",""3668""
","
","1309.699999999255","","","","","","","","49","0,1,0","6","blank","249","null","0.6294332281980977","0.09554182395542499","0.10897843368434618","0","","","","","","","","",""
"","html-keyboard-response","58","248193","0.0-38.0-1.0","""event"",""trial"",""time""
""fullscreenenter"",""0"",""3668""
","
","
","""event"",""trial"",""time""
""fullscreenenter"",""0"",""3668""
","
","null","<p></p>","null","","","","","","","","","","","","","","","","","","","","","","","",""
"","do_trial","59","251247","0.0-39.0-0.0","""event"",""trial"",""time""
""fullscreenenter"",""0"",""3668""
","
","
","""event"",""trial"",""time""
""fullscreenenter"",""0"",""3668""
","
","461.40000000037253","","","","","","","","49","1,1,0","6","blank","250","null","0.6510145921462719","0.14609736258962888","0.1452880740950501","1","","","","","","","","",""
"","html-keyboard-response","60","252254","0.0-39.0-1.0","""event"",""trial"",""time""
""fullscreenenter"",""0"",""3668""
","
","
","""event"",""trial"",""time""
""fullscreenenter"",""0"",""3668""
","
","null","<p></p>","null","","","","","","","","","","","","","","","","","","","","","","","",""
"","do_trial","61","255184","0.0-40.0-0.0","""event"",""trial"",""time""
""fullscreenenter"",""0"",""3668""
","
","
","""event"",""trial"",""time""
""fullscreenenter"",""0"",""3668""
","
","319.59999999962747","","","","","","","","49","1,0,0","6","blank","251","null","0.6008383814395785","0.10311885204328217","0.1975217317800065","1","","","","","","","","",""
"","html-keyboard-response","62","256192","0.0-40.0-1.0","""event"",""trial"",""time""
""fullscreenenter"",""0"",""3668""
","
","
","""event"",""trial"",""time""
""fullscreenenter"",""0"",""3668""
","
","null","<p></p>","null","","","","","","","","","","","","","","","","","","","","","","","",""
"","do_trial","63","259024","0.0-41.0-0.0","""event"",""trial"",""time""
""fullscreenenter"",""0"",""3668""
","
","
","""event"",""trial"",""time""
""fullscreenenter"",""0"",""3668""
","
","207.19999999925494","","","","","","","","49","1,0,0","6","blank","252","null","0.659858731451422","0.14024554369616168","0.20170420445263523","1","","","","","","","","",""
"","html-keyboard-response","64","260030","0.0-41.0-1.0","""event"",""trial"",""time""
""fullscreenenter"",""0"",""3668""
","
","
","""event"",""trial"",""time""
""fullscreenenter"",""0"",""3668""
","
","null","<p></p>","null","","","","","","","","","","","","","","","","","","","","","","","",""
"","do_trial","65","262884","0.0-42.0-0.0","""event"",""trial"",""time""
""fullscreenenter"",""0"",""3668""
","
","
","""event"",""trial"",""time""
""fullscreenenter"",""0"",""3668""
","
","244.19999999925494","","","","","","","","49","1,1,0","6","blank","253","null","0.7663567733999801","0.07550015089616441","0.21485721833767968","1","","","","","","","","",""
"","html-keyboard-response","66","263889","0.0-42.0-1.0","""event"",""trial"",""time""
""fullscreenenter"",""0"",""3668""
","
","
","""event"",""trial"",""time""
""fullscreenenter"",""0"",""3668""
","
","null","<p></p>","null","","","","","","","","","","","","","","","","","","","","","","","",""
"","do_trial","67","266765","0.0-43.0-0.0","""event"",""trial"",""time""
""fullscreenenter"",""0"",""3668""
","
","
","""event"",""trial"",""time""
""fullscreenenter"",""0"",""3668""
","
","268.80000000074506","","","","","","","","49","0,0,0","6","blank","254","null","0.5356860106744407","0.07199932403319047","0.23958668023594804","0","","","","","","","","",""
"","html-keyboard-response","68","267771","0.0-43.0-1.0","""event"",""trial"",""time""
""fullscreenenter"",""0"",""3668""
","
","
","""event"",""trial"",""time""
""fullscreenenter"",""0"",""3668""
","
","null","<p></p>","null","","","","","","","","","","","","","","","","","","","","","","","",""
"","do_trial","69","270519","0.0-44.0-0.0","""event"",""trial"",""time""
""fullscreenenter"",""0"",""3668""
","
","
","""event"",""trial"",""time""
""fullscreenenter"",""0"",""3668""
","
","140.19999999925494","","","","","","","","49","0,0,1","6","blank","255","null","0.5419356952509369","0.1673667927405674","0.3339209389950345","0","","","","","","","","",""
"","html-keyboard-response","70","271522","0.0-44.0-1.0","""event"",""trial"",""time""
""fullscreenenter"",""0"",""3668""
","
","
","""event"",""trial"",""time""
""fullscreenenter"",""0"",""3668""
","
","null","<p></p>","null","","","","","","","","","","","","","","","","","","","","","","","",""
"","do_recog","71","275434","0.0-45.0-0.0","""event"",""trial"",""time""
""fullscreenenter"",""0"",""3668""
","
","
","""event"",""trial"",""time""
""fullscreenenter"",""0"",""3668""
","
","2389.699999999255","","","","","","","","53","","","","256","probe-154","","","","","1","[object Object]","118","2","1","","","",""
"","html-keyboard-response","72","276440","0.0-45.0-1.0","""event"",""trial"",""time""
""fullscreenenter"",""0"",""3668""
","
","
","""event"",""trial"",""time""
""fullscreenenter"",""0"",""3668""
","
","null","<p></p>","null","","","","","","","","","","","","","","","","","","","","","","","",""
"","do_trial","73","279891","0.0-46.0-0.0","""event"",""trial"",""time""
""fullscreenenter"",""0"",""3668""
","
","
","""event"",""trial"",""time""
""fullscreenenter"",""0"",""3668""
","
","851.0999999996275","","","","","","","","49","0,0,0","6","blank","257","null","0.3185610380594095","0.1770231006763069","0.3485387797994746","0","","","","","","","","",""
"","html-keyboard-response","74","280896","0.0-46.0-1.0","""event"",""trial"",""time""
""fullscreenenter"",""0"",""3668""
","
","
","""event"",""trial"",""time""
""fullscreenenter"",""0"",""3668""
","
","null","<p></p>","null","","","","","","","","","","","","","","","","","","","","","","","",""
"","do_trial","75","283993","0.0-47.0-0.0","""event"",""trial"",""time""
""fullscreenenter"",""0"",""3668""
","
","
","""event"",""trial"",""time""
""fullscreenenter"",""0"",""3668""
","
","494","","","","","","","","49","1,0,0","6","blank","258","null","0.40789196743478123","0.09340063662381112","0.23531673452570698","1","","","","","","","","",""
"","html-keyboard-response","76","284997","0.0-47.0-1.0","""event"",""trial"",""time""
""fullscreenenter"",""0"",""3668""
","
","
","""event"",""trial"",""time""
""fullscreenenter"",""0"",""3668""
","
","null","<p></p>","null","","","","","","","","","","","","","","","","","","","","","","","",""
"","do_trial","77","288221","0.0-48.0-0.0","""event"",""trial"",""time""
""fullscreenenter"",""0"",""3668""
","
","
","""event"",""trial"",""time""
""fullscreenenter"",""0"",""3668""
","
","622.6999999992549","","","","","","","","49","0,0,0","6","blank","259","null","0.22534840265205855","0.21132481773719117","0.3759101150311742","0","","","","","","","","",""
"","html-keyboard-response","78","289227","0.0-48.0-1.0","""event"",""trial"",""time""
""fullscreenenter"",""0"",""3668""
","
","
","""event"",""trial"",""time""
""fullscreenenter"",""0"",""3668""
","
","null","<p></p>","null","","","","","","","","","","","","","","","","","","","","","","","",""
"","do_trial","79","292456","0.0-49.0-0.0","""event"",""trial"",""time""
""fullscreenenter"",""0"",""3668""
","
","
","""event"",""trial"",""time""
""fullscreenenter"",""0"",""3668""
","
","619.1999999992549","","","","","","","","49","0,0,0","6","blank","260","null","0.39209313925694084","0.14939950975618882","0.5020210571771657","0","","","","","","","","",""
"","html-keyboard-response","80","293460","0.0-49.0-1.0","""event"",""trial"",""time""
""fullscreenenter"",""0"",""3668""
","
","
","""event"",""trial"",""time""
""fullscreenenter"",""0"",""3668""
","
","null","<p></p>","null","","","","","","","","","","","","","","","","","","","","","","","",""
"","do_recog","81","296829","0.0-50.0-0.0","""event"",""trial"",""time""
""fullscreenenter"",""0"",""3668""
","
","
","""event"",""trial"",""time""
""fullscreenenter"",""0"",""3668""
","
","1849.8999999985099","","","","","","","","56","","","","261","probe-238","","","","","0","[object Object]","null","null","1","","","",""
"","html-keyboard-response","82","297834","0.0-50.0-1.0","""event"",""trial"",""time""
""fullscreenenter"",""0"",""3668""
","
","
","""event"",""trial"",""time""
""fullscreenenter"",""0"",""3668""
","
","null","<p></p>","null","","","","","","","","","","","","","","","","","","","","","","","",""
"","do_trial","83","301014","0.0-51.0-0.0","""event"",""trial"",""time""
""fullscreenenter"",""0"",""3668""
","
","
","""event"",""trial"",""time""
""fullscreenenter"",""0"",""3668""
","
","572.4000000003725","","","","","","","","49","0,0,1","6","blank","262","null","0.46347238503314786","0.11346892473690144","0.5549443041871553","0","","","","","","","","",""
"","html-keyboard-response","84","302020","0.0-51.0-1.0","""event"",""trial"",""time""
""fullscreenenter"",""0"",""3668""
","
","
","""event"",""trial"",""time""
""fullscreenenter"",""0"",""3668""
","
","null","<p></p>","null","","","","","","","","","","","","","","","","","","","","","","","",""
"","do_trial","85","304897","0.0-52.0-0.0","""event"",""trial"",""time""
""fullscreenenter"",""0"",""3668""
","
","
","""event"",""trial"",""time""
""fullscreenenter"",""0"",""3668""
","
","265.7000000011176","","","","","","","","49","1,0,0","6","blank","263","null","0.6033034525605205","0.07339414814248739","0.4588524827258945","1","","","","","","","","",""
"","html-keyboard-response","86","305904","0.0-52.0-1.0","""event"",""trial"",""time""
""fullscreenenter"",""0"",""3668""
","
","
","""event"",""trial"",""time""
""fullscreenenter"",""0"",""3668""
","
","null","<p></p>","null","","","","","","","","","","","","","","","","","","","","","","","",""
"","do_trial","87","308836","0.0-53.0-0.0","""event"",""trial"",""time""
""fullscreenenter"",""0"",""3668""
","
","
","""event"",""trial"",""time""
""fullscreenenter"",""0"",""3668""
","
","327.09999999962747","","","","","","","","49","1,0,1","6","blank","264","null","0.6948066912315717","0.16252271441812963","0.5794073255978759","1","","","","","","","","",""
"","html-keyboard-response","88","309842","0.0-53.0-1.0","""event"",""trial"",""time""
""fullscreenenter"",""0"",""3668""
","
","
","""event"",""trial"",""time""
""fullscreenenter"",""0"",""3668""
","
","null","<p></p>","null","","","","","","","","","","","","","","","","","","","","","","","",""
"","do_trial","89","312700","0.0-54.0-0.0","""event"",""trial"",""time""
""fullscreenenter"",""0"",""3668""
","
","
","""event"",""trial"",""time""
""fullscreenenter"",""0"",""3668""
","
","249.2999999988824","","","","","","","","49","0,1,0","6","blank","265","null","0.5459668471639314","0.1629160332032587","0.4562021295435662","0","","","","","","","","",""
"","html-keyboard-response","90","313706","0.0-54.0-1.0","""event"",""trial"",""time""
""fullscreenenter"",""0"",""3668""
","
","
","""event"",""trial"",""time""
""fullscreenenter"",""0"",""3668""
","
","null","<p></p>","null","","","","","","","","","","","","","","","","","","","","","","","",""
"","do_recog","91","317165","0.0-55.0-0.0","""event"",""trial"",""time""
""fullscreenenter"",""0"",""3668""
","
","
","""event"",""trial"",""time""
""fullscreenenter"",""0"",""3668""
","
","1935.300000000745","","","","","","","","53","","","","266","probe-94","","","","","1","[object Object]","199","4","1","","","",""
"","html-keyboard-response","92","318168","0.0-55.0-1.0","""event"",""trial"",""time""
""fullscreenenter"",""0"",""3668""
","
","
","""event"",""trial"",""time""
""fullscreenenter"",""0"",""3668""
","
","null","<p></p>","null","","","","","","","","","","","","","","","","","","","","","","","",""
"","do_trial","93","321179","0.0-56.0-0.0","""event"",""trial"",""time""
""fullscreenenter"",""0"",""3668""
","
","
","""event"",""trial"",""time""
""fullscreenenter"",""0"",""3668""
","
","407","","","","","","","","49","0,0,0","6","blank","267","null","0.6592302054477855","0.09987418353345527","0.3337896730002934","0","","","","","","","","",""
"","html-keyboard-response","94","322186","0.0-56.0-1.0","""event"",""trial"",""time""
""fullscreenenter"",""0"",""3668""
","
","
","""event"",""trial"",""time""
""fullscreenenter"",""0"",""3668""
","
","null","<p></p>","null","","","","","","","","","","","","","","","","","","","","","","","",""
"","do_trial","95","325175","0.0-57.0-0.0","""event"",""trial"",""time""
""fullscreenenter"",""0"",""3668""
","
","
","""event"",""trial"",""time""
""fullscreenenter"",""0"",""3668""
","
","378.2000000011176","","","","","","","","49","1,0,1","6","blank","268","null","0.600496155627238","0.16367561447975498","0.2881791545341267","1","","","","","","","","",""
"","html-keyboard-response","96","326178","0.0-57.0-1.0","""event"",""trial"",""time""
""fullscreenenter"",""0"",""3668""
","
","
","""event"",""trial"",""time""
""fullscreenenter"",""0"",""3668""
","
","null","<p></p>","null","","","","","","","","","","","","","","","","","","","","","","","",""
"","break","97","328117","0.0-58.0-0.0","""event"",""trial"",""time""
""fullscreenenter"",""0"",""3668""
","
","
","""event"",""trial"",""time""
""fullscreenenter"",""0"",""3668""
","
","1934.5999999996275","<div class='center'><p>Time to take a quick break! You have 2 minutes to rest, but you can move on sooner if you'd like.</p><p> Press the <b>space bar</b> to continue.</p></div>","32","","","","","","","","","","","","","","","","","","","","","","","",""
"","do_trial","98","331686","0.0-58.0-1.0","""event"",""trial"",""time""
""fullscreenenter"",""0"",""3668""
","
","
","""event"",""trial"",""time""
""fullscreenenter"",""0"",""3668""
","
","959.1999999992549","","","","","","","","49","0,0,0","6","blank","269","null","0.5261449748327452","0.16234466309743567","0.4154709796804012","0","","","","","","","","",""
"","html-keyboard-response","99","332694","0.0-58.0-2.0","""event"",""trial"",""time""
""fullscreenenter"",""0"",""3668""
","
","
","""event"",""trial"",""time""
""fullscreenenter"",""0"",""3668""
","
","null","<p></p>","null","","","","","","","","","","","","","","","","","","","","","","","",""
"","do_recog","100","335807","0.0-59.0-0.0","""event"",""trial"",""time""
""fullscreenenter"",""0"",""3668""
","
","
","""event"",""trial"",""time""
""fullscreenenter"",""0"",""3668""
","
","1588.5999999996275","","","","","","","","56","","","","270","probe-196","","","","","1","[object Object]","79","1","0","","","",""
"","html-keyboard-response","101","336810","0.0-59.0-1.0","""event"",""trial"",""time""
""fullscreenenter"",""0"",""3668""
","
","
","""event"",""trial"",""time""
""fullscreenenter"",""0"",""3668""
","
","null","<p></p>","null","","","","","","","","","","","","","","","","","","","","","","","",""
"","do_trial","102","339967","0.0-60.0-0.0","""event"",""trial"",""time""
""fullscreenenter"",""0"",""3668""
","
","
","""event"",""trial"",""time""
""fullscreenenter"",""0"",""3668""
","
","547.4000000003725","","","","","","","","49","0,0,0","6","blank","271","null","0.5389911962832795","0.3046642439861393","0.3333927863395914","0","","","","","","","","",""
"","html-keyboard-response","103","340973","0.0-60.0-1.0","""event"",""trial"",""time""
""fullscreenenter"",""0"",""3668""
","
","
","""event"",""trial"",""time""
""fullscreenenter"",""0"",""3668""
","
","null","<p></p>","null","","","","","","","","","","","","","","","","","","","","","","","",""
"","do_recog","104","343732","0.0-61.0-0.0","""event"",""trial"",""time""
""fullscreenenter"",""0"",""3668""
","
","
","""event"",""trial"",""time""
""fullscreenenter"",""0"",""3668""
","
","1234.7000000011176","","","","","","","","53","","","","272","probe-197","","","","","1","[object Object]","156","3","1","","","",""
"","html-keyboard-response","105","344738","0.0-61.0-1.0","""event"",""trial"",""time""
""fullscreenenter"",""0"",""3668""
","
","
","""event"",""trial"",""time""
""fullscreenenter"",""0"",""3668""
","
","null","<p></p>","null","","","","","","","","","","","","","","","","","","","","","","","",""
"","do_trial","106","347759","0.0-62.0-0.0","""event"",""trial"",""time""
""fullscreenenter"",""0"",""3668""
","
","
","""event"",""trial"",""time""
""fullscreenenter"",""0"",""3668""
","
","406.2999999988824","","","","","","","","49","0,0,1","6","blank","273","null","0.5234798517712045","0.11925931925451008","0.39240528330189284","0","","","","","","","","",""
"","html-keyboard-response","107","348767","0.0-62.0-1.0","""event"",""trial"",""time""
""fullscreenenter"",""0"",""3668""
","
","
","""event"",""trial"",""time""
""fullscreenenter"",""0"",""3668""
","
","null","<p></p>","null","","","","","","","","","","","","","","","","","","","","","","","",""
"","do_recog","108","351991","0.0-63.0-0.0","""event"",""trial"",""time""
""fullscreenenter"",""0"",""3668""
","
","
","""event"",""trial"",""time""
""fullscreenenter"",""0"",""3668""
","
","1700.9000000003725","","","","","","","","56","","","","274","probe-209","","","","","1","[object Object]","154","3","0","","","",""
"","html-keyboard-response","109","352998","0.0-63.0-1.0","""event"",""trial"",""time""
""fullscreenenter"",""0"",""3668""
","
","
","""event"",""trial"",""time""
""fullscreenenter"",""0"",""3668""
","
","null","<p></p>","null","","","","","","","","","","","","","","","","","","","","","","","",""
"","do_trial","110","356323","0.0-64.0-0.0","""event"",""trial"",""time""
""fullscreenenter"",""0"",""3668""
","
","
","""event"",""trial"",""time""
""fullscreenenter"",""0"",""3668""
","
","716.5","","","","","","","","49","1,1,0","6","blank","275","null","0.5215593083711514","0.16670613406080137","0.2582151019118011","1","","","","","","","","",""
"","html-keyboard-response","111","357331","0.0-64.0-1.0","""event"",""trial"",""time""
""fullscreenenter"",""0"",""3668""
","
","
","""event"",""trial"",""time""
""fullscreenenter"",""0"",""3668""
","
","null","<p></p>","null","","","","","","","","","","","","","","","","","","","","","","","",""
"","do_trial","112","360258","0.0-65.0-0.0","""event"",""trial"",""time""
""fullscreenenter"",""0"",""3668""
","
","
","""event"",""trial"",""time""
""fullscreenenter"",""0"",""3668""
","
","315.90000000037253","","","","","","","","49","1,0,0","6","blank","276","null","0.48424790545696994","0.16480128720798498","0.29844792719594404","1","","","","","","","","",""
"","html-keyboard-response","113","361261","0.0-65.0-1.0","""event"",""trial"",""time""
""fullscreenenter"",""0"",""3668""
","
","
","""event"",""trial"",""time""
""fullscreenenter"",""0"",""3668""
","
","null","<p></p>","null","","","","","","","","","","","","","","","","","","","","","","","",""
"","do_trial","114","364161","0.0-66.0-0.0","""event"",""trial"",""time""
""fullscreenenter"",""0"",""3668""
","
","
","""event"",""trial"",""time""
""fullscreenenter"",""0"",""3668""
","
","294","","","","","","","","49","1,0,0","6","blank","277","null","0.5933220342148339","0.17663743309076693","0.30064742024515534","1","","","","","","","","",""
"","html-keyboard-response","115","365167","0.0-66.0-1.0","""event"",""trial"",""time""
""fullscreenenter"",""0"",""3668""
","
","
","""event"",""trial"",""time""
""fullscreenenter"",""0"",""3668""
","
","null","<p></p>","null","","","","","","","","","","","","","","","","","","","","","","","",""
"","do_recog","116","368346","0.0-67.0-0.0","""event"",""trial"",""time""
""fullscreenenter"",""0"",""3668""
","
","
","""event"",""trial"",""time""
""fullscreenenter"",""0"",""3668""
","
","1664.0999999996275","","","","","","","","56","","","","278","probe-222","","","","","1","[object Object]","70","1","0","","","",""
"","html-keyboard-response","117","369350","0.0-67.0-1.0","""event"",""trial"",""time""
""fullscreenenter"",""0"",""3668""
","
","
","""event"",""trial"",""time""
""fullscreenenter"",""0"",""3668""
","
","null","<p></p>","null","","","","","","","","","","","","","","","","","","","","","","","",""
"","do_trial","118","372582","0.0-68.0-0.0","""event"",""trial"",""time""
""fullscreenenter"",""0"",""3668""
","
","
","""event"",""trial"",""time""
""fullscreenenter"",""0"",""3668""
","
","625.1999999992549","","","","","","","","49","1,0,0","6","blank","279","null","0.42347051903521477","0.1822174754127028","0.34896207064474716","1","","","","","","","","",""
"","html-keyboard-response","119","373588","0.0-68.0-1.0","""event"",""trial"",""time""
""fullscreenenter"",""0"",""3668""
","
","
","""event"",""trial"",""time""
""fullscreenenter"",""0"",""3668""
","
","null","<p></p>","null","","","","","","","","","","","","","","","","","","","","","","","",""
"","do_trial","120","376647","0.0-69.0-0.0","""event"",""trial"",""time""
""fullscreenenter"",""0"",""3668""
","
","
","""event"",""trial"",""time""
""fullscreenenter"",""0"",""3668""
","
","449.59999999962747","","","","","","","","49","0,0,0","6","blank","280","null","0.5613514642589743","0.13930345427457355","0.3647439968779691","0","","","","","","","","",""
"","html-keyboard-response","121","377650","0.0-69.0-1.0","""event"",""trial"",""time""
""fullscreenenter"",""0"",""3668""
","
","
","""event"",""trial"",""time""
""fullscreenenter"",""0"",""3668""
","
","null","<p></p>","null","","","","","","","","","","","","","","","","","","","","","","","",""
"","do_trial","122","380544","0.0-70.0-0.0","""event"",""trial"",""time""
""fullscreenenter"",""0"",""3668""
","
","
","""event"",""trial"",""time""
""fullscreenenter"",""0"",""3668""
","
","290.40000000037253","","","","","","","","49","0,0,0","6","blank","281","null","0.5465013709288732","0.09312909984603696","0.28795266898115657","0","","","","","","","","",""
"","html-keyboard-response","123","381549","0.0-70.0-1.0","""event"",""trial"",""time""
""fullscreenenter"",""0"",""3668""
","
","
","""event"",""trial"",""time""
""fullscreenenter"",""0"",""3668""
","
","null","<p></p>","null","","","","","","","","","","","","","","","","","","","","","","","",""
"","do_trial","124","384380","0.0-71.0-0.0","""event"",""trial"",""time""
""fullscreenenter"",""0"",""3668""
","
","
","""event"",""trial"",""time""
""fullscreenenter"",""0"",""3668""
","
","220.2999999988824","","","","","","","","49","0,0,1","6","blank","282","null","0.5748467685524296","0.14420219345526875","0.3574577705258586","0","","","","","","","","",""
"","html-keyboard-response","125","385387","0.0-71.0-1.0","""event"",""trial"",""time""
""fullscreenenter"",""0"",""3668""
","
","
","""event"",""trial"",""time""
""fullscreenenter"",""0"",""3668""
","
","null","<p></p>","null","","","","","","","","","","","","","","","","","","","","","","","",""
"","do_trial","126","388276","0.0-72.0-0.0","""event"",""trial"",""time""
""fullscreenenter"",""0"",""3668""
","
","
","""event"",""trial"",""time""
""fullscreenenter"",""0"",""3668""
","
","280.2999999988824","","","","","","","","49","1,1,1","6","blank","283","null","0.6000879030290022","0.11356919931643654","0.3409084624359663","1","","","","","","","","",""
"","html-keyboard-response","127","389284","0.0-72.0-1.0","""event"",""trial"",""time""
""fullscreenenter"",""0"",""3668""
","
","
","""event"",""trial"",""time""
""fullscreenenter"",""0"",""3668""
","
","null","<p></p>","null","","","","","","","","","","","","","","","","","","","","","","","",""
"","do_trial","128","392149","0.0-73.0-0.0","""event"",""trial"",""time""
""fullscreenenter"",""0"",""3668""
","
","
","""event"",""trial"",""time""
""fullscreenenter"",""0"",""3668""
","
","258.59999999962747","","","","","","","","49","0,0,0","6","blank","284","null","0.5544768810876026","0.1068258891958641","0.16162914027302036","0","","","","","","","","",""
"","html-keyboard-response","129","393156","0.0-73.0-1.0","""event"",""trial"",""time""
""fullscreenenter"",""0"",""3668""
","
","
","""event"",""trial"",""time""
""fullscreenenter"",""0"",""3668""
","
","null","<p></p>","null","","","","","","","","","","","","","","","","","","","","","","","",""
"","do_recog","130","396224","0.0-74.0-0.0","""event"",""trial"",""time""
""fullscreenenter"",""0"",""3668""
","
","
","""event"",""trial"",""time""
""fullscreenenter"",""0"",""3668""
","
","1545.800000000745","","","","","","","","53","","","","285","probe-157","","","","","1","[object Object]","158","3","1","","","",""
"","html-keyboard-response","131","397230","0.0-74.0-1.0","""event"",""trial"",""time""
""fullscreenenter"",""0"",""3668""
","
","
","""event"",""trial"",""time""
""fullscreenenter"",""0"",""3668""
","
","null","<p></p>","null","","","","","","","","","","","","","","","","","","","","","","","",""
"","do_trial","132","400282","0.0-75.0-0.0","""event"",""trial"",""time""
""fullscreenenter"",""0"",""3668""
","
","
","""event"",""trial"",""time""
""fullscreenenter"",""0"",""3668""
","
","445.40000000037253","","","","","","","","49","1,0,0","6","blank","286","null","0.5079003822757541","0.1347902534287573","0.2920822630888333","1","","","","","","","","",""
"","html-keyboard-response","133","401289","0.0-75.0-1.0","""event"",""trial"",""time""
""fullscreenenter"",""0"",""3668""
","
","
","""event"",""trial"",""time""
""fullscreenenter"",""0"",""3668""
","
","null","<p></p>","null","","","","","","","","","","","","","","","","","","","","","","","",""
"","do_recog","134","403741","0.0-76.0-0.0","""event"",""trial"",""time""
""fullscreenenter"",""0"",""3668""
","
","
","""event"",""trial"",""time""
""fullscreenenter"",""0"",""3668""
","
","929","","","","","","","","53","","","","287","probe-112","","","","","1","[object Object]","113","2","1","","","",""
"","html-keyboard-response","135","404744","0.0-76.0-1.0","""event"",""trial"",""time""
""fullscreenenter"",""0"",""3668""
","
","
","""event"",""trial"",""time""
""fullscreenenter"",""0"",""3668""
","
","null","<p></p>","null","","","","","","","","","","","","","","","","","","","","","","","",""
"","do_trial","136","407752","0.0-77.0-0.0","""event"",""trial"",""time""
""fullscreenenter"",""0"",""3668""
","
","
","""event"",""trial"",""time""
""fullscreenenter"",""0"",""3668""
","
","409.1000000014901","","","","","","","","49","1,0,0","6","blank","288","null","0.5221274256751814","0.07786099018480379","0.3974988323276549","1","","","","","","","","",""
"","html-keyboard-response","137","408756","0.0-77.0-1.0","""event"",""trial"",""time""
""fullscreenenter"",""0"",""3668""
","
","
","""event"",""trial"",""time""
""fullscreenenter"",""0"",""3668""
","
","null","<p></p>","null","","","","","","","","","","","","","","","","","","","","","","","",""
"","do_trial","138","411691","0.0-78.0-0.0","""event"",""trial"",""time""
""fullscreenenter"",""0"",""3668""
","
","
","""event"",""trial"",""time""
""fullscreenenter"",""0"",""3668""
","
","329","","","","","","","","49","0,0,1","6","blank","289","null","0.5414047330263284","0.21519546213790017","0.460431336953145","0","","","","","","","","",""
"","html-keyboard-response","139","412699","0.0-78.0-1.0","""event"",""trial"",""time""
""fullscreenenter"",""0"",""3668""
","
","
","""event"",""trial"",""time""
""fullscreenenter"",""0"",""3668""
","
","null","<p></p>","null","","","","","","","","","","","","","","","","","","","","","","","",""
"","do_trial","140","415578","0.0-79.0-0.0","""event"",""trial"",""time""
""fullscreenenter"",""0"",""3668""
","
","
","""event"",""trial"",""time""
""fullscreenenter"",""0"",""3668""
","
","270.19999999925494","","","","","","","","49","1,0,1","6","blank","290","null","0.41524009566289966","0.22534915421550225","0.2830029910303186","1","","","","","","","","",""
"","html-keyboard-response","141","416583","0.0-79.0-1.0","""event"",""trial"",""time""
""fullscreenenter"",""0"",""3668""
","
","
","""event"",""trial"",""time""
""fullscreenenter"",""0"",""3668""
","
","null","<p></p>","null","","","","","","","","","","","","","","","","","","","","","","","",""
"","do_recog","142","419055","0.0-80.0-0.0","""event"",""trial"",""time""
""fullscreenenter"",""0"",""3668""
","
","
","""event"",""trial"",""time""
""fullscreenenter"",""0"",""3668""
","
","949","","","","","","","","53","","","","291","probe-21","","","","","1","[object Object]","33","0","1","","","",""
"","html-keyboard-response","143","420060","0.0-80.0-1.0","""event"",""trial"",""time""
""fullscreenenter"",""0"",""3668""
","
","
","""event"",""trial"",""time""
""fullscreenenter"",""0"",""3668""
","
","null","<p></p>","null","","","","","","","","","","","","","","","","","","","","","","","",""
"","do_trial","144","422998","0.0-81.0-0.0","""event"",""trial"",""time""
""fullscreenenter"",""0"",""3668""
","
","
","""event"",""trial"",""time""
""fullscreenenter"",""0"",""3668""
","
","342.09999999962747","","","","","","","","49","0,0,0","6","blank","292","null","0.39768950064796105","0.08124773405491408","0.2647322708638574","0","","","","","","","","",""
"","html-keyboard-response","145","424006","0.0-81.0-1.0","""event"",""trial"",""time""
""fullscreenenter"",""0"",""3668""
","
","
","""event"",""trial"",""time""
""fullscreenenter"",""0"",""3668""
","
","null","<p></p>","null","","","","","","","","","","","","","","","","","","","","","","","",""
"","do_trial","146","426934","0.0-82.0-0.0","""event"",""trial"",""time""
""fullscreenenter"",""0"",""3668""
","
","
","""event"",""trial"",""time""
""fullscreenenter"",""0"",""3668""
","
","315.5","","","","","","","","49","0,1,0","6","blank","293","null","0.392770487986757","0.13122318910744948","0.37775707997412883","0","","","","","","","","",""
"","html-keyboard-response","147","427940","0.0-82.0-1.0","""event"",""trial"",""time""
""fullscreenenter"",""0"",""3668""
","
","
","""event"",""trial"",""time""
""fullscreenenter"",""0"",""3668""
","
","null","<p></p>","null","","","","","","","","","","","","","","","","","","","","","","","",""
"","do_trial","148","431009","0.0-83.0-0.0","""event"",""trial"",""time""
""fullscreenenter"",""0"",""3668""
","
","
","""event"",""trial"",""time""
""fullscreenenter"",""0"",""3668""
","
","466.30000000074506","","","","","","","","49","0,0,0","6","blank","294","null","0.32961254997491657","0.13807309197641163","0.45344921639200847","0","","","","","","","","",""
"","html-keyboard-response","149","432015","0.0-83.0-1.0","""event"",""trial"",""time""
""fullscreenenter"",""0"",""3668""
","
","
","""event"",""trial"",""time""
""fullscreenenter"",""0"",""3668""
","
","null","<p></p>","null","","","","","","","","","","","","","","","","","","","","","","","",""
"","do_recog","150","434964","0.0-84.0-0.0","""event"",""trial"",""time""
""fullscreenenter"",""0"",""3668""
","
","
","""event"",""trial"",""time""
""fullscreenenter"",""0"",""3668""
","
","1425.5","","","","","","","","53","","","","295","probe-108","","","","","1","[object Object]","78","1","1","","","",""
"","html-keyboard-response","151","435971","0.0-84.0-1.0","""event"",""trial"",""time""
""fullscreenenter"",""0"",""3668""
","
","
","""event"",""trial"",""time""
""fullscreenenter"",""0"",""3668""
","
","null","<p></p>","null","","","","","","","","","","","","","","","","","","","","","","","",""
"","do_trial","152","439040","0.0-85.0-0.0","""event"",""trial"",""time""
""fullscreenenter"",""0"",""3668""
","
","
","""event"",""trial"",""time""
""fullscreenenter"",""0"",""3668""
","
","456.6000000014901","","","","","","","","49","0,0,0","6","blank","296","null","0.36910644142885607","0.20494650138903947","0.375546053716206","0","","","","","","","","",""
"","html-keyboard-response","153","440049","0.0-85.0-1.0","""event"",""trial"",""time""
""fullscreenenter"",""0"",""3668""
","
","
","""event"",""trial"",""time""
""fullscreenenter"",""0"",""3668""
","
","null","<p></p>","null","","","","","","","","","","","","","","","","","","","","","","","",""
"","do_trial","154","442932","0.0-86.0-0.0","""event"",""trial"",""time""
""fullscreenenter"",""0"",""3668""
","
","
","""event"",""trial"",""time""
""fullscreenenter"",""0"",""3668""
","
","273.2000000011176","","","","","","","","49","0,0,0","6","blank","297","null","0.48601401793746873","0.17381691462138107","0.5002959339968943","0","","","","","","","","",""
"","html-keyboard-response","155","443939","0.0-86.0-1.0","""event"",""trial"",""time""
""fullscreenenter"",""0"",""3668""
","
","
","""event"",""trial"",""time""
""fullscreenenter"",""0"",""3668""
","
","null","<p></p>","null","","","","","","","","","","","","","","","","","","","","","","","",""
"","do_trial","156","446853","0.0-87.0-0.0","""event"",""trial"",""time""
""fullscreenenter"",""0"",""3668""
","
","
","""event"",""trial"",""time""
""fullscreenenter"",""0"",""3668""
","
","304.09999999962747","","","","","","","","49","1,0,1","6","blank","298","null","0.44855698948454054","0.24094768213348566","0.5708483913163684","1","","","","","","","","",""
"","html-keyboard-response","157","447859","0.0-87.0-1.0","""event"",""trial"",""time""
""fullscreenenter"",""0"",""3668""
","
","
","""event"",""trial"",""time""
""fullscreenenter"",""0"",""3668""
","
","null","<p></p>","null","","","","","","","","","","","","","","","","","","","","","","","",""
"","do_trial","158","450732","0.0-88.0-0.0","""event"",""trial"",""time""
""fullscreenenter"",""0"",""3668""
","
","
","""event"",""trial"",""time""
""fullscreenenter"",""0"",""3668""
","
","267.90000000037253","","","","","","","","49","0,0,1","6","blank","299","null","0.5085685698130918","0.10179161629865899","0.5973648789628621","0","","","","","","","","",""
"","html-keyboard-response","159","451738","0.0-88.0-1.0","""event"",""trial"",""time""
""fullscreenenter"",""0"",""3668""
","
","
","""event"",""trial"",""time""
""fullscreenenter"",""0"",""3668""
","
","null","<p></p>","null","","","","","","","","","","","","","","","","","","","","","","","",""
"","do_recog","160","454489","0.0-89.0-0.0","""event"",""trial"",""time""
""fullscreenenter"",""0"",""3668""
","
","
","""event"",""trial"",""time""
""fullscreenenter"",""0"",""3668""
","
","1232.6000000014901","","","","","","","","53","","","","300","probe-192","","","","","1","[object Object]","75","1","1","","","",""
"","html-keyboard-response","161","455497","0.0-89.0-1.0","""event"",""trial"",""time""
""fullscreenenter"",""0"",""3668""
","
","
","""event"",""trial"",""time""
""fullscreenenter"",""0"",""3668""
","
","null","<p></p>","null","","","","","","","","","","","","","","","","","","","","","","","",""
"","do_trial","162","458443","0.0-90.0-0.0","""event"",""trial"",""time""
""fullscreenenter"",""0"",""3668""
","
","
","""event"",""trial"",""time""
""fullscreenenter"",""0"",""3668""
","
","338.5","","","","","","","","49","1,1,1","6","blank","301","null","0.461609236729552","0.1622435946632845","0.570932794760003","1","","","","","","","","",""
"","html-keyboard-response","163","459446","0.0-90.0-1.0","""event"",""trial"",""time""
""fullscreenenter"",""0"",""3668""
","
","
","""event"",""trial"",""time""
""fullscreenenter"",""0"",""3668""
","
","null","<p></p>","null","","","","","","","","","","","","","","","","","","","","","","","",""
"","do_recog","164","461994","0.0-91.0-0.0","""event"",""trial"",""time""
""fullscreenenter"",""0"",""3668""
","
","
","""event"",""trial"",""time""
""fullscreenenter"",""0"",""3668""
","
","1026","","","","","","","","53","","","","302","probe-131","","","","","1","[object Object]","73","1","1","","","",""
"","html-keyboard-response","165","463000","0.0-91.0-1.0","""event"",""trial"",""time""
""fullscreenenter"",""0"",""3668""
","
","
","""event"",""trial"",""time""
""fullscreenenter"",""0"",""3668""
","
","null","<p></p>","null","","","","","","","","","","","","","","","","","","","","","","","",""
"","do_trial","166","466088","0.0-92.0-0.0","""event"",""trial"",""time""
""fullscreenenter"",""0"",""3668""
","
","
","""event"",""trial"",""time""
""fullscreenenter"",""0"",""3668""
","
","478.2999999988824","","","","","","","","49","1,0,1","6","blank","303","null","0.5096222298706458","0.05391798351352538","0.6567834454034599","1","","","","","","","","",""
"","html-keyboard-response","167","467115","0.0-92.0-1.0","""event"",""trial"",""time""
""fullscreenenter"",""0"",""3668""
","
","
","""event"",""trial"",""time""
""fullscreenenter"",""0"",""3668""
","
","null","<p></p>","null","","","","","","","","","","","","","","","","","","","","","","","",""
"","do_recog","168","469565","0.0-93.0-0.0","""event"",""trial"",""time""
""fullscreenenter"",""0"",""3668""
","
","
","""event"",""trial"",""time""
""fullscreenenter"",""0"",""3668""
","
","939.4000000003725","","","","","","","","53","","","","304","probe-142","","","","","1","[object Object]","119","2","1","","","",""
"","html-keyboard-response","169","470569","0.0-93.0-1.0","""event"",""trial"",""time""
""fullscreenenter"",""0"",""3668""
","
","
","""event"",""trial"",""time""
""fullscreenenter"",""0"",""3668""
","
","null","<p></p>","null","","","","","","","","","","","","","","","","","","","","","","","",""
"","do_trial","170","473739","0.0-94.0-0.0","""event"",""trial"",""time""
""fullscreenenter"",""0"",""3668""
","
","
","""event"",""trial"",""time""
""fullscreenenter"",""0"",""3668""
","
","559.7000000011176","","","","","","","","49","0,0,0","6","blank","305","null","0.42905913187371036","0.09104751011686578","0.7541372267041393","0","","","","","","","","",""
"","html-keyboard-response","171","474741","0.0-94.0-1.0","""event"",""trial"",""time""
""fullscreenenter"",""0"",""3668""
","
","
","""event"",""trial"",""time""
""fullscreenenter"",""0"",""3668""
","
","null","<p></p>","null","","","","","","","","","","","","","","","","","","","","","","","",""
"","do_trial","172","477700","0.0-95.0-0.0","""event"",""trial"",""time""
""fullscreenenter"",""0"",""3668""
","
","
","""event"",""trial"",""time""
""fullscreenenter"",""0"",""3668""
","
","359.7000000011176","","","","","","","","49","0,1,0","6","blank","306","null","0.35924508591405","0.2741792630411434","0.8682470843566634","0","","","","","","","","",""
"","html-keyboard-response","173","478705","0.0-95.0-1.0","""event"",""trial"",""time""
""fullscreenenter"",""0"",""3668""
","
","
","""event"",""trial"",""time""
""fullscreenenter"",""0"",""3668""
","
","null","<p></p>","null","","","","","","","","","","","","","","","","","","","","","","","",""
"","do_recog","174","481674","0.0-96.0-0.0","""event"",""trial"",""time""
""fullscreenenter"",""0"",""3668""
","
","
","""event"",""trial"",""time""
""fullscreenenter"",""0"",""3668""
","
","1448.699999999255","","","","","","","","56","","","","307","probe-205","","","","","1","[object Object]","77","1","0","","","",""
"","html-keyboard-response","175","482678","0.0-96.0-1.0","""event"",""trial"",""time""
""fullscreenenter"",""0"",""3668""
","
","
","""event"",""trial"",""time""
""fullscreenenter"",""0"",""3668""
","
","null","<p></p>","null","","","","","","","","","","","","","","","","","","","","","","","",""
"","do_trial","176","485820","0.0-97.0-0.0","""event"",""trial"",""time""
""fullscreenenter"",""0"",""3668""
","
","
","""event"",""trial"",""time""
""fullscreenenter"",""0"",""3668""
","
","541.4000000003725","","","","","","","","49","0,0,1","6","blank","308","null","0.34023308100133426","0.13076928808617713","0.69367687802756","0","","","","","","","","",""
"","html-keyboard-response","177","486826","0.0-97.0-1.0","""event"",""trial"",""time""
""fullscreenenter"",""0"",""3668""
","
","
","""event"",""trial"",""time""
""fullscreenenter"",""0"",""3668""
","
","null","<p></p>","null","","","","","","","","","","","","","","","","","","","","","","","",""
"","break","178","488098","0.0-98.0-0.0","""event"",""trial"",""time""
""fullscreenenter"",""0"",""3668""
","
","
","""event"",""trial"",""time""
""fullscreenenter"",""0"",""3668""
","
","1266.5","<div class='center'><p>Time to take a quick break! You have 2 minutes to rest, but you can move on sooner if you'd like.</p><p> Press the <b>space bar</b> to continue.</p></div>","32","","","","","","","","","","","","","","","","","","","","","","","",""
"","do_trial","179","491536","0.0-98.0-1.0","""event"",""trial"",""time""
""fullscreenenter"",""0"",""3668""
","
","
","""event"",""trial"",""time""
""fullscreenenter"",""0"",""3668""
","
","836.2999999988824","","","","","","","","49","1,1,1","6","blank","309","null","0.3036829202696967","0.1321628817019137","0.7760196522939253","1","","","","","","","","",""
"","html-keyboard-response","180","492541","0.0-98.0-2.0","""event"",""trial"",""time""
""fullscreenenter"",""0"",""3668""
","
","
","""event"",""trial"",""time""
""fullscreenenter"",""0"",""3668""
","
","null","<p></p>","null","","","","","","","","","","","","","","","","","","","","","","","",""
"","do_trial","181","495469","0.0-99.0-0.0","""event"",""trial"",""time""
""fullscreenenter"",""0"",""3668""
","
","
","""event"",""trial"",""time""
""fullscreenenter"",""0"",""3668""
","
","316","","","","","","","","49","1,0,0","6","blank","310","null","0.3500560382899468","0.09385496445773102","0.8030771685870859","1","","","","","","","","",""
"","html-keyboard-response","182","496474","0.0-99.0-1.0","""event"",""trial"",""time""
""fullscreenenter"",""0"",""3668""
","
","
","""event"",""trial"",""time""
""fullscreenenter"",""0"",""3668""
","
","null","<p></p>","null","","","","","","","","","","","","","","","","","","","","","","","",""
"","do_recog","183","498909","0.0-100.0-0.0","""event"",""trial"",""time""
""fullscreenenter"",""0"",""3668""
","
","
","""event"",""trial"",""time""
""fullscreenenter"",""0"",""3668""
","
","912.6999999992549","","","","","","","","53","","","","311","probe-92","","","","","1","[object Object]","112","2","1","","","",""
"","html-keyboard-response","184","499916","0.0-100.0-1.0","""event"",""trial"",""time""
""fullscreenenter"",""0"",""3668""
","
","
","""event"",""trial"",""time""
""fullscreenenter"",""0"",""3668""
","
","null","<p></p>","null","","","","","","","","","","","","","","","","","","","","","","","",""
"","do_trial","185","502843","0.0-101.0-0.0","""event"",""trial"",""time""
""fullscreenenter"",""0"",""3668""
","
","
","""event"",""trial"",""time""
""fullscreenenter"",""0"",""3668""
","
","315.69999999925494","","","","","","","","49","0,0,1","6","blank","312","null","0.07409074902019143","0.07790411805124872","0.7200707493164821","0","","","","","","","","",""
"","html-keyboard-response","186","503847","0.0-101.0-1.0","""event"",""trial"",""time""
""fullscreenenter"",""0"",""3668""
","
","
","""event"",""trial"",""time""
""fullscreenenter"",""0"",""3668""
","
","null","<p></p>","null","","","","","","","","","","","","","","","","","","","","","","","",""
"","do_recog","187","508364","0.0-102.0-0.0","""event"",""trial"",""time""
""fullscreenenter"",""0"",""3668""
","
","
","""event"",""trial"",""time""
""fullscreenenter"",""0"",""3668""
","
","2996","","","","","","","","53","","","","313","probe-103","","","","","1","[object Object]","151","3","1","","","",""
"","html-keyboard-response","188","509369","0.0-102.0-1.0","""event"",""trial"",""time""
""fullscreenenter"",""0"",""3668""
","
","
","""event"",""trial"",""time""
""fullscreenenter"",""0"",""3668""
","
","null","<p></p>","null","","","","","","","","","","","","","","","","","","","","","","","",""
"","do_trial","189","512333","0.0-103.0-0.0","""event"",""trial"",""time""
""fullscreenenter"",""0"",""3668""
","
","
","""event"",""trial"",""time""
""fullscreenenter"",""0"",""3668""
","
","352.5","","","","","","","","49","0,1,1","6","blank","314","null","0.16945611684133496","0.18140688658907705","0.7064362293193652","0","","","","","","","","",""
"","html-keyboard-response","190","513339","0.0-103.0-1.0","""event"",""trial"",""time""
""fullscreenenter"",""0"",""3668""
","
","
","""event"",""trial"",""time""
""fullscreenenter"",""0"",""3668""
","
","null","<p></p>","null","","","","","","","","","","","","","","","","","","","","","","","",""
"","do_recog","191","516176","0.0-104.0-0.0","""event"",""trial"",""time""
""fullscreenenter"",""0"",""3668""
","
","
","""event"",""trial"",""time""
""fullscreenenter"",""0"",""3668""
","
","1313.9000000003725","","","","","","","","53","","","","315","probe-54","","","","","1","[object Object]","32","0","1","","","",""
"","html-keyboard-response","192","517180","0.0-104.0-1.0","""event"",""trial"",""time""
""fullscreenenter"",""0"",""3668""
","
","
","""event"",""trial"",""time""
""fullscreenenter"",""0"",""3668""
","
","null","<p></p>","null","","","","","","","","","","","","","","","","","","","","","","","",""
"","do_trial","193","520161","0.0-105.0-0.0","""event"",""trial"",""time""
""fullscreenenter"",""0"",""3668""
","
","
","""event"",""trial"",""time""
""fullscreenenter"",""0"",""3668""
","
","387.30000000074506","","","","","","","","49","0,0,0","6","blank","316","null","0.21285623385548205","0.1803375914870098","0.5864827138631169","0","","","","","","","","",""
"","html-keyboard-response","194","521165","0.0-105.0-1.0","""event"",""trial"",""time""
""fullscreenenter"",""0"",""3668""
","
","
","""event"",""trial"",""time""
""fullscreenenter"",""0"",""3668""
","
","null","<p></p>","null","","","","","","","","","","","","","","","","","","","","","","","",""
"","do_recog","195","523902","0.0-106.0-0.0","""event"",""trial"",""time""
""fullscreenenter"",""0"",""3668""
","
","
","""event"",""trial"",""time""
""fullscreenenter"",""0"",""3668""
","
","1220.300000000745","","","","","","","","56","","","","317","probe-241","","","","","0","[object Object]","null","null","1","","","",""
"","html-keyboard-response","196","524907","0.0-106.0-1.0","""event"",""trial"",""time""
""fullscreenenter"",""0"",""3668""
","
","
","""event"",""trial"",""time""
""fullscreenenter"",""0"",""3668""
","
","null","<p></p>","null","","","","","","","","","","","","","","","","","","","","","","","",""
"","do_trial","197","527861","0.0-107.0-0.0","""event"",""trial"",""time""
""fullscreenenter"",""0"",""3668""
","
","
","""event"",""trial"",""time""
""fullscreenenter"",""0"",""3668""
","
","345.7999999988824","","","","","","","","49","0,0,1","6","blank","318","null","0.14713511468104432","0.19358963718375763","0.5388018503095496","0","","","","","","","","",""
"","html-keyboard-response","198","528864","0.0-107.0-1.0","""event"",""trial"",""time""
""fullscreenenter"",""0"",""3668""
","
","
","""event"",""trial"",""time""
""fullscreenenter"",""0"",""3668""
","
","null","<p></p>","null","","","","","","","","","","","","","","","","","","","","","","","",""
"","do_trial","199","531866","0.0-108.0-0.0","""event"",""trial"",""time""
""fullscreenenter"",""0"",""3668""
","
","
","""event"",""trial"",""time""
""fullscreenenter"",""0"",""3668""
","
","399.09999999962747","","","","","","","","49","0,1,1","6","blank","319","null","0.18202741807525663","0.2144019819744027","0.5142505805382669","0","","","","","","","","",""
"","html-keyboard-response","200","532873","0.0-108.0-1.0","""event"",""trial"",""time""
""fullscreenenter"",""0"",""3668""
","
","
","""event"",""trial"",""time""
""fullscreenenter"",""0"",""3668""
","
","null","<p></p>","null","","","","","","","","","","","","","","","","","","","","","","","",""
"","do_trial","201","536005","0.0-109.0-0.0","""event"",""trial"",""time""
""fullscreenenter"",""0"",""3668""
","
","
","""event"",""trial"",""time""
""fullscreenenter"",""0"",""3668""
","
","520.4000000003725","","","","","","","","49","1,0,1","6","blank","320","null","0.22784947389307605","0.10054363232548048","0.6239788226930024","1","","","","","","","","",""
"","html-keyboard-response","202","537009","0.0-109.0-1.0","""event"",""trial"",""time""
""fullscreenenter"",""0"",""3668""
","
","
","""event"",""trial"",""time""
""fullscreenenter"",""0"",""3668""
","
","null","<p></p>","null","","","","","","","","","","","","","","","","","","","","","","","",""
"","do_trial","203","539916","0.0-110.0-0.0","""event"",""trial"",""time""
""fullscreenenter"",""0"",""3668""
","
","
","""event"",""trial"",""time""
""fullscreenenter"",""0"",""3668""
","
","298.69999999925494","","","","","","","","49","0,1,1","6","blank","321","null","0.20414773119437032","0.1440853533030726","0.6427673890469414","0","","","","","","","","",""
"","html-keyboard-response","204","540921","0.0-110.0-1.0","""event"",""trial"",""time""
""fullscreenenter"",""0"",""3668""
","
","
","""event"",""trial"",""time""
""fullscreenenter"",""0"",""3668""
","
","null","<p></p>","null","","","","","","","","","","","","","","","","","","","","","","","",""
"","do_trial","205","543856","0.0-111.0-0.0","""event"",""trial"",""time""
""fullscreenenter"",""0"",""3668""
","
","
","""event"",""trial"",""time""
""fullscreenenter"",""0"",""3668""
","
","326.09999999962747","","","","","","","","49","0,1,1","6","blank","322","null","0.23937857601530124","0.12492173704389217","0.5483940487454718","0","","","","","","","","",""
"","html-keyboard-response","206","544859","0.0-111.0-1.0","""event"",""trial"",""time""
""fullscreenenter"",""0"",""3668""
","
","
","""event"",""trial"",""time""
""fullscreenenter"",""0"",""3668""
","
","null","<p></p>","null","","","","","","","","","","","","","","","","","","","","","","","",""
"","do_recog","207","548370","0.0-112.0-0.0","""event"",""trial"",""time""
""fullscreenenter"",""0"",""3668""
","
","
","""event"",""trial"",""time""
""fullscreenenter"",""0"",""3668""
","
","1988.2000000011176","","","","","","","","53","","","","323","probe-231","","","","","0","[object Object]","null","null","0","","","",""
"","html-keyboard-response","208","549373","0.0-112.0-1.0","""event"",""trial"",""time""
""fullscreenenter"",""0"",""3668""
","
","
","""event"",""trial"",""time""
""fullscreenenter"",""0"",""3668""
","
","null","<p></p>","null","","","","","","","","","","","","","","","","","","","","","","","",""
"","do_trial","209","552565","0.0-113.0-0.0","""event"",""trial"",""time""
""fullscreenenter"",""0"",""3668""
","
","
","""event"",""trial"",""time""
""fullscreenenter"",""0"",""3668""
","
","579.3000000007451","","","","","","","","49","0,0,0","6","blank","324","null","0.27736812656368315","0.18141267409134065","0.5560940552217472","0","","","","","","","","",""
"","html-keyboard-response","210","553570","0.0-113.0-1.0","""event"",""trial"",""time""
""fullscreenenter"",""0"",""3668""
","
","
","""event"",""trial"",""time""
""fullscreenenter"",""0"",""3668""
","
","null","<p></p>","null","","","","","","","","","","","","","","","","","","","","","","","",""
"","do_trial","211","556180","0.0-114.0-0.0","""event"",""trial"",""time""
""fullscreenenter"",""0"",""3668""
","
","
","""event"",""trial"",""time""
""fullscreenenter"",""0"",""3668""
","
","0.19999999925494194","","","","","","","","49","0,1,1","6","blank","325","null","0.27965551531849087","0.26112787802143794","0.5248068774456853","0","","","","","","","","",""
"","html-keyboard-response","212","557183","0.0-114.0-1.0","""event"",""trial"",""time""
""fullscreenenter"",""0"",""3668""
","
","
","""event"",""trial"",""time""
""fullscreenenter"",""0"",""3668""
","
","null","<p></p>","null","","","","","","","","","","","","","","","","","","","","","","","",""
"","do_trial","213","560013","0.0-115.0-0.0","""event"",""trial"",""time""
""fullscreenenter"",""0"",""3668""
","
","
","""event"",""trial"",""time""
""fullscreenenter"",""0"",""3668""
","
","238.30000000074506","","","","","","","","49","1,0,1","6","blank","326","null","0.2761813556666389","0.24595405181172075","0.564729151227678","1","","","","","","","","",""
"","html-keyboard-response","214","561017","0.0-115.0-1.0","""event"",""trial"",""time""
""fullscreenenter"",""0"",""3668""
","
","
","""event"",""trial"",""time""
""fullscreenenter"",""0"",""3668""
","
","null","<p></p>","null","","","","","","","","","","","","","","","","","","","","","","","",""
"","do_trial","215","564150","0.0-116.0-0.0","""event"",""trial"",""time""
""fullscreenenter"",""0"",""3668""
","
","
","""event"",""trial"",""time""
""fullscreenenter"",""0"",""3668""
","
","515.0999999996275","","","","","","","","49","0,0,1","6","blank","327","null","0.38973393463486733","0.20189330829622051","0.5191442435261261","0","","","","","","","","",""
"","html-keyboard-response","216","565154","0.0-116.0-1.0","""event"",""trial"",""time""
""fullscreenenter"",""0"",""3668""
","
","
","""event"",""trial"",""time""
""fullscreenenter"",""0"",""3668""
","
","null","<p></p>","null","","","","","","","","","","","","","","","","","","","","","","","",""
"","do_trial","217","568146","0.0-117.0-0.0","""event"",""trial"",""time""
""fullscreenenter"",""0"",""3668""
","
","
","""event"",""trial"",""time""
""fullscreenenter"",""0"",""3668""
","
","394.90000000037253","","","","","","","","49","0,1,1","6","blank","328","null","0.4120400097441845","0.24027453183312283","0.6037540296863272","0","","","","","","","","",""
"","html-keyboard-response","218","569151","0.0-117.0-1.0","""event"",""trial"",""time""
""fullscreenenter"",""0"",""3668""
","
","
","""event"",""trial"",""time""
""fullscreenenter"",""0"",""3668""
","
","null","<p></p>","null","","","","","","","","","","","","","","","","","","","","","","","",""
"","do_trial","219","572177","0.0-118.0-0.0","""event"",""trial"",""time""
""fullscreenenter"",""0"",""3668""
","
","
","""event"",""trial"",""time""
""fullscreenenter"",""0"",""3668""
","
","414.09999999962747","","","","","","","","49","0,1,1","6","blank","329","null","0.24852454412591232","0.4014610939064555","0.6570132249633241","0","","","","","","","","",""
"","html-keyboard-response","220","573181","0.0-118.0-1.0","""event"",""trial"",""time""
""fullscreenenter"",""0"",""3668""
","
","
","""event"",""trial"",""time""
""fullscreenenter"",""0"",""3668""
","
","null","<p></p>","null","","","","","","","","","","","","","","","","","","","","","","","",""
"","do_recog","221","575963","0.0-119.0-0.0","""event"",""trial"",""time""
""fullscreenenter"",""0"",""3668""
","
","
","""event"",""trial"",""time""
""fullscreenenter"",""0"",""3668""
","
","1265","","","","","","","","56","","","","330","probe-243","","","","","0","[object Object]","null","null","1","","","",""
"","html-keyboard-response","222","576966","0.0-119.0-1.0","""event"",""trial"",""time""
""fullscreenenter"",""0"",""3668""
","
","
","""event"",""trial"",""time""
""fullscreenenter"",""0"",""3668""
","
","null","<p></p>","null","","","","","","","","","","","","","","","","","","","","","","","",""
"","do_trial","223","580022","0.0-120.0-0.0","""event"",""trial"",""time""
""fullscreenenter"",""0"",""3668""
","
","
","""event"",""trial"",""time""
""fullscreenenter"",""0"",""3668""
","
","449.40000000037253","","","","","","","","49","0,0,0","6","blank","331","null","0.35479707182027154","0.4551833633619873","0.6430835215528427","0","","","","","","","","",""
"","html-keyboard-response","224","581027","0.0-120.0-1.0","""event"",""trial"",""time""
""fullscreenenter"",""0"",""3668""
","
","
","""event"",""trial"",""time""
""fullscreenenter"",""0"",""3668""
","
","null","<p></p>","null","","","","","","","","","","","","","","","","","","","","","","","",""
"","do_trial","225","583944","0.0-121.0-0.0","""event"",""trial"",""time""
""fullscreenenter"",""0"",""3668""
","
","
","""event"",""trial"",""time""
""fullscreenenter"",""0"",""3668""
","
","304","","","","","","","","50","0,0,1","6","blank","332","null","0.501958079172393","0.1976217343017354","0.7046320218666638","0","","","","","","","","",""
"","html-keyboard-response","226","584949","0.0-121.0-1.0","""event"",""trial"",""time""
""fullscreenenter"",""0"",""3668""
","
","
","""event"",""trial"",""time""
""fullscreenenter"",""0"",""3668""
","
","null","<p></p>","null","","","","","","","","","","","","","","","","","","","","","","","",""
"","do_trial","227","588024","0.0-122.0-0.0","""event"",""trial"",""time""
""fullscreenenter"",""0"",""3668""
","
","
","""event"",""trial"",""time""
""fullscreenenter"",""0"",""3668""
","
","468","","","","","","","","51","1,0,1","6","blank","333","null","0.5287847462286662","0.15798227313510999","0.7845451087783286","1","","","","","","","","",""
"","html-keyboard-response","228","589030","0.0-122.0-1.0","""event"",""trial"",""time""
""fullscreenenter"",""0"",""3668""
","
","
","""event"",""trial"",""time""
""fullscreenenter"",""0"",""3668""
","
","null","<p></p>","null","","","","","","","","","","","","","","","","","","","","","","","",""
"","do_recog","229","592119","0.0-123.0-0.0","""event"",""trial"",""time""
""fullscreenenter"",""0"",""3668""
","
","
","""event"",""trial"",""time""
""fullscreenenter"",""0"",""3668""
","
","1566.300000000745","","","","","","","","56","","","","334","probe-219","","","","","1","[object Object]","155","3","0","","","",""
"","html-keyboard-response","230","593122","0.0-123.0-1.0","""event"",""trial"",""time""
""fullscreenenter"",""0"",""3668""
","
","
","""event"",""trial"",""time""
""fullscreenenter"",""0"",""3668""
","
","null","<p></p>","null","","","","","","","","","","","","","","","","","","","","","","","",""
"","do_trial","231","596266","0.0-124.0-0.0","""event"",""trial"",""time""
""fullscreenenter"",""0"",""3668""
","
","
","""event"",""trial"",""time""
""fullscreenenter"",""0"",""3668""
","
","532.4000000003725","","","","","","","","51","1,0,1","6","blank","335","null","0.36362615945355137","0.12357753524496698","0.783789662866973","1","","","","","","","","",""
"","html-keyboard-response","232","597271","0.0-124.0-1.0","""event"",""trial"",""time""
""fullscreenenter"",""0"",""3668""
","
","
","""event"",""trial"",""time""
""fullscreenenter"",""0"",""3668""
","
","null","<p></p>","null","","","","","","","","","","","","","","","","","","","","","","","",""
"","do_recog","233","601772","0.0-125.0-0.0","""event"",""trial"",""time""
""fullscreenenter"",""0"",""3668""
","
","
","""event"",""trial"",""time""
""fullscreenenter"",""0"",""3668""
","
","2985.7000000011176","","","","","","","","56","","","","336","probe-52","","","","","1","[object Object]","195","4","0","","","",""
"","html-keyboard-response","234","602778","0.0-125.0-1.0","""event"",""trial"",""time""
""fullscreenenter"",""0"",""3668""
","
","
","""event"",""trial"",""time""
""fullscreenenter"",""0"",""3668""
","
","null","<p></p>","null","","","","","","","","","","","","","","","","","","","","","","","",""
"","do_trial","235","606252","0.0-126.0-0.0","""event"",""trial"",""time""
""fullscreenenter"",""0"",""3668""
","
","
","""event"",""trial"",""time""
""fullscreenenter"",""0"",""3668""
","
","864.7999999988824","","","","","","","","51","1,0,0","6","blank","337","null","0.246336869271885","0.11788688632961504","0.6008315487983409","0","","","","","","","","",""
"","html-keyboard-response","236","607257","0.0-126.0-1.0","""event"",""trial"",""time""
""fullscreenenter"",""0"",""3668""
","
","
","""event"",""trial"",""time""
""fullscreenenter"",""0"",""3668""
","
","null","<p></p>","null","","","","","","","","","","","","","","","","","","","","","","","",""
"","do_trial","237","610200","0.0-127.0-0.0","""event"",""trial"",""time""
""fullscreenenter"",""0"",""3668""
","
","
","""event"",""trial"",""time""
""fullscreenenter"",""0"",""3668""
","
","338.90000000037253","","","","","","","","51","0,0,0","6","blank","338","null","0.3333082001652356","0.20974801001870036","0.6233097322513479","0","","","","","","","","",""
"","html-keyboard-response","238","611209","0.0-127.0-1.0","""event"",""trial"",""time""
""fullscreenenter"",""0"",""3668""
","
","
","""event"",""trial"",""time""
""fullscreenenter"",""0"",""3668""
","
","null","<p></p>","null","","","","","","","","","","","","","","","","","","","","","","","",""
"","do_recog","239","614076","0.0-128.0-0.0","""event"",""trial"",""time""
""fullscreenenter"",""0"",""3668""
","
","
","""event"",""trial"",""time""
""fullscreenenter"",""0"",""3668""
","
","1351.199999999255","","","","","","","","53","","","","339","probe-72","","","","","1","[object Object]","35","0","1","","","",""
"","html-keyboard-response","240","615078","0.0-128.0-1.0","""event"",""trial"",""time""
""fullscreenenter"",""0"",""3668""
","
","
","""event"",""trial"",""time""
""fullscreenenter"",""0"",""3668""
","
","null","<p></p>","null","","","","","","","","","","","","","","","","","","","","","","","",""
"","do_trial","241","618072","0.0-129.0-0.0","""event"",""trial"",""time""
""fullscreenenter"",""0"",""3668""
","
","
","""event"",""trial"",""time""
""fullscreenenter"",""0"",""3668""
","
","400.09999999962747","","","","","","","","49","0,0,1","6","blank","340","null","0.3152313957605219","0.13403545047349966","0.6457279402853502","0","","","","","","","","",""
"","html-keyboard-response","242","619076","0.0-129.0-1.0","""event"",""trial"",""time""
""fullscreenenter"",""0"",""3668""
","
","
","""event"",""trial"",""time""
""fullscreenenter"",""0"",""3668""
","
","null","<p></p>","null","","","","","","","","","","","","","","","","","","","","","","","",""
"","do_recog","243","621805","0.0-130.0-0.0","""event"",""trial"",""time""
""fullscreenenter"",""0"",""3668""
","
","
","""event"",""trial"",""time""
""fullscreenenter"",""0"",""3668""
","
","1204.4000000003725","","","","","","","","53","","","","341","probe-224","","","","","1","[object Object]","197","4","1","","","",""
"","html-keyboard-response","244","622815","0.0-130.0-1.0","""event"",""trial"",""time""
""fullscreenenter"",""0"",""3668""
","
","
","""event"",""trial"",""time""
""fullscreenenter"",""0"",""3668""
","
","null","<p></p>","null","","","","","","","","","","","","","","","","","","","","","","","",""
"","do_trial","245","625862","0.0-131.0-0.0","""event"",""trial"",""time""
""fullscreenenter"",""0"",""3668""
","
","
","""event"",""trial"",""time""
""fullscreenenter"",""0"",""3668""
","
","438.7000000011176","","","","","","","","49","0,0,1","6","blank","342","null","0.22848808981052188","0.19445374196198525","0.6234418386822898","0","","","","","","","","",""
"","html-keyboard-response","246","626866","0.0-131.0-1.0","""event"",""trial"",""time""
""fullscreenenter"",""0"",""3668""
","
","
","""event"",""trial"",""time""
""fullscreenenter"",""0"",""3668""
","
","null","<p></p>","null","","","","","","","","","","","","","","","","","","","","","","","",""
"","do_recog","247","630226","0.0-132.0-0.0","""event"",""trial"",""time""
""fullscreenenter"",""0"",""3668""
","
","
","""event"",""trial"",""time""
""fullscreenenter"",""0"",""3668""
","
","1837.300000000745","","","","","","","","53","","","","343","probe-129","","","","","1","[object Object]","30","0","1","","","",""
"","html-keyboard-response","248","631230","0.0-132.0-1.0","""event"",""trial"",""time""
""fullscreenenter"",""0"",""3668""
","
","
","""event"",""trial"",""time""
""fullscreenenter"",""0"",""3668""
","
","null","<p></p>","null","","","","","","","","","","","","","","","","","","","","","","","",""
"","do_trial","249","634302","0.0-133.0-0.0","""event"",""trial"",""time""
""fullscreenenter"",""0"",""3668""
","
","
","""event"",""trial"",""time""
""fullscreenenter"",""0"",""3668""
","
","461.19999999925494","","","","","","","","49","1,0,1","6","blank","344","null","0.3085407880378169","0.0677678593388407","0.519968007310319","1","","","","","","","","",""
"","html-keyboard-response","250","635306","0.0-133.0-1.0","""event"",""trial"",""time""
""fullscreenenter"",""0"",""3668""
","
","
","""event"",""trial"",""time""
""fullscreenenter"",""0"",""3668""
","
","null","<p></p>","null","","","","","","","","","","","","","","","","","","","","","","","",""
"","do_trial","251","638314","0.0-134.0-0.0","""event"",""trial"",""time""
""fullscreenenter"",""0"",""3668""
","
","
","""event"",""trial"",""time""
""fullscreenenter"",""0"",""3668""
","
","404.7000000011176","","","","","","","","49","0,0,1","6","blank","345","null","0.25396288856171967","0.12363951693406822","0.5597525958439794","0","","","","","","","","",""
"","html-keyboard-response","252","639318","0.0-134.0-1.0","""event"",""trial"",""time""
""fullscreenenter"",""0"",""3668""
","
","
","""event"",""trial"",""time""
""fullscreenenter"",""0"",""3668""
","
","null","<p></p>","null","","","","","","","","","","","","","","","","","","","","","","","",""
"","do_trial","253","642290","0.0-135.0-0.0","""event"",""trial"",""time""
""fullscreenenter"",""0"",""3668""
","
","
","""event"",""trial"",""time""
""fullscreenenter"",""0"",""3668""
","
","355.2000000011176","","","","","","","","49","0,0,0","6","blank","346","null","0.18343388401465618","0.07952937905277335","0.6491221524523979","0","","","","","","","","",""
"","html-keyboard-response","254","643298","0.0-135.0-1.0","""event"",""trial"",""time""
""fullscreenenter"",""0"",""3668""
","
","
","""event"",""trial"",""time""
""fullscreenenter"",""0"",""3668""
","
","null","<p></p>","null","","","","","","","","","","","","","","","","","","","","","","","",""
"","do_recog","255","646137","0.0-136.0-0.0","""event"",""trial"",""time""
""fullscreenenter"",""0"",""3668""
","
","
","""event"",""trial"",""time""
""fullscreenenter"",""0"",""3668""
","
","1315.9000000003725","","","","","","","","56","","","","347","probe-251","","","","","0","[object Object]","null","null","1","","","",""
"","html-keyboard-response","256","647142","0.0-136.0-1.0","""event"",""trial"",""time""
""fullscreenenter"",""0"",""3668""
","
","
","""event"",""trial"",""time""
""fullscreenenter"",""0"",""3668""
","
","null","<p></p>","null","","","","","","","","","","","","","","","","","","","","","","","",""
"","do_trial","257","650225","0.0-137.0-0.0","""event"",""trial"",""time""
""fullscreenenter"",""0"",""3668""
","
","
","""event"",""trial"",""time""
""fullscreenenter"",""0"",""3668""
","
","472.7999999988824","","","","","","","","49","0,0,1","6","blank","348","null","0.2019654570013645","0.09306055140219771","0.7253327195212637","0","","","","","","","","",""
"","html-keyboard-response","258","651229","0.0-137.0-1.0","""event"",""trial"",""time""
""fullscreenenter"",""0"",""3668""
","
","
","""event"",""trial"",""time""
""fullscreenenter"",""0"",""3668""
","
","null","<p></p>","null","","","","","","","","","","","","","","","","","","","","","","","",""
"","break","259","652631","0.0-138.0-0.0","""event"",""trial"",""time""
""fullscreenenter"",""0"",""3668""
","
","
","""event"",""trial"",""time""
""fullscreenenter"",""0"",""3668""
","
","1399.9000000003725","<div class='center'><p>Time to take a quick break! You have 2 minutes to rest, but you can move on sooner if you'd like.</p><p> Press the <b>space bar</b> to continue.</p></div>","32","","","","","","","","","","","","","","","","","","","","","","","",""
"","do_trial","260","656227","0.0-138.0-1.0","""event"",""trial"",""time""
""fullscreenenter"",""0"",""3668""
","
","
","""event"",""trial"",""time""
""fullscreenenter"",""0"",""3668""
","
","998.4000000003725","","","","","","","","49","0,0,0","6","blank","349","null","0.22728822226577308","0.12505486417105363","0.7165780793868086","0","","","","","","","","",""
"","html-keyboard-response","261","657231","0.0-138.0-2.0","""event"",""trial"",""time""
""fullscreenenter"",""0"",""3668""
","
","
","""event"",""trial"",""time""
""fullscreenenter"",""0"",""3668""
","
","null","<p></p>","null","","","","","","","","","","","","","","","","","","","","","","","",""
"","do_trial","262","660110","0.0-139.0-0.0","""event"",""trial"",""time""
""fullscreenenter"",""0"",""3668""
","
","
","""event"",""trial"",""time""
""fullscreenenter"",""0"",""3668""
","
","268.09999999962747","","","","","","","","49","0,1,1","6","blank","350","null","0.05578460732078575","0.10256045998005711","0.5545718268132723","0","","","","","","","","",""
"","html-keyboard-response","263","661112","0.0-139.0-1.0","""event"",""trial"",""time""
""fullscreenenter"",""0"",""3668""
","
","
","""event"",""trial"",""time""
""fullscreenenter"",""0"",""3668""
","
","null","<p></p>","null","","","","","","","","","","","","","","","","","","","","","","","",""
"","do_trial","264","663895","0.0-140.0-0.0","""event"",""trial"",""time""
""fullscreenenter"",""0"",""3668""
","
","
","""event"",""trial"",""time""
""fullscreenenter"",""0"",""3668""
","
","184.7000000011176","","","","","","","","49","0,0,1","6","blank","351","null","0.09809147372415183","0.06579869778681567","0.4574980669335463","0","","","","","","","","",""
"","html-keyboard-response","265","664901","0.0-140.0-1.0","""event"",""trial"",""time""
""fullscreenenter"",""0"",""3668""
","
","
","""event"",""trial"",""time""
""fullscreenenter"",""0"",""3668""
","
","null","<p></p>","null","","","","","","","","","","","","","","","","","","","","","","","",""
"","do_recog","266","667346","0.0-141.0-0.0","""event"",""trial"",""time""
""fullscreenenter"",""0"",""3668""
","
","
","""event"",""trial"",""time""
""fullscreenenter"",""0"",""3668""
","
","915","","","","","","","","53","","","","352","probe-78","","","","","1","[object Object]","159","3","1","","","",""
"","html-keyboard-response","267","668352","0.0-141.0-1.0","""event"",""trial"",""time""
""fullscreenenter"",""0"",""3668""
","
","
","""event"",""trial"",""time""
""fullscreenenter"",""0"",""3668""
","
","null","<p></p>","null","","","","","","","","","","","","","","","","","","","","","","","",""
"","do_trial","268","671346","0.0-142.0-0.0","""event"",""trial"",""time""
""fullscreenenter"",""0"",""3668""
","
","
","""event"",""trial"",""time""
""fullscreenenter"",""0"",""3668""
","
","397.7000000011176","","","","","","","","49","0,0,1","6","blank","353","null","0.09939909330911291","0.10594869658508564","0.2940382236960085","0","","","","","","","","",""
"","html-keyboard-response","269","672353","0.0-142.0-1.0","""event"",""trial"",""time""
""fullscreenenter"",""0"",""3668""
","
","
","""event"",""trial"",""time""
""fullscreenenter"",""0"",""3668""
","
","null","<p></p>","null","","","","","","","","","","","","","","","","","","","","","","","",""
"","do_trial","270","675294","0.0-143.0-0.0","""event"",""trial"",""time""
""fullscreenenter"",""0"",""3668""
","
","
","""event"",""trial"",""time""
""fullscreenenter"",""0"",""3668""
","
","329.59999999962747","","","","","","","","49","1,0,0","6","blank","354","null","0.2751766043974351","0.07441691364789005","0.2838373197013678","1","","","","","","","","",""
"","html-keyboard-response","271","676299","0.0-143.0-1.0","""event"",""trial"",""time""
""fullscreenenter"",""0"",""3668""
","
","
","""event"",""trial"",""time""
""fullscreenenter"",""0"",""3668""
","
","null","<p></p>","null","","","","","","","","","","","","","","","","","","","","","","","",""
"","do_trial","272","679223","0.0-144.0-0.0","""event"",""trial"",""time""
""fullscreenenter"",""0"",""3668""
","
","
","""event"",""trial"",""time""
""fullscreenenter"",""0"",""3668""
","
","311.90000000037253","","","","","","","","49","1,0,0","6","blank","355","null","0.5135027032159348","0.19596292007439486","0.23785854790074112","1","","","","","","","","",""
"","html-keyboard-response","273","680229","0.0-144.0-1.0","""event"",""trial"",""time""
""fullscreenenter"",""0"",""3668""
","
","
","""event"",""trial"",""time""
""fullscreenenter"",""0"",""3668""
","
","null","<p></p>","null","","","","","","","","","","","","","","","","","","","","","","","",""
"","do_trial","274","683149","0.0-145.0-0.0","""event"",""trial"",""time""
""fullscreenenter"",""0"",""3668""
","
","
","""event"",""trial"",""time""
""fullscreenenter"",""0"",""3668""
","
","305.59999999962747","","","","","","","","49","1,0,0","6","blank","356","null","0.5316572068387961","0.3077162845448637","0.29738473500574314","1","","","","","","","","",""
"","html-keyboard-response","275","684154","0.0-145.0-1.0","""event"",""trial"",""time""
""fullscreenenter"",""0"",""3668""
","
","
","""event"",""trial"",""time""
""fullscreenenter"",""0"",""3668""
","
","null","<p></p>","null","","","","","","","","","","","","","","","","","","","","","","","",""
"","do_trial","276","687312","0.0-146.0-0.0","""event"",""trial"",""time""
""fullscreenenter"",""0"",""3668""
","
","
","""event"",""trial"",""time""
""fullscreenenter"",""0"",""3668""
","
","548.3000000007451","","","","","","","","49","1,1,0","6","blank","357","null","0.5243123765199327","0.2775727479312629","0.18157497259942354","1","","","","","","","","",""
"","html-keyboard-response","277","688317","0.0-146.0-1.0","""event"",""trial"",""time""
""fullscreenenter"",""0"",""3668""
","
","
","""event"",""trial"",""time""
""fullscreenenter"",""0"",""3668""
","
