success,trial_type,trial_index,time_elapsed,internal_node_id,interactions,blur_events,focus_events,fullscreenenter_events,fullscreenexit_events,rt,stimulus,key_press,subject_id,participant_id,age,gender,prompt,response,choice_outcomes,context_n,context_img_id,trial_n,probe_img_id,pR_red,pR_white,pR_black,outcome,is_valid,image_to_show,probed_trial,probed_context,correct,probe,probed_trial_n,probed_context_n,context_im
TRUE,fullscreen,0,10330,0.0-0.0,"""event"",""trial"",""time""
""fullscreenenter"",""0"",""9376""
","
","
","""event"",""trial"",""time""
""fullscreenenter"",""0"",""9376""
","
",,,,,,,,,,,,,,,,,,,,,,,,,,,
,pavlovia,1,10335,0.0-1.0,"""event"",""trial"",""time""
""fullscreenenter"",""0"",""9376""
","
","
","""event"",""trial"",""time""
""fullscreenenter"",""0"",""9376""
","
",,,,,,,,,,,,,,,,,,,,,,,,,,,
,welc_back,2,20260,0.0-2.0,"""event"",""trial"",""time""
""fullscreenenter"",""0"",""9376""
","
","
","""event"",""trial"",""time""
""fullscreenenter"",""0"",""9376""
","
",null,run_exp/static/audio/clip_29_welcome_back.m4a,null,994,1245,25,Male,"<div class='center'><p>Welcome to day 2!</p><p> Yesterday, you were the head captain of a pirate ship. You asked your fellow pirates to rob other ships of their gold across six different islands.</p></div>",,,,,,,,,,,,,,,,,,,
,html-keyboard-response,3,23091,0.0-3.0,"""event"",""trial"",""time""
""fullscreenenter"",""0"",""9376""
","
","
","""event"",""trial"",""time""
""fullscreenenter"",""0"",""9376""
","
",2830.1,"<div class='center'><p>Welcome to day 2!</p><p> Yesterday, you were the head captain of a pirate ship. You asked your fellow pirates to rob other ships of their gold across six different islands.</p><p><b>[Press the space bar to continue]</b></p></div>",32,,,,,,,,,,,,,,,,,,,,,,,,
,day_1_summary_goal,4,40298,0.0-4.0,"""event"",""trial"",""time""
""fullscreenenter"",""0"",""9376""
","
","
","""event"",""trial"",""time""
""fullscreenenter"",""0"",""9376""
","
",null,run_exp/static/audio/clip_30_goal_of_game.m4a,null,,,,,"<div class='center'><p>Today, like yesterday, you get to pick which pirate you want to rob the next ship.</p><p>If the pirate is successful in robbing a ship, you get gold coins that look like this: </p><p><img src='run_exp/static/images/tutorial/reward.png' height='150'></p><p> If they were not successful in robbing the ship, then you will get no gold coins and you'll see a big red x like this: </p><p><img src='run_exp/static/images/tutorial/reward_no.png' height='150'></p></div>",,,,,,,,,,,,,,,,,,,
,html-keyboard-response,5,45959,0.0-5.0,"""event"",""trial"",""time""
""fullscreenenter"",""0"",""9376""
","
","
","""event"",""trial"",""time""
""fullscreenenter"",""0"",""9376""
","
",5659.5,"<div class='center'><p>Today, like yesterday, you get to pick which pirate you want to rob the next ship.</p><p>If the pirate is successful in robbing a ship, you get gold coins that look like this: </p><p><img src='run_exp/static/images/tutorial/reward.png' height='150'></p><p> If they were not successful in robbing the ship, then you will get no gold coins and you'll see a big red x like this: </p><p><img src='run_exp/static/images/tutorial/reward_no.png' height='150'></p><p><b>[Press the space bar to continue]</b></p></div>",32,,,,,,,,,,,,,,,,,,,,,,,,
,day_1_summary_pick,6,60661,0.0-6.0,"""event"",""trial"",""time""
""fullscreenenter"",""0"",""9376""
","
","
","""event"",""trial"",""time""
""fullscreenenter"",""0"",""9376""
","
",null,run_exp/static/audio/clip_31_how_to_pick_a_pirate.m4a,null,,,,,"<div class='center'><p>Also, just like yesterday, you will use the 1,2,3 keys on your keyboard to pick a pirate. Press '1' to choose red beard, '2' to choose white beard, and '3' to choose black beard . You only have 3 seconds to pick a pirate, so please make a choice quickly!</p></div>",,,,,,,,,,,,,,,,,,,
,html-keyboard-response,7,65315,0.0-7.0,"""event"",""trial"",""time""
""fullscreenenter"",""0"",""9376""
","
","
","""event"",""trial"",""time""
""fullscreenenter"",""0"",""9376""
","
",4653.2,"<div class='center'><p>Also, just like yesterday, you will use the 1,2,3 keys on your keyboard to pick a pirate. Press '1' to choose red beard, '2' to choose white beard, and '3' to choose black beard . You only have 3 seconds to pick a pirate, so please make a choice quickly!</p><p><b>[Press the space bar to continue]</b></p></div>",32,,,,,,,,,,,,,,,,,,,,,,,,
,test_phase_begin,8,95699,0.0-8.0,"""event"",""trial"",""time""
""fullscreenenter"",""0"",""9376""
","
","
","""event"",""trial"",""time""
""fullscreenenter"",""0"",""9376""
","
",null,run_exp/static/audio/clip_32_final_place.m4a,null,,,,,"<div class='center'><p>You’ve arrived at the final island of your journey! Unfortunately, it’s very foggy out, so you won’t be able to see it in the distance like the other islands you've visited.</p><p>You’ll still be deciding which pirate you want to rob a ship like before. However, because of the fog, you also won’t be able to see the ship.</p><p>This means you do not have to remember the ships you rob on this island.</p><p>Unlike yesterday, you won't be visiting multiple islands today. You will stay on this island for the entire game. This game will last ~30 minutes.</p></div>",,,,,,,,,,,,,,,,,,,
,html-keyboard-response,9,103582,0.0-9.0,"""event"",""trial"",""time""
""fullscreenenter"",""0"",""9376""
","
","
","""event"",""trial"",""time""
""fullscreenenter"",""0"",""9376""
","
",7882.8,"<div class='center'><p>You’ve arrived at the final island of your journey! Unfortunately, it’s very foggy out, so you won’t be able to see it in the distance like the other islands you've visited.</p><p>You’ll still be deciding which pirate you want to rob a ship like before. However, because of the fog, you also won’t be able to see the ship.</p><p>This means you do not have to remember the ships you rob on this island.</p><p>Unlike yesterday, you won't be visiting multiple islands today. You will stay on this island for the entire game. This game will last ~30 minutes.</p><p><b>[Press the space bar to continue]</b></p></div>",32,,,,,,,,,,,,,,,,,,,,,,,,
,explain_probe_1,10,111279,0.0-10.0,"""event"",""trial"",""time""
""fullscreenenter"",""0"",""9376""
","
","
","""event"",""trial"",""time""
""fullscreenenter"",""0"",""9376""
","
",null,run_exp/static/audio/clip_33_recognition_1.m4a,null,,,,,"<div class='center'><p> Sometimes you’ll be shown a ship, and you will be asked if you saw this ship on a past island.</p><p> Here is an example of what you will see.</p><p><img src='run_exp/static/images/tutorial/example_recog_trial.png' height='500'></p></div>",,,,,,,,,,,,,,,,,,,
,html-keyboard-response,11,113752,0.0-11.0,"""event"",""trial"",""time""
""fullscreenenter"",""0"",""9376""
","
","
","""event"",""trial"",""time""
""fullscreenenter"",""0"",""9376""
","
",2471.8,"<div class='center'><p> Sometimes you’ll be shown a ship, and you will be asked if you saw this ship on a past island.</p><p> Here is an example of what you will see.</p><p><img src='run_exp/static/images/tutorial/example_recog_trial.png' height='500'></p><p><b>[Press the space bar to continue]</b></p></div>",32,,,,,,,,,,,,,,,,,,,,,,,,
,explain_probe_2,12,135450,0.0-12.0,"""event"",""trial"",""time""
""fullscreenenter"",""0"",""9376""
","
","
","""event"",""trial"",""time""
""fullscreenenter"",""0"",""9376""
","
",null,run_exp/static/audio/clip_34_recognition_2.m4a,null,,,,,"<div class='center'><p> You will press the 5, 6, 7, 8 keys on your keyboard to respond.</p><p>If you are sure you saw the ship, press <b>5</b> on your keyboard.</p><p> If you think you saw it before but aren't sure, then press <b>6</b>.</p><p> If you think you have <b>not</b> seen it before but aren't sure, then press <b>7</b>.</p><p> If you are sure you did <b>not</b> see the ship before, then press <b>8</b>.</p><p><img src='run_exp/static/images/tutorial/example_recog_trial.png' height='500'></p></div>",,,,,,,,,,,,,,,,,,,
,html-keyboard-response,13,136191,0.0-13.0,"""event"",""trial"",""time""
""fullscreenenter"",""0"",""9376""
","
","
","""event"",""trial"",""time""
""fullscreenenter"",""0"",""9376""
","
",739.5,"<div class='center'><p> You will press the 5, 6, 7, 8 keys on your keyboard to respond.</p><p>If you are sure you saw the ship, press <b>5</b> on your keyboard.</p><p> If you think you saw it before but aren't sure, then press <b>6</b>.</p><p> If you think you have <b>not</b> seen it before but aren't sure, then press <b>7</b>.</p><p> If you are sure you did <b>not</b> see the ship before, then press <b>8</b>.</p><p><img src='run_exp/static/images/tutorial/example_recog_trial.png' height='500'></p><p><b>[Press the space bar to continue]</b></p></div>",32,,,,,,,,,,,,,,,,,,,,,,,,
,explain_outcome,14,153399,0.0-14.0,"""event"",""trial"",""time""
""fullscreenenter"",""0"",""9376""
","
","
","""event"",""trial"",""time""
""fullscreenenter"",""0"",""9376""
","
",null,run_exp/static/audio/clip_35_recognition_3.m4a,null,,,,,"<div class='center'><p> If you remember correctly, then you’ll get a gold coin like this: </p><p><img src='run_exp/static/images/tutorial/reward_small.png' height='200'></p><p>If you do not remember correctly, then you'll see a red x like this: </p><p><img src='run_exp/static/images/tutorial/reward_no.png' height='200'></p><p>Importantly, when you are shown a ship, take the time to remind yourself which island you saw it on. This will help you in the next part of the study.</p></div>",,,,,,,,,,,,,,,,,,,
,html-keyboard-response,15,157183,0.0-15.0,"""event"",""trial"",""time""
""fullscreenenter"",""0"",""9376""
","
","
","""event"",""trial"",""time""
""fullscreenenter"",""0"",""9376""
","
",3783.6,"<div class='center'><p> If you remember correctly, then you’ll get a gold coin like this: </p><p><img src='run_exp/static/images/tutorial/reward_small.png' height='200'></p><p>If you do not remember correctly, then you'll see a red x like this: </p><p><img src='run_exp/static/images/tutorial/reward_no.png' height='200'></p><p>Importantly, when you are shown a ship, take the time to remind yourself which island you saw it on. This will help you in the next part of the study.</p><p><b>[Press the space bar to continue]</b></p></div>",32,,,,,,,,,,,,,,,,,,,,,,,,
,begin_test_phase,16,172996,0.0-16.0,"""event"",""trial"",""time""
""fullscreenenter"",""0"",""9376""
","
","
","""event"",""trial"",""time""
""fullscreenenter"",""0"",""9376""
","
",null,run_exp/static/audio/clip_36_begin_final.m4a,null,,,,,"<div class='center'><p>Let's go over the important points again. Your job is to: </p><p>1. Pick the pirate who is best at robbing ships and will bring you back gold coins. </p><p>2. Correctly remember whether or not you saw a ship before. If you did see the ship before, remind yourself on which island you saw it. </p></div>",,,,,,,,,,,,,,,,,,,
,html-keyboard-response,17,175448,0.0-17.0,"""event"",""trial"",""time""
""fullscreenenter"",""0"",""9376""
","
","
","""event"",""trial"",""time""
""fullscreenenter"",""0"",""9376""
","
",2414.5,"<div class='center'><p>Let's go over the important points again. Your job is to: </p><p>1. Pick the pirate who is best at robbing ships and will bring you back gold coins. </p><p>2. Correctly remember whether or not you saw a ship before. If you did see the ship before, remind yourself on which island you saw it. </p><p><b>[Press the space bar to continue]</b></p></div>",32,,,,,,,,,,,,,,,,,,,,,,,,
,do_welcome,18,179456,0.0-18.0,"""event"",""trial"",""time""
""fullscreenenter"",""0"",""9376""
","
","
","""event"",""trial"",""time""
""fullscreenenter"",""0"",""9376""
","
",null,,,,,,,,null,,,,,,,,,,,,,,,,,,
,do_trial,19,183300,0.0-19.0-0.0,"""event"",""trial"",""time""
""fullscreenenter"",""0"",""9376""
","
","
","""event"",""trial"",""time""
""fullscreenenter"",""0"",""9376""
","
",1299.4,,,,,,,,51,"0,0,0",6,blank,230,null,0.259215132,0.193494803,0.665980452,0,,,,,,,,,
,html-keyboard-response,20,184306,0.0-19.0-1.0,"""event"",""trial"",""time""
""fullscreenenter"",""0"",""9376""
","
","
","""event"",""trial"",""time""
""fullscreenenter"",""0"",""9376""
","
",null,<p></p>,null,,,,,,,,,,,,,,,,,,,,,,,,
,do_trial,21,187235,0.0-20.0-0.0,"""event"",""trial"",""time""
""fullscreenenter"",""0"",""9376""
","
","
","""event"",""trial"",""time""
""fullscreenenter"",""0"",""9376""
","
",384.7,,,,,,,,50,"1,0,0",6,blank,231,null,0.414858423,0.073111102,0.566149713,0,,,,,,,,,
,html-keyboard-response,22,188238,0.0-20.0-1.0,"""event"",""trial"",""time""
""fullscreenenter"",""0"",""9376""
","
","
","""event"",""trial"",""time""
""fullscreenenter"",""0"",""9376""
","
",null,<p></p>,null,,,,,,,,,,,,,,,,,,,,,,,,
,do_trial,23,191090,0.0-21.0-0.0,"""event"",""trial"",""time""
""fullscreenenter"",""0"",""9376""
","
","
","""event"",""trial"",""time""
""fullscreenenter"",""0"",""9376""
","
",304.7,,,,,,,,49,"0,0,0",6,blank,232,null,0.306573458,0.115207459,0.513931774,0,,,,,,,,,
,html-keyboard-response,24,192093,0.0-21.0-1.0,"""event"",""trial"",""time""
""fullscreenenter"",""0"",""9376""
","
","
","""event"",""trial"",""time""
""fullscreenenter"",""0"",""9376""
","
",null,<p></p>,null,,,,,,,,,,,,,,,,,,,,,,,,
,do_trial,25,195021,0.0-22.0-0.0,"""event"",""trial"",""time""
""fullscreenenter"",""0"",""9376""
","
","
","""event"",""trial"",""time""
""fullscreenenter"",""0"",""9376""
","
",384.5,,,,,,,,50,"0,0,0",6,blank,233,null,0.250215271,0.122000751,0.617283392,0,,,,,,,,,
,html-keyboard-response,26,196025,0.0-22.0-1.0,"""event"",""trial"",""time""
""fullscreenenter"",""0"",""9376""
","
","
","""event"",""trial"",""time""
""fullscreenenter"",""0"",""9376""
","
",null,<p></p>,null,,,,,,,,,,,,,,,,,,,,,,,,
,do_trial,27,198885,0.0-23.0-0.0,"""event"",""trial"",""time""
""fullscreenenter"",""0"",""9376""
","
","
","""event"",""trial"",""time""
""fullscreenenter"",""0"",""9376""
","
",317,,,,,,,,51,"1,0,1",6,blank,234,null,0.139177637,0.175110209,0.706738908,1,,,,,,,,,
,html-keyboard-response,28,199892,0.0-23.0-1.0,"""event"",""trial"",""time""
""fullscreenenter"",""0"",""9376""
","
","
","""event"",""trial"",""time""
""fullscreenenter"",""0"",""9376""
","
",null,<p></p>,null,,,,,,,,,,,,,,,,,,,,,,,,
,do_trial,29,202863,0.0-24.0-0.0,"""event"",""trial"",""time""
""fullscreenenter"",""0"",""9376""
","
","
","""event"",""trial"",""time""
""fullscreenenter"",""0"",""9376""
","
",426.6,,,,,,,,51,"0,0,1",6,blank,235,null,0.415983627,0.090719895,0.728583894,1,,,,,,,,,
,html-keyboard-response,30,203870,0.0-24.0-1.0,"""event"",""trial"",""time""
""fullscreenenter"",""0"",""9376""
","
","
","""event"",""trial"",""time""
""fullscreenenter"",""0"",""9376""
","
",null,<p></p>,null,,,,,,,,,,,,,,,,,,,,,,,,
,do_trial,31,206733,0.0-25.0-0.0,"""event"",""trial"",""time""
""fullscreenenter"",""0"",""9376""
","
","
","""event"",""trial"",""time""
""fullscreenenter"",""0"",""9376""
","
",324.4,,,,,,,,51,"0,0,1",6,blank,236,null,0.345306605,0.131096597,0.791177045,1,,,,,,,,,
,html-keyboard-response,32,207739,0.0-25.0-1.0,"""event"",""trial"",""time""
""fullscreenenter"",""0"",""9376""
","
","
","""event"",""trial"",""time""
""fullscreenenter"",""0"",""9376""
","
",null,<p></p>,null,,,,,,,,,,,,,,,,,,,,,,,,
,do_trial,33,210622,0.0-26.0-0.0,"""event"",""trial"",""time""
""fullscreenenter"",""0"",""9376""
","
","
","""event"",""trial"",""time""
""fullscreenenter"",""0"",""9376""
","
",341.3,,,,,,,,51,"0,0,1",6,blank,237,null,0.180975187,0.166961305,0.712403959,1,,,,,,,,,
,html-keyboard-response,34,211624,0.0-26.0-1.0,"""event"",""trial"",""time""
""fullscreenenter"",""0"",""9376""
","
","
","""event"",""trial"",""time""
""fullscreenenter"",""0"",""9376""
","
",null,<p></p>,null,,,,,,,,,,,,,,,,,,,,,,,,
,do_trial,35,214461,0.0-27.0-0.0,"""event"",""trial"",""time""
""fullscreenenter"",""0"",""9376""
","
","
","""event"",""trial"",""time""
""fullscreenenter"",""0"",""9376""
","
",290.9,,,,,,,,51,"0,0,1",6,blank,238,null,0.211426161,0.110814332,0.527588142,1,,,,,,,,,
,html-keyboard-response,36,215467,0.0-27.0-1.0,"""event"",""trial"",""time""
""fullscreenenter"",""0"",""9376""
","
","
","""event"",""trial"",""time""
""fullscreenenter"",""0"",""9376""
","
",null,<p></p>,null,,,,,,,,,,,,,,,,,,,,,,,,
,do_trial,37,218304,0.0-28.0-0.0,"""event"",""trial"",""time""
""fullscreenenter"",""0"",""9376""
","
","
","""event"",""trial"",""time""
""fullscreenenter"",""0"",""9376""
","
",291.8,,,,,,,,51,"0,0,0",6,blank,239,null,0.222870721,0.257077323,0.569807314,0,,,,,,,,,
,html-keyboard-response,38,219310,0.0-28.0-1.0,"""event"",""trial"",""time""
""fullscreenenter"",""0"",""9376""
","
","
","""event"",""trial"",""time""
""fullscreenenter"",""0"",""9376""
","
",null,<p></p>,null,,,,,,,,,,,,,,,,,,,,,,,,
,do_trial,39,222238,0.0-29.0-0.0,"""event"",""trial"",""time""
""fullscreenenter"",""0"",""9376""
","
","
","""event"",""trial"",""time""
""fullscreenenter"",""0"",""9376""
","
",386,,,,,,,,49,"0,0,1",6,blank,240,null,0.11040928,0.187840993,0.575037982,0,,,,,,,,,
,html-keyboard-response,40,223242,0.0-29.0-1.0,"""event"",""trial"",""time""
""fullscreenenter"",""0"",""9376""
","
","
","""event"",""trial"",""time""
""fullscreenenter"",""0"",""9376""
","
",null,<p></p>,null,,,,,,,,,,,,,,,,,,,,,,,,
,do_trial,41,226062,0.0-30.0-0.0,"""event"",""trial"",""time""
""fullscreenenter"",""0"",""9376""
","
","
","""event"",""trial"",""time""
""fullscreenenter"",""0"",""9376""
","
",280.3,,,,,,,,50,"1,0,1",6,blank,241,null,0.085478576,0.140051211,0.5881623,0,,,,,,,,,
,html-keyboard-response,42,227063,0.0-30.0-1.0,"""event"",""trial"",""time""
""fullscreenenter"",""0"",""9376""
","
","
","""event"",""trial"",""time""
""fullscreenenter"",""0"",""9376""
","
",null,<p></p>,null,,,,,,,,,,,,,,,,,,,,,,,,
,do_trial,43,230634,0.0-31.0-0.0,"""event"",""trial"",""time""
""fullscreenenter"",""0"",""9376""
","
","
","""event"",""trial"",""time""
""fullscreenenter"",""0"",""9376""
","
",1027.8,,,,,,,,51,"0,1,1",6,blank,242,null,0.111202806,0.311219291,0.309639045,1,,,,,,,,,
,html-keyboard-response,44,231639,0.0-31.0-1.0,"""event"",""trial"",""time""
""fullscreenenter"",""0"",""9376""
","
","
","""event"",""trial"",""time""
""fullscreenenter"",""0"",""9376""
","
",null,<p></p>,null,,,,,,,,,,,,,,,,,,,,,,,,
,do_trial,45,234596,0.0-32.0-0.0,"""event"",""trial"",""time""
""fullscreenenter"",""0"",""9376""
","
","
","""event"",""trial"",""time""
""fullscreenenter"",""0"",""9376""
","
",412.1,,,,,,,,51,"0,0,1",6,blank,243,null,0.263483502,0.340213839,0.219989438,1,,,,,,,,,
,html-keyboard-response,46,235601,0.0-32.0-1.0,"""event"",""trial"",""time""
""fullscreenenter"",""0"",""9376""
","
","
","""event"",""trial"",""time""
""fullscreenenter"",""0"",""9376""
","
",null,<p></p>,null,,,,,,,,,,,,,,,,,,,,,,,,
,do_recog,47,241612,0.0-33.0-0.0,"""event"",""trial"",""time""
""fullscreenenter"",""0"",""9376""
","
","
","""event"",""trial"",""time""
""fullscreenenter"",""0"",""9376""
","
",null,,,,,,,,null,,,,244,probe-130,,,,,1,[object Object],119,2,0,,,,
,html-keyboard-response,48,242617,0.0-33.0-1.0,"""event"",""trial"",""time""
""fullscreenenter"",""0"",""9376""
","
","
","""event"",""trial"",""time""
""fullscreenenter"",""0"",""9376""
","
",null,<p></p>,null,,,,,,,,,,,,,,,,,,,,,,,,
,do_trial,49,246267,0.0-34.0-0.0,"""event"",""trial"",""time""
""fullscreenenter"",""0"",""9376""
","
","
","""event"",""trial"",""time""
""fullscreenenter"",""0"",""9376""
","
",1109.1,,,,,,,,51,"0,1,0",6,blank,245,null,0.113633611,0.349323387,0.203781279,0,,,,,,,,,
,html-keyboard-response,50,247272,0.0-34.0-1.0,"""event"",""trial"",""time""
""fullscreenenter"",""0"",""9376""
","
","
","""event"",""trial"",""time""
""fullscreenenter"",""0"",""9376""
","
",null,<p></p>,null,,,,,,,,,,,,,,,,,,,,,,,,
,do_recog,51,250546,0.0-35.0-0.0,"""event"",""trial"",""time""
""fullscreenenter"",""0"",""9376""
","
","
","""event"",""trial"",""time""
""fullscreenenter"",""0"",""9376""
","
",1766.1,,,,,,,,55,,,,246,probe-98,,,,,1,[object Object],72,1,0,,,,
,html-keyboard-response,52,251553,0.0-35.0-1.0,"""event"",""trial"",""time""
""fullscreenenter"",""0"",""9376""
","
","
","""event"",""trial"",""time""
""fullscreenenter"",""0"",""9376""
","
",null,<p></p>,null,,,,,,,,,,,,,,,,,,,,,,,,
,do_trial,53,255256,0.0-36.0-0.0,"""event"",""trial"",""time""
""fullscreenenter"",""0"",""9376""
","
","
","""event"",""trial"",""time""
""fullscreenenter"",""0"",""9376""
","
",1162.8,,,,,,,,51,"1,0,0",6,blank,247,null,0.251079117,0.353116749,0.189620453,0,,,,,,,,,
,html-keyboard-response,54,256262,0.0-36.0-1.0,"""event"",""trial"",""time""
""fullscreenenter"",""0"",""9376""
","
","
","""event"",""trial"",""time""
""fullscreenenter"",""0"",""9376""
","
",null,<p></p>,null,,,,,,,,,,,,,,,,,,,,,,,,
,do_recog,55,259437,0.0-37.0-0.0,"""event"",""trial"",""time""
""fullscreenenter"",""0"",""9376""
","
","
","""event"",""trial"",""time""
""fullscreenenter"",""0"",""9376""
","
",1667,,,,,,,,56,,,,248,probe-239,,,,,0,[object Object],null,null,1,,,,
,html-keyboard-response,56,260444,0.0-37.0-1.0,"""event"",""trial"",""time""
""fullscreenenter"",""0"",""9376""
","
","
","""event"",""trial"",""time""
""fullscreenenter"",""0"",""9376""
","
",null,<p></p>,null,,,,,,,,,,,,,,,,,,,,,,,,
,do_trial,57,263671,0.0-38.0-0.0,"""event"",""trial"",""time""
""fullscreenenter"",""0"",""9376""
","
","
","""event"",""trial"",""time""
""fullscreenenter"",""0"",""9376""
","
",683.2,,,,,,,,50,"0,0,0",6,blank,249,null,0.250098738,0.339541652,0.265386901,0,,,,,,,,,
,html-keyboard-response,58,264677,0.0-38.0-1.0,"""event"",""trial"",""time""
""fullscreenenter"",""0"",""9376""
","
","
","""event"",""trial"",""time""
""fullscreenenter"",""0"",""9376""
","
",null,<p></p>,null,,,,,,,,,,,,,,,,,,,,,,,,
,do_trial,59,267718,0.0-39.0-0.0,"""event"",""trial"",""time""
""fullscreenenter"",""0"",""9376""
","
","
","""event"",""trial"",""time""
""fullscreenenter"",""0"",""9376""
","
",497.9,,,,,,,,51,"1,1,0",6,blank,250,null,0.331224431,0.337009635,0.287949136,0,,,,,,,,,
,html-keyboard-response,60,268723,0.0-39.0-1.0,"""event"",""trial"",""time""
""fullscreenenter"",""0"",""9376""
","
","
","""event"",""trial"",""time""
""fullscreenenter"",""0"",""9376""
","
",null,<p></p>,null,,,,,,,,,,,,,,,,,,,,,,,,
,do_trial,61,271592,0.0-40.0-0.0,"""event"",""trial"",""time""
""fullscreenenter"",""0"",""9376""
","
","
","""event"",""trial"",""time""
""fullscreenenter"",""0"",""9376""
","
",330,,,,,,,,51,"0,0,0",6,blank,251,null,0.32840302,0.485855102,0.188770325,0,,,,,,,,,
,html-keyboard-response,62,272599,0.0-40.0-1.0,"""event"",""trial"",""time""
""fullscreenenter"",""0"",""9376""
","
","
","""event"",""trial"",""time""
""fullscreenenter"",""0"",""9376""
","
",null,<p></p>,null,,,,,,,,,,,,,,,,,,,,,,,,
,do_recog,63,275188,0.0-41.0-0.0,"""event"",""trial"",""time""
""fullscreenenter"",""0"",""9376""
","
","
","""event"",""trial"",""time""
""fullscreenenter"",""0"",""9376""
","
",1078.7,,,,,,,,56,,,,252,probe-157,,,,,1,[object Object],118,2,0,,,,
,html-keyboard-response,64,276194,0.0-41.0-1.0,"""event"",""trial"",""time""
""fullscreenenter"",""0"",""9376""
","
","
","""event"",""trial"",""time""
""fullscreenenter"",""0"",""9376""
","
",null,<p></p>,null,,,,,,,,,,,,,,,,,,,,,,,,
,do_trial,65,279711,0.0-42.0-0.0,"""event"",""trial"",""time""
""fullscreenenter"",""0"",""9376""
","
","
","""event"",""trial"",""time""
""fullscreenenter"",""0"",""9376""
","
",977.4,,,,,,,,51,"0,0,1",6,blank,253,null,0.33708189,0.579713375,0.227613992,1,,,,,,,,,
,html-keyboard-response,66,280714,0.0-42.0-1.0,"""event"",""trial"",""time""
""fullscreenenter"",""0"",""9376""
","
","
","""event"",""trial"",""time""
""fullscreenenter"",""0"",""9376""
","
",null,<p></p>,null,,,,,,,,,,,,,,,,,,,,,,,,
,do_recog,67,283292,0.0-43.0-0.0,"""event"",""trial"",""time""
""fullscreenenter"",""0"",""9376""
","
","
","""event"",""trial"",""time""
""fullscreenenter"",""0"",""9376""
","
",1067.8,,,,,,,,56,,,,254,probe-174,,,,,1,[object Object],74,1,0,,,,
,html-keyboard-response,68,284296,0.0-43.0-1.0,"""event"",""trial"",""time""
""fullscreenenter"",""0"",""9376""
","
","
","""event"",""trial"",""time""
""fullscreenenter"",""0"",""9376""
","
",null,<p></p>,null,,,,,,,,,,,,,,,,,,,,,,,,
,do_trial,69,287719,0.0-44.0-0.0,"""event"",""trial"",""time""
""fullscreenenter"",""0"",""9376""
","
","
","""event"",""trial"",""time""
""fullscreenenter"",""0"",""9376""
","
",882.2,,,,,,,,51,"0,1,0",6,blank,255,null,0.330401792,0.608808819,0.102712044,0,,,,,,,,,
,html-keyboard-response,70,288725,0.0-44.0-1.0,"""event"",""trial"",""time""
""fullscreenenter"",""0"",""9376""
","
","
","""event"",""trial"",""time""
""fullscreenenter"",""0"",""9376""
","
",null,<p></p>,null,,,,,,,,,,,,,,,,,,,,,,,,
,do_trial,71,291668,0.0-45.0-0.0,"""event"",""trial"",""time""
""fullscreenenter"",""0"",""9376""
","
","
","""event"",""trial"",""time""
""fullscreenenter"",""0"",""9376""
","
",399.1,,,,,,,,50,"0,0,0",6,blank,256,null,0.359490951,0.513457887,0.10943747,0,,,,,,,,,
,html-keyboard-response,72,292673,0.0-45.0-1.0,"""event"",""trial"",""time""
""fullscreenenter"",""0"",""9376""
","
","
","""event"",""trial"",""time""
""fullscreenenter"",""0"",""9376""
","
",null,<p></p>,null,,,,,,,,,,,,,,,,,,,,,,,,
,do_trial,73,296269,0.0-46.0-0.0,"""event"",""trial"",""time""
""fullscreenenter"",""0"",""9376""
","
","
","""event"",""trial"",""time""
""fullscreenenter"",""0"",""9376""
","
",1056.7,,,,,,,,51,"0,1,0",6,blank,257,null,0.267863405,0.67469948,0.104896324,0,,,,,,,,,
,html-keyboard-response,74,297274,0.0-46.0-1.0,"""event"",""trial"",""time""
""fullscreenenter"",""0"",""9376""
","
","
","""event"",""trial"",""time""
""fullscreenenter"",""0"",""9376""
","
",null,<p></p>,null,,,,,,,,,,,,,,,,,,,,,,,,
,do_trial,75,300117,0.0-47.0-0.0,"""event"",""trial"",""time""
""fullscreenenter"",""0"",""9376""
","
","
","""event"",""trial"",""time""
""fullscreenenter"",""0"",""9376""
","
",305.3,,,,,,,,51,"1,1,0",6,blank,258,null,0.289858844,0.693362703,0.052909131,0,,,,,,,,,
,html-keyboard-response,76,301122,0.0-47.0-1.0,"""event"",""trial"",""time""
""fullscreenenter"",""0"",""9376""
","
","
","""event"",""trial"",""time""
""fullscreenenter"",""0"",""9376""
","
",null,<p></p>,null,,,,,,,,,,,,,,,,,,,,,,,,
,do_trial,77,304010,0.0-48.0-0.0,"""event"",""trial"",""time""
""fullscreenenter"",""0"",""9376""
","
","
","""event"",""trial"",""time""
""fullscreenenter"",""0"",""9376""
","
",345.3,,,,,,,,49,"0,0,0",6,blank,259,null,0.297995784,0.583764052,0.058632348,0,,,,,,,,,
,html-keyboard-response,78,305017,0.0-48.0-1.0,"""event"",""trial"",""time""
""fullscreenenter"",""0"",""9376""
","
","
","""event"",""trial"",""time""
""fullscreenenter"",""0"",""9376""
","
",null,<p></p>,null,,,,,,,,,,,,,,,,,,,,,,,,
,do_recog,79,308313,0.0-49.0-0.0,"""event"",""trial"",""time""
""fullscreenenter"",""0"",""9376""
","
","
","""event"",""trial"",""time""
""fullscreenenter"",""0"",""9376""
","
",1786.2,,,,,,,,53,,,,260,probe-39,,,,,1,[object Object],34,0,1,,,,
,html-keyboard-response,80,309318,0.0-49.0-1.0,"""event"",""trial"",""time""
""fullscreenenter"",""0"",""9376""
","
","
","""event"",""trial"",""time""
""fullscreenenter"",""0"",""9376""
","
",null,<p></p>,null,,,,,,,,,,,,,,,,,,,,,,,,
,do_trial,81,312993,0.0-50.0-0.0,"""event"",""trial"",""time""
""fullscreenenter"",""0"",""9376""
","
","
","""event"",""trial"",""time""
""fullscreenenter"",""0"",""9376""
","
",1130.7,,,,,,,,50,"1,0,0",6,blank,261,null,0.34754562,0.592580217,0.237337833,0,,,,,,,,,
,html-keyboard-response,82,313999,0.0-50.0-1.0,"""event"",""trial"",""time""
""fullscreenenter"",""0"",""9376""
","
","
","""event"",""trial"",""time""
""fullscreenenter"",""0"",""9376""
","
",null,<p></p>,null,,,,,,,,,,,,,,,,,,,,,,,,
,do_trial,83,316932,0.0-51.0-0.0,"""event"",""trial"",""time""
""fullscreenenter"",""0"",""9376""
","
","
","""event"",""trial"",""time""
""fullscreenenter"",""0"",""9376""
","
",393.2,,,,,,,,51,"0,1,0",6,blank,262,null,0.389782728,0.513039691,0.134819694,0,,,,,,,,,
,html-keyboard-response,84,317938,0.0-51.0-1.0,"""event"",""trial"",""time""
""fullscreenenter"",""0"",""9376""
","
","
","""event"",""trial"",""time""
""fullscreenenter"",""0"",""9376""
","
",null,<p></p>,null,,,,,,,,,,,,,,,,,,,,,,,,
,do_trial,85,320785,0.0-52.0-0.0,"""event"",""trial"",""time""
""fullscreenenter"",""0"",""9376""
","
","
","""event"",""trial"",""time""
""fullscreenenter"",""0"",""9376""
","
",302.5,,,,,,,,49,"1,1,0",6,blank,263,null,0.303950837,0.564400637,0.088765646,1,,,,,,,,,
,html-keyboard-response,86,321791,0.0-52.0-1.0,"""event"",""trial"",""time""
""fullscreenenter"",""0"",""9376""
","
","
","""event"",""trial"",""time""
""fullscreenenter"",""0"",""9376""
","
",null,<p></p>,null,,,,,,,,,,,,,,,,,,,,,,,,
,do_trial,87,324717,0.0-53.0-0.0,"""event"",""trial"",""time""
""fullscreenenter"",""0"",""9376""
","
","
","""event"",""trial"",""time""
""fullscreenenter"",""0"",""9376""
","
",384.4,,,,,,,,49,"0,0,0",6,blank,264,null,0.240710956,0.617296447,0.064625787,0,,,,,,,,,
,html-keyboard-response,88,325721,0.0-53.0-1.0,"""event"",""trial"",""time""
""fullscreenenter"",""0"",""9376""
","
","
","""event"",""trial"",""time""
""fullscreenenter"",""0"",""9376""
","
",null,<p></p>,null,,,,,,,,,,,,,,,,,,,,,,,,
,do_recog,89,328760,0.0-54.0-0.0,"""event"",""trial"",""time""
""fullscreenenter"",""0"",""9376""
","
","
","""event"",""trial"",""time""
""fullscreenenter"",""0"",""9376""
","
",1529.1,,,,,,,,56,,,,265,probe-122,,,,,1,[object Object],78,1,0,,,,
,html-keyboard-response,90,329763,0.0-54.0-1.0,"""event"",""trial"",""time""
""fullscreenenter"",""0"",""9376""
","
","
","""event"",""trial"",""time""
""fullscreenenter"",""0"",""9376""
","
",null,<p></p>,null,,,,,,,,,,,,,,,,,,,,,,,,
,do_trial,91,332848,0.0-55.0-0.0,"""event"",""trial"",""time""
""fullscreenenter"",""0"",""9376""
","
","
","""event"",""trial"",""time""
""fullscreenenter"",""0"",""9376""
","
",541.2,,,,,,,,51,"0,0,0",6,blank,266,null,0.181753793,0.660273373,0.093577201,0,,,,,,,,,
,html-keyboard-response,92,333855,0.0-55.0-1.0,"""event"",""trial"",""time""
""fullscreenenter"",""0"",""9376""
","
","
","""event"",""trial"",""time""
""fullscreenenter"",""0"",""9376""
","
",null,<p></p>,null,,,,,,,,,,,,,,,,,,,,,,,,
,do_recog,93,336503,0.0-56.0-0.0,"""event"",""trial"",""time""
""fullscreenenter"",""0"",""9376""
","
","
","""event"",""trial"",""time""
""fullscreenenter"",""0"",""9376""
","
",1137.3,,,,,,,,56,,,,267,probe-110,,,,,1,[object Object],196,4,0,,,,
,html-keyboard-response,94,337506,0.0-56.0-1.0,"""event"",""trial"",""time""
""fullscreenenter"",""0"",""9376""
","
","
","""event"",""trial"",""time""
""fullscreenenter"",""0"",""9376""
","
",null,<p></p>,null,,,,,,,,,,,,,,,,,,,,,,,,
,do_trial,95,340605,0.0-57.0-0.0,"""event"",""trial"",""time""
""fullscreenenter"",""0"",""9376""
","
","
","""event"",""trial"",""time""
""fullscreenenter"",""0"",""9376""
","
",555.7,,,,,,,,49,"0,0,0",6,blank,268,null,0.097887063,0.539902621,0.097418401,0,,,,,,,,,
,html-keyboard-response,96,341610,0.0-57.0-1.0,"""event"",""trial"",""time""
""fullscreenenter"",""0"",""9376""
","
","
","""event"",""trial"",""time""
""fullscreenenter"",""0"",""9376""
","
",null,<p></p>,null,,,,,,,,,,,,,,,,,,,,,,,,
,break,97,343952,0.0-58.0-0.0,"""event"",""trial"",""time""
""fullscreenenter"",""0"",""9376""
","
","
","""event"",""trial"",""time""
""fullscreenenter"",""0"",""9376""
","
",2340.9,"<div class='center'><p>Time to take a quick break! You have 2 minutes to rest, but you can move on sooner if you'd like.</p><p> Press the <b>space bar</b> to continue.</p></div>",32,,,,,,,,,,,,,,,,,,,,,,,,
,do_trial,98,347520,0.0-58.0-1.0,"""event"",""trial"",""time""
""fullscreenenter"",""0"",""9376""
","
","
","""event"",""trial"",""time""
""fullscreenenter"",""0"",""9376""
","
",1024.5,,,,,,,,51,"0,1,0",6,blank,269,null,0.115137541,0.620125906,0.113338767,0,,,,,,,,,
,html-keyboard-response,99,348526,0.0-58.0-2.0,"""event"",""trial"",""time""
""fullscreenenter"",""0"",""9376""
","
","
","""event"",""trial"",""time""
""fullscreenenter"",""0"",""9376""
","
",null,<p></p>,null,,,,,,,,,,,,,,,,,,,,,,,,
,do_trial,100,351411,0.0-59.0-0.0,"""event"",""trial"",""time""
""fullscreenenter"",""0"",""9376""
","
","
","""event"",""trial"",""time""
""fullscreenenter"",""0"",""9376""
","
",346.1,,,,,,,,50,"0,1,0",6,blank,270,null,0.197215449,0.70716011,0.187397962,1,,,,,,,,,
,html-keyboard-response,101,352413,0.0-59.0-1.0,"""event"",""trial"",""time""
""fullscreenenter"",""0"",""9376""
","
","
","""event"",""trial"",""time""
""fullscreenenter"",""0"",""9376""
","
",null,<p></p>,null,,,,,,,,,,,,,,,,,,,,,,,,
,do_trial,102,355293,0.0-60.0-0.0,"""event"",""trial"",""time""
""fullscreenenter"",""0"",""9376""
","
","
","""event"",""trial"",""time""
""fullscreenenter"",""0"",""9376""
","
",342.6,,,,,,,,50,"0,0,0",6,blank,271,null,0.377546086,0.621640468,0.145893231,0,,,,,,,,,
,html-keyboard-response,103,356295,0.0-60.0-1.0,"""event"",""trial"",""time""
""fullscreenenter"",""0"",""9376""
","
","
","""event"",""trial"",""time""
""fullscreenenter"",""0"",""9376""
","
",null,<p></p>,null,,,,,,,,,,,,,,,,,,,,,,,,
,do_trial,104,359176,0.0-61.0-0.0,"""event"",""trial"",""time""
""fullscreenenter"",""0"",""9376""
","
","
","""event"",""trial"",""time""
""fullscreenenter"",""0"",""9376""
","
",337.1,,,,,,,,51,"0,1,1",6,blank,272,null,0.332928403,0.491911503,0.065359492,1,,,,,,,,,
,html-keyboard-response,105,360181,0.0-61.0-1.0,"""event"",""trial"",""time""
""fullscreenenter"",""0"",""9376""
","
","
","""event"",""trial"",""time""
""fullscreenenter"",""0"",""9376""
","
",null,<p></p>,null,,,,,,,,,,,,,,,,,,,,,,,,
,do_trial,106,363117,0.0-62.0-0.0,"""event"",""trial"",""time""
""fullscreenenter"",""0"",""9376""
","
","
","""event"",""trial"",""time""
""fullscreenenter"",""0"",""9376""
","
",395.1,,,,,,,,51,"1,0,0",6,blank,273,null,0.357261627,0.267368253,0.056604241,0,,,,,,,,,
,html-keyboard-response,107,364124,0.0-62.0-1.0,"""event"",""trial"",""time""
""fullscreenenter"",""0"",""9376""
","
","
","""event"",""trial"",""time""
""fullscreenenter"",""0"",""9376""
","
",null,<p></p>,null,,,,,,,,,,,,,,,,,,,,,,,,
,do_recog,108,367157,0.0-63.0-0.0,"""event"",""trial"",""time""
""fullscreenenter"",""0"",""9376""
","
","
","""event"",""trial"",""time""
""fullscreenenter"",""0"",""9376""
","
",1526.4,,,,,,,,56,,,,274,probe-80,,,,,1,[object Object],198,4,0,,,,
,html-keyboard-response,109,368161,0.0-63.0-1.0,"""event"",""trial"",""time""
""fullscreenenter"",""0"",""9376""
","
","
","""event"",""trial"",""time""
""fullscreenenter"",""0"",""9376""
","
",null,<p></p>,null,,,,,,,,,,,,,,,,,,,,,,,,
,do_trial,110,371180,0.0-64.0-0.0,"""event"",""trial"",""time""
""fullscreenenter"",""0"",""9376""
","
","
","""event"",""trial"",""time""
""fullscreenenter"",""0"",""9376""
","
",477.1,,,,,,,,49,"1,1,0",6,blank,275,null,0.370509613,0.453893427,0.088843614,1,,,,,,,,,
,html-keyboard-response,111,372183,0.0-64.0-1.0,"""event"",""trial"",""time""
""fullscreenenter"",""0"",""9376""
","
","
","""event"",""trial"",""time""
""fullscreenenter"",""0"",""9376""
","
",null,<p></p>,null,,,,,,,,,,,,,,,,,,,,,,,,
,do_trial,112,375039,0.0-65.0-0.0,"""event"",""trial"",""time""
""fullscreenenter"",""0"",""9376""
","
","
","""event"",""trial"",""time""
""fullscreenenter"",""0"",""9376""
","
",312.7,,,,,,,,49,"0,1,0",6,blank,276,null,0.403824465,0.600175334,0.08364441,0,,,,,,,,,
,html-keyboard-response,113,376041,0.0-65.0-1.0,"""event"",""trial"",""time""
""fullscreenenter"",""0"",""9376""
","
","
","""event"",""trial"",""time""
""fullscreenenter"",""0"",""9376""
","
",null,<p></p>,null,,,,,,,,,,,,,,,,,,,,,,,,
,do_trial,114,378901,0.0-66.0-0.0,"""event"",""trial"",""time""
""fullscreenenter"",""0"",""9376""
","
","
","""event"",""trial"",""time""
""fullscreenenter"",""0"",""9376""
","
",318,,,,,,,,51,"0,1,0",6,blank,277,null,0.262955543,0.667676349,0.109057902,0,,,,,,,,,
,html-keyboard-response,115,379905,0.0-66.0-1.0,"""event"",""trial"",""time""
""fullscreenenter"",""0"",""9376""
","
","
","""event"",""trial"",""time""
""fullscreenenter"",""0"",""9376""
","
",null,<p></p>,null,,,,,,,,,,,,,,,,,,,,,,,,
,do_trial,116,382727,0.0-67.0-0.0,"""event"",""trial"",""time""
""fullscreenenter"",""0"",""9376""
","
","
","""event"",""trial"",""time""
""fullscreenenter"",""0"",""9376""
","
",279.1,,,,,,,,49,"0,1,0",6,blank,278,null,0.355738992,0.674943283,0.18171373,0,,,,,,,,,
,html-keyboard-response,117,383732,0.0-67.0-1.0,"""event"",""trial"",""time""
""fullscreenenter"",""0"",""9376""
","
","
","""event"",""trial"",""time""
""fullscreenenter"",""0"",""9376""
","
",null,<p></p>,null,,,,,,,,,,,,,,,,,,,,,,,,
,do_trial,118,386547,0.0-68.0-0.0,"""event"",""trial"",""time""
""fullscreenenter"",""0"",""9376""
","
","
","""event"",""trial"",""time""
""fullscreenenter"",""0"",""9376""
","
",274.1,,,,,,,,50,"0,1,0",6,blank,279,null,0.304662016,0.56252692,0.091402785,1,,,,,,,,,
,html-keyboard-response,119,387549,0.0-68.0-1.0,"""event"",""trial"",""time""
""fullscreenenter"",""0"",""9376""
","
","
","""event"",""trial"",""time""
""fullscreenenter"",""0"",""9376""
","
",null,<p></p>,null,,,,,,,,,,,,,,,,,,,,,,,,
,do_trial,120,390458,0.0-69.0-0.0,"""event"",""trial"",""time""
""fullscreenenter"",""0"",""9376""
","
","
","""event"",""trial"",""time""
""fullscreenenter"",""0"",""9376""
","
",368.5,,,,,,,,50,"0,1,0",6,blank,280,null,0.288581208,0.621601039,0.19960219,1,,,,,,,,,
,html-keyboard-response,121,391464,0.0-69.0-1.0,"""event"",""trial"",""time""
""fullscreenenter"",""0"",""9376""
","
","
","""event"",""trial"",""time""
""fullscreenenter"",""0"",""9376""
","
",null,<p></p>,null,,,,,,,,,,,,,,,,,,,,,,,,
,do_trial,122,394404,0.0-70.0-0.0,"""event"",""trial"",""time""
""fullscreenenter"",""0"",""9376""
","
","
","""event"",""trial"",""time""
""fullscreenenter"",""0"",""9376""
","
",400.5,,,,,,,,50,"0,1,0",6,blank,281,null,0.118598165,0.653569737,0.205543259,1,,,,,,,,,
,html-keyboard-response,123,395409,0.0-70.0-1.0,"""event"",""trial"",""time""
""fullscreenenter"",""0"",""9376""
","
","
","""event"",""trial"",""time""
""fullscreenenter"",""0"",""9376""
","
",null,<p></p>,null,,,,,,,,,,,,,,,,,,,,,,,,
,do_recog,124,397847,0.0-71.0-0.0,"""event"",""trial"",""time""
""fullscreenenter"",""0"",""9376""
","
","
","""event"",""trial"",""time""
""fullscreenenter"",""0"",""9376""
","
",927.3,,,,,,,,53,,,,282,probe-106,,,,,1,[object Object],156,3,1,,,,
,html-keyboard-response,125,398851,0.0-71.0-1.0,"""event"",""trial"",""time""
""fullscreenenter"",""0"",""9376""
","
","
","""event"",""trial"",""time""
""fullscreenenter"",""0"",""9376""
","
",null,<p></p>,null,,,,,,,,,,,,,,,,,,,,,,,,
,do_trial,126,401959,0.0-72.0-0.0,"""event"",""trial"",""time""
""fullscreenenter"",""0"",""9376""
","
","
","""event"",""trial"",""time""
""fullscreenenter"",""0"",""9376""
","
",568.8,,,,,,,,50,"0,1,1",6,blank,283,null,0.156810659,0.671055173,0.202166643,1,,,,,,,,,
,html-keyboard-response,127,402965,0.0-72.0-1.0,"""event"",""trial"",""time""
""fullscreenenter"",""0"",""9376""
","
","
","""event"",""trial"",""time""
""fullscreenenter"",""0"",""9376""
","
",null,<p></p>,null,,,,,,,,,,,,,,,,,,,,,,,,
,do_trial,128,405838,0.0-73.0-0.0,"""event"",""trial"",""time""
""fullscreenenter"",""0"",""9376""
","
","
","""event"",""trial"",""time""
""fullscreenenter"",""0"",""9376""
","
",329.5,,,,,,,,50,"1,1,0",6,blank,284,null,0.276536392,0.812651577,0.275567028,1,,,,,,,,,
,html-keyboard-response,129,406841,0.0-73.0-1.0,"""event"",""trial"",""time""
""fullscreenenter"",""0"",""9376""
","
","
","""event"",""trial"",""time""
""fullscreenenter"",""0"",""9376""
","
",null,<p></p>,null,,,,,,,,,,,,,,,,,,,,,,,,
,do_recog,130,409227,0.0-74.0-0.0,"""event"",""trial"",""time""
""fullscreenenter"",""0"",""9376""
","
","
","""event"",""trial"",""time""
""fullscreenenter"",""0"",""9376""
","
",880.1,,,,,,,,53,,,,285,probe-104,,,,,1,[object Object],117,2,1,,,,
,html-keyboard-response,131,410232,0.0-74.0-1.0,"""event"",""trial"",""time""
""fullscreenenter"",""0"",""9376""
","
","
","""event"",""trial"",""time""
""fullscreenenter"",""0"",""9376""
","
",null,<p></p>,null,,,,,,,,,,,,,,,,,,,,,,,,
,do_trial,132,413225,0.0-75.0-0.0,"""event"",""trial"",""time""
""fullscreenenter"",""0"",""9376""
","
","
","""event"",""trial"",""time""
""fullscreenenter"",""0"",""9376""
","
",454.1,,,,,,,,50,"0,1,0",6,blank,286,null,0.293725099,0.762884821,0.215141597,1,,,,,,,,,
,html-keyboard-response,133,414228,0.0-75.0-1.0,"""event"",""trial"",""time""
""fullscreenenter"",""0"",""9376""
","
","
","""event"",""trial"",""time""
""fullscreenenter"",""0"",""9376""
","
",null,<p></p>,null,,,,,,,,,,,,,,,,,,,,,,,,
,do_trial,134,417099,0.0-76.0-0.0,"""event"",""trial"",""time""
""fullscreenenter"",""0"",""9376""
","
","
","""event"",""trial"",""time""
""fullscreenenter"",""0"",""9376""
","
",328.9,,,,,,,,50,"0,1,0",6,blank,287,null,0.230563653,0.606889482,0.139256387,1,,,,,,,,,
,html-keyboard-response,135,418102,0.0-76.0-1.0,"""event"",""trial"",""time""
""fullscreenenter"",""0"",""9376""
","
","
","""event"",""trial"",""time""
""fullscreenenter"",""0"",""9376""
","
",null,<p></p>,null,,,,,,,,,,,,,,,,,,,,,,,,
,do_trial,136,420990,0.0-77.0-0.0,"""event"",""trial"",""time""
""fullscreenenter"",""0"",""9376""
","
","
","""event"",""trial"",""time""
""fullscreenenter"",""0"",""9376""
","
",344.8,,,,,,,,50,"0,0,0",6,blank,288,null,0.284863058,0.538117953,0.051811165,0,,,,,,,,,
,html-keyboard-response,137,421997,0.0-77.0-1.0,"""event"",""trial"",""time""
""fullscreenenter"",""0"",""9376""
","
","
","""event"",""trial"",""time""
""fullscreenenter"",""0"",""9376""
","
",null,<p></p>,null,,,,,,,,,,,,,,,,,,,,,,,,
,do_trial,138,424838,0.0-78.0-0.0,"""event"",""trial"",""time""
""fullscreenenter"",""0"",""9376""
","
","
","""event"",""trial"",""time""
""fullscreenenter"",""0"",""9376""
","
",297.3,,,,,,,,51,"1,0,0",6,blank,289,null,0.293868671,0.429843057,0.104415785,0,,,,,,,,,
,html-keyboard-response,139,425841,0.0-78.0-1.0,"""event"",""trial"",""time""
""fullscreenenter"",""0"",""9376""
","
","
","""event"",""trial"",""time""
""fullscreenenter"",""0"",""9376""
","
",null,<p></p>,null,,,,,,,,,,,,,,,,,,,,,,,,
,do_trial,140,428649,0.0-79.0-0.0,"""event"",""trial"",""time""
""fullscreenenter"",""0"",""9376""
","
","
","""event"",""trial"",""time""
""fullscreenenter"",""0"",""9376""
","
",269.6,,,,,,,,50,"0,0,1",6,blank,290,null,0.227546638,0.433476694,0.280185288,0,,,,,,,,,
,html-keyboard-response,141,429654,0.0-79.0-1.0,"""event"",""trial"",""time""
""fullscreenenter"",""0"",""9376""
","
","
","""event"",""trial"",""time""
""fullscreenenter"",""0"",""9376""
","
",null,<p></p>,null,,,,,,,,,,,,,,,,,,,,,,,,
,do_recog,142,432262,0.0-80.0-0.0,"""event"",""trial"",""time""
""fullscreenenter"",""0"",""9376""
","
","
","""event"",""trial"",""time""
""fullscreenenter"",""0"",""9376""
","
",1097.7,,,,,,,,53,,,,291,probe-52,,,,,1,[object Object],73,1,1,,,,
,html-keyboard-response,143,433267,0.0-80.0-1.0,"""event"",""trial"",""time""
""fullscreenenter"",""0"",""9376""
","
","
","""event"",""trial"",""time""
""fullscreenenter"",""0"",""9376""
","
",null,<p></p>,null,,,,,,,,,,,,,,,,,,,,,,,,
,do_trial,144,436310,0.0-81.0-0.0,"""event"",""trial"",""time""
""fullscreenenter"",""0"",""9376""
","
","
","""event"",""trial"",""time""
""fullscreenenter"",""0"",""9376""
","
",498.4,,,,,,,,49,"0,0,0",6,blank,292,null,0.404809106,0.247113156,0.214879111,0,,,,,,,,,
,html-keyboard-response,145,437316,0.0-81.0-1.0,"""event"",""trial"",""time""
""fullscreenenter"",""0"",""9376""
","
","
","""event"",""trial"",""time""
""fullscreenenter"",""0"",""9376""
","
",null,<p></p>,null,,,,,,,,,,,,,,,,,,,,,,,,
,do_trial,146,440179,0.0-82.0-0.0,"""event"",""trial"",""time""
""fullscreenenter"",""0"",""9376""
","
","
","""event"",""trial"",""time""
""fullscreenenter"",""0"",""9376""
","
",321.1,,,,,,,,51,"1,0,0",6,blank,293,null,0.45365167,0.340188552,0.278253751,0,,,,,,,,,
,html-keyboard-response,147,441184,0.0-82.0-1.0,"""event"",""trial"",""time""
""fullscreenenter"",""0"",""9376""
","
","
","""event"",""trial"",""time""
""fullscreenenter"",""0"",""9376""
","
",null,<p></p>,null,,,,,,,,,,,,,,,,,,,,,,,,
,do_trial,148,444018,0.0-83.0-0.0,"""event"",""trial"",""time""
""fullscreenenter"",""0"",""9376""
","
","
","""event"",""trial"",""time""
""fullscreenenter"",""0"",""9376""
","
",292.7,,,,,,,,50,"1,0,0",6,blank,294,null,0.571171032,0.287543217,0.195974864,0,,,,,,,,,
,html-keyboard-response,149,445024,0.0-83.0-1.0,"""event"",""trial"",""time""
""fullscreenenter"",""0"",""9376""
","
","
","""event"",""trial"",""time""
""fullscreenenter"",""0"",""9376""
","
",null,<p></p>,null,,,,,,,,,,,,,,,,,,,,,,,,
,do_recog,150,447322,0.0-84.0-0.0,"""event"",""trial"",""time""
""fullscreenenter"",""0"",""9376""
","
","
","""event"",""trial"",""time""
""fullscreenenter"",""0"",""9376""
","
",791.1,,,,,,,,53,,,,295,probe-232,,,,,0,[object Object],null,null,0,,,,
,html-keyboard-response,151,448328,0.0-84.0-1.0,"""event"",""trial"",""time""
""fullscreenenter"",""0"",""9376""
","
","
","""event"",""trial"",""time""
""fullscreenenter"",""0"",""9376""
","
",null,<p></p>,null,,,,,,,,,,,,,,,,,,,,,,,,
,do_trial,152,451254,0.0-85.0-0.0,"""event"",""trial"",""time""
""fullscreenenter"",""0"",""9376""
","
","
","""event"",""trial"",""time""
""fullscreenenter"",""0"",""9376""
","
",379.9,,,,,,,,49,"0,1,0",6,blank,296,null,0.547522456,0.275668313,0.148578862,0,,,,,,,,,
,html-keyboard-response,153,452258,0.0-85.0-1.0,"""event"",""trial"",""time""
""fullscreenenter"",""0"",""9376""
","
","
","""event"",""trial"",""time""
""fullscreenenter"",""0"",""9376""
","
",null,<p></p>,null,,,,,,,,,,,,,,,,,,,,,,,,
,do_trial,154,455116,0.0-86.0-0.0,"""event"",""trial"",""time""
""fullscreenenter"",""0"",""9376""
","
","
","""event"",""trial"",""time""
""fullscreenenter"",""0"",""9376""
","
",314.1,,,,,,,,51,"0,0,1",6,blank,297,null,0.448141167,0.31394873,0.20707617,1,,,,,,,,,
,html-keyboard-response,155,456121,0.0-86.0-1.0,"""event"",""trial"",""time""
""fullscreenenter"",""0"",""9376""
","
","
","""event"",""trial"",""time""
""fullscreenenter"",""0"",""9376""
","
",null,<p></p>,null,,,,,,,,,,,,,,,,,,,,,,,,
,do_trial,156,459157,0.0-87.0-0.0,"""event"",""trial"",""time""
""fullscreenenter"",""0"",""9376""
","
","
","""event"",""trial"",""time""
""fullscreenenter"",""0"",""9376""
","
",492,,,,,,,,50,"1,0,0",6,blank,298,null,0.694743532,0.317917233,0.087322645,0,,,,,,,,,
,html-keyboard-response,157,460161,0.0-87.0-1.0,"""event"",""trial"",""time""
""fullscreenenter"",""0"",""9376""
","
","
","""event"",""trial"",""time""
""fullscreenenter"",""0"",""9376""
","
",null,<p></p>,null,,,,,,,,,,,,,,,,,,,,,,,,
,do_trial,158,462995,0.0-88.0-0.0,"""event"",""trial"",""time""
""fullscreenenter"",""0"",""9376""
","
","
","""event"",""trial"",""time""
""fullscreenenter"",""0"",""9376""
","
",291.7,,,,,,,,51,"1,0,0",6,blank,299,null,0.647070711,0.263088664,0.074788253,0,,,,,,,,,
,html-keyboard-response,159,464002,0.0-88.0-1.0,"""event"",""trial"",""time""
""fullscreenenter"",""0"",""9376""
","
","
","""event"",""trial"",""time""
""fullscreenenter"",""0"",""9376""
","
",null,<p></p>,null,,,,,,,,,,,,,,,,,,,,,,,,
,do_recog,160,466818,0.0-89.0-0.0,"""event"",""trial"",""time""
""fullscreenenter"",""0"",""9376""
","
","
","""event"",""trial"",""time""
""fullscreenenter"",""0"",""9376""
","
",1308.9,,,,,,,,53,,,,300,probe-91,,,,,1,[object Object],158,3,1,,,,
,html-keyboard-response,161,467823,0.0-89.0-1.0,"""event"",""trial"",""time""
""fullscreenenter"",""0"",""9376""
","
","
","""event"",""trial"",""time""
""fullscreenenter"",""0"",""9376""
","
",null,<p></p>,null,,,,,,,,,,,,,,,,,,,,,,,,
,do_trial,162,470768,0.0-90.0-0.0,"""event"",""trial"",""time""
""fullscreenenter"",""0"",""9376""
","
","
","""event"",""trial"",""time""
""fullscreenenter"",""0"",""9376""
","
",408.8,,,,,,,,49,"1,1,0",6,blank,301,null,0.62943138,0.2730399,0.076068828,1,,,,,,,,,
,html-keyboard-response,163,471775,0.0-90.0-1.0,"""event"",""trial"",""time""
""fullscreenenter"",""0"",""9376""
","
","
","""event"",""trial"",""time""
""fullscreenenter"",""0"",""9376""
","
",null,<p></p>,null,,,,,,,,,,,,,,,,,,,,,,,,
,do_trial,164,474661,0.0-91.0-0.0,"""event"",""trial"",""time""
""fullscreenenter"",""0"",""9376""
","
","
","""event"",""trial"",""time""
""fullscreenenter"",""0"",""9376""
","
",342.2,,,,,,,,49,"1,1,0",6,blank,302,null,0.610270562,0.274194784,0.101194405,1,,,,,,,,,
,html-keyboard-response,165,475663,0.0-91.0-1.0,"""event"",""trial"",""time""
""fullscreenenter"",""0"",""9376""
","
","
","""event"",""trial"",""time""
""fullscreenenter"",""0"",""9376""
","
",null,<p></p>,null,,,,,,,,,,,,,,,,,,,,,,,,
,do_trial,166,478537,0.0-92.0-0.0,"""event"",""trial"",""time""
""fullscreenenter"",""0"",""9376""
","
","
","""event"",""trial"",""time""
""fullscreenenter"",""0"",""9376""
","
",331.6,,,,,,,,49,"0,1,0",6,blank,303,null,0.582636733,0.182763372,0.103524646,0,,,,,,,,,
,html-keyboard-response,167,479544,0.0-92.0-1.0,"""event"",""trial"",""time""
""fullscreenenter"",""0"",""9376""
","
","
","""event"",""trial"",""time""
""fullscreenenter"",""0"",""9376""
","
",null,<p></p>,null,,,,,,,,,,,,,,,,,,,,,,,,
,do_trial,168,482338,0.0-93.0-0.0,"""event"",""trial"",""time""
""fullscreenenter"",""0"",""9376""
","
","
","""event"",""trial"",""time""
""fullscreenenter"",""0"",""9376""
","
",252.6,,,,,,,,51,"1,0,0",6,blank,304,null,0.680835173,0.33889764,0.079882055,0,,,,,,,,,
,html-keyboard-response,169,483339,0.0-93.0-1.0,"""event"",""trial"",""time""
""fullscreenenter"",""0"",""9376""
","
","
","""event"",""trial"",""time""
""fullscreenenter"",""0"",""9376""
","
",null,<p></p>,null,,,,,,,,,,,,,,,,,,,,,,,,
,do_recog,170,485572,0.0-94.0-0.0,"""event"",""trial"",""time""
""fullscreenenter"",""0"",""9376""
","
","
","""event"",""trial"",""time""
""fullscreenenter"",""0"",""9376""
","
",722.5,,,,,,,,53,,,,305,probe-176,,,,,1,[object Object],151,3,1,,,,
,html-keyboard-response,171,486576,0.0-94.0-1.0,"""event"",""trial"",""time""
""fullscreenenter"",""0"",""9376""
","
","
","""event"",""trial"",""time""
""fullscreenenter"",""0"",""9376""
","
",null,<p></p>,null,,,,,,,,,,,,,,,,,,,,,,,,
,do_trial,172,489528,0.0-95.0-0.0,"""event"",""trial"",""time""
""fullscreenenter"",""0"",""9376""
","
","
","""event"",""trial"",""time""
""fullscreenenter"",""0"",""9376""
","
",411.8,,,,,,,,50,"1,0,0",6,blank,306,null,0.610879471,0.347732838,0.196837997,0,,,,,,,,,
,html-keyboard-response,173,490533,0.0-95.0-1.0,"""event"",""trial"",""time""
""fullscreenenter"",""0"",""9376""
","
","
","""event"",""trial"",""time""
""fullscreenenter"",""0"",""9376""
","
",null,<p></p>,null,,,,,,,,,,,,,,,,,,,,,,,,
,do_recog,174,492760,0.0-96.0-0.0,"""event"",""trial"",""time""
""fullscreenenter"",""0"",""9376""
","
","
","""event"",""trial"",""time""
""fullscreenenter"",""0"",""9376""
","
",721.7,,,,,,,,53,,,,307,probe-252,,,,,0,[object Object],null,null,0,,,,
,html-keyboard-response,175,493764,0.0-96.0-1.0,"""event"",""trial"",""time""
""fullscreenenter"",""0"",""9376""
","
","
","""event"",""trial"",""time""
""fullscreenenter"",""0"",""9376""
","
",null,<p></p>,null,,,,,,,,,,,,,,,,,,,,,,,,
,do_trial,176,496660,0.0-97.0-0.0,"""event"",""trial"",""time""
""fullscreenenter"",""0"",""9376""
","
","
","""event"",""trial"",""time""
""fullscreenenter"",""0"",""9376""
","
",349.4,,,,,,,,49,"0,0,0",6,blank,308,null,0.751108268,0.346803366,0.122342201,0,,,,,,,,,
,html-keyboard-response,177,497665,0.0-97.0-1.0,"""event"",""trial"",""time""
""fullscreenenter"",""0"",""9376""
","
","
","""event"",""trial"",""time""
""fullscreenenter"",""0"",""9376""
","
",null,<p></p>,null,,,,,,,,,,,,,,,,,,,,,,,,
,break,178,499058,0.0-98.0-0.0,"""event"",""trial"",""time""
""fullscreenenter"",""0"",""9376""
","
","
","""event"",""trial"",""time""
""fullscreenenter"",""0"",""9376""
","
",1392.6,"<div class='center'><p>Time to take a quick break! You have 2 minutes to rest, but you can move on sooner if you'd like.</p><p> Press the <b>space bar</b> to continue.</p></div>",32,,,,,,,,,,,,,,,,,,,,,,,,
,do_trial,179,503399,0.0-98.0-1.0,"""event"",""trial"",""time""
""fullscreenenter"",""0"",""9376""
","
","
","""event"",""trial"",""time""
""fullscreenenter"",""0"",""9376""
","
",1800.5,,,,,,,,50,"1,0,0",6,blank,309,null,0.684973753,0.383216802,0.146909137,0,,,,,,,,,
,html-keyboard-response,180,504406,0.0-98.0-2.0,"""event"",""trial"",""time""
""fullscreenenter"",""0"",""9376""
","
","
","""event"",""trial"",""time""
""fullscreenenter"",""0"",""9376""
","
",null,<p></p>,null,,,,,,,,,,,,,,,,,,,,,,,,
,do_recog,181,506584,0.0-99.0-0.0,"""event"",""trial"",""time""
""fullscreenenter"",""0"",""9376""
","
","
","""event"",""trial"",""time""
""fullscreenenter"",""0"",""9376""
","
",673.2,,,,,,,,53,,,,310,probe-41,,,,,1,[object Object],193,4,1,,,,
,html-keyboard-response,182,507587,0.0-99.0-1.0,"""event"",""trial"",""time""
""fullscreenenter"",""0"",""9376""
","
","
","""event"",""trial"",""time""
""fullscreenenter"",""0"",""9376""
","
",null,<p></p>,null,,,,,,,,,,,,,,,,,,,,,,,,
,do_trial,183,510523,0.0-100.0-0.0,"""event"",""trial"",""time""
""fullscreenenter"",""0"",""9376""
","
","
","""event"",""trial"",""time""
""fullscreenenter"",""0"",""9376""
","
",391.8,,,,,,,,51,"0,0,1",6,blank,311,null,0.572995795,0.294409716,0.148304742,1,,,,,,,,,
,html-keyboard-response,184,511525,0.0-100.0-1.0,"""event"",""trial"",""time""
""fullscreenenter"",""0"",""9376""
","
","
","""event"",""trial"",""time""
""fullscreenenter"",""0"",""9376""
","
",null,<p></p>,null,,,,,,,,,,,,,,,,,,,,,,,,
,do_trial,185,514467,0.0-101.0-0.0,"""event"",""trial"",""time""
""fullscreenenter"",""0"",""9376""
","
","
","""event"",""trial"",""time""
""fullscreenenter"",""0"",""9376""
","
",398.9,,,,,,,,51,"0,1,0",6,blank,312,null,0.726456917,0.361173614,0.079477007,0,,,,,,,,,
,html-keyboard-response,186,515474,0.0-101.0-1.0,"""event"",""trial"",""time""
""fullscreenenter"",""0"",""9376""
","
","
","""event"",""trial"",""time""
""fullscreenenter"",""0"",""9376""
","
",null,<p></p>,null,,,,,,,,,,,,,,,,,,,,,,,,
,do_trial,187,518359,0.0-102.0-0.0,"""event"",""trial"",""time""
""fullscreenenter"",""0"",""9376""
","
","
","""event"",""trial"",""time""
""fullscreenenter"",""0"",""9376""
","
",344.7,,,,,,,,49,"1,1,0",6,blank,313,null,0.776862842,0.440664423,0.129829223,1,,,,,,,,,
,html-keyboard-response,188,519366,0.0-102.0-1.0,"""event"",""trial"",""time""
""fullscreenenter"",""0"",""9376""
","
","
","""event"",""trial"",""time""
""fullscreenenter"",""0"",""9376""
","
",null,<p></p>,null,,,,,,,,,,,,,,,,,,,,,,,,
,do_trial,189,522256,0.0-103.0-0.0,"""event"",""trial"",""time""
""fullscreenenter"",""0"",""9376""
","
","
","""event"",""trial"",""time""
""fullscreenenter"",""0"",""9376""
","
",349.4,,,,,,,,49,"0,0,0",6,blank,314,null,0.754510789,0.399505263,0.150503761,0,,,,,,,,,
,html-keyboard-response,190,523260,0.0-103.0-1.0,"""event"",""trial"",""time""
""fullscreenenter"",""0"",""9376""
","
","
","""event"",""trial"",""time""
""fullscreenenter"",""0"",""9376""
","
",null,<p></p>,null,,,,,,,,,,,,,,,,,,,,,,,,
,do_trial,191,526070,0.0-104.0-0.0,"""event"",""trial"",""time""
""fullscreenenter"",""0"",""9376""
","
","
","""event"",""trial"",""time""
""fullscreenenter"",""0"",""9376""
","
",269.8,,,,,,,,50,"1,0,0",6,blank,315,null,0.746694089,0.393007345,0.244621888,0,,,,,,,,,
,html-keyboard-response,192,527071,0.0-104.0-1.0,"""event"",""trial"",""time""
""fullscreenenter"",""0"",""9376""
","
","
","""event"",""trial"",""time""
""fullscreenenter"",""0"",""9376""
","
",null,<p></p>,null,,,,,,,,,,,,,,,,,,,,,,,,
,do_recog,193,529371,0.0-105.0-0.0,"""event"",""trial"",""time""
""fullscreenenter"",""0"",""9376""
","
","
","""event"",""trial"",""time""
""fullscreenenter"",""0"",""9376""
","
",789.4,,,,,,,,53,,,,316,probe-78,,,,,1,[object Object],153,3,1,,,,
,html-keyboard-response,194,530375,0.0-105.0-1.0,"""event"",""trial"",""time""
""fullscreenenter"",""0"",""9376""
","
","
","""event"",""trial"",""time""
""fullscreenenter"",""0"",""9376""
","
",null,<p></p>,null,,,,,,,,,,,,,,,,,,,,,,,,
,do_trial,195,533383,0.0-106.0-0.0,"""event"",""trial"",""time""
""fullscreenenter"",""0"",""9376""
","
","
","""event"",""trial"",""time""
""fullscreenenter"",""0"",""9376""
","
",467.8,,,,,,,,50,"1,0,1",6,blank,317,null,0.620185744,0.35597037,0.289722391,0,,,,,,,,,
,html-keyboard-response,196,534389,0.0-106.0-1.0,"""event"",""trial"",""time""
""fullscreenenter"",""0"",""9376""
","
","
","""event"",""trial"",""time""
""fullscreenenter"",""0"",""9376""
","
",null,<p></p>,null,,,,,,,,,,,,,,,,,,,,,,,,
,do_recog,197,536530,0.0-107.0-0.0,"""event"",""trial"",""time""
""fullscreenenter"",""0"",""9376""
","
","
","""event"",""trial"",""time""
""fullscreenenter"",""0"",""9376""
","
",631.2,,,,,,,,53,,,,318,probe-202,,,,,1,[object Object],32,0,1,,,,
,html-keyboard-response,198,537535,0.0-107.0-1.0,"""event"",""trial"",""time""
""fullscreenenter"",""0"",""9376""
","
","
","""event"",""trial"",""time""
""fullscreenenter"",""0"",""9376""
","
",null,<p></p>,null,,,,,,,,,,,,,,,,,,,,,,,,
,do_trial,199,540470,0.0-108.0-0.0,"""event"",""trial"",""time""
""fullscreenenter"",""0"",""9376""
","
","
","""event"",""trial"",""time""
""fullscreenenter"",""0"",""9376""
","
",397.7,,,,,,,,51,"1,0,0",6,blank,319,null,0.667773138,0.403872145,0.100342601,0,,,,,,,,,
,html-keyboard-response,200,541475,0.0-108.0-1.0,"""event"",""trial"",""time""
""fullscreenenter"",""0"",""9376""
","
","
","""event"",""trial"",""time""
""fullscreenenter"",""0"",""9376""
","
",null,<p></p>,null,,,,,,,,,,,,,,,,,,,,,,,,
,do_trial,201,544319,0.0-109.0-0.0,"""event"",""trial"",""time""
""fullscreenenter"",""0"",""9376""
","
","
","""event"",""trial"",""time""
""fullscreenenter"",""0"",""9376""
","
",302.9,,,,,,,,49,"0,0,0",6,blank,320,null,0.731836839,0.346506521,0.059824907,0,,,,,,,,,
,html-keyboard-response,202,545323,0.0-109.0-1.0,"""event"",""trial"",""time""
""fullscreenenter"",""0"",""9376""
","
","
","""event"",""trial"",""time""
""fullscreenenter"",""0"",""9376""
","
",null,<p></p>,null,,,,,,,,,,,,,,,,,,,,,,,,
,do_trial,203,548157,0.0-110.0-0.0,"""event"",""trial"",""time""
""fullscreenenter"",""0"",""9376""
","
","
","""event"",""trial"",""time""
""fullscreenenter"",""0"",""9376""
","
",293.5,,,,,,,,50,"1,1,0",6,blank,321,null,0.594879132,0.441914828,0.058242861,1,,,,,,,,,
,html-keyboard-response,204,549161,0.0-110.0-1.0,"""event"",""trial"",""time""
""fullscreenenter"",""0"",""9376""
","
","
","""event"",""trial"",""time""
""fullscreenenter"",""0"",""9376""
","
",null,<p></p>,null,,,,,,,,,,,,,,,,,,,,,,,,
,do_recog,205,551357,0.0-111.0-0.0,"""event"",""trial"",""time""
""fullscreenenter"",""0"",""9376""
","
","
","""event"",""trial"",""time""
""fullscreenenter"",""0"",""9376""
","
",691.1,,,,,,,,53,,,,322,probe-53,,,,,1,[object Object],114,2,1,,,,
,html-keyboard-response,206,552363,0.0-111.0-1.0,"""event"",""trial"",""time""
""fullscreenenter"",""0"",""9376""
","
","
","""event"",""trial"",""time""
""fullscreenenter"",""0"",""9376""
","
",null,<p></p>,null,,,,,,,,,,,,,,,,,,,,,,,,
,do_trial,207,555360,0.0-112.0-0.0,"""event"",""trial"",""time""
""fullscreenenter"",""0"",""9376""
","
","
","""event"",""trial"",""time""
""fullscreenenter"",""0"",""9376""
","
",457.2,,,,,,,,49,"1,1,0",6,blank,323,null,0.546433627,0.411659084,0.069535694,1,,,,,,,,,
,html-keyboard-response,208,556363,0.0-112.0-1.0,"""event"",""trial"",""time""
""fullscreenenter"",""0"",""9376""
","
","
","""event"",""trial"",""time""
""fullscreenenter"",""0"",""9376""
","
",null,<p></p>,null,,,,,,,,,,,,,,,,,,,,,,,,
,do_trial,209,559277,0.0-113.0-0.0,"""event"",""trial"",""time""
""fullscreenenter"",""0"",""9376""
","
","
","""event"",""trial"",""time""
""fullscreenenter"",""0"",""9376""
","
",373.9,,,,,,,,49,"1,0,0",6,blank,324,null,0.64140255,0.460031641,0.110766128,1,,,,,,,,,
,html-keyboard-response,210,560282,0.0-113.0-1.0,"""event"",""trial"",""time""
""fullscreenenter"",""0"",""9376""
","
","
","""event"",""trial"",""time""
""fullscreenenter"",""0"",""9376""
","
",null,<p></p>,null,,,,,,,,,,,,,,,,,,,,,,,,
,do_recog,211,562322,0.0-114.0-0.0,"""event"",""trial"",""time""
""fullscreenenter"",""0"",""9376""
","
","
","""event"",""trial"",""time""
""fullscreenenter"",""0"",""9376""
","
",530.3,,,,,,,,53,,,,325,probe-107,,,,,1,[object Object],79,1,1,,,,
,html-keyboard-response,212,563324,0.0-114.0-1.0,"""event"",""trial"",""time""
""fullscreenenter"",""0"",""9376""
","
","
","""event"",""trial"",""time""
""fullscreenenter"",""0"",""9376""
","
",null,<p></p>,null,,,,,,,,,,,,,,,,,,,,,,,,
,do_trial,213,566305,0.0-115.0-0.0,"""event"",""trial"",""time""
""fullscreenenter"",""0"",""9376""
","
","
","""event"",""trial"",""time""
""fullscreenenter"",""0"",""9376""
","
",441.6,,,,,,,,49,"1,1,0",6,blank,326,null,0.734204002,0.418427441,0.187775874,1,,,,,,,,,
,html-keyboard-response,214,567311,0.0-115.0-1.0,"""event"",""trial"",""time""
""fullscreenenter"",""0"",""9376""
","
","
","""event"",""trial"",""time""
""fullscreenenter"",""0"",""9376""
","
",null,<p></p>,null,,,,,,,,,,,,,,,,,,,,,,,,
,do_recog,215,569799,0.0-116.0-0.0,"""event"",""trial"",""time""
""fullscreenenter"",""0"",""9376""
","
","
","""event"",""trial"",""time""
""fullscreenenter"",""0"",""9376""
","
",979,,,,,,,,53,,,,327,probe-25,,,,,1,[object Object],192,4,1,,,,
,html-keyboard-response,216,570804,0.0-116.0-1.0,"""event"",""trial"",""time""
""fullscreenenter"",""0"",""9376""
","
","
","""event"",""trial"",""time""
""fullscreenenter"",""0"",""9376""
","
",null,<p></p>,null,,,,,,,,,,,,,,,,,,,,,,,,
,do_trial,217,573802,0.0-117.0-0.0,"""event"",""trial"",""time""
""fullscreenenter"",""0"",""9376""
","
","
","""event"",""trial"",""time""
""fullscreenenter"",""0"",""9376""
","
",453.5,,,,,,,,49,"1,0,0",6,blank,328,null,0.619449826,0.434972977,0.210828514,1,,,,,,,,,
,html-keyboard-response,218,574808,0.0-117.0-1.0,"""event"",""trial"",""time""
""fullscreenenter"",""0"",""9376""
","
","
","""event"",""trial"",""time""
""fullscreenenter"",""0"",""9376""
","
",null,<p></p>,null,,,,,,,,,,,,,,,,,,,,,,,,
,do_recog,219,576977,0.0-118.0-0.0,"""event"",""trial"",""time""
""fullscreenenter"",""0"",""9376""
","
","
","""event"",""trial"",""time""
""fullscreenenter"",""0"",""9376""
","
",658.2,,,,,,,,53,,,,329,probe-50,,,,,1,[object Object],115,2,1,,,,
,html-keyboard-response,220,577982,0.0-118.0-1.0,"""event"",""trial"",""time""
""fullscreenenter"",""0"",""9376""
","
","
","""event"",""trial"",""time""
""fullscreenenter"",""0"",""9376""
","
",null,<p></p>,null,,,,,,,,,,,,,,,,,,,,,,,,
,do_trial,221,580921,0.0-119.0-0.0,"""event"",""trial"",""time""
""fullscreenenter"",""0"",""9376""
","
","
","""event"",""trial"",""time""
""fullscreenenter"",""0"",""9376""
","
",394.8,,,,,,,,49,"0,1,0",6,blank,330,null,0.480114664,0.258044214,0.298479611,0,,,,,,,,,
,html-keyboard-response,222,581927,0.0-119.0-1.0,"""event"",""trial"",""time""
""fullscreenenter"",""0"",""9376""
","
","
","""event"",""trial"",""time""
""fullscreenenter"",""0"",""9376""
","
",null,<p></p>,null,,,,,,,,,,,,,,,,,,,,,,,,
,do_trial,223,584759,0.0-120.0-0.0,"""event"",""trial"",""time""
""fullscreenenter"",""0"",""9376""
","
","
","""event"",""trial"",""time""
""fullscreenenter"",""0"",""9376""
","
",290.6,,,,,,,,50,"1,0,0",6,blank,331,null,0.60230509,0.16216471,0.082800449,0,,,,,,,,,
,html-keyboard-response,224,585762,0.0-120.0-1.0,"""event"",""trial"",""time""
""fullscreenenter"",""0"",""9376""
","
","
","""event"",""trial"",""time""
""fullscreenenter"",""0"",""9376""
","
",null,<p></p>,null,,,,,,,,,,,,,,,,,,,,,,,,
,do_trial,225,588560,0.0-121.0-0.0,"""event"",""trial"",""time""
""fullscreenenter"",""0"",""9376""
","
","
","""event"",""trial"",""time""
""fullscreenenter"",""0"",""9376""
","
",254.7,,,,,,,,51,"1,0,0",6,blank,332,null,0.606469248,0.25274714,0.087420793,0,,,,,,,,,
,html-keyboard-response,226,589567,0.0-121.0-1.0,"""event"",""trial"",""time""
""fullscreenenter"",""0"",""9376""
","
","
","""event"",""trial"",""time""
""fullscreenenter"",""0"",""9376""
","
",null,<p></p>,null,,,,,,,,,,,,,,,,,,,,,,,,
,do_trial,227,592328,0.0-122.0-0.0,"""event"",""trial"",""time""
""fullscreenenter"",""0"",""9376""
","
","
","""event"",""trial"",""time""
""fullscreenenter"",""0"",""9376""
","
",217.4,,,,,,,,49,"1,1,0",6,blank,333,null,0.685152924,0.37100775,0.058685756,1,,,,,,,,,
,html-keyboard-response,228,593333,0.0-122.0-1.0,"""event"",""trial"",""time""
""fullscreenenter"",""0"",""9376""
","
","
","""event"",""trial"",""time""
""fullscreenenter"",""0"",""9376""
","
",null,<p></p>,null,,,,,,,,,,,,,,,,,,,,,,,,
,do_trial,229,596113,0.0-123.0-0.0,"""event"",""trial"",""time""
""fullscreenenter"",""0"",""9376""
","
","
","""event"",""trial"",""time""
""fullscreenenter"",""0"",""9376""
","
",235.9,,,,,,,,50,"1,1,0",6,blank,334,null,0.788797939,0.385639354,0.073363809,1,,,,,,,,,
,html-keyboard-response,230,597117,0.0-123.0-1.0,"""event"",""trial"",""time""
""fullscreenenter"",""0"",""9376""
","
","
","""event"",""trial"",""time""
""fullscreenenter"",""0"",""9376""
","
",null,<p></p>,null,,,,,,,,,,,,,,,,,,,,,,,,
,do_recog,231,599232,0.0-124.0-0.0,"""event"",""trial"",""time""
""fullscreenenter"",""0"",""9376""
","
","
","""event"",""trial"",""time""
""fullscreenenter"",""0"",""9376""
","
",604.3,,,,,,,,53,,,,335,probe-76,,,,,1,[object Object],39,0,1,,,,
,html-keyboard-response,232,600237,0.0-124.0-1.0,"""event"",""trial"",""time""
""fullscreenenter"",""0"",""9376""
","
","
","""event"",""trial"",""time""
""fullscreenenter"",""0"",""9376""
","
",null,<p></p>,null,,,,,,,,,,,,,,,,,,,,,,,,
,do_trial,233,603248,0.0-125.0-0.0,"""event"",""trial"",""time""
""fullscreenenter"",""0"",""9376""
","
","
","""event"",""trial"",""time""
""fullscreenenter"",""0"",""9376""
","
",468.2,,,,,,,,49,"1,0,0",6,blank,336,null,0.692737018,0.307691115,0.099753893,1,,,,,,,,,
,html-keyboard-response,234,604252,0.0-125.0-1.0,"""event"",""trial"",""time""
""fullscreenenter"",""0"",""9376""
","
","
","""event"",""trial"",""time""
""fullscreenenter"",""0"",""9376""
","
",null,<p></p>,null,,,,,,,,,,,,,,,,,,,,,,,,
,do_recog,235,606542,0.0-126.0-0.0,"""event"",""trial"",""time""
""fullscreenenter"",""0"",""9376""
","
","
","""event"",""trial"",""time""
""fullscreenenter"",""0"",""9376""
","
",781.2,,,,,,,,53,,,,337,probe-149,,,,,1,[object Object],194,4,1,,,,
,html-keyboard-response,236,607547,0.0-126.0-1.0,"""event"",""trial"",""time""
""fullscreenenter"",""0"",""9376""
","
","
","""event"",""trial"",""time""
""fullscreenenter"",""0"",""9376""
","
",null,<p></p>,null,,,,,,,,,,,,,,,,,,,,,,,,
,do_trial,237,610520,0.0-127.0-0.0,"""event"",""trial"",""time""
""fullscreenenter"",""0"",""9376""
","
","
","""event"",""trial"",""time""
""fullscreenenter"",""0"",""9376""
","
",428.6,,,,,,,,49,"1,1,0",6,blank,338,null,0.596042447,0.452638826,0.127987095,1,,,,,,,,,
,html-keyboard-response,238,611522,0.0-127.0-1.0,"""event"",""trial"",""time""
""fullscreenenter"",""0"",""9376""
","
","
","""event"",""trial"",""time""
""fullscreenenter"",""0"",""9376""
","
",null,<p></p>,null,,,,,,,,,,,,,,,,,,,,,,,,
,do_recog,239,613629,0.0-128.0-0.0,"""event"",""trial"",""time""
""fullscreenenter"",""0"",""9376""
","
","
","""event"",""trial"",""time""
""fullscreenenter"",""0"",""9376""
","
",599.3,,,,,,,,53,,,,339,probe-89,,,,,1,[object Object],191,4,1,,,,
,html-keyboard-response,240,614634,0.0-128.0-1.0,"""event"",""trial"",""time""
""fullscreenenter"",""0"",""9376""
","
","
","""event"",""trial"",""time""
""fullscreenenter"",""0"",""9376""
","
",null,<p></p>,null,,,,,,,,,,,,,,,,,,,,,,,,
,do_trial,241,617575,0.0-129.0-0.0,"""event"",""trial"",""time""
""fullscreenenter"",""0"",""9376""
","
","
","""event"",""trial"",""time""
""fullscreenenter"",""0"",""9376""
","
",397.8,,,,,,,,49,"0,0,0",6,blank,340,null,0.553147872,0.311576538,0.100764003,0,,,,,,,,,
,html-keyboard-response,242,618580,0.0-129.0-1.0,"""event"",""trial"",""time""
""fullscreenenter"",""0"",""9376""
","
","
","""event"",""trial"",""time""
""fullscreenenter"",""0"",""9376""
","
",null,<p></p>,null,,,,,,,,,,,,,,,,,,,,,,,,
,do_trial,243,621483,0.0-130.0-0.0,"""event"",""trial"",""time""
""fullscreenenter"",""0"",""9376""
","
","
","""event"",""trial"",""time""
""fullscreenenter"",""0"",""9376""
","
",368.3,,,,,,,,51,"1,0,0",6,blank,341,null,0.425201569,0.398616605,0.057142022,0,,,,,,,,,
,html-keyboard-response,244,622487,0.0-130.0-1.0,"""event"",""trial"",""time""
""fullscreenenter"",""0"",""9376""
","
","
","""event"",""trial"",""time""
""fullscreenenter"",""0"",""9376""
","
",null,<p></p>,null,,,,,,,,,,,,,,,,,,,,,,,,
,do_trial,245,625398,0.0-131.0-0.0,"""event"",""trial"",""time""
""fullscreenenter"",""0"",""9376""
","
","
","""event"",""trial"",""time""
""fullscreenenter"",""0"",""9376""
","
",366.5,,,,,,,,49,"0,0,0",6,blank,342,null,0.51825106,0.46851764,0.072148042,0,,,,,,,,,
,html-keyboard-response,246,626402,0.0-131.0-1.0,"""event"",""trial"",""time""
""fullscreenenter"",""0"",""9376""
","
","
","""event"",""trial"",""time""
""fullscreenenter"",""0"",""9376""
","
",null,<p></p>,null,,,,,,,,,,,,,,,,,,,,,,,,
,do_trial,247,629254,0.0-132.0-0.0,"""event"",""trial"",""time""
""fullscreenenter"",""0"",""9376""
","
","
","""event"",""trial"",""time""
""fullscreenenter"",""0"",""9376""
","
",311,,,,,,,,50,"0,0,0",6,blank,343,null,0.493823257,0.398383055,0.127564392,0,,,,,,,,,
,html-keyboard-response,248,630256,0.0-132.0-1.0,"""event"",""trial"",""time""
""fullscreenenter"",""0"",""9376""
","
","
","""event"",""trial"",""time""
""fullscreenenter"",""0"",""9376""
","
",null,<p></p>,null,,,,,,,,,,,,,,,,,,,,,,,,
,do_trial,249,633176,0.0-133.0-0.0,"""event"",""trial"",""time""
""fullscreenenter"",""0"",""9376""
","
","
","""event"",""trial"",""time""
""fullscreenenter"",""0"",""9376""
","
",375.6,,,,,,,,49,"1,0,0",6,blank,344,null,0.401109596,0.3966515,0.09188387,1,,,,,,,,,
,html-keyboard-response,250,634182,0.0-133.0-1.0,"""event"",""trial"",""time""
""fullscreenenter"",""0"",""9376""
","
","
","""event"",""trial"",""time""
""fullscreenenter"",""0"",""9376""
","
",null,<p></p>,null,,,,,,,,,,,,,,,,,,,,,,,,
,do_trial,251,637284,0.0-134.0-0.0,"""event"",""trial"",""time""
""fullscreenenter"",""0"",""9376""
","
","
","""event"",""trial"",""time""
""fullscreenenter"",""0"",""9376""
","
",561.3,,,,,,,,51,"0,1,0",6,blank,345,null,0.557288243,0.309947726,0.05546517,0,,,,,,,,,
,html-keyboard-response,252,638289,0.0-134.0-1.0,"""event"",""trial"",""time""
""fullscreenenter"",""0"",""9376""
","
","
","""event"",""trial"",""time""
""fullscreenenter"",""0"",""9376""
","
",null,<p></p>,null,,,,,,,,,,,,,,,,,,,,,,,,
,do_recog,253,640604,0.0-135.0-0.0,"""event"",""trial"",""time""
""fullscreenenter"",""0"",""9376""
","
","
","""event"",""trial"",""time""
""fullscreenenter"",""0"",""9376""
","
",807.9,,,,,,,,53,,,,346,probe-114,,,,,1,[object Object],111,2,1,,,,
,html-keyboard-response,254,641608,0.0-135.0-1.0,"""event"",""trial"",""time""
""fullscreenenter"",""0"",""9376""
","
","
","""event"",""trial"",""time""
""fullscreenenter"",""0"",""9376""
","
",null,<p></p>,null,,,,,,,,,,,,,,,,,,,,,,,,
,do_trial,255,644810,0.0-136.0-0.0,"""event"",""trial"",""time""
""fullscreenenter"",""0"",""9376""
","
","
","""event"",""trial"",""time""
""fullscreenenter"",""0"",""9376""
","
",661.9,,,,,,,,49,"1,0,0",6,blank,347,null,0.631847339,0.240218789,0.114023912,1,,,,,,,,,
,html-keyboard-response,256,645817,0.0-136.0-1.0,"""event"",""trial"",""time""
""fullscreenenter"",""0"",""9376""
","
","
","""event"",""trial"",""time""
""fullscreenenter"",""0"",""9376""
","
",null,<p></p>,null,,,,,,,,,,,,,,,,,,,,,,,,
,do_recog,257,648831,0.0-137.0-0.0,"""event"",""trial"",""time""
""fullscreenenter"",""0"",""9376""
","
","
","""event"",""trial"",""time""
""fullscreenenter"",""0"",""9376""
","
",1508.7,,,,,,,,53,,,,348,probe-120,,,,,1,[object Object],197,4,1,,,,
,html-keyboard-response,258,649833,0.0-137.0-1.0,"""event"",""trial"",""time""
""fullscreenenter"",""0"",""9376""
","
","
","""event"",""trial"",""time""
""fullscreenenter"",""0"",""9376""
","
",null,<p></p>,null,,,,,,,,,,,,,,,,,,,,,,,,
,break,259,653842,0.0-138.0-0.0,"""event"",""trial"",""time""
""fullscreenenter"",""0"",""9376""
","
","
","""event"",""trial"",""time""
""fullscreenenter"",""0"",""9376""
","
",4008.6,"<div class='center'><p>Time to take a quick break! You have 2 minutes to rest, but you can move on sooner if you'd like.</p><p> Press the <b>space bar</b> to continue.</p></div>",32,,,,,,,,,,,,,,,,,,,,,,,,
,do_trial,260,657508,0.0-138.0-1.0,"""event"",""trial"",""time""
""fullscreenenter"",""0"",""9376""
","
","
","""event"",""trial"",""time""
""fullscreenenter"",""0"",""9376""
","
",1124.6,,,,,,,,49,"0,0,0",6,blank,349,null,0.564203764,0.228031888,0.271052243,0,,,,,,,,,
,html-keyboard-response,261,658515,0.0-138.0-2.0,"""event"",""trial"",""time""
""fullscreenenter"",""0"",""9376""
","
","
","""event"",""trial"",""time""
""fullscreenenter"",""0"",""9376""
","
",null,<p></p>,null,,,,,,,,,,,,,,,,,,,,,,,,
,do_trial,262,661384,0.0-139.0-0.0,"""event"",""trial"",""time""
""fullscreenenter"",""0"",""9376""
","
","
","""event"",""trial"",""time""
""fullscreenenter"",""0"",""9376""
","
",329.7,,,,,,,,51,"0,1,0",6,blank,350,null,0.497817369,0.067435549,0.472570444,0,,,,,,,,,
,html-keyboard-response,263,662388,0.0-139.0-1.0,"""event"",""trial"",""time""
""fullscreenenter"",""0"",""9376""
","
","
","""event"",""trial"",""time""
""fullscreenenter"",""0"",""9376""
","
",null,<p></p>,null,,,,,,,,,,,,,,,,,,,,,,,,
,do_trial,264,665271,0.0-140.0-0.0,"""event"",""trial"",""time""
""fullscreenenter"",""0"",""9376""
","
","
","""event"",""trial"",""time""
""fullscreenenter"",""0"",""9376""
","
",343.7,,,,,,,,50,"1,0,1",6,blank,351,null,0.536205851,0.17847485,0.454648832,0,,,,,,,,,
,html-keyboard-response,265,666277,0.0-140.0-1.0,"""event"",""trial"",""time""
""fullscreenenter"",""0"",""9376""
","
","
","""event"",""trial"",""time""
""fullscreenenter"",""0"",""9376""
","
",null,<p></p>,null,,,,,,,,,,,,,,,,,,,,,,,,
,do_recog,266,668978,0.0-141.0-0.0,"""event"",""trial"",""time""
""fullscreenenter"",""0"",""9376""
","
","
","""event"",""trial"",""time""
""fullscreenenter"",""0"",""9376""
","
",1192.9,,,,,,,,53,,,,352,probe-251,,,,,0,[object Object],null,null,0,,,,
,html-keyboard-response,267,669985,0.0-141.0-1.0,"""event"",""trial"",""time""
""fullscreenenter"",""0"",""9376""
","
","
","""event"",""trial"",""time""
""fullscreenenter"",""0"",""9376""
","
",null,<p></p>,null,,,,,,,,,,,,,,,,,,,,,,,,
,do_trial,268,672906,0.0-142.0-0.0,"""event"",""trial"",""time""
""fullscreenenter"",""0"",""9376""
","
","
","""event"",""trial"",""time""
""fullscreenenter"",""0"",""9376""
","
",379,,,,,,,,51,"0,0,0",6,blank,353,null,0.46363958,0.108921407,0.393589066,0,,,,,,,,,
,html-keyboard-response,269,673911,0.0-142.0-1.0,"""event"",""trial"",""time""
""fullscreenenter"",""0"",""9376""
","
","
","""event"",""trial"",""time""
""fullscreenenter"",""0"",""9376""
","
",null,<p></p>,null,,,,,,,,,,,,,,,,,,,,,,,,
,do_trial,270,676800,0.0-143.0-0.0,"""event"",""trial"",""time""
""fullscreenenter"",""0"",""9376""
","
","
","""event"",""trial"",""time""
""fullscreenenter"",""0"",""9376""
","
",348,,,,,,,,50,"1,0,0",6,blank,354,null,0.378362033,0.068637949,0.38826902,0,,,,,,,,,
,html-keyboard-response,271,677807,0.0-143.0-1.0,"""event"",""trial"",""time""
""fullscreenenter"",""0"",""9376""
","
","
","""event"",""trial"",""time""
""fullscreenenter"",""0"",""9376""
","
",null,<p></p>,null,,,,,,,,,,,,,,,,,,,,,,,,
,do_trial,272,680711,0.0-144.0-0.0,"""event"",""trial"",""time""
""fullscreenenter"",""0"",""9376""
","
","
","""event"",""trial"",""time""
""fullscreenenter"",""0"",""9376""
","
",364.6,,,,,,,,49,"0,0,1",6,blank,355,null,0.447235409,0.221431251,0.502834721,0,,,,,,,,,
,html-keyboard-response,273,681715,0.0-144.0-1.0,"""event"",""trial"",""time""
""fullscreenenter"",""0"",""9376""
","
","
","""event"",""trial"",""time""
""fullscreenenter"",""0"",""9376""
","
",null,<p></p>,null,,,,,,,,,,,,,,,,,,,,,,,,
,do_recog,274,684167,0.0-145.0-0.0,"""event"",""trial"",""time""
""fullscreenenter"",""0"",""9376""
","
","
","""event"",""trial"",""time""
""fullscreenenter"",""0"",""9376""
","
",946,,,,,,,,53,,,,356,probe-209,,,,,1,[object Object],30,0,1,,,,
,html-keyboard-response,275,685172,0.0-145.0-1.0,"""event"",""trial"",""time""
""fullscreenenter"",""0"",""9376""
","
","
","""event"",""trial"",""time""
""fullscreenenter"",""0"",""9376""
","
",null,<p></p>,null,,,,,,,,,,,,,,,,,,,,,,,,
,do_trial,276,688569,0.0-146.0-0.0,"""event"",""trial"",""time""
""fullscreenenter"",""0"",""9376""
","
","
","""event"",""trial"",""time""
""fullscreenenter"",""0"",""9376""
","
",854.9,,,,,,,,51,"1,1,0",6,blank,357,null,0.429753424,0.327657513,0.37354531,0,,,,,,,,,
,html-keyboard-response,277,689573,0.0-146.0-1.0,"""event"",""trial"",""time""
""fullscreenenter"",""0"",""9376""
","
","
","""event"",""trial"",""time""
""fullscreenenter"",""0"",""9376""
","
",null,<p></p>,null,,,,,,,,,,,,,,,,,,,,,,,,
,do_recog,278,691601,0.0-147.0-0.0,"""event"",""trial"",""time""
""fullscreenenter"",""0"",""9376""
","
","
","""event"",""trial"",""time""
""fullscreenenter"",""0"",""9376""
","
",520.1,,,,,,,,53,,,,358,probe-60,,,,,1,[object Object],35,0,1,,,,
,html-keyboard-response,279,692604,0.0-147.0-1.0,"""event"",""trial"",""time""
""fullscreenenter"",""0"",""9376""
","
","
","""event"",""trial"",""time""
""fullscreenenter"",""0"",""9376""
","
",null,<p></p>,null,,,,,,,,,,,,,,,,,,,,,,,,
,do_trial,280,695871,0.0-148.0-0.0,"""event"",""trial"",""time""
""fullscreenenter"",""0"",""9376""
","
","
","""event"",""trial"",""time""
""fullscreenenter"",""0"",""9376""
","
",725,,,,,,,,49,"0,1,1",6,blank,359,null,0.256953833,0.220650312,0.506513478,0,,,,,,,,,
,html-keyboard-response,281,696874,0.0-148.0-1.0,"""event"",""trial"",""time""
""fullscreenenter"",""0"",""9376""
","
","
","""event"",""trial"",""time""
""fullscreenenter"",""0"",""9376""
","
",null,<p></p>,null,,,,,,,,,,,,,,,,,,,,,,,,
,do_trial,282,699792,0.0-149.0-0.0,"""event"",""trial"",""time""
""fullscreenenter"",""0"",""9376""
","
","
","""event"",""trial"",""time""
""fullscreenenter"",""0"",""9376""
","
",376.5,,,,,,,,50,"0,0,0",6,blank,360,null,0.4411604,0.13133722,0.599106216,0,,,,,,,,,
,html-keyboard-response,283,700799,0.0-149.0-1.0,"""event"",""trial"",""time""
""fullscreenenter"",""0"",""9376""
","
","
","""event"",""trial"",""time""
""fullscreenenter"",""0"",""9376""
","
",null,<p></p>,null,,,,,,,,,,,,,,,,,,,,,,,,
,do_trial,284,703706,0.0-150.0-0.0,"""event"",""trial"",""time""
""fullscreenenter"",""0"",""9376""
","
","
","""event"",""trial"",""time""
""fullscreenenter"",""0"",""9376""
","
",363.3,,,,,,,,51,"0,0,0",6,blank,361,null,0.452648142,0.056067801,0.629892969,0,,,,,,,,,
,html-keyboard-response,285,704712,0.0-150.0-1.0,"""event"",""trial"",""time""
""fullscreenenter"",""0"",""9376""
","
","
","""event"",""trial"",""time""
""fullscreenenter"",""0"",""9376""
","
",null,<p></p>,null,,,,,,,,,,,,,,,,,,,,,,,,
,do_trial,286,707638,0.0-151.0-0.0,"""event"",""trial"",""time""
""fullscreenenter"",""0"",""9376""
","
","
","""event"",""trial"",""time""
""fullscreenenter"",""0"",""9376""
","
",387.2,,,,,,,,49,"0,0,1",6,blank,362,null,0.40579061,0.070990986,0.677665882,0,,,,,,,,,
,html-keyboard-response,287,708643,0.0-151.0-1.0,"""event"",""trial"",""time""
""fullscreenenter"",""0"",""9376""
","
","
","""event"",""trial"",""time""
""fullscreenenter"",""0"",""9376""
","
",null,<p></p>,null,,,,,,,,,,,,,,,,,,,,,,,,
,do_recog,288,710830,0.0-152.0-0.0,"""event"",""trial"",""time""
""fullscreenenter"",""0"",""9376""
","
","
","""event"",""trial"",""time""
""fullscreenenter"",""0"",""9376""
","
",680.8,,,,,,,,53,,,,363,probe-194,,,,,1,[object Object],76,1,1,,,,
,html-keyboard-response,289,711835,0.0-152.0-1.0,"""event"",""trial"",""time""
""fullscreenenter"",""0"",""9376""
","
","
","""event"",""trial"",""time""
""fullscreenenter"",""0"",""9376""
","
",null,<p></p>,null,,,,,,,,,,,,,,,,,,,,,,,,
,do_trial,290,714858,0.0-153.0-0.0,"""event"",""trial"",""time""
""fullscreenenter"",""0"",""9376""
","
","
","""event"",""trial"",""time""
""fullscreenenter"",""0"",""9376""
","
",479.8,,,,,,,,51,"1,0,0",6,blank,364,null,0.151742715,0.063795501,0.599195233,0,,,,,,,,,
,html-keyboard-response,291,715865,0.0-153.0-1.0,"""event"",""trial"",""time""
""fullscreenenter"",""0"",""9376""
","
","
","""event"",""trial"",""time""
""fullscreenenter"",""0"",""9376""
","
",null,<p></p>,null,,,,,,,,,,,,,,,,,,,,,,,,
,do_recog,292,718009,0.0-154.0-0.0,"""event"",""trial"",""time""
""fullscreenenter"",""0"",""9376""
","
","
","""event"",""trial"",""time""
""fullscreenenter"",""0"",""9376""
","
",635,,,,,,,,53,,,,365,probe-141,,,,,1,[object Object],155,3,1,,,,
,html-keyboard-response,293,719016,0.0-154.0-1.0,"""event"",""trial"",""time""
""fullscreenenter"",""0"",""9376""
","
","
","""event"",""trial"",""time""
""fullscreenenter"",""0"",""9376""
","
",null,<p></p>,null,,,,,,,,,,,,,,,,,,,,,,,,
,do_trial,294,722133,0.0-155.0-0.0,"""event"",""trial"",""time""
""fullscreenenter"",""0"",""9376""
","
","
","""event"",""trial"",""time""
""fullscreenenter"",""0"",""9376""
","
",573.5,,,,,,,,49,"0,0,1",6,blank,366,null,0.313279003,0.072628731,0.548939507,0,,,,,,,,,
,html-keyboard-response,295,723137,0.0-155.0-1.0,"""event"",""trial"",""time""
""fullscreenenter"",""0"",""9376""
","
","
","""event"",""trial"",""time""
""fullscreenenter"",""0"",""9376""
","
",null,<p></p>,null,,,,,,,,,,,,,,,,,,,,,,,,
,do_recog,296,725177,0.0-156.0-0.0,"""event"",""trial"",""time""
""fullscreenenter"",""0"",""9376""
","
","
","""event"",""trial"",""time""
""fullscreenenter"",""0"",""9376""
","
",531.3,,,,,,,,53,,,,367,probe-74,,,,,1,[object Object],152,3,1,,,,
,html-keyboard-response,297,726182,0.0-156.0-1.0,"""event"",""trial"",""time""
""fullscreenenter"",""0"",""9376""
","
","
","""event"",""trial"",""time""
""fullscreenenter"",""0"",""9376""
","
",null,<p></p>,null,,,,,,,,,,,,,,,,,,,,,,,,
,do_trial,298,729092,0.0-157.0-0.0,"""event"",""trial"",""time""
""fullscreenenter"",""0"",""9376""
","
","
","""event"",""trial"",""time""
""fullscreenenter"",""0"",""9376""
","
",371.1,,,,,,,,51,"0,0,1",6,blank,368,null,0.272319398,0.112460869,0.701824705,1,,,,,,,,,
,html-keyboard-response,299,730096,0.0-157.0-1.0,"""event"",""trial"",""time""
""fullscreenenter"",""0"",""9376""
","
","
","""event"",""trial"",""time""
""fullscreenenter"",""0"",""9376""
","
",null,<p></p>,null,,,,,,,,,,,,,,,,,,,,,,,,
,do_trial,300,733127,0.0-158.0-0.0,"""event"",""trial"",""time""
""fullscreenenter"",""0"",""9376""
","
","
","""event"",""trial"",""time""
""fullscreenenter"",""0"",""9376""
","
",493.7,,,,,,,,50,"0,0,1",6,blank,369,null,0.306564074,0.069598019,0.632289614,0,,,,,,,,,
,html-keyboard-response,301,734132,0.0-158.0-1.0,"""event"",""trial"",""time""
""fullscreenenter"",""0"",""9376""
","
","
","""event"",""trial"",""time""
""fullscreenenter"",""0"",""9376""
","
",null,<p></p>,null,,,,,,,,,,,,,,,,,,,,,,,,
,do_trial,302,737018,0.0-159.0-0.0,"""event"",""trial"",""time""
""fullscreenenter"",""0"",""9376""
","
","
","""event"",""trial"",""time""
""fullscreenenter"",""0"",""9376""
","
",341.9,,,,,,,,51,"0,0,1",6,blank,370,null,0.29281182,0.07938471,0.67848765,1,,,,,,,,,
,html-keyboard-response,303,738024,0.0-159.0-1.0,"""event"",""trial"",""time""
""fullscreenenter"",""0"",""9376""
","
","
","""event"",""trial"",""time""
""fullscreenenter"",""0"",""9376""
","
",null,<p></p>,null,,,,,,,,,,,,,,,,,,,,,,,,
,do_trial,304,740917,0.0-160.0-0.0,"""event"",""trial"",""time""
""fullscreenenter"",""0"",""9376""
","
","
","""event"",""trial"",""time""
""fullscreenenter"",""0"",""9376""
","
",352.7,,,,,,,,49,"0,0,1",6,blank,371,null,0.115327921,0.098431425,0.656110182,0,,,,,,,,,
,html-keyboard-response,305,741919,0.0-160.0-1.0,"""event"",""trial"",""time""
""fullscreenenter"",""0"",""9376""
","
","
","""event"",""trial"",""time""
""fullscreenenter"",""0"",""9376""
","
",null,<p></p>,null,,,,,,,,,,,,,,,,,,,,,,,,
,do_trial,306,744729,0.0-161.0-0.0,"""event"",""trial"",""time""
""fullscreenenter"",""0"",""9376""
","
","
","""event"",""trial"",""time""
""fullscreenenter"",""0"",""9376""
","
",266,,,,,,,,51,"0,0,0",6,blank,372,null,0.21451866,0.05458603,0.536573655,0,,,,,,,,,
,html-keyboard-response,307,745736,0.0-161.0-1.0,"""event"",""trial"",""time""
""fullscreenenter"",""0"",""9376""
","
","
","""event"",""trial"",""time""
""fullscreenenter"",""0"",""9376""
","
",null,<p></p>,null,,,,,,,,,,,,,,,,,,,,,,,,
,do_trial,308,748661,0.0-162.0-0.0,"""event"",""trial"",""time""
""fullscreenenter"",""0"",""9376""
","
","
","""event"",""trial"",""time""
""fullscreenenter"",""0"",""9376""
","
",386.1,,,,,,,,50,"0,0,1",6,blank,373,null,0.263445616,0.142702155,0.595545368,0,,,,,,,,,
,html-keyboard-response,309,749667,0.0-162.0-1.0,"""event"",""trial"",""time""
""fullscreenenter"",""0"",""9376""
","
","
","""event"",""trial"",""time""
""fullscreenenter"",""0"",""9376""
","
",null,<p></p>,null,,,,,,,,,,,,,,,,,,,,,,,,
,do_recog,310,751796,0.0-163.0-0.0,"""event"",""trial"",""time""
""fullscreenenter"",""0"",""9376""
","
","
","""event"",""trial"",""time""
""fullscreenenter"",""0"",""9376""
","
",623.4,,,,,,,,53,,,,374,probe-133,,,,,1,[object Object],113,2,1,,,,
,html-keyboard-response,311,752800,0.0-163.0-1.0,"""event"",""trial"",""time""
""fullscreenenter"",""0"",""9376""
","
","
","""event"",""trial"",""time""
""fullscreenenter"",""0"",""9376""
","
",null,<p></p>,null,,,,,,,,,,,,,,,,,,,,,,,,
,do_trial,312,755830,0.0-164.0-0.0,"""event"",""trial"",""time""
""fullscreenenter"",""0"",""9376""
","
","
","""event"",""trial"",""time""
""fullscreenenter"",""0"",""9376""
","
",487.9,,,,,,,,51,"0,0,1",6,blank,375,null,0.254165583,0.111706496,0.486056524,1,,,,,,,,,
,html-keyboard-response,313,756837,0.0-164.0-1.0,"""event"",""trial"",""time""
""fullscreenenter"",""0"",""9376""
","
","
","""event"",""trial"",""time""
""fullscreenenter"",""0"",""9376""
","
",null,<p></p>,null,,,,,,,,,,,,,,,,,,,,,,,,
,do_trial,314,759777,0.0-165.0-0.0,"""event"",""trial"",""time""
""fullscreenenter"",""0"",""9376""
","
","
","""event"",""trial"",""time""
""fullscreenenter"",""0"",""9376""
","
",397.2,,,,,,,,50,"0,0,1",6,blank,376,null,0.192481902,0.063994286,0.487358473,0,,,,,,,,,
,html-keyboard-response,315,760779,0.0-165.0-1.0,"""event"",""trial"",""time""
""fullscreenenter"",""0"",""9376""
","
","
","""event"",""trial"",""time""
""fullscreenenter"",""0"",""9376""
","
",null,<p></p>,null,,,,,,,,,,,,,,,,,,,,,,,,
,do_trial,316,763617,0.0-166.0-0.0,"""event"",""trial"",""time""
""fullscreenenter"",""0"",""9376""
","
","
","""event"",""trial"",""time""
""fullscreenenter"",""0"",""9376""
","
",297.3,,,,,,,,51,"0,0,1",6,blank,377,null,0.181500558,0.092668156,0.553611691,1,,,,,,,,,
,html-keyboard-response,317,764621,0.0-166.0-1.0,"""event"",""trial"",""time""
""fullscreenenter"",""0"",""9376""
","
","
","""event"",""trial"",""time""
""fullscreenenter"",""0"",""9376""
","
",null,<p></p>,null,,,,,,,,,,,,,,,,,,,,,,,,
,do_trial,318,767444,0.0-167.0-0.0,"""event"",""trial"",""time""
""fullscreenenter"",""0"",""9376""
","
","
","""event"",""trial"",""time""
""fullscreenenter"",""0"",""9376""
","
",283.6,,,,,,,,50,"0,0,1",6,blank,378,null,0.380282736,0.097112463,0.734181408,0,,,,,,,,,
,html-keyboard-response,319,768447,0.0-167.0-1.0,"""event"",""trial"",""time""
""fullscreenenter"",""0"",""9376""
","
","
","""event"",""trial"",""time""
""fullscreenenter"",""0"",""9376""
","
",null,<p></p>,null,,,,,,,,,,,,,,,,,,,,,,,,
,do_trial,320,771311,0.0-168.0-0.0,"""event"",""trial"",""time""
""fullscreenenter"",""0"",""9376""
","
","
","""event"",""trial"",""time""
""fullscreenenter"",""0"",""9376""
","
",321.1,,,,,,,,51,"0,0,0",6,blank,379,null,0.329083263,0.076766891,0.644806341,0,,,,,,,,,
,html-keyboard-response,321,772318,0.0-168.0-1.0,"""event"",""trial"",""time""
""fullscreenenter"",""0"",""9376""
","
","
","""event"",""trial"",""time""
""fullscreenenter"",""0"",""9376""
","
",null,<p></p>,null,,,,,,,,,,,,,,,,,,,,,,,,
,do_trial,322,775142,0.0-169.0-0.0,"""event"",""trial"",""time""
""fullscreenenter"",""0"",""9376""
","
","
","""event"",""trial"",""time""
""fullscreenenter"",""0"",""9376""
","
",281.9,,,,,,,,49,"1,0,0",6,blank,380,null,0.369418912,0.150816309,0.626478065,1,,,,,,,,,
,html-keyboard-response,323,776147,0.0-169.0-1.0,"""event"",""trial"",""time""
""fullscreenenter"",""0"",""9376""
","
","
","""event"",""trial"",""time""
""fullscreenenter"",""0"",""9376""
","
",null,<p></p>,null,,,,,,,,,,,,,,,,,,,,,,,,
,do_trial,324,779019,0.0-170.0-0.0,"""event"",""trial"",""time""
""fullscreenenter"",""0"",""9376""
","
","
","""event"",""trial"",""time""
""fullscreenenter"",""0"",""9376""
","
",333.1,,,,,,,,51,"1,0,1",6,blank,381,null,0.517625096,0.208081778,0.625226598,1,,,,,,,,,
,html-keyboard-response,325,780024,0.0-170.0-1.0,"""event"",""trial"",""time""
""fullscreenenter"",""0"",""9376""
","
","
","""event"",""trial"",""time""
""fullscreenenter"",""0"",""9376""
","
",null,<p></p>,null,,,,,,,,,,,,,,,,,,,,,,,,
,do_recog,326,782406,0.0-171.0-0.0,"""event"",""trial"",""time""
""fullscreenenter"",""0"",""9376""
","
","
","""event"",""trial"",""time""
""fullscreenenter"",""0"",""9376""
","
",874.7,,,,,,,,53,,,,382,probe-101,,,,,1,[object Object],36,0,1,,,,
,html-keyboard-response,327,783411,0.0-171.0-1.0,"""event"",""trial"",""time""
""fullscreenenter"",""0"",""9376""
","
","
","""event"",""trial"",""time""
""fullscreenenter"",""0"",""9376""
","
",null,<p></p>,null,,,,,,,,,,,,,,,,,,,,,,,,
,do_trial,328,787468,0.0-172.0-0.0,"""event"",""trial"",""time""
""fullscreenenter"",""0"",""9376""
","
","
","""event"",""trial"",""time""
""fullscreenenter"",""0"",""9376""
","
",1516.8,,,,,,,,49,"0,0,0",6,blank,383,null,0.517356869,0.233238047,0.54439883,0,,,,,,,,,
,html-keyboard-response,329,788470,0.0-172.0-1.0,"""event"",""trial"",""time""
""fullscreenenter"",""0"",""9376""
","
","
","""event"",""trial"",""time""
""fullscreenenter"",""0"",""9376""
","
",null,<p></p>,null,,,,,,,,,,,,,,,,,,,,,,,,
,do_trial,330,791320,0.0-173.0-0.0,"""event"",""trial"",""time""
""fullscreenenter"",""0"",""9376""
","
","
","""event"",""trial"",""time""
""fullscreenenter"",""0"",""9376""
","
",305.9,,,,,,,,51,"0,0,0",6,blank,384,null,0.371389648,0.076334828,0.61528517,0,,,,,,,,,
,html-keyboard-response,331,792323,0.0-173.0-1.0,"""event"",""trial"",""time""
""fullscreenenter"",""0"",""9376""
","
","
","""event"",""trial"",""time""
""fullscreenenter"",""0"",""9376""
","
",null,<p></p>,null,,,,,,,,,,,,,,,,,,,,,,,,
,do_trial,332,795327,0.0-174.0-0.0,"""event"",""trial"",""time""
""fullscreenenter"",""0"",""9376""
","
","
","""event"",""trial"",""time""
""fullscreenenter"",""0"",""9376""
","
",460.8,,,,,,,,50,"0,0,1",6,blank,385,null,0.214781987,0.162824637,0.809806674,0,,,,,,,,,
,html-keyboard-response,333,796333,0.0-174.0-1.0,"""event"",""trial"",""time""
""fullscreenenter"",""0"",""9376""
","
","
","""event"",""trial"",""time""
""fullscreenenter"",""0"",""9376""
","
",null,<p></p>,null,,,,,,,,,,,,,,,,,,,,,,,,
,do_trial,334,799170,0.0-175.0-0.0,"""event"",""trial"",""time""
""fullscreenenter"",""0"",""9376""
","
","
","""event"",""trial"",""time""
""fullscreenenter"",""0"",""9376""
","
",297.6,,,,,,,,49,"1,0,1",6,blank,386,null,0.27466721,0.09543063,0.844354412,1,,,,,,,,,
,html-keyboard-response,335,800175,0.0-175.0-1.0,"""event"",""trial"",""time""
""fullscreenenter"",""0"",""9376""
","
","
","""event"",""trial"",""time""
""fullscreenenter"",""0"",""9376""
","
",null,<p></p>,null,,,,,,,,,,,,,,,,,,,,,,,,
,do_trial,336,803259,0.0-176.0-0.0,"""event"",""trial"",""time""
""fullscreenenter"",""0"",""9376""
","
","
","""event"",""trial"",""time""
""fullscreenenter"",""0"",""9376""
","
",544.1,,,,,,,,51,"1,0,1",6,blank,387,null,0.305044503,0.127228705,0.79135822,1,,,,,,,,,
,html-keyboard-response,337,804263,0.0-176.0-1.0,"""event"",""trial"",""time""
""fullscreenenter"",""0"",""9376""
","
","
","""event"",""trial"",""time""
""fullscreenenter"",""0"",""9376""
","
",null,<p></p>,null,,,,,,,,,,,,,,,,,,,,,,,,
,do_recog,338,806562,0.0-177.0-0.0,"""event"",""trial"",""time""
""fullscreenenter"",""0"",""9376""
","
","
","""event"",""trial"",""time""
""fullscreenenter"",""0"",""9376""
","
",794,,,,,,,,53,,,,388,probe-155,,,,,1,[object Object],116,2,1,,,,
,html-keyboard-response,339,807567,0.0-177.0-1.0,"""event"",""trial"",""time""
""fullscreenenter"",""0"",""9376""
","
","
","""event"",""trial"",""time""
""fullscreenenter"",""0"",""9376""
","
",null,<p></p>,null,,,,,,,,,,,,,,,,,,,,,,,,
,break,340,808590,0.0-178.0-0.0,"""event"",""trial"",""time""
""fullscreenenter"",""0"",""9376""
","
","
","""event"",""trial"",""time""
""fullscreenenter"",""0"",""9376""
","
",1021.6,"<div class='center'><p>Time to take a quick break! You have 2 minutes to rest, but you can move on sooner if you'd like.</p><p> Press the <b>space bar</b> to continue.</p></div>",32,,,,,,,,,,,,,,,,,,,,,,,,
,do_trial,341,812407,0.0-178.0-1.0,"""event"",""trial"",""time""
""fullscreenenter"",""0"",""9376""
","
","
","""event"",""trial"",""time""
""fullscreenenter"",""0"",""9376""
","
",1269.4,,,,,,,,49,"0,1,1",6,blank,389,null,0.406361242,0.329658213,0.79671563,0,,,,,,,,,
,html-keyboard-response,342,813410,0.0-178.0-2.0,"""event"",""trial"",""time""
""fullscreenenter"",""0"",""9376""
","
","
","""event"",""trial"",""time""
""fullscreenenter"",""0"",""9376""
","
",null,<p></p>,null,,,,,,,,,,,,,,,,,,,,,,,,
,do_recog,343,815541,0.0-179.0-0.0,"""event"",""trial"",""time""
""fullscreenenter"",""0"",""9376""
","
","
","""event"",""trial"",""time""
""fullscreenenter"",""0"",""9376""
","
",623,,,,,,,,53,,,,390,probe-146,,,,,1,[object Object],31,0,1,,,,
,html-keyboard-response,344,816547,0.0-179.0-1.0,"""event"",""trial"",""time""
""fullscreenenter"",""0"",""9376""
","
","
","""event"",""trial"",""time""
""fullscreenenter"",""0"",""9376""
","
",null,<p></p>,null,,,,,,,,,,,,,,,,,,,,,,,,
,do_trial,345,819524,0.0-180.0-0.0,"""event"",""trial"",""time""
""fullscreenenter"",""0"",""9376""
","
","
","""event"",""trial"",""time""
""fullscreenenter"",""0"",""9376""
","
",435.3,,,,,,,,51,"0,0,0",6,blank,391,null,0.406044707,0.217424271,0.763839288,0,,,,,,,,,
,html-keyboard-response,346,820530,0.0-180.0-1.0,"""event"",""trial"",""time""
""fullscreenenter"",""0"",""9376""
","
","
","""event"",""trial"",""time""
""fullscreenenter"",""0"",""9376""
","
",null,<p></p>,null,,,,,,,,,,,,,,,,,,,,,,,,
,do_recog,347,822611,0.0-181.0-0.0,"""event"",""trial"",""time""
""fullscreenenter"",""0"",""9376""
","
","
","""event"",""trial"",""time""
""fullscreenenter"",""0"",""9376""
","
",573.9,,,,,,,,53,,,,392,probe-113,,,,,1,[object Object],199,4,1,,,,
,html-keyboard-response,348,823615,0.0-181.0-1.0,"""event"",""trial"",""time""
""fullscreenenter"",""0"",""9376""
","
","
","""event"",""trial"",""time""
""fullscreenenter"",""0"",""9376""
","
",null,<p></p>,null,,,,,,,,,,,,,,,,,,,,,,,,
,do_trial,349,826607,0.0-182.0-0.0,"""event"",""trial"",""time""
""fullscreenenter"",""0"",""9376""
","
","
","""event"",""trial"",""time""
""fullscreenenter"",""0"",""9376""
","
",447.6,,,,,,,,49,"1,0,1",6,blank,393,null,0.323241839,0.155179452,0.802031014,1,,,,,,,,,
,html-keyboard-response,350,827611,0.0-182.0-1.0,"""event"",""trial"",""time""
""fullscreenenter"",""0"",""9376""
","
","
","""event"",""trial"",""time""
""fullscreenenter"",""0"",""9376""
","
",null,<p></p>,null,,,,,,,,,,,,,,,,,,,,,,,,
,do_trial,351,830539,0.0-183.0-0.0,"""event"",""trial"",""time""
""fullscreenenter"",""0"",""9376""
","
","
","""event"",""trial"",""time""
""fullscreenenter"",""0"",""9376""
","
",388.5,,,,,,,,51,"0,0,0",6,blank,394,null,0.270518813,0.189174411,0.740943088,0,,,,,,,,,
,html-keyboard-response,352,831543,0.0-183.0-1.0,"""event"",""trial"",""time""
""fullscreenenter"",""0"",""9376""
","
","
","""event"",""trial"",""time""
""fullscreenenter"",""0"",""9376""
","
",null,<p></p>,null,,,,,,,,,,,,,,,,,,,,,,,,
,do_recog,353,833763,0.0-184.0-0.0,"""event"",""trial"",""time""
""fullscreenenter"",""0"",""9376""
","
","
","""event"",""trial"",""time""
""fullscreenenter"",""0"",""9376""
","
",712.6,,,,,,,,53,,,,395,probe-11,,,,,1,[object Object],33,0,1,,,,
,html-keyboard-response,354,834766,0.0-184.0-1.0,"""event"",""trial"",""time""
""fullscreenenter"",""0"",""9376""
","
","
","""event"",""trial"",""time""
""fullscreenenter"",""0"",""9376""
","
",null,<p></p>,null,,,,,,,,,,,,,,,,,,,,,,,,
,do_trial,355,837710,0.0-185.0-0.0,"""event"",""trial"",""time""
""fullscreenenter"",""0"",""9376""
","
","
","""event"",""trial"",""time""
""fullscreenenter"",""0"",""9376""
","
",399.3,,,,,,,,49,"1,0,1",6,blank,396,null,0.178478154,0.095709724,0.709331706,1,,,,,,,,,
,html-keyboard-response,356,838717,0.0-185.0-1.0,"""event"",""trial"",""time""
""fullscreenenter"",""0"",""9376""
","
","
","""event"",""trial"",""time""
""fullscreenenter"",""0"",""9376""
","
",null,<p></p>,null,,,,,,,,,,,,,,,,,,,,,,,,
,do_trial,357,841638,0.0-186.0-0.0,"""event"",""trial"",""time""
""fullscreenenter"",""0"",""9376""
","
","
","""event"",""trial"",""time""
""fullscreenenter"",""0"",""9376""
","
",377.1,,,,,,,,50,"1,0,1",6,blank,397,null,0.302525203,0.061059354,0.726485283,0,,,,,,,,,
,html-keyboard-response,358,842643,0.0-186.0-1.0,"""event"",""trial"",""time""
""fullscreenenter"",""0"",""9376""
","
","
","""event"",""trial"",""time""
""fullscreenenter"",""0"",""9376""
","
",null,<p></p>,null,,,,,,,,,,,,,,,,,,,,,,,,
,do_trial,359,845494,0.0-187.0-0.0,"""event"",""trial"",""time""
