success,trial_type,trial_index,time_elapsed,internal_node_id,rt,stimulus,subject_id,key_press,response,choice_outcomes,context_n,context_img_id,trial_n,probe_img_id,pR_red,pR_white,pR_black,outcome,is_valid,image_to_show,probed_trial,probed_context,correct,context_id
TRUE,fullscreen,0,3112,0.0-0.0,,,,,,,,,,,,,,,,,,,,
,pavlovia,1,3121,0.0-1.0,,,,,,,,,,,,,,,,,,,,
,html-keyboard-response,2,4099,0.0-2.0,976,"<div class='center'><p>Like yesterday,as the head captain of the ship, you have one important things to do: </p><b><p> Pick the pirate who you think will be most successful at robbing the next ship.</p></b><p>This is important in determining how much bonus money you’ll win.</p><br><p>The game will start by showing you the pirates. First pick a pirate using the <b> 1, 2, 3 </b> buttons on your keyboard. </p><p> Press <b>'1'</b> to choose red beard, <b>'2'</b> to choose white beard, and <b>'3'</b> to choose black beard</p><p> You only have 3 seconds to pick a pirate, so please make a choice quickly! If you are too slow, you’ll have to wait a bit during the time out.</p><p> Don’t feel rushed, but please do try to make a choice every time.</p><p>How good a pirate is at robbing a ship will change depending on the place they are in and how good the defenses are of the ship.</p><p><b>[Press the space bar to begin the practice game]</b></p></div>",60ff05a47ab140b373c58f80,32,,,,,,,,,,,,,,,,
,html-keyboard-response,3,13202,0.0-3.0,9102,"<div class='center'><p>You’ve arrived at the final island of your journey! Unfortunately, it’s very foggy out, so you won’t be able to see it in the distance like the previous islands you've visited.</p><p>You’ll still be deciding which pirate you want to rob a ship like before. However, because of the fog, you also won’t be able to see the ship.</p><p>This means you do not have to remember the ships you rob on this island.</p><p><b>[Press the space bar to continue]</b></p></div>",,32,,,,,,,,,,,,,,,,
,html-keyboard-response,4,20793,0.0-4.0,7589,"<div class='center'><p> Sometimes you’ll be shown a ship, and you will be asked if you saw this ship on a past island.</p><p> Here is an example of what you will see.</p><p><b>[Press the space bar to continue]</b></p><p><img src='run_exp/static/images/tutorial/example_recog_trial.png' height='500'></p></div>",,32,,,,,,,,,,,,,,,,
,html-keyboard-response,5,28024,0.0-5.0,7229,"<div class='center'><p> You will press the 5, 6, 7, 8 buttons on your keyboard to respond.</p><p>If you are very sure saw the ship, press <b>5</b> on your keyboard.</p><p> If you think you  saw it before but are not sure, then press <b>6</b>.</p><p> If you think you have not seen it before but are not sure, then press <b>7</b>.</p><p> If you are sure you did not see the ship before, then press <b>8</b>.</p><p><b>[Press the space bar to continue]</b></p><p><img src='run_exp/static/images/tutorial/example_recog_trial.png' height='500'></p></div>",,32,,,,,,,,,,,,,,,,
,html-keyboard-response,6,36093,0.0-6.0,8066,"<div class='center'><p> If you remember correctly, then you’ll get a gold coin like this: </p><p><img src='run_exp/static/images/tutorial/reward_small.png' height='200'></p><p>If you do not remember correctly, then you'll see a red x like this: </p><p><img src='run_exp/static/images/tutorial/reward_no.png' height='200'></p><p>Importantly, when you are shown a ship, take the time to remind yourself which island you saw it on. This will help you in the next part of the study.</p><p><b>[Press the space bar to continue]</b></p></div>",,32,,,,,,,,,,,,,,,,
,html-keyboard-response,7,39573,0.0-7.0,3479,"<div class='center'><p>Let's go over the important points again. Your job is to: </p><p>1. Pick the pirate who is best at robbing ships and will bring you back gold coins. </p><p>2. Correctly remember whether or not you saw a ship before. If you did see the ship before, remind yourself on which island you saw the ship. </p><p><b>[Press the space bar to begin the next part of the study]</b></p></div>",,32,,,,,,,,,,,,,,,,
,do_welcome,8,41085,0.0-8.0,null,,,,null,,,,,,,,,,,,,,,
,do_trial,9,45892,0.0-9.0-0.0,2274,,,,49,"1,0,1",6,blank,230,null,0.57496369,0.174681117,0.337121783,1,,,,,,
,html-keyboard-response,10,46896,0.0-9.0-1.0,null,<p></p>,,null,,,,,,,,,,,,,,,,
,do_trial,11,50247,0.0-10.0-0.0,819,,,,50,"0,1,0",6,blank,231,null,0.589412495,0.253648269,0.33041224,1,,,,,,
,html-keyboard-response,12,51250,0.0-10.0-1.0,null,<p></p>,,null,,,,,,,,,,,,,,,,
,do_trial,13,54197,0.0-11.0-0.0,415,,,,51,"0,1,0",6,blank,232,null,0.60289645,0.230882332,0.401069031,0,,,,,,
,html-keyboard-response,14,55199,0.0-11.0-1.0,null,<p></p>,,null,,,,,,,,,,,,,,,,
,do_trial,15,58344,0.0-12.0-0.0,612,,,,49,"1,0,1",6,blank,233,null,0.645848698,0.102768143,0.297072048,1,,,,,,
,html-keyboard-response,16,59347,0.0-12.0-1.0,null,<p></p>,,null,,,,,,,,,,,,,,,,
,do_trial,17,62384,0.0-13.0-0.0,505,,,,49,"1,0,0",6,blank,234,null,0.71398774,0.091523499,0.221309335,1,,,,,,
,html-keyboard-response,18,63387,0.0-13.0-1.0,null,<p></p>,,null,,,,,,,,,,,,,,,,
,do_trial,19,66373,0.0-14.0-0.0,455,,,,49,"1,0,0",6,blank,235,null,0.698984302,0.211727131,0.357724922,1,,,,,,
,html-keyboard-response,20,67376,0.0-14.0-1.0,null,<p></p>,,null,,,,,,,,,,,,,,,,
,do_trial,21,70240,0.0-15.0-0.0,332,,,,49,"1,0,0",6,blank,236,null,0.702898536,0.133548076,0.395128785,1,,,,,,
,html-keyboard-response,22,71243,0.0-15.0-1.0,null,<p></p>,,null,,,,,,,,,,,,,,,,
,do_trial,23,74359,0.0-16.0-0.0,583,,,,49,"0,0,1",6,blank,237,null,0.619182793,0.218412622,0.424138639,0,,,,,,
,html-keyboard-response,24,75362,0.0-16.0-1.0,null,<p></p>,,null,,,,,,,,,,,,,,,,
,do_trial,25,78255,0.0-17.0-0.0,361,,,,50,"0,0,0",6,blank,238,null,0.448893217,0.185463152,0.297134156,0,,,,,,
,html-keyboard-response,26,79257,0.0-17.0-1.0,null,<p></p>,,null,,,,,,,,,,,,,,,,
,do_trial,27,82068,0.0-18.0-0.0,278,,,,49,"1,0,0",6,blank,239,null,0.657314217,0.087634066,0.187737408,1,,,,,,
,html-keyboard-response,28,83070,0.0-18.0-1.0,null,<p></p>,,null,,,,,,,,,,,,,,,,
,do_trial,29,86085,0.0-19.0-0.0,484,,,,49,"1,0,0",6,blank,240,null,0.727222956,0.062518919,0.330243731,1,,,,,,
,html-keyboard-response,30,87088,0.0-19.0-1.0,null,<p></p>,,null,,,,,,,,,,,,,,,,
,do_trial,31,89983,0.0-20.0-0.0,362,,,,49,"1,0,1",6,blank,241,null,0.764800438,0.121962548,0.24641157,1,,,,,,
,html-keyboard-response,32,90986,0.0-20.0-1.0,null,<p></p>,,null,,,,,,,,,,,,,,,,
,do_trial,33,93832,0.0-21.0-0.0,313,,,,49,"1,0,0",6,blank,242,null,0.690593287,0.131070392,0.286539163,1,,,,,,
,html-keyboard-response,34,94835,0.0-21.0-1.0,null,<p></p>,,null,,,,,,,,,,,,,,,,
,do_recog,35,100843,0.0-22.0-0.0,null,,,,null,,,,243,probe-121,,,,,1,[object Object],200,5,0,
,html-keyboard-response,36,101846,0.0-22.0-1.0,null,<p></p>,,null,,,,,,,,,,,,,,,,
,do_trial,37,105118,0.0-23.0-0.0,740,,,,49,"0,0,0",6,blank,244,null,0.46711133,0.281962533,0.513610109,0,,,,,,
,html-keyboard-response,38,106121,0.0-23.0-1.0,null,<p></p>,,null,,,,,,,,,,,,,,,,
,do_trial,39,108960,0.0-24.0-0.0,307,,,,50,"0,1,0",6,blank,245,null,0.263683231,0.266597356,0.511943901,1,,,,,,
,html-keyboard-response,40,109962,0.0-24.0-1.0,null,<p></p>,,null,,,,,,,,,,,,,,,,
,do_trial,41,112903,0.0-25.0-0.0,408,,,,51,"1,0,0",6,blank,246,null,0.215520804,0.128613544,0.515152206,0,,,,,,
,html-keyboard-response,42,113906,0.0-25.0-1.0,null,<p></p>,,null,,,,,,,,,,,,,,,,
,do_trial,43,116749,0.0-26.0-0.0,309,,,,50,"0,0,1",6,blank,247,null,0.152135205,0.263115333,0.590778997,0,,,,,,
,html-keyboard-response,44,117751,0.0-26.0-1.0,null,<p></p>,,null,,,,,,,,,,,,,,,,
,do_trial,45,120779,0.0-27.0-0.0,496,,,,49,"0,0,0",6,blank,248,null,0.112738581,0.295720681,0.493221103,0,,,,,,
,html-keyboard-response,46,121782,0.0-27.0-1.0,null,<p></p>,,null,,,,,,,,,,,,,,,,
,do_trial,47,124701,0.0-28.0-0.0,389,,,,50,"0,1,0",6,blank,249,null,0.070101577,0.310905537,0.673456216,1,,,,,,
,html-keyboard-response,48,125703,0.0-28.0-1.0,null,<p></p>,,null,,,,,,,,,,,,,,,,
,do_recog,49,129539,0.0-29.0-0.0,2329,,,,55,,,,250,probe-33,,,,,1,[object Object],129,3,0,
,html-keyboard-response,50,130541,0.0-29.0-1.0,null,<p></p>,,null,,,,,,,,,,,,,,,,
,do_trial,51,133739,0.0-30.0-0.0,667,,,,50,"0,1,1",6,blank,251,null,0.096183075,0.445384368,0.515394522,1,,,,,,
,html-keyboard-response,52,134741,0.0-30.0-1.0,null,<p></p>,,null,,,,,,,,,,,,,,,,
,do_recog,53,138262,0.0-31.0-0.0,2014,,,,53,,,,252,probe-190,,,,,1,[object Object],86,2,1,
,html-keyboard-response,54,139265,0.0-31.0-1.0,null,<p></p>,,null,,,,,,,,,,,,,,,,
,do_trial,55,143068,0.0-32.0-0.0,1272,,,,49,"0,0,1",6,blank,253,null,0.063092157,0.284059671,0.645121128,0,,,,,,
,html-keyboard-response,56,144070,0.0-32.0-1.0,null,<p></p>,,null,,,,,,,,,,,,,,,,
,do_recog,57,147470,0.0-33.0-0.0,1891,,,,53,,,,254,probe-125,,,,,1,[object Object],46,1,1,
,html-keyboard-response,58,148472,0.0-33.0-1.0,null,<p></p>,,null,,,,,,,,,,,,,,,,
,do_trial,59,151652,0.0-34.0-0.0,649,,,,50,"0,1,0",6,blank,255,null,0.062132932,0.215035626,0.546933958,1,,,,,,
,html-keyboard-response,60,152655,0.0-34.0-1.0,null,<p></p>,,null,,,,,,,,,,,,,,,,
,do_trial,61,155906,0.0-35.0-0.0,720,,,,49,"0,0,0",6,blank,256,null,0.104067431,0.375314982,0.486604938,0,,,,,,
,html-keyboard-response,62,156908,0.0-35.0-1.0,null,<p></p>,,null,,,,,,,,,,,,,,,,
,do_trial,63,160146,0.0-36.0-0.0,706,,,,50,"0,0,1",6,blank,257,null,0.062774207,0.320326084,0.476926688,0,,,,,,
,html-keyboard-response,64,161148,0.0-36.0-1.0,null,<p></p>,,null,,,,,,,,,,,,,,,,
,do_trial,65,164258,0.0-37.0-0.0,577,,,,49,"0,0,0",6,blank,258,null,0.118216915,0.293185368,0.510773325,0,,,,,,
,html-keyboard-response,66,165260,0.0-37.0-1.0,null,<p></p>,,null,,,,,,,,,,,,,,,,
,do_recog,67,169120,0.0-38.0-0.0,2352,,,,56,,,,259,probe-73,,,,,1,[object Object],123,3,0,
,html-keyboard-response,68,170123,0.0-38.0-1.0,null,<p></p>,,null,,,,,,,,,,,,,,,,
,do_trial,69,173375,0.0-39.0-0.0,720,,,,50,"0,1,1",6,blank,260,null,0.117965698,0.296739537,0.584718462,1,,,,,,
,html-keyboard-response,70,174377,0.0-39.0-1.0,null,<p></p>,,null,,,,,,,,,,,,,,,,
,do_trial,71,177314,0.0-40.0-0.0,403,,,,50,"1,1,0",6,blank,261,null,0.105184786,0.303360283,0.533677621,1,,,,,,
,html-keyboard-response,72,178316,0.0-40.0-1.0,null,<p></p>,,null,,,,,,,,,,,,,,,,
,do_trial,73,181267,0.0-41.0-0.0,421,,,,50,"1,1,1",6,blank,262,null,0.293750461,0.236293195,0.744161173,1,,,,,,
,html-keyboard-response,74,182270,0.0-41.0-1.0,null,<p></p>,,null,,,,,,,,,,,,,,,,
,do_trial,75,185354,0.0-42.0-0.0,554,,,,50,"0,0,1",6,blank,263,null,0.248588039,0.330356916,0.799600707,0,,,,,,
,html-keyboard-response,76,186356,0.0-42.0-1.0,null,<p></p>,,null,,,,,,,,,,,,,,,,
,do_recog,77,189436,0.0-43.0-0.0,1572,,,,53,,,,264,probe-138,,,,,1,[object Object],82,2,1,
,html-keyboard-response,78,190438,0.0-43.0-1.0,null,<p></p>,,null,,,,,,,,,,,,,,,,
,do_trial,79,193685,0.0-44.0-0.0,714,,,,49,"1,1,1",6,blank,265,null,0.244494518,0.301203873,0.719899745,1,,,,,,
,html-keyboard-response,80,194687,0.0-44.0-1.0,null,<p></p>,,null,,,,,,,,,,,,,,,,
,do_trial,81,197595,0.0-45.0-0.0,375,,,,50,"1,0,1",6,blank,266,null,0.142076929,0.272681146,0.667106598,0,,,,,,
,html-keyboard-response,82,198597,0.0-45.0-1.0,null,<p></p>,,null,,,,,,,,,,,,,,,,
,do_trial,83,201571,0.0-46.0-0.0,441,,,,50,"1,0,0",6,blank,267,null,0.343877309,0.166067494,0.540254767,0,,,,,,
,html-keyboard-response,84,202574,0.0-46.0-1.0,null,<p></p>,,null,,,,,,,,,,,,,,,,
,do_trial,85,205443,0.0-47.0-0.0,335,,,,49,"0,0,0",6,blank,268,null,0.137040905,0.056451564,0.583771257,0,,,,,,
,html-keyboard-response,86,206446,0.0-47.0-1.0,null,<p></p>,,null,,,,,,,,,,,,,,,,
,do_trial,87,209368,0.0-48.0-0.0,389,,,,50,"0,0,0",6,blank,269,null,0.099939258,0.217594357,0.615581583,0,,,,,,
,html-keyboard-response,88,210371,0.0-48.0-1.0,null,<p></p>,,null,,,,,,,,,,,,,,,,
,do_recog,89,213244,0.0-49.0-0.0,1366,,,,53,,,,270,probe-80,,,,,1,[object Object],42,1,1,
,html-keyboard-response,90,214247,0.0-49.0-1.0,null,<p></p>,,null,,,,,,,,,,,,,,,,
,do_trial,91,217442,0.0-50.0-0.0,665,,,,51,"0,0,1",6,blank,271,null,0.076050458,0.293969045,0.508033631,1,,,,,,
,html-keyboard-response,92,218445,0.0-50.0-1.0,null,<p></p>,,null,,,,,,,,,,,,,,,,
,do_recog,93,221580,0.0-51.0-0.0,1625,,,,53,,,,272,probe-95,,,,,1,[object Object],160,4,1,
,html-keyboard-response,94,222583,0.0-51.0-1.0,null,<p></p>,,null,,,,,,,,,,,,,,,,
,do_trial,95,225774,0.0-52.0-0.0,660,,,,49,"0,0,0",6,blank,273,null,0.075893172,0.292026258,0.554524057,0,,,,,,
,html-keyboard-response,96,226776,0.0-52.0-1.0,null,<p></p>,,null,,,,,,,,,,,,,,,,
,do_recog,97,229546,0.0-53.0-0.0,1263,,,,53,,,,274,probe-180,,,,,1,[object Object],88,2,1,
,html-keyboard-response,98,230549,0.0-53.0-1.0,null,<p></p>,,null,,,,,,,,,,,,,,,,
,do_trial,99,233640,0.0-54.0-0.0,561,,,,50,"0,1,0",6,blank,275,null,0.101880044,0.30544306,0.611092793,1,,,,,,
,html-keyboard-response,100,234643,0.0-54.0-1.0,null,<p></p>,,null,,,,,,,,,,,,,,,,
,do_recog,101,237826,0.0-55.0-0.0,1676,,,,53,,,,276,probe-85,,,,,1,[object Object],204,5,1,
,html-keyboard-response,102,238829,0.0-55.0-1.0,null,<p></p>,,null,,,,,,,,,,,,,,,,
,do_trial,103,241952,0.0-56.0-0.0,593,,,,51,"0,0,0",6,blank,277,null,0.093373317,0.248430222,0.62730736,0,,,,,,
,html-keyboard-response,104,242955,0.0-56.0-1.0,null,<p></p>,,null,,,,,,,,,,,,,,,,
,do_recog,105,245865,0.0-57.0-0.0,1403,,,,53,,,,278,probe-75,,,,,1,[object Object],127,3,1,
,html-keyboard-response,106,246866,0.0-57.0-1.0,null,<p></p>,,null,,,,,,,,,,,,,,,,
,do_trial,107,249907,0.0-58.0-0.0,512,,,,50,"0,1,0",6,blank,279,null,0.142973106,0.296929801,0.577737131,1,,,,,,
,html-keyboard-response,108,250910,0.0-58.0-1.0,null,<p></p>,,null,,,,,,,,,,,,,,,,
,do_trial,109,254029,0.0-59.0-0.0,589,,,,50,"0,0,0",6,blank,280,null,0.122089786,0.310910889,0.573526214,0,,,,,,
,html-keyboard-response,110,255032,0.0-59.0-1.0,null,<p></p>,,null,,,,,,,,,,,,,,,,
,do_trial,111,258061,0.0-60.0-0.0,497,,,,51,"0,0,1",6,blank,281,null,0.067520331,0.361698009,0.637095847,1,,,,,,
,html-keyboard-response,112,259064,0.0-60.0-1.0,null,<p></p>,,null,,,,,,,,,,,,,,,,
,do_recog,113,261696,0.0-61.0-0.0,1125,,,,53,,,,282,probe-92,,,,,1,[object Object],206,5,1,
,html-keyboard-response,114,262698,0.0-61.0-1.0,null,<p></p>,,null,,,,,,,,,,,,,,,,
,do_trial,115,265684,0.0-62.0-0.0,454,,,,49,"0,0,1",6,blank,283,null,0.09150601,0.244964302,0.685123377,0,,,,,,
,html-keyboard-response,116,266687,0.0-62.0-1.0,null,<p></p>,,null,,,,,,,,,,,,,,,,
,do_trial,117,269675,0.0-63.0-0.0,457,,,,50,"0,0,1",6,blank,284,null,0.129024975,0.137614209,0.595956759,0,,,,,,
,html-keyboard-response,118,270677,0.0-63.0-1.0,null,<p></p>,,null,,,,,,,,,,,,,,,,
,do_trial,119,273957,0.0-64.0-0.0,754,,,,51,"0,0,1",6,blank,285,null,0.072049785,0.133981351,0.626730491,1,,,,,,
,html-keyboard-response,120,274960,0.0-64.0-1.0,null,<p></p>,,null,,,,,,,,,,,,,,,,
,do_trial,121,278006,0.0-65.0-0.0,516,,,,51,"0,0,0",6,blank,286,null,0.102778067,0.214023189,0.676838139,0,,,,,,
,html-keyboard-response,122,279008,0.0-65.0-1.0,null,<p></p>,,null,,,,,,,,,,,,,,,,
,do_trial,123,282039,0.0-66.0-0.0,500,,,,50,"0,1,0",6,blank,287,null,0.141389731,0.150952354,0.67576846,1,,,,,,
,html-keyboard-response,124,283042,0.0-66.0-1.0,null,<p></p>,,null,,,,,,,,,,,,,,,,
,do_recog,125,286001,0.0-67.0-0.0,1452,,,,53,,,,288,probe-154,,,,,1,[object Object],128,3,1,
,html-keyboard-response,126,287003,0.0-67.0-1.0,null,<p></p>,,null,,,,,,,,,,,,,,,,
,do_trial,127,290191,0.0-68.0-0.0,656,,,,49,"0,0,1",6,blank,289,null,0.080752106,0.120502019,0.674942624,0,,,,,,
,html-keyboard-response,128,291193,0.0-68.0-1.0,null,<p></p>,,null,,,,,,,,,,,,,,,,
,do_recog,129,294610,0.0-69.0-0.0,1910,,,,53,,,,290,probe-148,,,,,1,[object Object],44,1,1,
,html-keyboard-response,130,295612,0.0-69.0-1.0,null,<p></p>,,null,,,,,,,,,,,,,,,,
,do_trial,131,299069,0.0-70.0-0.0,926,,,,51,"0,0,0",6,blank,291,null,0.096665746,0.326084106,0.696812616,0,,,,,,
,html-keyboard-response,132,300071,0.0-70.0-1.0,null,<p></p>,,null,,,,,,,,,,,,,,,,
,do_trial,133,303059,0.0-71.0-0.0,455,,,,50,"0,0,0",6,blank,292,null,0.093687968,0.330890561,0.724434886,0,,,,,,
,html-keyboard-response,134,304062,0.0-71.0-1.0,null,<p></p>,,null,,,,,,,,,,,,,,,,
,do_trial,135,306920,0.0-72.0-0.0,324,,,,49,"0,0,0",6,blank,293,null,0.102459183,0.349465671,0.789337049,0,,,,,,
,html-keyboard-response,136,307923,0.0-72.0-1.0,null,<p></p>,,null,,,,,,,,,,,,,,,,
,do_recog,137,310502,0.0-73.0-0.0,1073,,,,53,,,,294,probe-164,,,,,1,[object Object],167,4,1,
,html-keyboard-response,138,311505,0.0-73.0-1.0,null,<p></p>,,null,,,,,,,,,,,,,,,,
,do_trial,139,314584,0.0-74.0-0.0,549,,,,51,"0,1,0",6,blank,295,null,0.110371423,0.416717032,0.605531665,0,,,,,,
,html-keyboard-response,140,315587,0.0-74.0-1.0,null,<p></p>,,null,,,,,,,,,,,,,,,,
,do_trial,141,318542,0.0-75.0-0.0,425,,,,50,"0,1,1",6,blank,296,null,0.090353458,0.516190622,0.48638234,1,,,,,,
,html-keyboard-response,142,319544,0.0-75.0-1.0,null,<p></p>,,null,,,,,,,,,,,,,,,,
,do_trial,143,322931,0.0-76.0-0.0,857,,,,50,"0,1,0",6,blank,297,null,0.051280377,0.572198787,0.322865592,1,,,,,,
,html-keyboard-response,144,323934,0.0-76.0-1.0,null,<p></p>,,null,,,,,,,,,,,,,,,,
,do_trial,145,326833,0.0-77.0-0.0,368,,,,50,"0,0,1",6,blank,298,null,0.082099478,0.53671056,0.359650385,0,,,,,,
,html-keyboard-response,146,327836,0.0-77.0-1.0,null,<p></p>,,null,,,,,,,,,,,,,,,,
,do_trial,147,330823,0.0-78.0-0.0,457,,,,51,"0,0,0",6,blank,299,null,0.20349768,0.425081492,0.29584726,0,,,,,,
,html-keyboard-response,148,331826,0.0-78.0-1.0,null,<p></p>,,null,,,,,,,,,,,,,,,,
,do_trial,149,334704,0.0-79.0-0.0,349,,,,49,"0,1,0",6,blank,300,null,0.215218616,0.43652964,0.160051154,0,,,,,,
,html-keyboard-response,150,335707,0.0-79.0-1.0,null,<p></p>,,null,,,,,,,,,,,,,,,,
,do_recog,151,338748,0.0-80.0-0.0,1534,,,,53,,,,301,probe-161,,,,,1,[object Object],209,5,1,
,html-keyboard-response,152,339751,0.0-80.0-1.0,null,<p></p>,,null,,,,,,,,,,,,,,,,
,do_trial,153,343068,0.0-81.0-0.0,788,,,,49,"0,1,0",6,blank,302,null,0.1184219,0.571700429,0.139959598,0,,,,,,
,html-keyboard-response,154,344071,0.0-81.0-1.0,null,<p></p>,,null,,,,,,,,,,,,,,,,
,do_trial,155,347171,0.0-82.0-0.0,570,,,,51,"0,1,0",6,blank,303,null,0.131086811,0.584468941,0.091256117,0,,,,,,
,html-keyboard-response,156,348173,0.0-82.0-1.0,null,<p></p>,,null,,,,,,,,,,,,,,,,
,do_trial,157,351267,0.0-83.0-0.0,561,,,,50,"0,1,0",6,blank,304,null,0.274903503,0.653616177,0.071686216,1,,,,,,
,html-keyboard-response,158,352269,0.0-83.0-1.0,null,<p></p>,,null,,,,,,,,,,,,,,,,
,do_trial,159,355357,0.0-84.0-0.0,556,,,,50,"0,0,0",6,blank,305,null,0.226085323,0.508222022,0.190239459,0,,,,,,
,html-keyboard-response,160,356360,0.0-84.0-1.0,null,<p></p>,,null,,,,,,,,,,,,,,,,
,do_trial,161,359551,0.0-85.0-0.0,660,,,,51,"0,0,0",6,blank,306,null,0.272709844,0.579868611,0.130112131,0,,,,,,
,html-keyboard-response,162,360554,0.0-85.0-1.0,null,<p></p>,,null,,,,,,,,,,,,,,,,
,do_recog,163,363277,0.0-86.0-0.0,1215,,,,53,,,,307,probe-57,,,,,1,[object Object],83,2,1,
,html-keyboard-response,164,364279,0.0-86.0-1.0,null,<p></p>,,null,,,,,,,,,,,,,,,,
,do_trial,165,367268,0.0-87.0-0.0,458,,,,50,"1,1,0",6,blank,308,null,0.216158607,0.641557375,0.290619718,1,,,,,,
,html-keyboard-response,166,368271,0.0-87.0-1.0,null,<p></p>,,null,,,,,,,,,,,,,,,,
,do_trial,167,371299,0.0-88.0-0.0,497,,,,50,"0,1,0",6,blank,309,null,0.119018069,0.610013337,0.279473808,1,,,,,,
,html-keyboard-response,168,372301,0.0-88.0-1.0,null,<p></p>,,null,,,,,,,,,,,,,,,,
,do_recog,169,375063,0.0-89.0-0.0,1253,,,,53,,,,310,probe-119,,,,,1,[object Object],124,3,1,
,html-keyboard-response,170,376065,0.0-89.0-1.0,null,<p></p>,,null,,,,,,,,,,,,,,,,
,do_trial,171,379089,0.0-90.0-0.0,492,,,,50,"0,1,1",6,blank,311,null,0.093898376,0.649832649,0.527622127,1,,,,,,
,html-keyboard-response,172,380091,0.0-90.0-1.0,null,<p></p>,,null,,,,,,,,,,,,,,,,
,do_trial,173,383051,0.0-91.0-0.0,429,,,,51,"0,0,0",6,blank,312,null,0.199175285,0.656401038,0.359370945,0,,,,,,
,html-keyboard-response,174,384054,0.0-91.0-1.0,null,<p></p>,,null,,,,,,,,,,,,,,,,
,do_trial,175,386961,0.0-92.0-0.0,373,,,,50,"0,1,0",6,blank,313,null,0.109735985,0.656725629,0.312868815,1,,,,,,
,html-keyboard-response,176,387964,0.0-92.0-1.0,null,<p></p>,,null,,,,,,,,,,,,,,,,
,do_trial,177,390973,0.0-93.0-0.0,478,,,,50,"0,0,0",6,blank,314,null,0.100484208,0.659089935,0.261730836,0,,,,,,
,html-keyboard-response,178,391976,0.0-93.0-1.0,null,<p></p>,,null,,,,,,,,,,,,,,,,
,do_recog,179,394955,0.0-94.0-0.0,1472,,,,53,,,,315,probe-212,,,,,1,[object Object],164,4,1,
,html-keyboard-response,180,395957,0.0-94.0-1.0,null,<p></p>,,null,,,,,,,,,,,,,,,,
,do_trial,181,398998,0.0-95.0-0.0,511,,,,51,"0,1,0",6,blank,316,null,0.166310927,0.614744797,0.205301308,0,,,,,,
,html-keyboard-response,182,400001,0.0-95.0-1.0,null,<p></p>,,null,,,,,,,,,,,,,,,,
,do_trial,183,402942,0.0-96.0-0.0,411,,,,50,"0,1,0",6,blank,317,null,0.06436984,0.627331886,0.169311495,1,,,,,,
,html-keyboard-response,184,403944,0.0-96.0-1.0,null,<p></p>,,null,,,,,,,,,,,,,,,,
,do_trial,185,407100,0.0-97.0-0.0,626,,,,50,"0,0,0",6,blank,318,null,0.143772837,0.692763622,0.262868686,0,,,,,,
,html-keyboard-response,186,408103,0.0-97.0-1.0,null,<p></p>,,null,,,,,,,,,,,,,,,,
,do_trial,187,411139,0.0-98.0-0.0,506,,,,50,"0,1,0",6,blank,319,null,0.112589332,0.740049426,0.299344264,1,,,,,,
,html-keyboard-response,188,412141,0.0-98.0-1.0,null,<p></p>,,null,,,,,,,,,,,,,,,,
,do_trial,189,414981,0.0-99.0-0.0,311,,,,50,"0,1,1",6,blank,320,null,0.082215131,0.667873648,0.322384926,1,,,,,,
,html-keyboard-response,190,415982,0.0-99.0-1.0,null,<p></p>,,null,,,,,,,,,,,,,,,,
,do_recog,191,418520,0.0-100.0-0.0,1031,,,,53,,,,321,probe-230,,,,,1,[object Object],47,1,1,
,html-keyboard-response,192,419522,0.0-100.0-1.0,null,<p></p>,,null,,,,,,,,,,,,,,,,
,do_trial,193,422644,0.0-101.0-0.0,592,,,,50,"0,1,0",6,blank,322,null,0.175306333,0.713579263,0.367399644,1,,,,,,
,html-keyboard-response,194,423646,0.0-101.0-1.0,null,<p></p>,,null,,,,,,,,,,,,,,,,
,do_recog,195,426489,0.0-102.0-0.0,1338,,,,53,,,,323,probe-194,,,,,1,[object Object],122,3,1,
,html-keyboard-response,196,427491,0.0-102.0-1.0,null,<p></p>,,null,,,,,,,,,,,,,,,,
,do_trial,197,430628,0.0-103.0-0.0,608,,,,50,"1,1,0",6,blank,324,null,0.248284788,0.615133141,0.362744121,1,,,,,,
,html-keyboard-response,198,431630,0.0-103.0-1.0,null,<p></p>,,null,,,,,,,,,,,,,,,,
,do_recog,199,434226,0.0-104.0-0.0,1088,,,,53,,,,325,probe-19,,,,,1,[object Object],208,5,1,
,html-keyboard-response,200,435228,0.0-104.0-1.0,null,<p></p>,,null,,,,,,,,,,,,,,,,
,do_trial,201,438378,0.0-105.0-0.0,623,,,,50,"0,1,0",6,blank,326,null,0.203966735,0.530822367,0.341963278,1,,,,,,
,html-keyboard-response,202,439381,0.0-105.0-1.0,null,<p></p>,,null,,,,,,,,,,,,,,,,
,do_trial,203,442361,0.0-106.0-0.0,450,,,,50,"0,1,1",6,blank,327,null,0.164761619,0.527169826,0.414282848,1,,,,,,
,html-keyboard-response,204,443364,0.0-106.0-1.0,null,<p></p>,,null,,,,,,,,,,,,,,,,
,do_trial,205,446486,0.0-107.0-0.0,591,,,,50,"0,1,0",6,blank,328,null,0.074182399,0.558332072,0.276578989,1,,,,,,
,html-keyboard-response,206,447487,0.0-107.0-1.0,null,<p></p>,,null,,,,,,,,,,,,,,,,
,do_trial,207,450512,0.0-108.0-0.0,494,,,,50,"0,1,0",6,blank,329,null,0.098488075,0.55569104,0.208004011,1,,,,,,
,html-keyboard-response,208,451513,0.0-108.0-1.0,null,<p></p>,,null,,,,,,,,,,,,,,,,
,do_recog,209,453908,0.0-109.0-0.0,887,,,,53,,,,330,probe-83,,,,,1,[object Object],161,4,1,
,html-keyboard-response,210,454911,0.0-109.0-1.0,null,<p></p>,,null,,,,,,,,,,,,,,,,
,do_trial,211,458035,0.0-110.0-0.0,595,,,,50,"0,1,0",6,blank,331,null,0.065974594,0.628044128,0.284061183,1,,,,,,
,html-keyboard-response,212,459038,0.0-110.0-1.0,null,<p></p>,,null,,,,,,,,,,,,,,,,
,do_trial,213,461916,0.0-111.0-0.0,348,,,,50,"0,1,0",6,blank,332,null,0.113000557,0.792111679,0.176273338,1,,,,,,
,html-keyboard-response,214,462919,0.0-111.0-1.0,null,<p></p>,,null,,,,,,,,,,,,,,,,
,do_trial,215,465990,0.0-112.0-0.0,540,,,,50,"0,1,0",6,blank,333,null,0.093310601,0.78397113,0.23175424,1,,,,,,
,html-keyboard-response,216,466993,0.0-112.0-1.0,null,<p></p>,,null,,,,,,,,,,,,,,,,
,do_trial,217,470240,0.0-113.0-0.0,717,,,,50,"0,1,0",6,blank,334,null,0.206501877,0.762686211,0.358813517,1,,,,,,
,html-keyboard-response,218,471242,0.0-113.0-1.0,null,<p></p>,,null,,,,,,,,,,,,,,,,
,do_trial,219,474298,0.0-114.0-0.0,525,,,,50,"0,1,0",6,blank,335,null,0.119358152,0.869050713,0.357577862,1,,,,,,
,html-keyboard-response,220,475301,0.0-114.0-1.0,null,<p></p>,,null,,,,,,,,,,,,,,,,
,do_trial,221,478184,0.0-115.0-0.0,353,,,,50,"0,1,0",6,blank,336,null,0.133757058,0.70958525,0.37656368,1,,,,,,
,html-keyboard-response,222,479187,0.0-115.0-1.0,null,<p></p>,,null,,,,,,,,,,,,,,,,
,do_trial,223,482022,0.0-116.0-0.0,305,,,,50,"0,1,1",6,blank,337,null,0.065488585,0.698728836,0.403161398,1,,,,,,
,html-keyboard-response,224,483025,0.0-116.0-1.0,null,<p></p>,,null,,,,,,,,,,,,,,,,
,do_recog,225,485828,0.0-117.0-0.0,1297,,,,53,,,,338,probe-122,,,,,1,[object Object],169,4,1,
,html-keyboard-response,226,486831,0.0-117.0-1.0,null,<p></p>,,null,,,,,,,,,,,,,,,,
,do_trial,227,489757,0.0-118.0-0.0,396,,,,50,"0,0,0",6,blank,339,null,0.151499199,0.592694584,0.404179873,0,,,,,,
,html-keyboard-response,228,490759,0.0-118.0-1.0,null,<p></p>,,null,,,,,,,,,,,,,,,,
,do_trial,229,493818,0.0-119.0-0.0,528,,,,51,"0,0,1",6,blank,340,null,0.053155517,0.569721458,0.389373715,1,,,,,,
,html-keyboard-response,230,494820,0.0-119.0-1.0,null,<p></p>,,null,,,,,,,,,,,,,,,,
,do_trial,231,497850,0.0-120.0-0.0,502,,,,51,"0,0,1",6,blank,341,null,0.05386399,0.481671141,0.199160108,1,,,,,,
,html-keyboard-response,232,498853,0.0-120.0-1.0,null,<p></p>,,null,,,,,,,,,,,,,,,,
,do_trial,233,501965,0.0-121.0-0.0,581,,,,51,"0,1,0",6,blank,342,null,0.061529243,0.541317084,0.408409038,0,,,,,,
,html-keyboard-response,234,502967,0.0-121.0-1.0,null,<p></p>,,null,,,,,,,,,,,,,,,,
,do_trial,235,505979,0.0-122.0-0.0,482,,,,49,"0,1,0",6,blank,343,null,0.184673509,0.468421809,0.357299992,0,,,,,,
,html-keyboard-response,236,506983,0.0-122.0-1.0,null,<p></p>,,null,,,,,,,,,,,,,,,,
,do_trial,237,509932,0.0-123.0-0.0,418,,,,50,"1,0,0",6,blank,344,null,0.304188147,0.40935046,0.447541831,0,,,,,,
,html-keyboard-response,238,510935,0.0-123.0-1.0,null,<p></p>,,null,,,,,,,,,,,,,,,,
,do_trial,239,513800,0.0-124.0-0.0,334,,,,50,"0,0,0",6,blank,345,null,0.408104895,0.391750793,0.505988746,0,,,,,,
,html-keyboard-response,240,514802,0.0-124.0-1.0,null,<p></p>,,null,,,,,,,,,,,,,,,,
,do_recog,241,517429,0.0-125.0-0.0,1118,,,,53,,,,346,probe-200,,,,,1,[object Object],89,2,1,
,html-keyboard-response,242,518430,0.0-125.0-1.0,null,<p></p>,,null,,,,,,,,,,,,,,,,
,do_trial,243,521637,0.0-126.0-0.0,676,,,,50,"1,1,1",6,blank,347,null,0.520971922,0.305016961,0.311357199,1,,,,,,
,html-keyboard-response,244,522639,0.0-126.0-1.0,null,<p></p>,,null,,,,,,,,,,,,,,,,
,do_trial,245,525778,0.0-127.0-0.0,608,,,,50,"1,0,0",6,blank,348,null,0.669984142,0.203251888,0.143114899,0,,,,,,
,html-keyboard-response,246,526780,0.0-127.0-1.0,null,<p></p>,,null,,,,,,,,,,,,,,,,
,do_trial,247,529628,0.0-128.0-0.0,316,,,,50,"0,0,0",6,blank,349,null,0.771599624,0.343924446,0.144830775,0,,,,,,
,html-keyboard-response,248,530630,0.0-128.0-1.0,null,<p></p>,,null,,,,,,,,,,,,,,,,
,do_recog,249,533251,0.0-129.0-0.0,1114,,,,53,,,,350,probe-04,,,,,1,[object Object],40,1,1,
,html-keyboard-response,250,534254,0.0-129.0-1.0,null,<p></p>,,null,,,,,,,,,,,,,,,,
,do_trial,251,537421,0.0-130.0-0.0,636,,,,51,"1,0,1",6,blank,351,null,0.64228831,0.069267207,0.129377099,1,,,,,,
,html-keyboard-response,252,538423,0.0-130.0-1.0,null,<p></p>,,null,,,,,,,,,,,,,,,,
,do_trial,253,541493,0.0-131.0-0.0,539,,,,51,"1,0,0",6,blank,352,null,0.579297081,0.072529164,0.234500786,0,,,,,,
,html-keyboard-response,254,542495,0.0-131.0-1.0,null,<p></p>,,null,,,,,,,,,,,,,,,,
,do_trial,255,545422,0.0-132.0-0.0,395,,,,50,"0,0,0",6,blank,353,null,0.609549866,0.294958398,0.280989093,0,,,,,,
,html-keyboard-response,256,546424,0.0-132.0-1.0,null,<p></p>,,null,,,,,,,,,,,,,,,,
,do_trial,257,549383,0.0-133.0-0.0,432,,,,49,"0,1,0",6,blank,354,null,0.486078286,0.141457503,0.156706202,0,,,,,,
,html-keyboard-response,258,550386,0.0-133.0-1.0,null,<p></p>,,null,,,,,,,,,,,,,,,,
,do_recog,259,553011,0.0-134.0-0.0,1119,,,,53,,,,355,probe-128,,,,,1,[object Object],121,3,1,
,html-keyboard-response,260,554013,0.0-134.0-1.0,null,<p></p>,,null,,,,,,,,,,,,,,,,
,do_trial,261,557162,0.0-135.0-0.0,618,,,,51,"1,0,0",6,blank,356,null,0.744744065,0.087932244,0.224155654,0,,,,,,
,html-keyboard-response,262,558164,0.0-135.0-1.0,null,<p></p>,,null,,,,,,,,,,,,,,,,
,do_trial,263,561022,0.0-136.0-0.0,327,,,,50,"0,0,1",6,blank,357,null,0.560695282,0.176003678,0.161380063,0,,,,,,
,html-keyboard-response,264,562025,0.0-136.0-1.0,null,<p></p>,,null,,,,,,,,,,,,,,,,
,do_trial,265,564825,0.0-137.0-0.0,269,,,,50,"1,1,0",6,blank,358,null,0.672154788,0.373777042,0.231320645,1,,,,,,
,html-keyboard-response,266,565827,0.0-137.0-1.0,null,<p></p>,,null,,,,,,,,,,,,,,,,
,do_recog,267,568478,0.0-138.0-0.0,1143,,,,53,,,,359,probe-65,,,,,1,[object Object],41,1,1,
,html-keyboard-response,268,569480,0.0-138.0-1.0,null,<p></p>,,null,,,,,,,,,,,,,,,,
,do_trial,269,572525,0.0-139.0-0.0,516,,,,50,"1,0,0",6,blank,360,null,0.652052779,0.301195129,0.169804783,0,,,,,,
,html-keyboard-response,270,573528,0.0-139.0-1.0,null,<p></p>,,null,,,,,,,,,,,,,,,,
,do_trial,271,576441,0.0-140.0-0.0,382,,,,50,"1,0,0",6,blank,361,null,0.600344647,0.201553659,0.163643026,0,,,,,,
,html-keyboard-response,272,577444,0.0-140.0-1.0,null,<p></p>,,null,,,,,,,,,,,,,,,,
,do_trial,273,581209,0.0-141.0-0.0,1236,,,,50,"0,0,1",6,blank,362,null,0.662784061,0.056159088,0.193725098,0,,,,,,
,html-keyboard-response,274,582211,0.0-141.0-1.0,null,<p></p>,,null,,,,,,,,,,,,,,,,
,do_trial,275,585181,0.0-142.0-0.0,440,,,,51,"0,0,0",6,blank,363,null,0.570723507,0.134139579,0.051145652,0,,,,,,
,html-keyboard-response,276,586183,0.0-142.0-1.0,null,<p></p>,,null,,,,,,,,,,,,,,,,
,do_trial,277,589135,0.0-143.0-0.0,423,,,,50,"1,1,1",6,blank,364,null,0.675102098,0.21687815,0.069670706,1,,,,,,
,html-keyboard-response,278,590138,0.0-143.0-1.0,null,<p></p>,,null,,,,,,,,,,,,,,,,
,do_recog,279,592611,0.0-144.0-0.0,966,,,,53,,,,365,probe-117,,,,,1,[object Object],43,1,1,
,html-keyboard-response,280,593614,0.0-144.0-1.0,null,<p></p>,,null,,,,,,,,,,,,,,,,
,do_trial,281,597225,0.0-145.0-0.0,1080,,,,50,"1,1,0",6,blank,366,null,0.663941528,0.334352764,0.197062202,1,,,,,,
,html-keyboard-response,282,598227,0.0-145.0-1.0,null,<p></p>,,null,,,,,,,,,,,,,,,,
,do_trial,283,601087,0.0-146.0-0.0,328,,,,50,"0,0,1",6,blank,367,null,0.721836923,0.271348938,0.210725387,0,,,,,,
,html-keyboard-response,284,602090,0.0-146.0-1.0,null,<p></p>,,null,,,,,,,,,,,,,,,,
,do_trial,285,605030,0.0-147.0-0.0,411,,,,50,"1,0,1",6,blank,368,null,0.690145812,0.266227136,0.173648302,0,,,,,,
,html-keyboard-response,286,606033,0.0-147.0-1.0,null,<p></p>,,null,,,,,,,,,,,,,,,,
,do_recog,287,608572,0.0-148.0-0.0,1031,,,,53,,,,369,probe-68,,,,,1,[object Object],120,3,1,
,html-keyboard-response,288,609575,0.0-148.0-1.0,null,<p></p>,,null,,,,,,,,,,,,,,,,
,do_trial,289,612837,0.0-149.0-0.0,733,,,,51,"1,1,1",6,blank,370,null,0.752919314,0.342160939,0.208400671,1,,,,,,
,html-keyboard-response,290,613839,0.0-149.0-1.0,null,<p></p>,,null,,,,,,,,,,,,,,,,
,do_trial,291,617007,0.0-150.0-0.0,638,,,,51,"1,0,0",6,blank,371,null,0.849880389,0.174710752,0.143926738,0,,,,,,
,html-keyboard-response,292,618009,0.0-150.0-1.0,null,<p></p>,,null,,,,,,,,,,,,,,,,
,do_trial,293,621074,0.0-151.0-0.0,535,,,,50,"1,1,0",6,blank,372,null,0.692683752,0.339871088,0.155784186,1,,,,,,
,html-keyboard-response,294,622076,0.0-151.0-1.0,null,<p></p>,,null,,,,,,,,,,,,,,,,
,do_trial,295,624910,0.0-152.0-0.0,304,,,,50,"1,1,0",6,blank,373,null,0.489179966,0.382196245,0.201836862,1,,,,,,
,html-keyboard-response,296,625913,0.0-152.0-1.0,null,<p></p>,,null,,,,,,,,,,,,,,,,
,do_recog,297,628340,0.0-153.0-0.0,920,,,,53,,,,374,probe-205,,,,,1,[object Object],205,5,1,
,html-keyboard-response,298,629342,0.0-153.0-1.0,null,<p></p>,,null,,,,,,,,,,,,,,,,
,do_trial,299,632611,0.0-154.0-0.0,738,,,,50,"1,1,0",6,blank,375,null,0.742116761,0.488907493,0.31037482,1,,,,,,
,html-keyboard-response,300,633613,0.0-154.0-1.0,null,<p></p>,,null,,,,,,,,,,,,,,,,
,do_recog,301,635951,0.0-155.0-0.0,830,,,,53,,,,376,probe-170,,,,,1,[object Object],126,3,1,
,html-keyboard-response,302,636954,0.0-155.0-1.0,null,<p></p>,,null,,,,,,,,,,,,,,,,
,do_trial,303,640022,0.0-156.0-0.0,537,,,,50,"1,0,0",6,blank,377,null,0.690091675,0.447526126,0.270099729,0,,,,,,
,html-keyboard-response,304,641025,0.0-156.0-1.0,null,<p></p>,,null,,,,,,,,,,,,,,,,
,do_trial,305,644165,0.0-157.0-0.0,610,,,,50,"1,0,0",6,blank,378,null,0.761375203,0.271290986,0.243088044,0,,,,,,
,html-keyboard-response,306,645167,0.0-157.0-1.0,null,<p></p>,,null,,,,,,,,,,,,,,,,
,do_trial,307,648151,0.0-158.0-0.0,453,,,,50,"0,0,0",6,blank,379,null,0.739754301,0.231468323,0.127769837,0,,,,,,
,html-keyboard-response,308,649154,0.0-158.0-1.0,null,<p></p>,,null,,,,,,,,,,,,,,,,
,do_trial,309,652099,0.0-159.0-0.0,412,,,,51,"1,0,0",6,blank,380,null,0.779165401,0.1668706,0.11725697,0,,,,,,
,html-keyboard-response,310,653101,0.0-159.0-1.0,null,<p></p>,,null,,,,,,,,,,,,,,,,
,do_trial,311,655965,0.0-160.0-0.0,331,,,,50,"0,0,1",6,blank,381,null,0.456117975,0.242987908,0.140044452,0,,,,,,
,html-keyboard-response,312,656968,0.0-160.0-1.0,null,<p></p>,,null,,,,,,,,,,,,,,,,
,do_recog,313,659564,0.0-161.0-0.0,1089,,,,56,,,,382,probe-120,,,,,1,[object Object],168,4,0,
,html-keyboard-response,314,660565,0.0-161.0-1.0,null,<p></p>,,null,,,,,,,,,,,,,,,,
,do_trial,315,663715,0.0-162.0-0.0,618,,,,50,"1,0,0",6,blank,383,null,0.687449784,0.236486995,0.212844643,0,,,,,,
,html-keyboard-response,316,664717,0.0-162.0-1.0,null,<p></p>,,null,,,,,,,,,,,,,,,,
,do_trial,317,667589,0.0-163.0-0.0,338,,,,50,"0,0,1",6,blank,384,null,0.611888886,0.389860036,0.256447388,0,,,,,,
,html-keyboard-response,318,668593,0.0-163.0-1.0,null,<p></p>,,null,,,,,,,,,,,,,,,,
,do_recog,319,670892,0.0-164.0-0.0,791,,,,53,,,,385,probe-69,,,,,1,[object Object],49,1,1,
,html-keyboard-response,320,671895,0.0-164.0-1.0,null,<p></p>,,null,,,,,,,,,,,,,,,,
,do_trial,321,675027,0.0-165.0-0.0,600,,,,50,"1,1,0",6,blank,386,null,0.678428419,0.213960573,0.101294699,1,,,,,,
,html-keyboard-response,322,676029,0.0-165.0-1.0,null,<p></p>,,null,,,,,,,,,,,,,,,,
,do_recog,323,678395,0.0-166.0-0.0,858,,,,53,,,,387,probe-113,,,,,1,[object Object],45,1,1,
,html-keyboard-response,324,679396,0.0-166.0-1.0,null,<p></p>,,null,,,,,,,,,,,,,,,,
,do_trial,325,682356,0.0-167.0-0.0,420,,,,50,"0,0,0",6,blank,388,null,0.485298122,0.134983002,0.072435964,0,,,,,,
,html-keyboard-response,326,683358,0.0-167.0-1.0,null,<p></p>,,null,,,,,,,,,,,,,,,,
,do_trial,327,686198,0.0-168.0-0.0,308,,,,50,"1,0,0",6,blank,389,null,0.703849065,0.215189854,0.160533562,0,,,,,,
,html-keyboard-response,328,687201,0.0-168.0-1.0,null,<p></p>,,null,,,,,,,,,,,,,,,,
,do_trial,329,690094,0.0-169.0-0.0,362,,,,50,"0,1,0",6,blank,390,null,0.582320945,0.312526618,0.102750821,1,,,,,,
,html-keyboard-response,330,691096,0.0-169.0-1.0,null,<p></p>,,null,,,,,,,,,,,,,,,,
,do_trial,331,694030,0.0-170.0-0.0,401,,,,50,"1,0,0",6,blank,391,null,0.555290302,0.271198221,0.084506411,0,,,,,,
,html-keyboard-response,332,695032,0.0-170.0-1.0,null,<p></p>,,null,,,,,,,,,,,,,,,,
,do_trial,333,697876,0.0-171.0-0.0,311,,,,51,"1,0,0",6,blank,392,null,0.510198848,0.298096862,0.063293471,0,,,,,,
,html-keyboard-response,334,698878,0.0-171.0-1.0,null,<p></p>,,null,,,,,,,,,,,,,,,,
,do_trial,335,701795,0.0-172.0-0.0,385,,,,51,"0,1,0",6,blank,393,null,0.494297388,0.438346943,0.172428904,0,,,,,,
,html-keyboard-response,336,702798,0.0-172.0-1.0,null,<p></p>,,null,,,,,,,,,,,,,,,,
,do_recog,337,705483,0.0-173.0-0.0,1178,,,,53,,,,394,probe-17,,,,,1,[object Object],162,4,1,
,html-keyboard-response,338,706485,0.0-173.0-1.0,null,<p></p>,,null,,,,,,,,,,,,,,,,
,do_trial,339,709473,0.0-174.0-0.0,454,,,,50,"0,1,0",6,blank,395,null,0.651685303,0.30170056,0.130150398,1,,,,,,
,html-keyboard-response,340,710475,0.0-174.0-1.0,null,<p></p>,,null,,,,,,,,,,,,,,,,
,do_recog,341,712990,0.0-175.0-0.0,1007,,,,53,,,,396,probe-153,,,,,1,[object Object],207,5,1,
,html-keyboard-response,342,713993,0.0-175.0-1.0,null,<p></p>,,null,,,,,,,,,,,,,,,,
,do_trial,343,717291,0.0-176.0-0.0,761,,,,51,"0,0,0",6,blank,397,null,0.55143918,0.357355246,0.106886208,0,,,,,,
,html-keyboard-response,344,718293,0.0-176.0-1.0,null,<p></p>,,null,,,,,,,,,,,,,,,,
,do_recog,345,720732,0.0-177.0-0.0,932,,,,53,,,,398,probe-70,,,,,1,[object Object],87,2,1,
,html-keyboard-response,346,721735,0.0-177.0-1.0,null,<p></p>,,null,,,,,,,,,,,,,,,,
,do_trial,347,724713,0.0-178.0-0.0,439,,,,51,"0,0,0",6,blank,399,null,0.629722205,0.38091245,0.062102642,0,,,,,,
,html-keyboard-response,348,725715,0.0-178.0-1.0,null,<p></p>,,null,,,,,,,,,,,,,,,,
,do_trial,349,728594,0.0-179.0-0.0,347,,,,50,"0,0,0",6,blank,400,null,0.261832449,0.287719265,0.231802612,0,,,,,,
,html-keyboard-response,350,729597,0.0-179.0-1.0,null,<p></p>,,null,,,,,,,,,,,,,,,,
,do_trial,351,732535,0.0-180.0-0.0,407,,,,50,"0,1,0",6,blank,401,null,0.287611191,0.204912059,0.250069258,1,,,,,,
,html-keyboard-response,352,733538,0.0-180.0-1.0,null,<p></p>,,null,,,,,,,,,,,,,,,,
,do_trial,353,736555,0.0-181.0-0.0,485,,,,50,"0,1,1",6,blank,402,null,0.284273879,0.300837548,0.422092168,1,,,,,,
,html-keyboard-response,354,737558,0.0-181.0-1.0,null,<p></p>,,null,,,,,,,,,,,,,,,,
,do_trial,355,740515,0.0-182.0-0.0,425,,,,50,"1,1,0",6,blank,403,null,0.185037843,0.279139775,0.510290803,1,,,,,,
,html-keyboard-response,356,741517,0.0-182.0-1.0,null,<p></p>,,null,,,,,,,,,,,,,,,,
,do_trial,357,744536,0.0-183.0-0.0,487,,,,50,"0,0,1",6,blank,404,null,0.165733465,0.218160087,0.705196577,0,,,,,,
,html-keyboard-response,358,745539,0.0-183.0-1.0,null,<p></p>,,null,,,,,,,,,,,,,,,,
,do_recog,359,747824,0.0-184.0-0.0,777,,,,53,,,,405,probe-105,,,,,1,[object Object],84,2,1,
,html-keyboard-response,360,748827,0.0-184.0-1.0,null,<p></p>,,null,,,,,,,,,,,,,,,,
,do_trial,361,751867,0.0-185.0-0.0,510,,,,50,"1,0,1",6,blank,406,null,0.120639386,0.244489388,0.564741045,0,,,,,,
,html-keyboard-response,362,752869,0.0-185.0-1.0,null,<p></p>,,null,,,,,,,,,,,,,,,,
,do_recog,363,755229,0.0-186.0-0.0,852,,,,53,,,,407,probe-60,,,,,1,[object Object],48,1,1,
,html-keyboard-response,364,756231,0.0-186.0-1.0,null,<p></p>,,null,,,,,,,,,,,,,,,,
,do_trial,365,759308,0.0-187.0-0.0,547,,,,50,"0,1,0",6,blank,408,null,0.141610819,0.290366206,0.526201818,1,,,,,,
,html-keyboard-response,366,760311,0.0-187.0-1.0,null,<p></p>,,null,,,,,,,,,,,,,,,,
,do_trial,367,763295,0.0-188.0-0.0,454,,,,50,"0,1,1",6,blank,409,null,0.069175505,0.270308563,0.446050526,1,,,,,,
,html-keyboard-response,368,764297,0.0-188.0-1.0,null,<p></p>,,null,,,,,,,,,,,,,,,,
,do_trial,369,767314,0.0-189.0-0.0,487,,,,50,"0,0,1",6,blank,410,null,0.065164938,0.129832423,0.466011587,0,,,,,,
,html-keyboard-response,370,768316,0.0-189.0-1.0,null,<p></p>,,null,,,,,,,,,,,,,,,,
,do_trial,371,771345,0.0-190.0-0.0,500,,,,50,"0,1,1",6,blank,411,null,0.10202854,0.267227318,0.600055351,1,,,,,,
,html-keyboard-response,372,772348,0.0-190.0-1.0,null,<p></p>,,null,,,,,,,,,,,,,,,,
,do_trial,373,775508,0.0-191.0-0.0,626,,,,50,"0,0,0",6,blank,412,null,0.117841238,0.301925933,0.617403178,0,,,,,,
,html-keyboard-response,374,776510,0.0-191.0-1.0,null,<p></p>,,null,,,,,,,,,,,,,,,,
,do_recog,375,778810,0.0-192.0-0.0,792,,,,53,,,,413,probe-146,,,,,1,[object Object],81,2,1,
,html-keyboard-response,376,779812,0.0-192.0-1.0,null,<p></p>,,null,,,,,,,,,,,,,,,,
,do_trial,377,782876,0.0-193.0-0.0,539,,,,50,"0,0,1",6,blank,414,null,0.099596482,0.263080282,0.604348709,0,,,,,,
,html-keyboard-response,378,783879,0.0-193.0-1.0,null,<p></p>,,null,,,,,,,,,,,,,,,,
,do_recog,379,786145,0.0-194.0-0.0,759,,,,53,,,,415,probe-55,,,,,1,[object Object],163,4,1,
,html-keyboard-response,380,787147,0.0-194.0-1.0,null,<p></p>,,null,,,,,,,,,,,,,,,,
,do_trial,381,790217,0.0-195.0-0.0,539,,,,50,"0,1,1",6,blank,416,null,0.05732466,0.301171583,0.73596455,1,,,,,,
,html-keyboard-response,382,791220,0.0-195.0-1.0,null,<p></p>,,null,,,,,,,,,,,,,,,,
,do_recog,383,793707,0.0-196.0-0.0,979,,,,53,,,,417,probe-198,,,,,1,[object Object],125,3,1,
,html-keyboard-response,384,794710,0.0-196.0-1.0,null,<p></p>,,null,,,,,,,,,,,,,,,,
,do_trial,385,797659,0.0-197.0-0.0,420,,,,50,"0,1,1",6,blank,418,null,0.054491535,0.261899649,0.779128539,1,,,,,,
,html-keyboard-response,386,798662,0.0-197.0-1.0,null,<p></p>,,null,,,,,,,,,,,,,,,,
,do_recog,387,800826,0.0-198.0-0.0,657,,,,53,,,,419,probe-67,,,,,1,[object Object],165,4,1,
,html-keyboard-response,388,801828,0.0-198.0-1.0,null,<p></p>,,null,,,,,,,,,,,,,,,,
,do_trial,389,804850,0.0-199.0-0.0,491,,,,50,"0,1,1",6,blank,420,null,0.110972643,0.227875228,0.692303496,1,,,,,,
,html-keyboard-response,390,805853,0.0-199.0-1.0,null,<p></p>,,null,,,,,,,,,,,,,,,,
,do_recog,391,808154,0.0-200.0-0.0,795,,,,53,,,,421,probe-109,,,,,1,[object Object],80,2,1,
,html-keyboard-response,392,809157,0.0-200.0-1.0,null,<p></p>,,null,,,,,,,,,,,,,,,,
,do_trial,393,812092,0.0-201.0-0.0,405,,,,50,"0,0,1",6,blank,422,null,0.129140961,0.180653997,0.651690107,0,,,,,,
,html-keyboard-response,394,813093,0.0-201.0-1.0,null,<p></p>,,null,,,,,,,,,,,,,,,,
,do_trial,395,816178,0.0-202.0-0.0,555,,,,50,"0,1,1",6,blank,423,null,0.106936278,0.270163551,0.515831843,1,,,,,,
,html-keyboard-response,396,817181,0.0-202.0-1.0,null,<p></p>,,null,,,,,,,,,,,,,,,,
,do_trial,397,820194,0.0-203.0-0.0,483,,,,50,"0,1,0",6,blank,424,null,0.07267773,0.400842086,0.502391306,1,,,,,,
,html-keyboard-response,398,821196,0.0-203.0-1.0,null,<p></p>,,null,,,,,,,,,,,,,,,,
,do_trial,399,824375,0.0-204.0-0.0,648,,,,50,"0,0,0",6,blank,425,null,0.180918628,0.406928974,0.47214226,0,,,,,,
,html-keyboard-response,400,825377,0.0-204.0-1.0,null,<p></p>,,null,,,,,,,,,,,,,,,,
,do_recog,401,827905,0.0-205.0-0.0,1020,,,,53,,,,426,probe-140,,,,,1,[object Object],85,2,1,
,html-keyboard-response,402,828907,0.0-205.0-1.0,null,<p></p>,,null,,,,,,,,,,,,,,,,
,do_trial,403,832258,0.0-206.0-0.0,822,,,,50,"0,0,0",6,blank,427,null,0.154524102,0.374465554,0.475123422,0,,,,,,
,html-keyboard-response,404,833260,0.0-206.0-1.0,null,<p></p>,,null,,,,,,,,,,,,,,,,
,do_recog,405,835547,0.0-207.0-0.0,780,,,,53,,,,428,probe-248,,,,,0,[object Object],null,null,0,
,html-keyboard-response,406,836548,0.0-207.0-1.0,null,<p></p>,,null,,,,,,,,,,,,,,,,
,do_trial,407,839553,0.0-208.0-0.0,471,,,,51,"1,1,0",6,blank,429,null,0.160916239,0.347624493,0.630080187,0,,,,,,
,html-keyboard-response,408,840555,0.0-208.0-1.0,null,<p></p>,,null,,,,,,,,,,,,,,,,
,do_trial,409,843423,0.0-209.0-0.0,341,,,,50,"0,1,1",6,blank,430,null,0.127289965,0.314406731,0.66401109,1,,,,,,
,html-keyboard-response,410,844424,0.0-209.0-1.0,null,<p></p>,,null,,,,,,,,,,,,,,,,
,do_trial,411,847293,0.0-210.0-0.0,342,,,,50,"0,0,1",6,blank,431,null,0.080561598,0.414987949,0.633738534,0,,,,,,
,html-keyboard-response,412,848294,0.0-210.0-1.0,null,<p></p>,,null,,,,,,,,,,,,,,,,
,do_trial,413,851262,0.0-211.0-0.0,442,,,,50,"0,1,1",6,blank,432,null,0.202011752,0.319597528,0.643608244,1,,,,,,
,html-keyboard-response,414,852264,0.0-211.0-1.0,null,<p></p>,,null,,,,,,,,,,,,,,,,
,do_trial,415,855113,0.0-212.0-0.0,318,,,,50,"0,0,0",6,blank,433,null,0.183759319,0.198598871,0.433730576,0,,,,,,
,html-keyboard-response,416,856116,0.0-212.0-1.0,null,<p></p>,,null,,,,,,,,,,,,,,,,
,do_trial,417,858981,0.0-213.0-0.0,335,,,,50,"0,0,0",6,blank,434,null,0.118120236,0.228970963,0.526045892,0,,,,,,
,html-keyboard-response,418,859983,0.0-213.0-1.0,null,<p></p>,,null,,,,,,,,,,,,,,,,
,do_recog,419,862251,0.0-214.0-0.0,760,,,,53,,,,435,probe-234,,,,,0,[object Object],null,null,0,
,html-keyboard-response,420,863254,0.0-214.0-1.0,null,<p></p>,,null,,,,,,,,,,,,,,,,
,do_trial,421,867140,0.0-215.0-0.0,1356,,,,50,"0,0,1",6,blank,436,null,0.061023458,0.195084088,0.532696557,0,,,,,,
,html-keyboard-response,422,868143,0.0-215.0-1.0,null,<p></p>,,null,,,,,,,,,,,,,,,,
,do_recog,423,870598,0.0-216.0-0.0,949,,,,56,,,,437,probe-241,,,,,0,[object Object],null,null,1,
,html-keyboard-response,424,871599,0.0-216.0-1.0,null,<p></p>,,null,,,,,,,,,,,,,,,,
,do_trial,425,874745,0.0-217.0-0.0,614,,,,51,"0,1,1",6,blank,438,null,0.12789152,0.159883262,0.663136053,1,,,,,,
,html-keyboard-response,426,875747,0.0-217.0-1.0,null,<p></p>,,null,,,,,,,,,,,,,,,,
,do_trial,427,878736,0.0-218.0-0.0,460,,,,51,"0,1,0",6,blank,439,null,0.103853274,0.36085381,0.562361461,0,,,,,,
,html-keyboard-response,428,879739,0.0-218.0-1.0,null,<p></p>,,null,,,,,,,,,,,,,,,,
,do_trial,429,882636,0.0-219.0-0.0,366,,,,51,"0,0,1",6,blank,440,null,0.090616394,0.282331893,0.513081139,1,,,,,,
,html-keyboard-response,430,883637,0.0-219.0-1.0,null,<p></p>,,null,,,,,,,,,,,,,,,,
,do_trial,431,886624,0.0-220.0-0.0,458,,,,51,"0,0,0",6,blank,441,null,0.063616188,0.348958688,0.541764734,0,,,,,,
,html-keyboard-response,432,887625,0.0-220.0-1.0,null,<p></p>,,null,,,,,,,,,,,,,,,,
,do_trial,433,890583,0.0-221.0-0.0,426,,,,51,"0,0,0",6,blank,442,null,0.185937384,0.264993898,0.461697937,0,,,,,,
,html-keyboard-response,434,891585,0.0-221.0-1.0,null,<p></p>,,null,,,,,,,,,,,,,,,,
,do_recog,435,894284,0.0-222.0-0.0,1191,,,,56,,,,443,probe-233,,,,,0,[object Object],null,null,1,
,html-keyboard-response,436,895287,0.0-222.0-1.0,null,<p></p>,,null,,,,,,,,,,,,,,,,
,do_trial,437,898402,0.0-223.0-0.0,585,,,,50,"0,0,0",6,blank,444,null,0.123561124,0.356977667,0.510540751,0,,,,,,
,html-keyboard-response,438,899405,0.0-223.0-1.0,null,<p></p>,,null,,,,,,,,,,,,,,,,
,do_recog,439,901536,0.0-224.0-0.0,625,,,,56,,,,445,probe-249,,,,,0,[object Object],null,null,1,
,html-keyboard-response,440,902539,0.0-224.0-1.0,null,<p></p>,,null,,,,,,,,,,,,,,,,
,do_trial,441,906176,0.0-225.0-0.0,1108,,,,50,"0,1,1",6,blank,446,null,0.061715871,0.341436917,0.512122616,1,,,,,,
,html-keyboard-response,442,907180,0.0-225.0-1.0,null,<p></p>,,null,,,,,,,,,,,,,,,,
,do_recog,443,909210,0.0-226.0-0.0,523,,,,56,,,,447,probe-255,,,,,0,[object Object],null,null,1,
,html-keyboard-response,444,910211,0.0-226.0-1.0,null,<p></p>,,null,,,,,,,,,,,,,,,,
,do_trial,445,913193,0.0-227.0-0.0,456,,,,50,"0,0,1",6,blank,448,null,0.083121995,0.357451865,0.516955384,0,,,,,,
,html-keyboard-response,446,914194,0.0-227.0-1.0,null,<p></p>,,null,,,,,,,,,,,,,,,,
,do_recog,447,916288,0.0-228.0-0.0,591,,,,56,,,,449,probe-240,,,,,0,[object Object],null,null,1,
,html-keyboard-response,448,917289,0.0-228.0-1.0,null,<p></p>,,null,,,,,,,,,,,,,,,,
,do_trial,449,920352,0.0-229.0-0.0,538,,,,50,"0,1,1",6,blank,450,null,0.111396706,0.366873633,0.586662419,1,,,,,,
,html-keyboard-response,450,921353,0.0-229.0-1.0,null,<p></p>,,null,,,,,,,,,,,,,,,,
,do_trial,451,924493,0.0-230.0-0.0,611,,,,50,"0,0,1",6,blank,451,null,0.062172506,0.234248687,0.561508697,0,,,,,,
,html-keyboard-response,452,925495,0.0-230.0-1.0,null,<p></p>,,null,,,,,,,,,,,,,,,,
,do_trial,453,928528,0.0-231.0-0.0,504,,,,50,"0,0,1",6,blank,452,null,0.103105466,0.165038792,0.66591779,0,,,,,,
,html-keyboard-response,454,929529,0.0-231.0-1.0,null,<p></p>,,null,,,,,,,,,,,,,,,,
,do_recog,455,931846,0.0-232.0-0.0,812,,,,56,,,,453,probe-254,,,,,0,[object Object],null,null,1,
,html-keyboard-response,456,932848,0.0-232.0-1.0,null,<p></p>,,null,,,,,,,,,,,,,,,,
,do_trial,457,935840,0.0-233.0-0.0,461,,,,49,"0,1,1",6,blank,454,null,0.110430899,0.254156387,0.578088347,0,,,,,,
,html-keyboard-response,458,936842,0.0-233.0-1.0,null,<p></p>,,null,,,,,,,,,,,,,,,,
,do_trial,459,939625,0.0-234.0-0.0,252,,,,51,"1,0,1",6,blank,455,null,0.223660238,0.220392705,0.60743995,1,,,,,,
,html-keyboard-response,460,940628,0.0-234.0-1.0,null,<p></p>,,null,,,,,,,,,,,,,,,,
,do_trial,461,943860,0.0-235.0-0.0,703,,,,51,"0,1,1",6,blank,456,null,0.316768685,0.480988967,0.361340136,1,,,,,,
,html-keyboard-response,462,944862,0.0-235.0-1.0,null,<p></p>,,null,,,,,,,,,,,,,,,,
,do_trial,463,947925,0.0-236.0-0.0,529,,,,51,"1,1,1",6,blank,457,null,0.374416339,0.542338782,0.342164395,1,,,,,,
,html-keyboard-response,464,948927,0.0-236.0-1.0,null,<p></p>,,null,,,,,,,,,,,,,,,,
,do_trial,465,951967,0.0-237.0-0.0,510,,,,51,"1,0,0",6,blank,458,null,0.363982863,0.249449457,0.40105917,0,,,,,,
,html-keyboard-response,466,952968,0.0-237.0-1.0,null,<p></p>,,null,,,,,,,,,,,,,,,,
,do_trial,467,955931,0.0-238.0-0.0,435,,,,50,"1,0,0",6,blank,459,null,0.422995385,0.316362074,0.194089249,0,,,,,,
,html-keyboard-response,468,956932,0.0-238.0-1.0,null,<p></p>,,null,,,,,,,,,,,,,,,,
,do_trial,469,960108,0.0-239.0-0.0,647,,,,50,"1,0,0",6,blank,460,null,0.414394306,0.350446937,0.061634216,0,,,,,,
,html-keyboard-response,470,961109,0.0-239.0-1.0,null,<p></p>,,null,,,,,,,,,,,,,,,,
,do_recog,471,963410,0.0-240.0-0.0,797,,,,56,,,,461,probe-252,,,,,0,[object Object],null,null,1,
,html-keyboard-response,472,964411,0.0-240.0-1.0,null,<p></p>,,null,,,,,,,,,,,,,,,,
,do_trial,473,967510,0.0-241.0-0.0,571,,,,51,"1,0,0",6,blank,462,null,0.459164035,0.260101283,0.100233406,0,,,,,,
,html-keyboard-response,474,968511,0.0-241.0-1.0,null,<p></p>,,null,,,,,,,,,,,,,,,,
,do_trial,475,971623,0.0-242.0-0.0,584,,,,51,"1,0,0",6,blank,463,null,0.416467727,0.216103331,0.077031623,0,,,,,,
,html-keyboard-response,476,972625,0.0-242.0-1.0,null,<p></p>,,null,,,,,,,,,,,,,,,,
,do_recog,477,974901,0.0-243.0-0.0,768,,,,56,,,,464,probe-247,,,,,0,[object Object],null,null,1,
,html-keyboard-response,478,975903,0.0-243.0-1.0,null,<p></p>,,null,,,,,,,,,,,,,,,,
,do_trial,479,979048,0.0-244.0-0.0,614,,,,50,"0,0,0",6,blank,465,null,0.454733646,0.304659865,0.114697478,0,,,,,,
,html-keyboard-response,480,980051,0.0-244.0-1.0,null,<p></p>,,null,,,,,,,,,,,,,,,,
,do_trial,481,983194,0.0-245.0-0.0,612,,,,50,"0,0,0",6,blank,466,null,0.601135204,0.35285837,0.229689257,0,,,,,,
,html-keyboard-response,482,984196,0.0-245.0-1.0,null,<p></p>,,null,,,,,,,,,,,,,,,,
,do_trial,483,987114,0.0-246.0-0.0,388,,,,51,"1,1,0",6,blank,467,null,0.62822836,0.38944768,0.113885561,0,,,,,,
,html-keyboard-response,484,988116,0.0-246.0-1.0,null,<p></p>,,null,,,,,,,,,,,,,,,,
,do_trial,485,991165,0.0-247.0-0.0,519,,,,49,"1,1,0",6,blank,468,null,0.514247918,0.317441306,0.13261563,1,,,,,,
,html-keyboard-response,486,992167,0.0-247.0-1.0,null,<p></p>,,null,,,,,,,,,,,,,,,,
,do_trial,487,995145,0.0-248.0-0.0,451,,,,49,"0,0,0",6,blank,469,null,0.450371626,0.356839306,0.123298894,0,,,,,,
,html-keyboard-response,488,996148,0.0-248.0-1.0,null,<p></p>,,null,,,,,,,,,,,,,,,,
,do_trial,489,999068,0.0-249.0-0.0,391,,,,50,"0,0,0",6,blank,470,null,0.508205811,0.311711102,0.099901125,0,,,,,,
,html-keyboard-response,490,1000070,0.0-249.0-1.0,null,<p></p>,,null,,,,,,,,,,,,,,,,
,do_recog,491,1001746,0.0-250.0-0.0,171,,,,56,,,,471,probe-238,,,,,0,[object Object],null,null,1,
,html-keyboard-response,492,1002747,0.0-250.0-1.0,null,<p></p>,,null,,,,,,,,,,,,,,,,
,do_trial,493,1005485,0.0-251.0-0.0,210,,,,50,"1,1,0",6,blank,472,null,0.600633022,0.248846993,0.06500045,1,,,,,,
,html-keyboard-response,494,1006486,0.0-251.0-1.0,null,<p></p>,,null,,,,,,,,,,,,,,,,
,do_trial,495,1009428,0.0-252.0-0.0,414,,,,50,"0,0,0",6,blank,473,null,0.528827321,0.269925972,0.064244012,0,,,,,,
,html-keyboard-response,496,1010431,0.0-252.0-1.0,null,<p></p>,,null,,,,,,,,,,,,,,,,
,do_trial,497,1013365,0.0-253.0-0.0,405,,,,50,"1,0,1",6,blank,474,null,0.570217856,0.236208716,0.107284433,0,,,,,,
,html-keyboard-response,498,1014367,0.0-253.0-1.0,null,<p></p>,,null,,,,,,,,,,,,,,,,
,do_recog,499,1016583,0.0-254.0-0.0,712,,,,56,,,,475,probe-231,,,,,0,[object Object],null,null,1,
,html-keyboard-response,500,1017585,0.0-254.0-1.0,null,<p></p>,,null,,,,,,,,,,,,,,,,
,do_trial,501,1020548,0.0-255.0-0.0,430,,,,49,"1,0,0",6,blank,476,null,0.632294976,0.199595769,0.062947753,1,,,,,,
,html-keyboard-response,502,1021550,0.0-255.0-1.0,null,<p></p>,,null,,,,,,,,,,,,,,,,
,do_recog,503,1023611,0.0-256.0-0.0,554,,,,56,,,,477,probe-251,,,,,0,[object Object],null,null,1,
,html-keyboard-response,504,1024612,0.0-256.0-1.0,null,<p></p>,,null,,,,,,,,,,,,,,,,
,do_trial,505,1027537,0.0-257.0-0.0,392,,,,49,"0,1,0",6,blank,478,null,0.558822772,0.497807873,0.052136807,0,,,,,,
,html-keyboard-response,506,1028539,0.0-257.0-1.0,null,<p></p>,,null,,,,,,,,,,,,,,,,
,do_recog,507,1030852,0.0-258.0-0.0,807,,,,56,,,,479,probe-239,,,,,0,[object Object],null,null,1,
,html-keyboard-response,508,1031854,0.0-258.0-1.0,null,<p></p>,,null,,,,,,,,,,,,,,,,
,do_pick_best_pirate,509,1037001,0.0-259.0-0.0,4138,,,,49,,,,,,,,,,,,,,,
,do_pick_best_pirate,510,1040277,0.0-260.0-0.0,2268,,,,49,,,,,,,,,,,,,,,
,do_pick_best_pirate,511,1042982,0.0-261.0-0.0,1699,,,,51,,,,,,,,,,,,,,,
,do_pick_best_pirate,512,1045855,0.0-262.0-0.0,1867,,,,50,,,,,,,,,,,,,,,
,do_pick_best_pirate,513,1048433,0.0-263.0-0.0,1571,,,,51,,,,,,,,,,,,,,,
,do_pick_best_pirate,514,1050800,0.0-264.0-0.0,1360,,,,49,,,,,,,,,,,,,,,
,html-keyboard-response,515,1055840,0.0-265.0-0.0,5038,<p>You are all done with the experiment!</p><p> You made $15 plus $3 in bonus payment!</p><p>Thank you for participating. You will recieve your payment within 3 days.<p><b>[Press the space bar to end the experiment]</b></p></div>,,32,,,,,,,,,,,,,,,,