"success","trial_type","trial_index","time_elapsed","internal_node_id","rt","stimulus","key_press","subject_id","participant_id","age","gender","prompt","response","choice_outcomes","context_n","context_img_id","trial_n","probe_img_id","pR_red","pR_white","pR_black","outcome","is_valid","image_to_show","probed_trial","probed_context","correct","probe","probed_trial_n","probed_context_n","context_im"
"true","fullscreen","0","3513","0.0-0.0","","","","","","","","","","","","","","","","","","","","","","","","","","",""
"","pavlovia","1","3518","0.0-1.0","","","","","","","","","","","","","","","","","","","","","","","","","","",""
"","welc_back","2","16198","0.0-2.0","null","run_exp/static/audio/clip_29_welcome_back.m4a","null","61","73","11","female","<div class='center'><p>Welcome to day 2!</p><p> Yesterday, you were the head captain of a pirate ship. You and your fellow pirates robbed ships for their gold and traveled to six different islands .</p></div>","","","","","","","","","","","","","","","","","","",""
"","html-keyboard-response","3","16936","0.0-3.0","736.3999998569489","<div class='center'><p>Welcome to day 2!</p><p> Yesterday, you were the head captain of a pirate ship. You and your fellow pirates robbed ships for their gold and traveled to six different islands .</p><p><b>[Press the space bar to continue]</b></p></div>","32","","","","","","","","","","","","","","","","","","","","","","","",""
"","day_1_summary_goal","4","36917","0.0-4.0","null","run_exp/static/audio/clip_30_goal_of_game.m4a","null","","","","","<div class='center'><p>Today, like yesterday, you get to pick which pirate you want to rob the next ship.</p><p>If the pirate is successful in robbing a ship, you get gold coins that look like this: </p><p><img src='run_exp/static/images/tutorial/reward.png' height='150'></p><p> If they were not successful in robbing the ship, then you will get no gold coins and you'll see a big red x like this: </p><p><img src='run_exp/static/images/tutorial/reward_no.png' height='150'></p></div>","","","","","","","","","","","","","","","","","","",""
"","html-keyboard-response","5","38515","0.0-5.0","1596.2999999523163","<div class='center'><p>Today, like yesterday, you get to pick which pirate you want to rob the next ship.</p><p>If the pirate is successful in robbing a ship, you get gold coins that look like this: </p><p><img src='run_exp/static/images/tutorial/reward.png' height='150'></p><p> If they were not successful in robbing the ship, then you will get no gold coins and you'll see a big red x like this: </p><p><img src='run_exp/static/images/tutorial/reward_no.png' height='150'></p><p><b>[Press the space bar to continue]</b></p></div>","32","","","","","","","","","","","","","","","","","","","","","","","",""
"","day_1_summary_pick","6","56357","0.0-6.0","null","run_exp/static/audio/clip_31_how_to_pick_a_pirate.m4a","null","","","","","<div class='center'><p>Also, just like yesterday, you will use the 1,2,3 keys on your keyboard to pick a pirate. Press '1' to choose red beard, '2' to choose white beard, and '3' to choose black beard . You only have 3 seconds to pick a pirate, so please make a choice quickly!</p></div>","","","","","","","","","","","","","","","","","","",""
"","html-keyboard-response","7","56847","0.0-7.0","488.5","<div class='center'><p>Also, just like yesterday, you will use the 1,2,3 keys on your keyboard to pick a pirate. Press '1' to choose red beard, '2' to choose white beard, and '3' to choose black beard . You only have 3 seconds to pick a pirate, so please make a choice quickly!</p><p><b>[Press the space bar to continue]</b></p></div>","32","","","","","","","","","","","","","","","","","","","","","","","",""
"","test_phase_begin","8","81297","0.0-8.0","null","run_exp/static/audio/clip_32_final_place.m4a","null","","","","","<div class='center'><p>You’ve arrived at the final island of your journey! Unfortunately, it’s very foggy out, so you won’t be able to see it in the distance like the other islands you've visited.</p><p>You’ll still be deciding which pirate you want to rob a ship like before. However, because of the fog, you also won’t be able to see the ship.</p><p>This means you do not have to remember the ships you rob on this island.</p></p></div>","","","","","","","","","","","","","","","","","","",""
"","html-keyboard-response","9","81686","0.0-9.0","388","<div class='center'><p>You’ve arrived at the final island of your journey! Unfortunately, it’s very foggy out, so you won’t be able to see it in the distance like the other islands you've visited.</p><p>You’ll still be deciding which pirate you want to rob a ship like before. However, because of the fog, you also won’t be able to see the ship.</p><p>This means you do not have to remember the ships you rob on this island.</p></p><p><b>[Press the space bar to continue]</b></p></div>","32","","","","","","","","","","","","","","","","","","","","","","","",""
"","explain_probe_1","10","91118","0.0-10.0","null","run_exp/static/audio/clip_33_recognition_1.m4a","null","","","","","<div class='center'><p> Sometimes you’ll be shown a ship, and you will be asked if you saw this ship on a past island.</p><p> Here is an example of what you will see.</p><p><img src='run_exp/static/images/tutorial/example_recog_trial.png' height='500'></p></div>","","","","","","","","","","","","","","","","","","",""
"","html-keyboard-response","11","92557","0.0-11.0","1438","<div class='center'><p> Sometimes you’ll be shown a ship, and you will be asked if you saw this ship on a past island.</p><p> Here is an example of what you will see.</p><p><img src='run_exp/static/images/tutorial/example_recog_trial.png' height='500'></p><p><b>[Press the space bar to continue]</b></p></div>","32","","","","","","","","","","","","","","","","","","","","","","","",""
"","explain_probe_2","12","119377","0.0-12.0","null","run_exp/static/audio/clip_34_recognition_2.m4a","null","","","","","<div class='center'><p> You will press the 5, 6, 7, 8 keys on your keyboard to respond.</p><p>If you are very sure saw the ship, press <b>5</b> on your keyboard.</p><p> If you think you  saw it before but are not sure, then press <b>6</b>.</p><p> If you think you have <b>not</b> seen it before but are not sure, then press <b>7</b>.</p><p> If you are sure you did <b>not</b> see the ship before, then press <b>8</b>.</p><p><img src='run_exp/static/images/tutorial/example_recog_trial.png' height='500'></p></div>","","","","","","","","","","","","","","","","","","",""
"","html-keyboard-response","13","120578","0.0-13.0","1198.9000000953674","<div class='center'><p> You will press the 5, 6, 7, 8 keys on your keyboard to respond.</p><p>If you are very sure saw the ship, press <b>5</b> on your keyboard.</p><p> If you think you  saw it before but are not sure, then press <b>6</b>.</p><p> If you think you have <b>not</b> seen it before but are not sure, then press <b>7</b>.</p><p> If you are sure you did <b>not</b> see the ship before, then press <b>8</b>.</p><p><img src='run_exp/static/images/tutorial/example_recog_trial.png' height='500'></p><p><b>[Press the space bar to continue]</b></p></div>","32","","","","","","","","","","","","","","","","","","","","","","","",""
"","explain_outcome","14","142137","0.0-14.0","null","run_exp/static/audio/clip_35_recognition_3.m4a","null","","","","","<div class='center'><p> If you remember correctly, then you’ll get a gold coin like this: </p><p><img src='run_exp/static/images/tutorial/reward_small.png' height='200'></p><p>If you do not remember correctly, then you'll see a red x like this: </p><p><img src='run_exp/static/images/tutorial/reward_no.png' height='200'></p><p>Importantly, when you are shown a ship, take the time to remind yourself which island you saw it on. This will help you in the next part of the study.</p></div>","","","","","","","","","","","","","","","","","","",""
"","html-keyboard-response","15","142568","0.0-15.0","428.7999999523163","<div class='center'><p> If you remember correctly, then you’ll get a gold coin like this: </p><p><img src='run_exp/static/images/tutorial/reward_small.png' height='200'></p><p>If you do not remember correctly, then you'll see a red x like this: </p><p><img src='run_exp/static/images/tutorial/reward_no.png' height='200'></p><p>Importantly, when you are shown a ship, take the time to remind yourself which island you saw it on. This will help you in the next part of the study.</p><p><b>[Press the space bar to continue]</b></p></div>","32","","","","","","","","","","","","","","","","","","","","","","","",""
"","begin_test_phase","16","167097","0.0-16.0","null","run_exp/static/audio/clip_36_begin_final.m4a","null","","","","","<div class='center'><p>Let's go over the important points again. Your job is to: </p><p>1. Pick the pirate who is best at robbing ships and will bring you back gold coins. </p><p>2. Correctly remember whether or not you saw a ship before. If you did see the ship before, remind yourself on which island you saw the ship. </p></div>","","","","","","","","","","","","","","","","","","",""
"","html-keyboard-response","17","167798","0.0-17.0","646.3000001907349","<div class='center'><p>Let's go over the important points again. Your job is to: </p><p>1. Pick the pirate who is best at robbing ships and will bring you back gold coins. </p><p>2. Correctly remember whether or not you saw a ship before. If you did see the ship before, remind yourself on which island you saw the ship. </p><p><b>[Press the space bar to continue]</b></p></div>","32","","","","","","","","","","","","","","","","","","","","","","","",""
"","do_welcome","18","169317","0.0-18.0","null","","","","","","","","null","","","","","","","","","","","","","","","","","",""
"","do_trial","19","173687","0.0-19.0-0.0","1775.5","","","","","","","","49","0,1,1","6","blank","230","null","0.5252374812829901","0.19006474591738376","0.4477002809356436","0","","","","","","","","",""
"","html-keyboard-response","20","174696","0.0-19.0-1.0","null","<p></p>","null","","","","","","","","","","","","","","","","","","","","","","","",""
"","do_trial","21","177869","0.0-20.0-0.0","581.5","","","","","","","","50","1,0,0","6","blank","231","null","0.5418749336898175","0.13775457731622004","0.40479160121525354","0","","","","","","","","",""
"","html-keyboard-response","22","178885","0.0-20.0-1.0","null","<p></p>","null","","","","","","","","","","","","","","","","","","","","","","","",""
"","do_trial","23","182027","0.0-21.0-0.0","549.6999998092651","","","","","","","","51","1,0,1","6","blank","232","null","0.6747753266835587","0.34306445874226865","0.41802728995272703","1","","","","","","","","",""
"","html-keyboard-response","24","183029","0.0-21.0-1.0","null","<p></p>","null","","","","","","","","","","","","","","","","","","","","","","","",""
"","do_trial","25","185977","0.0-22.0-0.0","390.09999990463257","","","","","","","","51","1,0,0","6","blank","233","null","0.5907257459890066","0.2921256706776751","0.3744191380428537","0","","","","","","","","",""
"","html-keyboard-response","26","186990","0.0-22.0-1.0","null","<p></p>","null","","","","","","","","","","","","","","","","","","","","","","","",""
"","do_trial","27","190000","0.0-23.0-0.0","414.2000000476837","","","","","","","","50","0,1,0","6","blank","234","null","0.6830239565078453","0.3106383068380806","0.29212440215615654","1","","","","","","","","",""
"","html-keyboard-response","28","191017","0.0-23.0-1.0","null","<p></p>","null","","","","","","","","","","","","","","","","","","","","","","","",""
"","do_trial","29","194917","0.0-24.0-0.0","1342.7999999523163","","","","","","","","49","0,1,0","6","blank","235","null","0.7347018995341352","0.22327598019585196","0.24874105851843417","0","","","","","","","","",""
"","html-keyboard-response","30","195930","0.0-24.0-1.0","null","<p></p>","null","","","","","","","","","","","","","","","","","","","","","","","",""
"","do_trial","31","198905","0.0-25.0-0.0","396.59999990463257","","","","","","","","49","0,0,0","6","blank","236","null","0.6260092411501958","0.1592173314600645","0.26941313066386313","0","","","","","","","","",""
"","html-keyboard-response","32","199917","0.0-25.0-1.0","null","<p></p>","null","","","","","","","","","","","","","","","","","","","","","","","",""
"","do_trial","33","202945","0.0-26.0-0.0","449.5","","","","","","","","49","0,1,0","6","blank","237","null","0.4177205225832985","0.10264547356203928","0.23246060184440054","0","","","","","","","","",""
"","html-keyboard-response","34","203956","0.0-26.0-1.0","null","<p></p>","null","","","","","","","","","","","","","","","","","","","","","","","",""
"","do_trial","35","206888","0.0-27.0-0.0","358.2000000476837","","","","","","","","50","0,0,0","6","blank","238","null","0.5681968208920977","0.1283199248728247","0.23977072394583293","0","","","","","","","","",""
"","html-keyboard-response","36","207903","0.0-27.0-1.0","null","<p></p>","null","","","","","","","","","","","","","","","","","","","","","","","",""
"","do_trial","37","211304","0.0-28.0-0.0","823.1000001430511","","","","","","","","51","0,0,0","6","blank","239","null","0.5820179009204356","0.1766755962437354","0.3376424959347527","0","","","","","","","","",""
"","html-keyboard-response","38","212316","0.0-28.0-1.0","null","<p></p>","null","","","","","","","","","","","","","","","","","","","","","","","",""
"","do_trial","39","215439","0.0-29.0-0.0","569.2000000476837","","","","","","","","50","1,0,0","6","blank","240","null","0.6525525522775084","0.05429241465905564","0.35638007577096886","0","","","","","","","","",""
"","html-keyboard-response","40","216451","0.0-29.0-1.0","null","<p></p>","null","","","","","","","","","","","","","","","","","","","","","","","",""
"","do_recog","41","220645","0.0-30.0-0.0","2671.600000143051","","","","","","","","53","","","","241","probe-138","","","","","1","[object Object]","84","2","1","","","",""
"","html-keyboard-response","42","221652","0.0-30.0-1.0","null","<p></p>","null","","","","","","","","","","","","","","","","","","","","","","","",""
"","do_trial","43","225821","0.0-31.0-0.0","1613.9000000953674","","","","","","","","51","0,0,0","6","blank","242","null","0.5801807643516476","0.06421324282660955","0.3032653313872715","0","","","","","","","","",""
"","html-keyboard-response","44","226823","0.0-31.0-1.0","null","<p></p>","null","","","","","","","","","","","","","","","","","","","","","","","",""
"","do_trial","45","229726","0.0-32.0-0.0","332.10000014305115","","","","","","","","50","0,0,1","6","blank","243","null","0.358698397967726","0.2220292234369958","0.3116785849246297","0","","","","","","","","",""
"","html-keyboard-response","46","230730","0.0-32.0-1.0","null","<p></p>","null","","","","","","","","","","","","","","","","","","","","","","","",""
"","do_trial","47","233710","0.0-33.0-0.0","396.2999999523163","","","","","","","","51","0,1,0","6","blank","244","null","0.24492233137044644","0.42762445901040425","0.5547397426762162","0","","","","","","","","",""
"","html-keyboard-response","48","234717","0.0-33.0-1.0","null","<p></p>","null","","","","","","","","","","","","","","","","","","","","","","","",""
"","do_trial","49","237656","0.0-34.0-0.0","360.2000000476837","","","","","","","","51","1,1,1","6","blank","245","null","0.1358387892717053","0.413687923540512","0.6183378167767686","1","","","","","","","","",""
"","html-keyboard-response","50","238667","0.0-34.0-1.0","null","<p></p>","null","","","","","","","","","","","","","","","","","","","","","","","",""
"","do_trial","51","241477","0.0-35.0-0.0","230.79999995231628","","","","","","","","51","1,1,1","6","blank","246","null","0.2278824892060466","0.39669830317188765","0.6026850070809926","1","","","","","","","","",""
"","html-keyboard-response","52","242485","0.0-35.0-1.0","null","<p></p>","null","","","","","","","","","","","","","","","","","","","","","","","",""
"","do_trial","53","245198","0.0-36.0-0.0","140.60000014305115","","","","","","","","51","0,0,0","6","blank","247","null","0.14740759713638776","0.35030821576878945","0.5776687186155046","0","","","","","","","","",""
"","html-keyboard-response","54","246205","0.0-36.0-1.0","null","<p></p>","null","","","","","","","","","","","","","","","","","","","","","","","",""
"","do_recog","55","252232","0.0-37.0-0.0","null","","","","","","","","null","","","","248","probe-100","","","","","1","[object Object]","203","5","0","","","",""
"","html-keyboard-response","56","253233","0.0-37.0-1.0","null","<p></p>","null","","","","","","","","","","","","","","","","","","","","","","","",""
"","do_trial","57","257175","0.0-38.0-0.0","1353.7000000476837","","","","","","","","51","0,0,0","6","blank","249","null","0.20951117832041927","0.30371974297952653","0.44479136279117826","0","","","","","","","","",""
"","html-keyboard-response","58","258179","0.0-38.0-1.0","null","<p></p>","null","","","","","","","","","","","","","","","","","","","","","","","",""
"","do_recog","59","261726","0.0-39.0-0.0","2035.9000000953674","","","","","","","","56","","","","250","probe-152","","","","","1","[object Object]","49","1","0","","","",""
"","html-keyboard-response","60","262737","0.0-39.0-1.0","null","<p></p>","null","","","","","","","","","","","","","","","","","","","","","","","",""
"","do_trial","61","267475","0.0-40.0-0.0","2170.199999809265","","","","","","","","51","0,0,0","6","blank","251","null","0.15499790798946975","0.24006768862258232","0.40898598643778883","0","","","","","","","","",""
"","html-keyboard-response","62","268482","0.0-40.0-1.0","null","<p></p>","null","","","","","","","","","","","","","","","","","","","","","","","",""
"","do_recog","63","272545","0.0-41.0-0.0","2551.2999999523163","","","","","","","","53","","","","252","probe-40","","","","","1","[object Object]","167","4","1","","","",""
"","html-keyboard-response","64","273548","0.0-41.0-1.0","null","<p></p>","null","","","","","","","","","","","","","","","","","","","","","","","",""
"","do_trial","65","276606","0.0-42.0-0.0","480.10000014305115","","","","","","","","51","0,0,0","6","blank","253","null","0.09416508561918409","0.20286168464916843","0.4522721719697714","0","","","","","","","","",""
"","html-keyboard-response","66","277614","0.0-42.0-1.0","null","<p></p>","null","","","","","","","","","","","","","","","","","","","","","","","",""
"","do_trial","67","280554","0.0-43.0-0.0","371","","","","","","","","51","0,1,1","6","blank","254","null","0.07406736140898393","0.4612947596158842","0.4454290719100657","1","","","","","","","","",""
"","html-keyboard-response","68","281565","0.0-43.0-1.0","null","<p></p>","null","","","","","","","","","","","","","","","","","","","","","","","",""
"","do_trial","69","284401","0.0-44.0-0.0","262.7000000476837","","","","","","","","51","0,0,1","6","blank","255","null","0.07583837203307478","0.34719404369072737","0.5750745096219815","1","","","","","","","","",""
"","html-keyboard-response","70","285417","0.0-44.0-1.0","null","<p></p>","null","","","","","","","","","","","","","","","","","","","","","","","",""
"","do_trial","71","288482","0.0-45.0-0.0","491.2000000476837","","","","","","","","51","0,0,1","6","blank","256","null","0.050316856507781726","0.40464515004875923","0.6332998530871866","1","","","","","","","","",""
"","html-keyboard-response","72","289488","0.0-45.0-1.0","null","<p></p>","null","","","","","","","","","","","","","","","","","","","","","","","",""
"","do_trial","73","292723","0.0-46.0-0.0","666","","","","","","","","51","0,0,1","6","blank","257","null","0.1258968609174313","0.5195332482732562","0.6183618565126088","1","","","","","","","","",""
"","html-keyboard-response","74","293725","0.0-46.0-1.0","null","<p></p>","null","","","","","","","","","","","","","","","","","","","","","","","",""
"","do_trial","75","297082","0.0-47.0-0.0","783.1000001430511","","","","","","","","51","0,1,0","6","blank","258","null","0.07652110624911793","0.5381116586958554","0.6654087865356358","0","","","","","","","","",""
"","html-keyboard-response","76","298095","0.0-47.0-1.0","null","<p></p>","null","","","","","","","","","","","","","","","","","","","","","","","",""
"","do_recog","77","301977","0.0-48.0-0.0","2359.9000000953674","","","","","","","","53","","","","259","probe-198","","","","","1","[object Object]","206","5","1","","","",""
"","html-keyboard-response","78","302990","0.0-48.0-1.0","null","<p></p>","null","","","","","","","","","","","","","","","","","","","","","","","",""
"","do_trial","79","306721","0.0-49.0-0.0","1164.7000000476837","","","","","","","","51","0,0,1","6","blank","260","null","0.07482993930527027","0.4345942214131049","0.5410846448959393","1","","","","","","","","",""
"","html-keyboard-response","80","307724","0.0-49.0-1.0","null","<p></p>","null","","","","","","","","","","","","","","","","","","","","","","","",""
"","do_recog","81","311365","0.0-50.0-0.0","2123.2000000476837","","","","","","","","53","","","","261","probe-200","","","","","1","[object Object]","88","2","1","","","",""
"","html-keyboard-response","82","312368","0.0-50.0-1.0","null","<p></p>","null","","","","","","","","","","","","","","","","","","","","","","","",""
"","do_trial","83","315391","0.0-51.0-0.0","465.7000000476837","","","","","","","","51","0,0,0","6","blank","262","null","0.21566496108884003","0.3724234768698457","0.6049162964059289","0","","","","","","","","",""
"","html-keyboard-response","84","316399","0.0-51.0-1.0","null","<p></p>","null","","","","","","","","","","","","","","","","","","","","","","","",""
"","do_recog","85","319896","0.0-52.0-0.0","1978.1000001430511","","","","","","","","55","","","","263","probe-34","","","","","1","[object Object]","125","3","0","","","",""
"","html-keyboard-response","86","320901","0.0-52.0-1.0","null","<p></p>","null","","","","","","","","","","","","","","","","","","","","","","","",""
"","do_trial","87","324057","0.0-53.0-0.0","581.7999999523163","","","","","","","","51","0,1,1","6","blank","264","null","0.1014044120395707","0.2987719355440464","0.599984230546466","1","","","","","","","","",""
"","html-keyboard-response","88","325065","0.0-53.0-1.0","null","<p></p>","null","","","","","","","","","","","","","","","","","","","","","","","",""
"","do_trial","89","327944","0.0-54.0-0.0","319.60000014305115","","","","","","","","51","1,0,0","6","blank","265","null","0.20342512721908768","0.3020340740507173","0.5423188104953803","0","","","","","","","","",""
"","html-keyboard-response","90","328952","0.0-54.0-1.0","null","<p></p>","null","","","","","","","","","","","","","","","","","","","","","","","",""
"","do_trial","91","331729","0.0-55.0-0.0","200.59999990463257","","","","","","","","51","0,0,1","6","blank","266","null","0.22235717272348826","0.38770491198220436","0.6755892957244116","1","","","","","","","","",""
"","html-keyboard-response","92","332746","0.0-55.0-1.0","null","<p></p>","null","","","","","","","","","","","","","","","","","","","","","","","",""
"","do_trial","93","336085","0.0-56.0-0.0","770.5999999046326","","","","","","","","51","0,0,1","6","blank","267","null","0.19719899328805743","0.36811214623541","0.6158698194995786","1","","","","","","","","",""
"","html-keyboard-response","94","337100","0.0-56.0-1.0","null","<p></p>","null","","","","","","","","","","","","","","","","","","","","","","","",""
"","do_trial","95","340353","0.0-57.0-0.0","688.3999998569489","","","","","","","","51","1,1,0","6","blank","268","null","0.30499404817545783","0.42488897620820354","0.526232562369568","0","","","","","","","","",""
"","html-keyboard-response","96","341357","0.0-57.0-1.0","null","<p></p>","null","","","","","","","","","","","","","","","","","","","","","","","",""
"","do_recog","97","344727","0.0-58.0-0.0","1858.7000000476837","","","","","","","","53","","","","269","probe-83","","","","","1","[object Object]","40","1","1","","","",""
"","html-keyboard-response","98","345734","0.0-58.0-1.0","null","<p></p>","null","","","","","","","","","","","","","","","","","","","","","","","",""
"","do_trial","99","349454","0.0-59.0-0.0","1150.5999999046326","","","","","","","","51","0,0,0","6","blank","270","null","0.2927647809755433","0.3882102672758652","0.49070270825282103","0","","","","","","","","",""
"","html-keyboard-response","100","350460","0.0-59.0-1.0","null","<p></p>","null","","","","","","","","","","","","","","","","","","","","","","","",""
"","do_trial","101","353851","0.0-60.0-0.0","815.7000000476837","","","","","","","","51","1,0,0","6","blank","271","null","0.12825036615339072","0.3025684268639974","0.6486631487274829","0","","","","","","","","",""
"","html-keyboard-response","102","354863","0.0-60.0-1.0","null","<p></p>","null","","","","","","","","","","","","","","","","","","","","","","","",""
"","do_trial","103","358056","0.0-61.0-0.0","603.0999999046326","","","","","","","","51","0,0,1","6","blank","272","null","0.1574096138986679","0.33075900111624307","0.6010137442654642","1","","","","","","","","",""
"","html-keyboard-response","104","359071","0.0-61.0-1.0","null","<p></p>","null","","","","","","","","","","","","","","","","","","","","","","","",""
"","do_trial","105","361986","0.0-62.0-0.0","357.5","","","","","","","","51","0,0,0","6","blank","273","null","0.2299304173817393","0.2926390611958159","0.6501908213018612","0","","","","","","","","",""
"","html-keyboard-response","106","362998","0.0-62.0-1.0","null","<p></p>","null","","","","","","","","","","","","","","","","","","","","","","","",""
"","do_trial","107","365956","0.0-63.0-0.0","383.19999980926514","","","","","","","","51","0,0,1","6","blank","274","null","0.22400472793562962","0.22582830189404005","0.5265505188147909","1","","","","","","","","",""
"","html-keyboard-response","108","366971","0.0-63.0-1.0","null","<p></p>","null","","","","","","","","","","","","","","","","","","","","","","","",""
"","do_trial","109","370290","0.0-64.0-0.0","735.2999999523163","","","","","","","","51","0,0,1","6","blank","275","null","0.06925431097159375","0.23406798489813455","0.5729303518614784","1","","","","","","","","",""
"","html-keyboard-response","110","371297","0.0-64.0-1.0","null","<p></p>","null","","","","","","","","","","","","","","","","","","","","","","","",""
"","do_recog","111","377321","0.0-65.0-0.0","null","","","","","","","","null","","","","276","probe-247","","","","","0","[object Object]","null","null","0","","","",""
"","html-keyboard-response","112","378334","0.0-65.0-1.0","null","<p></p>","null","","","","","","","","","","","","","","","","","","","","","","","",""
"","do_trial","113","381764","0.0-66.0-0.0","857.3000001907349","","","","","","","","51","0,0,1","6","blank","277","null","0.07955028155967614","0.19631516758677442","0.5379092403560047","1","","","","","","","","",""
"","html-keyboard-response","114","382779","0.0-66.0-1.0","null","<p></p>","null","","","","","","","","","","","","","","","","","","","","","","","",""
"","do_trial","115","385369","0.0-67.0-0.0","3.299999952316284","","","","","","","","51","0,0,1","6","blank","278","null","0.10155909818089522","0.2842167965470747","0.465152430980949","1","","","","","","","","",""
"","html-keyboard-response","116","386370","0.0-67.0-1.0","null","<p></p>","null","","","","","","","","","","","","","","","","","","","","","","","",""
"","do_recog","117","392383","0.0-68.0-0.0","null","","","","","","","","null","","","","279","probe-158","","","","","1","[object Object]","129","3","0","","","",""
"","html-keyboard-response","118","393398","0.0-68.0-1.0","null","<p></p>","null","","","","","","","","","","","","","","","","","","","","","","","",""
"","do_trial","119","399490","0.0-69.0-0.0","null","","","","","","","","null","0,0,0","6","blank","280","null","0.09135746367747864","0.28997219956972325","0.5128918226058153","","","","","","","","","",""
"","html-keyboard-response","120","400505","0.0-69.0-1.0","null","<p></p>","null","","","","","","","","","","","","","","","","","","","","","","","",""
"","do_trial","121","403884","0.0-70.0-0.0","789.2999999523163","","","","","","","","51","0,0,1","6","blank","281","null","0.15287620601443247","0.27602311796040313","0.6272039959541411","1","","","","","","","","",""
"","html-keyboard-response","122","404897","0.0-70.0-1.0","null","<p></p>","null","","","","","","","","","","","","","","","","","","","","","","","",""
"","do_trial","123","408206","0.0-71.0-0.0","745","","","","","","","","51","0,0,0","6","blank","282","null","0.0661652947211737","0.21673595966798265","0.5735612925854996","0","","","","","","","","",""
"","html-keyboard-response","124","409214","0.0-71.0-1.0","null","<p></p>","null","","","","","","","","","","","","","","","","","","","","","","","",""
"","do_trial","125","412737","0.0-72.0-0.0","959.0999999046326","","","","","","","","51","0,0,1","6","blank","283","null","0.13768904700463447","0.2338061402259033","0.5103856627064615","1","","","","","","","","",""
"","html-keyboard-response","126","413744","0.0-72.0-1.0","null","<p></p>","null","","","","","","","","","","","","","","","","","","","","","","","",""
"","do_trial","127","416906","0.0-73.0-0.0","578.6000001430511","","","","","","","","51","0,1,1","6","blank","284","null","0.05966687518436475","0.2440616730451896","0.4765445306820629","1","","","","","","","","",""
"","html-keyboard-response","128","417913","0.0-73.0-1.0","null","<p></p>","null","","","","","","","","","","","","","","","","","","","","","","","",""
"","do_recog","129","421267","0.0-74.0-0.0","1844.2000000476837","","","","","","","","53","","","","285","probe-216","","","","","1","[object Object]","160","4","1","","","",""
"","html-keyboard-response","130","422276","0.0-74.0-1.0","null","<p></p>","null","","","","","","","","","","","","","","","","","","","","","","","",""
"","do_trial","131","425164","0.0-75.0-0.0","298.10000014305115","","","","","","","","51","0,0,1","6","blank","286","null","0.05987545813554787","0.30505136754828605","0.5905581870564243","1","","","","","","","","",""
"","html-keyboard-response","132","426166","0.0-75.0-1.0","null","<p></p>","null","","","","","","","","","","","","","","","","","","","","","","","",""
"","do_trial","133","429227","0.0-76.0-0.0","494.60000014305115","","","","","","","","51","0,1,1","6","blank","287","null","0.19194722457436925","0.3862531229740888","0.5736366398633409","1","","","","","","","","",""
"","html-keyboard-response","134","430244","0.0-76.0-1.0","null","<p></p>","null","","","","","","","","","","","","","","","","","","","","","","","",""
"","do_trial","135","433219","0.0-77.0-0.0","400.7000000476837","","","","","","","","51","0,0,1","6","blank","288","null","0.1672430627395094","0.12433142715630247","0.47935697584680825","1","","","","","","","","",""
"","html-keyboard-response","136","434234","0.0-77.0-1.0","null","<p></p>","null","","","","","","","","","","","","","","","","","","","","","","","",""
"","do_recog","137","437627","0.0-78.0-0.0","1885.6000001430511","","","","","","","","53","","","","289","probe-176","","","","","1","[object Object]","164","4","1","","","",""
"","html-keyboard-response","138","438634","0.0-78.0-1.0","null","<p></p>","null","","","","","","","","","","","","","","","","","","","","","","","",""
"","do_trial","139","441979","0.0-79.0-0.0","788","","","","","","","","51","0,1,0","6","blank","290","null","0.06253366138959293","0.1511325762307751","0.47263972078410005","0","","","","","","","","",""
"","html-keyboard-response","140","442993","0.0-79.0-1.0","null","<p></p>","null","","","","","","","","","","","","","","","","","","","","","","","",""
"","do_recog","141","447132","0.0-80.0-0.0","2625.2000000476837","","","","","","","","53","","","","291","probe-75","","","","","1","[object Object]","128","3","1","","","",""
"","html-keyboard-response","142","448150","0.0-80.0-1.0","null","<p></p>","null","","","","","","","","","","","","","","","","","","","","","","","",""
"","do_trial","143","451104","0.0-81.0-0.0","386.40000009536743","","","","","","","","51","0,0,1","6","blank","292","null","0.06432251654606325","0.3365943286795717","0.4845420560648366","1","","","","","","","","",""
"","html-keyboard-response","144","452111","0.0-81.0-1.0","null","<p></p>","null","","","","","","","","","","","","","","","","","","","","","","","",""
"","do_trial","145","455237","0.0-82.0-0.0","560.5999999046326","","","","","","","","51","0,1,0","6","blank","293","null","0.07964715050419519","0.2727768553575717","0.5223544154960037","0","","","","","","","","",""
"","html-keyboard-response","146","456252","0.0-82.0-1.0","null","<p></p>","null","","","","","","","","","","","","","","","","","","","","","","","",""
"","do_trial","147","459253","0.0-83.0-0.0","417.40000009536743","","","","","","","","51","0,0,0","6","blank","294","null","0.11503993954548941","0.3329212562342436","0.5733735084059473","0","","","","","","","","",""
"","html-keyboard-response","148","460262","0.0-83.0-1.0","null","<p></p>","null","","","","","","","","","","","","","","","","","","","","","","","",""
"","do_trial","149","463251","0.0-84.0-0.0","419.7999999523163","","","","","","","","51","0,1,1","6","blank","295","null","0.23231767260137173","0.43446426339622224","0.3910841170360954","1","","","","","","","","",""
"","html-keyboard-response","150","464261","0.0-84.0-1.0","null","<p></p>","null","","","","","","","","","","","","","","","","","","","","","","","",""
"","do_trial","151","467238","0.0-85.0-0.0","415.2999999523163","","","","","","","","51","0,1,0","6","blank","296","null","0.21686693690861325","0.5550292764456543","0.20270799377346763","0","","","","","","","","",""
"","html-keyboard-response","152","468244","0.0-85.0-1.0","null","<p></p>","null","","","","","","","","","","","","","","","","","","","","","","","",""
"","do_recog","153","471300","0.0-86.0-0.0","1534.4000000953674","","","","","","","","53","","","","297","probe-196","","","","","1","[object Object]","89","2","1","","","",""
"","html-keyboard-response","154","472316","0.0-86.0-1.0","null","<p></p>","null","","","","","","","","","","","","","","","","","","","","","","","",""
"","do_trial","155","475261","0.0-87.0-0.0","368.59999990463257","","","","","","","","51","1,0,0","6","blank","298","null","0.1946215023094794","0.6820314350707649","0.11839999784185282","0","","","","","","","","",""
"","html-keyboard-response","156","476267","0.0-87.0-1.0","null","<p></p>","null","","","","","","","","","","","","","","","","","","","","","","","",""
"","do_recog","157","480100","0.0-88.0-0.0","2312.600000143051","","","","","","","","53","","","","299","probe-97","","","","","1","[object Object]","201","5","1","","","",""
"","html-keyboard-response","158","481117","0.0-88.0-1.0","null","<p></p>","null","","","","","","","","","","","","","","","","","","","","","","","",""
"","do_trial","159","483945","0.0-89.0-0.0","251","","","","","","","","51","0,1,0","6","blank","300","null","0.14389510832071264","0.6977487911408595","0.13309018571166636","0","","","","","","","","",""
"","html-keyboard-response","160","484956","0.0-89.0-1.0","null","<p></p>","null","","","","","","","","","","","","","","","","","","","","","","","",""
"","do_trial","161","488533","0.0-90.0-0.0","996.7000000476837","","","","","","","","51","0,1,0","6","blank","301","null","0.1217222598117646","0.7313020473838217","0.05394480284560648","0","","","","","","","","",""
"","html-keyboard-response","162","489548","0.0-90.0-1.0","null","<p></p>","null","","","","","","","","","","","","","","","","","","","","","","","",""
"","do_recog","163","492599","0.0-91.0-0.0","1531.5","","","","","","","","53","","","","302","probe-24","","","","","1","[object Object]","44","1","1","","","",""
"","html-keyboard-response","164","493603","0.0-91.0-1.0","null","<p></p>","null","","","","","","","","","","","","","","","","","","","","","","","",""
"","do_trial","165","496536","0.0-92.0-0.0","385.90000009536743","","","","","","","","51","0,1,0","6","blank","303","null","0.1789164040581426","0.7401367620178388","0.13680971336920986","0","","","","","","","","",""
"","html-keyboard-response","166","497548","0.0-92.0-1.0","null","<p></p>","null","","","","","","","","","","","","","","","","","","","","","","","",""
"","do_trial","167","500218","0.0-93.0-0.0","84.10000014305115","","","","","","","","50","1,0,0","6","blank","304","null","0.23553600055466195","0.639448695717481","0.05836083594059808","0","","","","","","","","",""
"","html-keyboard-response","168","501228","0.0-93.0-1.0","null","<p></p>","null","","","","","","","","","","","","","","","","","","","","","","","",""
"","do_recog","169","505637","0.0-94.0-0.0","2889.9000000953674","","","","","","","","56","","","","305","probe-240","","","","","0","[object Object]","null","null","1","","","",""
"","html-keyboard-response","170","506640","0.0-94.0-1.0","null","<p></p>","null","","","","","","","","","","","","","","","","","","","","","","","",""
"","do_trial","171","509722","0.0-95.0-0.0","495.30000019073486","","","","","","","","51","0,1,0","6","blank","306","null","0.24524711071985175","0.6825036255593508","0.09831092988738548","0","","","","","","","","",""
"","html-keyboard-response","172","510726","0.0-95.0-1.0","null","<p></p>","null","","","","","","","","","","","","","","","","","","","","","","","",""
"","do_trial","173","513583","0.0-96.0-0.0","277.09999990463257","","","","","","","","51","0,0,0","6","blank","307","null","0.2831459509912018","0.5621932032053851","0.1319684023130197","0","","","","","","","","",""
"","html-keyboard-response","174","514587","0.0-96.0-1.0","null","<p></p>","null","","","","","","","","","","","","","","","","","","","","","","","",""
"","do_trial","175","517474","0.0-97.0-0.0","310.30000019073486","","","","","","","","51","0,1,1","6","blank","308","null","0.2864807913357068","0.6766553589588732","0.0978174032577606","1","","","","","","","","",""
"","html-keyboard-response","176","518477","0.0-97.0-1.0","null","<p></p>","null","","","","","","","","","","","","","","","","","","","","","","","",""
"","do_recog","177","522276","0.0-98.0-0.0","2284.7000000476837","","","","","","","","53","","","","309","probe-175","","","","","1","[object Object]","45","1","1","","","",""
"","html-keyboard-response","178","523291","0.0-98.0-1.0","null","<p></p>","null","","","","","","","","","","","","","","","","","","","","","","","",""
"","do_trial","179","526721","0.0-99.0-0.0","852.6999998092651","","","","","","","","51","1,1,0","6","blank","310","null","0.20244257915032243","0.7091283069716081","0.05530879160956368","0","","","","","","","","",""
"","html-keyboard-response","180","527751","0.0-99.0-1.0","null","<p></p>","null","","","","","","","","","","","","","","","","","","","","","","","",""
"","do_recog","181","531344","0.0-100.0-0.0","2081.7000000476837","","","","","","","","53","","","","311","probe-104","","","","","1","[object Object]","83","2","1","","","",""
"","html-keyboard-response","182","532349","0.0-100.0-1.0","null","<p></p>","null","","","","","","","","","","","","","","","","","","","","","","","",""
"","do_trial","183","535011","0.0-101.0-0.0","92.89999985694885","","","","","","","","51","1,1,0","6","blank","312","null","0.2768672996897459","0.6601588945995284","0.24067426615552082","0","","","","","","","","",""
"","html-keyboard-response","184","536027","0.0-101.0-1.0","null","<p></p>","null","","","","","","","","","","","","","","","","","","","","","","","",""
"","do_recog","185","539058","0.0-102.0-0.0","1524.7000000476837","","","","","","","","53","","","","313","probe-91","","","","","1","[object Object]","86","2","1","","","",""
"","html-keyboard-response","186","540070","0.0-102.0-1.0","null","<p></p>","null","","","","","","","","","","","","","","","","","","","","","","","",""
"","do_trial","187","542730","0.0-103.0-0.0","72.69999980926514","","","","","","","","51","0,1,0","6","blank","314","null","0.293570087061757","0.6293144437579129","0.05666736342946239","0","","","","","","","","",""
"","html-keyboard-response","188","543748","0.0-103.0-1.0","null","<p></p>","null","","","","","","","","","","","","","","","","","","","","","","","",""
"","do_trial","189","546477","0.0-104.0-0.0","157.40000009536743","","","","","","","","51","0,1,0","6","blank","315","null","0.35626568378881174","0.6105838681949356","0.0956250984456435","0","","","","","","","","",""
"","html-keyboard-response","190","547496","0.0-104.0-1.0","null","<p></p>","null","","","","","","","","","","","","","","","","","","","","","","","",""
"","do_trial","191","550590","0.0-105.0-0.0","519.0999999046326","","","","","","","","51","0,1,0","6","blank","316","null","0.31493369082812034","0.7570099747243475","0.0886602637446671","0","","","","","","","","",""
"","html-keyboard-response","192","551591","0.0-105.0-1.0","null","<p></p>","null","","","","","","","","","","","","","","","","","","","","","","","",""
"","do_recog","193","554482","0.0-106.0-0.0","1371.2000000476837","","","","","","","","53","","","","317","probe-41","","","","","1","[object Object]","127","3","1","","","",""
"","html-keyboard-response","194","555486","0.0-106.0-1.0","null","<p></p>","null","","","","","","","","","","","","","","","","","","","","","","","",""
"","do_trial","195","558491","0.0-107.0-0.0","436.09999990463257","","","","","","","","51","0,1,0","6","blank","318","null","0.32468800687703153","0.6932988238967434","0.09038399421614544","0","","","","","","","","",""
"","html-keyboard-response","196","559493","0.0-107.0-1.0","null","<p></p>","null","","","","","","","","","","","","","","","","","","","","","","","",""
"","do_trial","197","562524","0.0-108.0-0.0","451.7000000476837","","","","","","","","51","0,0,0","6","blank","319","null","0.33584568686777716","0.6649078853216203","0.05422093645516469","0","","","","","","","","",""
"","html-keyboard-response","198","563526","0.0-108.0-1.0","null","<p></p>","null","","","","","","","","","","","","","","","","","","","","","","","",""
"","do_recog","199","566609","0.0-109.0-0.0","1564.7999999523163","","","","","","","","53","","","","320","probe-203","","","","","1","[object Object]","121","3","1","","","",""
"","html-keyboard-response","200","567624","0.0-109.0-1.0","null","<p></p>","null","","","","","","","","","","","","","","","","","","","","","","","",""
"","do_trial","201","571208","0.0-110.0-0.0","1034.7999999523163","","","","","","","","51","0,1,0","6","blank","321","null","0.30893150602727604","0.7050214216655729","0.1325605356475292","0","","","","","","","","",""
"","html-keyboard-response","202","572218","0.0-110.0-1.0","null","<p></p>","null","","","","","","","","","","","","","","","","","","","","","","","",""
"","do_recog","203","574981","0.0-111.0-0.0","1255.3999998569489","","","","","","","","53","","","","322","probe-52","","","","","1","[object Object]","42","1","1","","","",""
"","html-keyboard-response","204","575997","0.0-111.0-1.0","null","<p></p>","null","","","","","","","","","","","","","","","","","","","","","","","",""
"","do_trial","205","578572","0.0-112.0-0.0","0.09999990463256836","","","","","","","","51","0,1,0","6","blank","323","null","0.3253532063879454","0.7483324394062298","0.12531509840320001","0","","","","","","","","",""
"","html-keyboard-response","206","579580","0.0-112.0-1.0","null","<p></p>","null","","","","","","","","","","","","","","","","","","","","","","","",""
"","do_recog","207","582493","0.0-113.0-0.0","1399.9000000953674","","","","","","","","53","","","","324","probe-103","","","","","1","[object Object]","124","3","1","","","",""
"","html-keyboard-response","208","583496","0.0-113.0-1.0","null","<p></p>","null","","","","","","","","","","","","","","","","","","","","","","","",""
"","do_trial","209","586483","0.0-114.0-0.0","398.89999985694885","","","","","","","","51","0,1,1","6","blank","325","null","0.14441610240309918","0.6727583868925565","0.14347100651759995","1","","","","","","","","",""
"","html-keyboard-response","210","587497","0.0-114.0-1.0","null","<p></p>","null","","","","","","","","","","","","","","","","","","","","","","","",""
"","do_trial","211","591599","0.0-115.0-0.0","1526.3999998569489","","","","","","","","51","0,1,0","6","blank","326","null","0.2241319133533166","0.6906547323083282","0.08761942578695535","0","","","","","","","","",""
"","html-keyboard-response","212","592605","0.0-115.0-1.0","null","<p></p>","null","","","","","","","","","","","","","","","","","","","","","","","",""
"","do_trial","213","595643","0.0-116.0-0.0","465.39999985694885","","","","","","","","51","0,1,1","6","blank","327","null","0.2907265687164379","0.7000044974831804","0.15920285455356006","1","","","","","","","","",""
"","html-keyboard-response","214","596644","0.0-116.0-1.0","null","<p></p>","null","","","","","","","","","","","","","","","","","","","","","","","",""
"","do_trial","215","599710","0.0-117.0-0.0","495.2999999523163","","","","","","","","51","0,1,1","6","blank","328","null","0.27151098167780424","0.7519287831697836","0.2520990988881036","1","","","","","","","","",""
"","html-keyboard-response","216","600714","0.0-117.0-1.0","null","<p></p>","null","","","","","","","","","","","","","","","","","","","","","","","",""
"","do_recog","217","603669","0.0-118.0-0.0","1437.8999998569489","","","","","","","","53","","","","329","probe-42","","","","","1","[object Object]","168","4","1","","","",""
"","html-keyboard-response","218","604673","0.0-118.0-1.0","null","<p></p>","null","","","","","","","","","","","","","","","","","","","","","","","",""
"","do_trial","219","609201","0.0-119.0-0.0","1957.0999999046326","","","","","","","","51","0,1,0","6","blank","330","null","0.18012235229129758","0.5981665865519779","0.25261859829022304","0","","","","","","","","",""
"","html-keyboard-response","220","610212","0.0-119.0-1.0","null","<p></p>","null","","","","","","","","","","","","","","","","","","","","","","","",""
"","do_trial","221","616282","0.0-120.0-0.0","null","","","","","","","","null","0,0,0","6","blank","331","null","0.22343696202663868","0.5384823235978086","0.07654590983731847","","","","","","","","","",""
"","html-keyboard-response","222","617297","0.0-120.0-1.0","null","<p></p>","null","","","","","","","","","","","","","","","","","","","","","","","",""
"","do_trial","223","620322","0.0-121.0-0.0","442.2000000476837","","","","","","","","51","0,1,0","6","blank","332","null","0.24925153871763622","0.6143501657190262","0.12257131473391696","0","","","","","","","","",""
"","html-keyboard-response","224","621338","0.0-121.0-1.0","null","<p></p>","null","","","","","","","","","","","","","","","","","","","","","","","",""
"","do_trial","225","624170","0.0-122.0-0.0","285.40000009536743","","","","","","","","51","0,0,0","6","blank","333","null","0.36935905344167114","0.5662841570282167","0.11481326917196777","0","","","","","","","","",""
"","html-keyboard-response","226","625177","0.0-122.0-1.0","null","<p></p>","null","","","","","","","","","","","","","","","","","","","","","","","",""
"","do_trial","227","628413","0.0-123.0-0.0","664.6000001430511","","","","","","","","51","1,0,0","6","blank","334","null","0.5312465920676158","0.5508404813500757","0.15189549456099463","0","","","","","","","","",""
"","html-keyboard-response","228","629429","0.0-123.0-1.0","null","<p></p>","null","","","","","","","","","","","","","","","","","","","","","","","",""
"","do_recog","229","632437","0.0-124.0-0.0","1494","","","","","","","","53","","","","335","probe-69","","","","","1","[object Object]","161","4","1","","","",""
"","html-keyboard-response","230","633452","0.0-124.0-1.0","null","<p></p>","null","","","","","","","","","","","","","","","","","","","","","","","",""
"","do_trial","231","636447","0.0-125.0-0.0","421.7000000476837","","","","","","","","51","1,0,0","6","blank","336","null","0.40584528157618754","0.4975980829198378","0.07467683377683149","0","","","","","","","","",""
"","html-keyboard-response","232","637455","0.0-125.0-1.0","null","<p></p>","null","","","","","","","","","","","","","","","","","","","","","","","",""
"","do_recog","233","641243","0.0-126.0-0.0","2268.399999856949","","","","","","","","53","","","","337","probe-249","","","","","0","[object Object]","null","null","0","","","",""
"","html-keyboard-response","234","642252","0.0-126.0-1.0","null","<p></p>","null","","","","","","","","","","","","","","","","","","","","","","","",""
"","do_trial","235","646795","0.0-127.0-0.0","1965.5999999046326","","","","","","","","51","0,0,0","6","blank","338","null","0.3344399307648214","0.495011967594076","0.09934186524221908","0","","","","","","","","",""
"","html-keyboard-response","236","647798","0.0-127.0-1.0","null","<p></p>","null","","","","","","","","","","","","","","","","","","","","","","","",""
"","do_trial","237","650773","0.0-128.0-0.0","427.09999990463257","","","","","","","","51","0,0,0","6","blank","339","null","0.21116228092492947","0.7185920259514533","0.07933001516038374","0","","","","","","","","",""
"","html-keyboard-response","238","651790","0.0-128.0-1.0","null","<p></p>","null","","","","","","","","","","","","","","","","","","","","","","","",""
"","do_recog","239","655645","0.0-129.0-0.0","2332.199999809265","","","","","","","","53","","","","340","probe-49","","","","","1","[object Object]","126","3","1","","","",""
"","html-keyboard-response","240","656654","0.0-129.0-1.0","null","<p></p>","null","","","","","","","","","","","","","","","","","","","","","","","",""
"","do_trial","241","659576","0.0-130.0-0.0","361.90000009536743","","","","","","","","51","0,1,0","6","blank","341","null","0.2602443269375711","0.758473796230324","0.08771419239414861","0","","","","","","","","",""
"","html-keyboard-response","242","660581","0.0-130.0-1.0","null","<p></p>","null","","","","","","","","","","","","","","","","","","","","","","","",""
"","do_trial","243","663590","0.0-131.0-0.0","437.7999999523163","","","","","","","","51","1,1,0","6","blank","342","null","0.21945638543923493","0.7550621406532612","0.055377869706731656","0","","","","","","","","",""
"","html-keyboard-response","244","664594","0.0-131.0-1.0","null","<p></p>","null","","","","","","","","","","","","","","","","","","","","","","","",""
"","do_trial","245","667589","0.0-132.0-0.0","442.89999985694885","","","","","","","","51","1,0,0","6","blank","343","null","0.24364622248439985","0.6405311391204799","0.2114398920052887","0","","","","","","","","",""
"","html-keyboard-response","246","668590","0.0-132.0-1.0","null","<p></p>","null","","","","","","","","","","","","","","","","","","","","","","","",""
"","do_trial","247","671471","0.0-133.0-0.0","330.89999985694885","","","","","","","","51","0,1,0","6","blank","344","null","0.28980415327058223","0.6764881126310602","0.1509843153153617","0","","","","","","","","",""
"","html-keyboard-response","248","672485","0.0-133.0-1.0","null","<p></p>","null","","","","","","","","","","","","","","","","","","","","","","","",""
"","do_trial","249","676069","0.0-134.0-0.0","1029.7999999523163","","","","","","","","51","1,1,0","6","blank","345","null","0.3215701481112497","0.7737110559666135","0.20668353343920612","0","","","","","","","","",""
"","html-keyboard-response","250","677086","0.0-134.0-1.0","null","<p></p>","null","","","","","","","","","","","","","","","","","","","","","","","",""
"","do_recog","251","680194","0.0-135.0-0.0","1588.1999998092651","","","","","","","","53","","","","346","probe-133","","","","","1","[object Object]","80","2","1","","","",""
"","html-keyboard-response","252","681200","0.0-135.0-1.0","null","<p></p>","null","","","","","","","","","","","","","","","","","","","","","","","",""
"","do_trial","253","687275","0.0-136.0-0.0","null","","","","","","","","null","0,0,0","6","blank","347","null","0.23953784505841916","0.7159671470927674","0.1707820209145375","","","","","","","","","",""
"","html-keyboard-response","254","688279","0.0-136.0-1.0","null","<p></p>","null","","","","","","","","","","","","","","","","","","","","","","","",""
"","do_recog","255","692194","0.0-137.0-0.0","2403.5","","","","","","","","53","","","","348","probe-201","","","","","1","[object Object]","169","4","1","","","",""
"","html-keyboard-response","256","693206","0.0-137.0-1.0","null","<p></p>","null","","","","","","","","","","","","","","","","","","","","","","","",""
"","do_trial","257","696896","0.0-138.0-0.0","1123.3999998569489","","","","","","","","51","0,1,0","6","blank","349","null","0.33842851950956776","0.6677929646080786","0.21053382880701044","0","","","","","","","","",""
"","html-keyboard-response","258","697911","0.0-138.0-1.0","null","<p></p>","null","","","","","","","","","","","","","","","","","","","","","","","",""
"","do_trial","259","701176","0.0-139.0-0.0","692.2000000476837","","","","","","","","51","0,0,0","6","blank","350","null","0.30559381137820507","0.6805400452515201","0.25871907716941034","0","","","","","","","","",""
"","html-keyboard-response","260","702179","0.0-139.0-1.0","null","<p></p>","null","","","","","","","","","","","","","","","","","","","","","","","",""
"","do_trial","261","708293","0.0-140.0-0.0","null","","","","","","","","null","0,1,1","6","blank","351","null","0.23577918598403752","0.65351110221523","0.3522488320309564","","","","","","","","","",""
"","html-keyboard-response","262","709298","0.0-140.0-1.0","null","<p></p>","null","","","","","","","","","","","","","","","","","","","","","","","",""
"","do_trial","263","715383","0.0-141.0-0.0","null","","","","","","","","null","0,1,1","6","blank","352","null","0.3349047934121487","0.41947752967663626","0.2962224638254823","","","","","","","","","",""
"","html-keyboard-response","264","716386","0.0-141.0-1.0","null","<p></p>","null","","","","","","","","","","","","","","","","","","","","","","","",""
"","do_recog","265","722398","0.0-142.0-0.0","null","","","","","","","","null","","","","353","probe-81","","","","","1","[object Object]","207","5","0","","","",""
"","html-keyboard-response","266","723400","0.0-142.0-1.0","null","<p></p>","null","","","","","","","","","","","","","","","","","","","","","","","",""
"","do_trial","267","726068","0.0-143.0-0.0","92.19999980926514","","","","","","","","51","1,1,0","6","blank","354","null","0.33552941079482623","0.3144144378328165","0.46373956915554787","0","","","","","","","","",""
"","html-keyboard-response","268","727080","0.0-143.0-1.0","null","<p></p>","null","","","","","","","","","","","","","","","","","","","","","","","",""
"","do_trial","269","730203","0.0-144.0-0.0","559.5","","","","","","","","51","1,0,0","6","blank","355","null","0.3881692022203781","0.4515258294068866","0.5058004487948838","0","","","","","","","","",""
"","html-keyboard-response","270","731206","0.0-144.0-1.0","null","<p></p>","null","","","","","","","","","","","","","","","","","","","","","","","",""
"","do_trial","271","734174","0.0-145.0-0.0","374","","","","","","","","51","1,0,0","6","blank","356","null","0.33744153453897757","0.4529910930565618","0.5560881022548445","0","","","","","","","","",""
"","html-keyboard-response","272","735186","0.0-145.0-1.0","null","<p></p>","null","","","","","","","","","","","","","","","","","","","","","","","",""
"","do_trial","273","738009","0.0-146.0-0.0","243.80000019073486","","","","","","","","51","0,0,1","6","blank","357","null","0.3167187614366145","0.22665619561166211","0.5144579257020722","1","","","","","","","","",""
"","html-keyboard-response","274","739024","0.0-146.0-1.0","null","<p></p>","null","","","","","","","","","","","","","","","","","","","","","","","",""
"","do_trial","275","742096","0.0-147.0-0.0","504","","","","","","","","51","0,1,0","6","blank","358","null","0.4026155985261815","0.13948814332885517","0.6129862410468431","0","","","","","","","","",""
"","html-keyboard-response","276","743098","0.0-147.0-1.0","null","<p></p>","null","","","","","","","","","","","","","","","","","","","","","","","",""
"","do_trial","277","746186","0.0-148.0-0.0","512.4000000953674","","","","","","","","51","1,0,0","6","blank","359","null","0.2495330751810373","0.12266821839442404","0.58966844062908","0","","","","","","","","",""
"","html-keyboard-response","278","747192","0.0-148.0-1.0","null","<p></p>","null","","","","","","","","","","","","","","","","","","","","","","","",""
"","do_recog","279","751324","0.0-149.0-0.0","2614.300000190735","","","","","","","","53","","","","360","probe-255","","","","","0","[object Object]","null","null","0","","","",""
"","html-keyboard-response","280","752334","0.0-149.0-1.0","null","<p></p>","null","","","","","","","","","","","","","","","","","","","","","","","",""
"","do_trial","281","754953","0.0-150.0-0.0","69.5","","","","","","","","51","0,0,1","6","blank","361","null","0.2514355122736311","0.10452301792294724","0.714292668942288","1","","","","","","","","",""
"","html-keyboard-response","282","755963","0.0-150.0-1.0","null","<p></p>","null","","","","","","","","","","","","","","","","","","","","","","","",""
"","do_trial","283","759022","0.0-151.0-0.0","493.59999990463257","","","","","","","","51","0,0,0","6","blank","362","null","0.2893193155184485","0.25155098149198785","0.5746803174083064","0","","","","","","","","",""
"","html-keyboard-response","284","760027","0.0-151.0-1.0","null","<p></p>","null","","","","","","","","","","","","","","","","","","","","","","","",""
"","do_trial","285","763293","0.0-152.0-0.0","702.6000001430511","","","","","","","","51","0,0,1","6","blank","363","null","0.3846447667802028","0.12013737916488093","0.40175788766883214","1","","","","","","","","",""
"","html-keyboard-response","286","764296","0.0-152.0-1.0","null","<p></p>","null","","","","","","","","","","","","","","","","","","","","","","","",""
"","do_trial","287","767491","0.0-153.0-0.0","616.0999999046326","","","","","","","","51","1,0,0","6","blank","364","null","0.28474201856796016","0.17030846197345523","0.45725588492046226","0","","","","","","","","",""
"","html-keyboard-response","288","768505","0.0-153.0-1.0","null","<p></p>","null","","","","","","","","","","","","","","","","","","","","","","","",""
"","do_trial","289","771536","0.0-154.0-0.0","456.90000009536743","","","","","","","","51","0,0,1","6","blank","365","null","0.20885546262638685","0.2545505933698262","0.3321289752088912","1","","","","","","","","",""
"","html-keyboard-response","290","772547","0.0-154.0-1.0","null","<p></p>","null","","","","","","","","","","","","","","","","","","","","","","","",""
"","do_trial","291","775299","0.0-155.0-0.0","165.10000014305115","","","","","","","","51","0,0,0","6","blank","366","null","0.2650618818760953","0.17044753265919887","0.38178594707154295","0","","","","","","","","",""
"","html-keyboard-response","292","776302","0.0-155.0-1.0","null","<p></p>","null","","","","","","","","","","","","","","","","","","","","","","","",""
"","do_recog","293","779550","0.0-156.0-0.0","1723.5","","","","","","","","53","","","","367","probe-39","","","","","1","[object Object]","209","5","1","","","",""
"","html-keyboard-response","294","780556","0.0-156.0-1.0","null","<p></p>","null","","","","","","","","","","","","","","","","","","","","","","","",""
"","do_trial","295","783633","0.0-157.0-0.0","508.80000019073486","","","","","","","","51","0,1,0","6","blank","368","null","0.2341834930812509","0.17925453830359722","0.3591948030412692","0","","","","","","","","",""
"","html-keyboard-response","296","784638","0.0-157.0-1.0","null","<p></p>","null","","","","","","","","","","","","","","","","","","","","","","","",""
"","do_trial","297","787788","0.0-158.0-0.0","568.7999999523163","","","","","","","","51","0,1,0","6","blank","369","null","0.2428352053888592","0.2012240889438956","0.557452720657851","0","","","","","","","","",""
"","html-keyboard-response","298","788793","0.0-158.0-1.0","null","<p></p>","null","","","","","","","","","","","","","","","","","","","","","","","",""
"","do_trial","299","791990","0.0-159.0-0.0","611.2000000476837","","","","","","","","51","0,0,1","6","blank","370","null","0.25545189984746536","0.24151663090789818","0.5435510913611789","1","","","","","","","","",""
"","html-keyboard-response","300","792992","0.0-159.0-1.0","null","<p></p>","null","","","","","","","","","","","","","","","","","","","","","","","",""
"","do_trial","301","796329","0.0-160.0-0.0","745.8999998569489","","","","","","","","51","0,0,0","6","blank","371","null","0.18529689775973496","0.17546177300671517","0.5881023715555519","0","","","","","","","","",""
"","html-keyboard-response","302","797342","0.0-160.0-1.0","null","<p></p>","null","","","","","","","","","","","","","","","","","","","","","","","",""
"","do_trial","303","800537","0.0-161.0-0.0","608.3999998569489","","","","","","","","51","0,0,1","6","blank","372","null","0.27516004345120515","0.07926169364566996","0.5568419956172947","1","","","","","","","","",""
"","html-keyboard-response","304","801543","0.0-161.0-1.0","null","<p></p>","null","","","","","","","","","","","","","","","","","","","","","","","",""
"","do_trial","305","804658","0.0-162.0-0.0","555.6000001430511","","","","","","","","51","0,0,0","6","blank","373","null","0.4158436431726266","0.17823813144429934","0.5478370269752073","0","","","","","","","","",""
"","html-keyboard-response","306","805659","0.0-162.0-1.0","null","<p></p>","null","","","","","","","","","","","","","","","","","","","","","","","",""
"","do_recog","307","808706","0.0-163.0-0.0","1527.2999999523163","","","","","","","","53","","","","374","probe-19","","","","","1","[object Object]","41","1","1","","","",""
"","html-keyboard-response","308","809711","0.0-163.0-1.0","null","<p></p>","null","","","","","","","","","","","","","","","","","","","","","","","",""
"","do_trial","309","812634","0.0-164.0-0.0","368","","","","","","","","51","1,1,1","6","blank","375","null","0.39495054803068275","0.12966727546062123","0.5353815272598962","1","","","","","","","","",""
"","html-keyboard-response","310","813651","0.0-164.0-1.0","null","<p></p>","null","","","","","","","","","","","","","","","","","","","","","","","",""
"","do_trial","311","817083","0.0-165.0-0.0","864.4000000953674","","","","","","","","51","0,1,1","6","blank","376","null","0.3630961692585097","0.13843007238953906","0.6631498666375871","1","","","","","","","","",""
"","html-keyboard-response","312","818085","0.0-165.0-1.0","null","<p></p>","null","","","","","","","","","","","","","","","","","","","","","","","",""
"","do_trial","313","820934","0.0-166.0-0.0","277.59999990463257","","","","","","","","51","0,0,0","6","blank","377","null","0.3099992886708438","0.13077662544460444","0.4690517290723026","0","","","","","","","","",""
"","html-keyboard-response","314","821940","0.0-166.0-1.0","null","<p></p>","null","","","","","","","","","","","","","","","","","","","","","","","",""
"","do_recog","315","825228","0.0-167.0-0.0","1767.5","","","","","","","","56","","","","378","probe-116","","","","","1","[object Object]","163","4","0","","","",""
"","html-keyboard-response","316","826236","0.0-167.0-1.0","null","<p></p>","null","","","","","","","","","","","","","","","","","","","","","","","",""
"","do_trial","317","829270","0.0-168.0-0.0","459.89999985694885","","","","","","","","51","0,0,1","6","blank","379","null","0.37328811176670157","0.21050951927211847","0.40924752838431294","1","","","","","","","","",""
"","html-keyboard-response","318","830287","0.0-168.0-1.0","null","<p></p>","null","","","","","","","","","","","","","","","","","","","","","","","",""
"","do_trial","319","832877","0.0-169.0-0.0","26","","","","","","","","51","0,0,1","6","blank","380","null","0.36440630812676356","0.05280904999366987","0.4999127540967902","1","","","","","","","","",""
"","html-keyboard-response","320","833892","0.0-169.0-1.0","null","<p></p>","null","","","","","","","","","","","","","","","","","","","","","","","",""
"","do_trial","321","837035","0.0-170.0-0.0","567.5999999046326","","","","","","","","51","1,0,0","6","blank","381","null","0.2658091220997489","0.13167477109579914","0.6930285661528359","0","","","","","","","","",""
"","html-keyboard-response","322","838049","0.0-170.0-1.0","null","<p></p>","null","","","","","","","","","","","","","","","","","","","","","","","",""
"","do_recog","323","841221","0.0-171.0-0.0","1658.2999999523163","","","","","","","","53","","","","382","probe-85","","","","","1","[object Object]","123","3","1","","","",""
"","html-keyboard-response","324","842238","0.0-171.0-1.0","null","<p></p>","null","","","","","","","","","","","","","","","","","","","","","","","",""
"","do_trial","325","845214","0.0-172.0-0.0","414.7999999523163","","","","","","","","51","0,0,0","6","blank","383","null","0.1837158381331522","0.11794306914599641","0.7226363316708249","0","","","","","","","","",""
"","html-keyboard-response","326","846216","0.0-172.0-1.0","null","<p></p>","null","","","","","","","","","","","","","","","","","","","","","","","",""
"","do_trial","327","849165","0.0-173.0-0.0","390.7999999523163","","","","","","","","51","0,1,0","6","blank","384","null","0.3576186256572235","0.08416245407596919","0.7054274462742515","0","","","","","","","","",""
"","html-keyboard-response","328","850179","0.0-173.0-1.0","null","<p></p>","null","","","","","","","","","","","","","","","","","","","","","","","",""
"","do_trial","329","853009","0.0-174.0-0.0","242.60000014305115","","","","","","","","51","0,0,1","6","blank","385","null","0.2651203922447432","0.07484167272853166","0.5968699852724315","1","","","","","","","","",""
"","html-keyboard-response","330","854010","0.0-174.0-1.0","null","<p></p>","null","","","","","","","","","","","","","","","","","","","","","","","",""
"","do_trial","331","856877","0.0-175.0-0.0","302.7000000476837","","","","","","","","51","1,0,1","6","blank","386","null","0.33544718309323385","0.05259496208231612","0.5908659258442978","1","","","","","","","","",""
"","html-keyboard-response","332","857883","0.0-175.0-1.0","null","<p></p>","null","","","","","","","","","","","","","","","","","","","","","","","",""
"","do_trial","333","860931","0.0-176.0-0.0","489.10000014305115","","","","","","","","51","0,0,0","6","blank","387","null","0.22189863702424892","0.17796928844667065","0.4800001481307979","0","","","","","","","","",""
"","html-keyboard-response","334","861946","0.0-176.0-1.0","null","<p></p>","null","","","","","","","","","","","","","","","","","","","","","","","",""
"","do_trial","335","867416","0.0-177.0-0.0","2906.2999999523163","","","","","","","","51","1,1,0","6","blank","388","null","0.16713130176907348","0.19706643099010343","0.598332584451189","0","","","","","","","","",""
"","html-keyboard-response","336","868423","0.0-177.0-1.0","null","<p></p>","null","","","","","","","","","","","","","","","","","","","","","","","",""
"","do_recog","337","874444","0.0-178.0-0.0","null","","","","","","","","null","","","","389","probe-237","","","","","0","[object Object]","null","null","0","","","",""
"","html-keyboard-response","338","875455","0.0-178.0-1.0","null","<p></p>","null","","","","","","","","","","","","","","","","","","","","","","","",""
"","do_trial","339","878568","0.0-179.0-0.0","546.4000000953674","","","","","","","","51","0,0,0","6","blank","390","null","0.27944068773838765","0.19964958884609205","0.5199702827833542","0","","","","","","","","",""
"","html-keyboard-response","340","879584","0.0-179.0-1.0","null","<p></p>","null","","","","","","","","","","","","","","","","","","","","","","","",""
"","do_trial","341","882633","0.0-180.0-0.0","471.60000014305115","","","","","","","","51","0,0,0","6","blank","391","null","0.15502188860404206","0.14583690980497274","0.5413446080953764","0","","","","","","","","",""
"","html-keyboard-response","342","883652","0.0-180.0-1.0","null","<p></p>","null","","","","","","","","","","","","","","","","","","","","","","","",""
"","do_recog","343","886821","0.0-181.0-0.0","1655","","","","","","","","53","","","","392","probe-149","","","","","1","[object Object]","120","3","1","","","",""
"","html-keyboard-response","344","887827","0.0-181.0-1.0","null","<p></p>","null","","","","","","","","","","","","","","","","","","","","","","","",""
"","do_trial","345","890868","0.0-182.0-0.0","456.5","","","","","","","","51","0,0,1","6","blank","393","null","0.19062957711937553","0.0986174179911712","0.39443860975672435","1","","","","","","","","",""
"","html-keyboard-response","346","891882","0.0-182.0-1.0","null","<p></p>","null","","","","","","","","","","","","","","","","","","","","","","","",""
"","do_recog","347","895270","0.0-183.0-0.0","1864.5","","","","","","","","56","","","","394","probe-92","","","","","1","[object Object]","204","5","0","","","",""
"","html-keyboard-response","348","896280","0.0-183.0-1.0","null","<p></p>","null","","","","","","","","","","","","","","","","","","","","","","","",""
"","do_trial","349","899750","0.0-184.0-0.0","903.5999999046326","","","","","","","","51","0,0,0","6","blank","395","null","0.2780535171272466","0.0707398339639197","0.43007017344349047","0","","","","","","","","",""
"","html-keyboard-response","350","900761","0.0-184.0-1.0","null","<p></p>","null","","","","","","","","","","","","","","","","","","","","","","","",""
"","do_trial","351","903819","0.0-185.0-0.0","489.69999980926514","","","","","","","","51","0,0,0","6","blank","396","null","0.2675703014648405","0.11901061230803245","0.49547891120304344","0","","","","","","","","",""
"","html-keyboard-response","352","904849","0.0-185.0-1.0","null","<p></p>","null","","","","","","","","","","","","","","","","","","","","","","","",""
"","do_trial","353","908830","0.0-186.0-0.0","1412.4000000953674","","","","","","","","51","0,1,1","6","blank","397","null","0.26628274773251226","0.22256448124835296","0.5322457149388334","1","","","","","","","","",""
"","html-keyboard-response","354","909840","0.0-186.0-1.0","null","<p></p>","null","","","","","","","","","","","","","","","","","","","","","","","",""
"","do_recog","355","913334","0.0-187.0-0.0","1979.7000000476837","","","","","","","","53","","","","398","probe-56","","","","","1","[object Object]","48","1","1","","","",""
"","html-keyboard-response","356","914336","0.0-187.0-1.0","null","<p></p>","null","","","","","","","","","","","","","","","","","","","","","","","",""
"","do_trial","357","917292","0.0-188.0-0.0","378.2999999523163","","","","","","","","51","1,0,1","6","blank","399","null","0.34674048228234616","0.12029708025746323","0.5350625853401607","1","","","","","","","","",""
"","html-keyboard-response","358","918297","0.0-188.0-1.0","null","<p></p>","null","","","","","","","","","","","","","","","","","","","","","","","",""
"","do_recog","359","921614","0.0-189.0-0.0","1802.5","","","","","","","","56","","","","400","probe-76","","","","","1","[object Object]","205","5","0","","","",""
"","html-keyboard-response","360","922626","0.0-189.0-1.0","null","<p></p>","null","","","","","","","","","","","","","","","","","","","","","","","",""
"","do_trial","361","926096","0.0-190.0-0.0","880.4000000953674","","","","","","","","51","1,0,0","6","blank","401","null","0.39341624635869976","0.08554520269618202","0.48141052305078996","0","","","","","","","","",""
"","html-keyboard-response","362","927110","0.0-190.0-1.0","null","<p></p>","null","","","","","","","","","","","","","","","","","","","","","","","",""
"","do_trial","363","930218","0.0-191.0-0.0","522.5999999046326","","","","","","","","51","0,1,1","6","blank","402","null","0.27233465566669746","0.0741651996582705","0.29990307963747836","1","","","","","","","","",""
"","html-keyboard-response","364","931240","0.0-191.0-1.0","null","<p></p>","null","","","","","","","","","","","","","","","","","","","","","","","",""
"","do_trial","365","934280","0.0-192.0-0.0","464","","","","","","","","51","1,0,0","6","blank","403","null","0.3420496105060136","0.2203600608039046","0.33974482556993596","0","","","","","","","","",""
"","html-keyboard-response","366","935292","0.0-192.0-1.0","null","<p></p>","null","","","","","","","","","","","","","","","","","","","","","","","",""
"","do_trial","367","938205","0.0-193.0-0.0","347","","","","","","","","51","1,0,0","6","blank","404","null","0.5900665240207612","0.1721230906470405","0.14974009396660753","0","","","","","","","","",""
"","html-keyboard-response","368","939220","0.0-193.0-1.0","null","<p></p>","null","","","","","","","","","","","","","","","","","","","","","","","",""
"","do_trial","369","942273","0.0-194.0-0.0","476.7000000476837","","","","","","","","51","1,0,0","6","blank","405","null","0.6483351258102389","0.13537770268542396","0.12525508219382128","0","","","","","","","","",""
"","html-keyboard-response","370","943282","0.0-194.0-1.0","null","<p></p>","null","","","","","","","","","","","","","","","","","","","","","","","",""
"","do_trial","371","946389","0.0-195.0-0.0","528.2999999523163","","","","","","","","51","1,0,0","6","blank","406","null","0.6599942374342883","0.28931263533136026","0.10423080275157506","0","","","","","","","","",""
"","html-keyboard-response","372","947396","0.0-195.0-1.0","null","<p></p>","null","","","","","","","","","","","","","","","","","","","","","","","",""
"","do_recog","373","950902","0.0-196.0-0.0","1984.9000000953674","","","","","","","","56","","","","407","probe-129","","","","","1","[object Object]","87","2","0","","","",""
"","html-keyboard-response","374","951915","0.0-196.0-1.0","null","<p></p>","null","","","","","","","","","","","","","","","","","","","","","","","",""
"","do_trial","375","955096","0.0-197.0-0.0","601.7999999523163","","","","","","","","51","1,1,0","6","blank","408","null","0.6564707509114709","0.29143892225729334","0.13991669936555343","0","","","","","","","","",""
"","html-keyboard-response","376","956103","0.0-197.0-1.0","null","<p></p>","null","","","","","","","","","","","","","","","","","","","","","","","",""
"","do_trial","377","959178","0.0-198.0-0.0","514.4000000953674","","","","","","","","51","1,0,0","6","blank","409","null","0.5659217824196813","0.26424778079862127","0.28855340389455797","0","","","","","","","","",""
"","html-keyboard-response","378","960181","0.0-198.0-1.0","null","<p></p>","null","","","","","","","","","","","","","","","","","","","","","","","",""
"","do_trial","379","963330","0.0-199.0-0.0","564.7000000476837","","","","","","","","51","0,0,0","6","blank","410","null","0.33284698545197844","0.23905939272290655","0.1055080246575792","0","","","","","","","","",""
"","html-keyboard-response","380","964346","0.0-199.0-1.0","null","<p></p>","null","","","","","","","","","","","","","","","","","","","","","","","",""
"","do_trial","381","967244","0.0-200.0-0.0","322.89999985694885","","","","","","","","51","0,0,0","6","blank","411","null","0.3366894661510932","0.2555996419794996","0.2313866725214733","0","","","","","","","","",""
"","html-keyboard-response","382","968259","0.0-200.0-1.0","null","<p></p>","null","","","","","","","","","","","","","","","","","","","","","","","",""
"","do_trial","383","971236","0.0-201.0-0.0","399.5","","","","","","","","51","0,1,0","6","blank","412","null","0.5683213425719117","0.283106382644049","0.16340750149150662","0","","","","","","","","",""
"","html-keyboard-response","384","972241","0.0-201.0-1.0","null","<p></p>","null","","","","","","","","","","","","","","","","","","","","","","","",""
"","do_recog","385","975859","0.0-202.0-0.0","2099.7999999523163","","","","","","","","53","","","","413","probe-217","","","","","1","[object Object]","165","4","1","","","",""
"","html-keyboard-response","386","976867","0.0-202.0-1.0","null","<p></p>","null","","","","","","","","","","","","","","","","","","","","","","","",""
"","do_trial","387","980112","0.0-203.0-0.0","678.7999999523163","","","","","","","","51","0,0,0","6","blank","414","null","0.49925080414065565","0.2167459960775934","0.21457974473937852","0","","","","","","","","",""
"","html-keyboard-response","388","981122","0.0-203.0-1.0","null","<p></p>","null","","","","","","","","","","","","","","","","","","","","","","","",""
"","do_trial","389","984071","0.0-204.0-0.0","372.5","","","","","","","","51","0,1,0","6","blank","415","null","0.6058425543797609","0.17214392444730908","0.22293974783214698","0","","","","","","","","",""
"","html-keyboard-response","390","985076","0.0-204.0-1.0","null","<p></p>","null","","","","","","","","","","","","","","","","","","","","","","","",""
"","do_trial","391","988117","0.0-205.0-0.0","486","","","","","","","","51","1,0,0","6","blank","416","null","0.6605902515086638","0.33733491286701567","0.11023394831920978","0","","","","","","","","",""
"","html-keyboard-response","392","989133","0.0-205.0-1.0","null","<p></p>","null","","","","","","","","","","","","","","","","","","","","","","","",""
"","do_trial","393","992294","0.0-206.0-0.0","585.2000000476837","","","","","","","","51","1,0,0","6","blank","417","null","0.6289689390821325","0.3496732861883269","0.05492258441851743","0","","","","","","","","",""
"","html-keyboard-response","394","993295","0.0-206.0-1.0","null","<p></p>","null","","","","","","","","","","","","","","","","","","","","","","","",""
"","do_trial","395","996400","0.0-207.0-0.0","528.7999999523163","","","","","","","","51","1,1,0","6","blank","418","null","0.6223507666543834","0.3169352556937726","0.14881131725565308","0","","","","","","","","",""
"","html-keyboard-response","396","997403","0.0-207.0-1.0","null","<p></p>","null","","","","","","","","","","","","","","","","","","","","","","","",""
"","do_trial","397","1000933","0.0-208.0-0.0","976.0999999046326","","","","","","","","51","0,0,0","6","blank","419","null","0.5678824168275434","0.37215241191518705","0.17250463683293846","0","","","","","","","","",""
"","html-keyboard-response","398","1001945","0.0-208.0-1.0","null","<p></p>","null","","","","","","","","","","","","","","","","","","","","","","","",""
"","do_recog","399","1006367","0.0-209.0-0.0","2906.5","","","","","","","","53","","","","420","probe-93","","","","","1","[object Object]","81","2","1","","","",""
"","html-keyboard-response","400","1007382","0.0-209.0-1.0","null","<p></p>","null","","","","","","","","","","","","","","","","","","","","","","","",""
"","do_trial","401","1011026","0.0-210.0-0.0","1074.8999998569489","","","","","","","","51","0,1,0","6","blank","421","null","0.6107433101517257","0.20148183447558743","0.09860109701776754","0","","","","","","","","",""
"","html-keyboard-response","402","1012037","0.0-210.0-1.0","null","<p></p>","null","","","","","","","","","","","","","","","","","","","","","","","",""
"","do_trial","403","1016435","0.0-211.0-0.0","1812.1000001430511","","","","","","","","51","0,0,0","6","blank","422","null","0.5022016196937424","0.09075703696379803","0.07977646876089824","0","","","","","","","","",""
"","html-keyboard-response","404","1017437","0.0-211.0-1.0","null","<p></p>","null","","","","","","","","","","","","","","","","","","","","","","","",""
"","do_trial","405","1020323","0.0-212.0-0.0","314.10000014305115","","","","","","","","51","0,0,0","6","blank","423","null","0.46596139822677757","0.08804039393837788","0.053466484620866624","0","","","","","","","","",""
"","html-keyboard-response","406","1021326","0.0-212.0-1.0","null","<p></p>","null","","","","","","","","","","","","","","","","","","","","","","","",""
"","do_trial","407","1023949","0.0-213.0-0.0","68.80000019073486","","","","","","","","51","1,0,0","6","blank","424","null","0.5596578627974071","0.16382107451669423","0.11590531127002175","0","","","","","","","","",""
"","html-keyboard-response","408","1024963","0.0-213.0-1.0","null","<p></p>","null","","","","","","","","","","","","","","","","","","","","","","","",""
"","do_recog","409","1028492","0.0-214.0-0.0","2017","","","","","","","","53","","","","425","probe-225","","","","","1","[object Object]","200","5","1","","","",""
"","html-keyboard-response","410","1029499","0.0-214.0-1.0","null","<p></p>","null","","","","","","","","","","","","","","","","","","","","","","","",""
"","do_trial","411","1032073","0.0-215.0-0.0","0.2999999523162842","","","","","","","","51","1,1,1","6","blank","426","null","0.5558948379694613","0.19198646595300572","0.15681673816468059","1","","","","","","","","",""
"","html-keyboard-response","412","1033084","0.0-215.0-1.0","null","<p></p>","null","","","","","","","","","","","","","","","","","","","","","","","",""
"","do_recog","413","1037144","0.0-216.0-0.0","2538.5999999046326","","","","","","","","53","","","","427","probe-80","","","","","1","[object Object]","47","1","1","","","",""
"","html-keyboard-response","414","1038146","0.0-216.0-1.0","null","<p></p>","null","","","","","","","","","","","","","","","","","","","","","","","",""
"","do_trial","415","1041229","0.0-217.0-0.0","504.59999990463257","","","","","","","","51","1,0,0","6","blank","428","null","0.5454880396768141","0.27291166035076214","0.1898136663231488","0","","","","","","","","",""
"","html-keyboard-response","416","1042242","0.0-217.0-1.0","null","<p></p>","null","","","","","","","","","","","","","","","","","","","","","","","",""
"","do_recog","417","1045149","0.0-218.0-0.0","1400.6000001430511","","","","","","","","53","","","","429","probe-194","","","","","1","[object Object]","162","4","1","","","",""
"","html-keyboard-response","418","1046162","0.0-218.0-1.0","null","<p></p>","null","","","","","","","","","","","","","","","","","","","","","","","",""
"","do_trial","419","1049205","0.0-219.0-0.0","475.89999985694885","","","","","","","","51","0,1,1","6","blank","430","null","0.4415467861813329","0.3447302310109279","0.25428437639746093","1","","","","","","","","",""
"","html-keyboard-response","420","1050214","0.0-219.0-1.0","null","<p></p>","null","","","","","","","","","","","","","","","","","","","","","","","",""
"","do_recog","421","1053398","0.0-220.0-0.0","1668.4000000953674","","","","","","","","53","","","","431","probe-168","","","","","1","[object Object]","46","1","1","","","",""
"","html-keyboard-response","422","1054400","0.0-220.0-1.0","null","<p></p>","null","","","","","","","","","","","","","","","","","","","","","","","",""
"","do_trial","423","1057357","0.0-221.0-0.0","370.5","","","","","","","","51","0,0,0","6","blank","432","null","0.6112758873611172","0.24357880006792307","0.3200838786218357","0","","","","","","","","",""
"","html-keyboard-response","424","1058365","0.0-221.0-1.0","null","<p></p>","null","","","","","","","","","","","","","","","","","","","","","","","",""
"","do_trial","425","1061561","0.0-222.0-0.0","612.4000000953674","","","","","","","","51","1,0,0","6","blank","433","null","0.5678419775816596","0.25659114612406525","0.3003605106218306","0","","","","","","","","",""
"","html-keyboard-response","426","1062569","0.0-222.0-1.0","null","<p></p>","null","","","","","","","","","","","","","","","","","","","","","","","",""
"","do_trial","427","1065878","0.0-223.0-0.0","734.2999999523163","","","","","","","","51","1,1,0","6","blank","434","null","0.5167870224119812","0.20012328553666311","0.13392763975171443","0","","","","","","","","",""
"","html-keyboard-response","428","1066885","0.0-223.0-1.0","null","<p></p>","null","","","","","","","","","","","","","","","","","","","","","","","",""
"","do_trial","429","1069953","0.0-224.0-0.0","491.59999990463257","","","","","","","","51","1,0,1","6","blank","435","null","0.5044661919082598","0.15130946853215763","0.10956698627749475","1","","","","","","","","",""
"","html-keyboard-response","430","1070967","0.0-224.0-1.0","null","<p></p>","null","","","","","","","","","","","","","","","","","","","","","","","",""
"","do_trial","431","1073852","0.0-225.0-0.0","314.7999999523163","","","","","","","","51","1,0,0","6","blank","436","null","0.4969157722224133","0.39096259977986675","0.07041950821342435","0","","","","","","","","",""
"","html-keyboard-response","432","1074857","0.0-225.0-1.0","null","<p></p>","null","","","","","","","","","","","","","","","","","","","","","","","",""
"","do_trial","433","1078022","0.0-226.0-0.0","601.8999998569489","","","","","","","","51","0,1,0","6","blank","437","null","0.4516022527655197","0.43854992114275265","0.05505253594019238","0","","","","","","","","",""
"","html-keyboard-response","434","1079035","0.0-226.0-1.0","null","<p></p>","null","","","","","","","","","","","","","","","","","","","","","","","",""
"","do_recog","435","1082794","0.0-227.0-0.0","2249.2000000476837","","","","","","","","54","","","","438","probe-132","","","","","1","[object Object]","43","1","1","","","",""
"","html-keyboard-response","436","1083811","0.0-227.0-1.0","null","<p></p>","null","","","","","","","","","","","","","","","","","","","","","","","",""
"","do_trial","437","1087554","0.0-228.0-0.0","1157.9000000953674","","","","","","","","51","1,1,0","6","blank","439","null","0.5417609368258011","0.5169185256780247","0.06567775459348686","0","","","","","","","","",""
"","html-keyboard-response","438","1088560","0.0-228.0-1.0","null","<p></p>","null","","","","","","","","","","","","","","","","","","","","","","","",""
"","do_trial","439","1091324","0.0-229.0-0.0","190.29999995231628","","","","","","","","51","1,0,0","6","blank","440","null","0.5382446629073827","0.44372728721086113","0.1391848689454919","0","","","","","","","","",""
"","html-keyboard-response","440","1092328","0.0-229.0-1.0","null","<p></p>","null","","","","","","","","","","","","","","","","","","","","","","","",""
"","do_trial","441","1095126","0.0-230.0-0.0","217.40000009536743","","","","","","","","51","1,0,0","6","blank","441","null","0.6533674801835077","0.299671715686768","0.08237772096166814","0","","","","","","","","",""
"","html-keyboard-response","442","1096138","0.0-230.0-1.0","null","<p></p>","null","","","","","","","","","","","","","","","","","","","","","","","",""
"","do_trial","443","1099594","0.0-231.0-0.0","875","","","","","","","","51","0,0,0","6","blank","442","null","0.591104325168229","0.35259759902847343","0.055220521158994396","0","","","","","","","","",""
"","html-keyboard-response","444","1100606","0.0-231.0-1.0","null","<p></p>","null","","","","","","","","","","","","","","","","","","","","","","","",""
"","do_recog","445","1103611","0.0-232.0-0.0","1496.3000001907349","","","","","","","","53","","","","443","probe-142","","","","","1","[object Object]","82","2","1","","","",""
"","html-keyboard-response","446","1104620","0.0-232.0-1.0","null","<p></p>","null","","","","","","","","","","","","","","","","","","","","","","","",""
"","do_trial","447","1108170","0.0-233.0-0.0","1002.8999998569489","","","","","","","","51","1,0,0","6","blank","444","null","0.48903511460702503","0.2277166910339645","0.0800784833329725","0","","","","","","","","",""
"","html-keyboard-response","448","1109175","0.0-233.0-1.0","null","<p></p>","null","","","","","","","","","","","","","","","","","","","","","","","",""
"","do_trial","449","1112769","0.0-234.0-0.0","1016.2000000476837","","","","","","","","51","1,1,0","6","blank","445","null","0.5531229110365589","0.19757246616026033","0.15639537429847555","0","","","","","","","","",""
"","html-keyboard-response","450","1113777","0.0-234.0-1.0","null","<p></p>","null","","","","","","","","","","","","","","","","","","","","","","","",""
"","do_trial","451","1116500","0.0-235.0-0.0","146.10000014305115","","","","","","","","51","0,0,0","6","blank","446","null","0.5189934793190037","0.11040161685110966","0.1746304548572718","0","","","","","","","","",""
"","html-keyboard-response","452","1117507","0.0-235.0-1.0","null","<p></p>","null","","","","","","","","","","","","","","","","","","","","","","","",""
"","do_trial","453","1120875","0.0-236.0-0.0","789.2000000476837","","","","","","","","51","0,1,1","6","blank","447","null","0.5012222294393278","0.27714556105758253","0.23678400859298676","1","","","","","","","","",""
"","html-keyboard-response","454","1121886","0.0-236.0-1.0","null","<p></p>","null","","","","","","","","","","","","","","","","","","","","","","","",""
"","do_trial","455","1124518","0.0-237.0-0.0","54.299999952316284","","","","","","","","51","1,0,0","6","blank","448","null","0.4634644888992305","0.2168558604966433","0.1919870435901821","0","","","","","","","","",""
"","html-keyboard-response","456","1125530","0.0-237.0-1.0","null","<p></p>","null","","","","","","","","","","","","","","","","","","","","","","","",""
"","do_recog","457","1131555","0.0-238.0-0.0","null","","","","","","","","null","","","","449","probe-122","","","","","1","[object Object]","166","4","0","","","",""
"","html-keyboard-response","458","1132570","0.0-238.0-1.0","null","<p></p>","null","","","","","","","","","","","","","","","","","","","","","","","",""
"","do_trial","459","1137475","0.0-239.0-0.0","2345.5999999046326","","","","","","","","51","0,0,0","6","blank","450","null","0.38956163807890365","0.21892919021963736","0.08546725381802366","0","","","","","","","","",""
"","html-keyboard-response","460","1138477","0.0-239.0-1.0","null","<p></p>","null","","","","","","","","","","","","","","","","","","","","","","","",""
"","do_trial","461","1143412","0.0-240.0-0.0","2360","","","","","","","","51","0,1,0","6","blank","451","null","0.39975351663347786","0.2581644612959324","0.19907785879442344","0","","","","","","","","",""
"","html-keyboard-response","462","1144427","0.0-240.0-1.0","null","<p></p>","null","","","","","","","","","","","","","","","","","","","","","","","",""
"","do_trial","463","1147538","0.0-241.0-0.0","541.5999999046326","","","","","","","","51","1,1,0","6","blank","452","null","0.3029532722874812","0.20382857230064066","0.29449650333776956","0","","","","","","","","",""
"","html-keyboard-response","464","1148553","0.0-241.0-1.0","null","<p></p>","null","","","","","","","","","","","","","","","","","","","","","","","",""
"","do_recog","465","1152236","0.0-242.0-0.0","2171.4000000953674","","","","","","","","53","","","","453","probe-59","","","","","1","[object Object]","85","2","1","","","",""
"","html-keyboard-response","466","1153246","0.0-242.0-1.0","null","<p></p>","null","","","","","","","","","","","","","","","","","","","","","","","",""
"","do_trial","467","1158255","0.0-243.0-0.0","2427.0999999046326","","","","","","","","51","0,0,1","6","blank","454","null","0.22014160611943365","0.351449395202916","0.19707133202109525","1","","","","","","","","",""
"","html-keyboard-response","468","1159264","0.0-243.0-1.0","null","<p></p>","null","","","","","","","","","","","","","","","","","","","","","","","",""
"","do_recog","469","1162532","0.0-244.0-0.0","1747.5999999046326","","","","","","","","53","","","","455","probe-50","","","","","1","[object Object]","208","5","1","","","",""
"","html-keyboard-response","470","1163543","0.0-244.0-1.0","null","<p></p>","null","","","","","","","","","","","","","","","","","","","","","","","",""
"","do_trial","471","1166115","0.0-245.0-0.0","0.5999999046325684","","","","","","","","51","1,1,0","6","blank","456","null","0.23675933676498961","0.4626104056295373","0.3119069481345717","0","","","","","","","","",""
"","html-keyboard-response","472","1167125","0.0-245.0-1.0","null","<p></p>","null","","","","","","","","","","","","","","","","","","","","","","","",""
"","do_trial","473","1170034","0.0-246.0-0.0","333.69999980926514","","","","","","","","51","0,1,0","6","blank","457","null","0.251358299531563","0.42183172787013673","0.4648680009895955","0","","","","","","","","",""
"","html-keyboard-response","474","1171044","0.0-246.0-1.0","null","<p></p>","null","","","","","","","","","","","","","","","","","","","","","","","",""
"","do_trial","475","1173922","0.0-247.0-0.0","315.59999990463257","","","","","","","","51","0,0,0","6","blank","458","null","0.23424214649291253","0.4350418875585729","0.34350376862041115","0","","","","","","","","",""
"","html-keyboard-response","476","1174926","0.0-247.0-1.0","null","<p></p>","null","","","","","","","","","","","","","","","","","","","","","","","",""
"","do_trial","477","1177791","0.0-248.0-0.0","317.5","","","","","","","","51","0,1,0","6","blank","459","null","0.14296650460977625","0.4195384123421607","0.3336564657238909","0","","","","","","","","",""
"","html-keyboard-response","478","1178796","0.0-248.0-1.0","null","<p></p>","null","","","","","","","","","","","","","","","","","","","","","","","",""
"","do_recog","479","1182451","0.0-249.0-0.0","2144.899999856949","","","","","","","","53","","","","460","probe-101","","","","","1","[object Object]","202","5","1","","","",""
"","html-keyboard-response","480","1183453","0.0-249.0-1.0","null","<p></p>","null","","","","","","","","","","","","","","","","","","","","","","","",""
"","do_trial","481","1186022","0.0-250.0-0.0","0.20000004768371582","","","","","","","","51","0,1,0","6","blank","461","null","0.303880222116467","0.4169517423229601","0.2122874055710163","0","","","","","","","","",""
"","html-keyboard-response","482","1187027","0.0-250.0-1.0","null","<p></p>","null","","","","","","","","","","","","","","","","","","","","","","","",""
"","do_recog","483","1191353","0.0-251.0-0.0","2814.7999999523163","","","","","","","","55","","","","462","probe-218","","","","","1","[object Object]","122","3","0","","","",""
"","html-keyboard-response","484","1192367","0.0-251.0-1.0","null","<p></p>","null","","","","","","","","","","","","","","","","","","","","","","","",""
"","do_trial","485","1195177","0.0-252.0-0.0","253.29999995231628","","","","","","","","51","0,0,1","6","blank","463","null","0.17098012521740644","0.5355831800985229","0.15764081555109005","1","","","","","","","","",""
"","html-keyboard-response","486","1196186","0.0-252.0-1.0","null","<p></p>","null","","","","","","","","","","","","","","","","","","","","","","","",""
"","do_trial","487","1198911","0.0-253.0-0.0","154.20000004768372","","","","","","","","51","0,0,1","6","blank","464","null","0.3275924065630923","0.3886949001492165","0.3525084521653843","1","","","","","","","","",""
"","html-keyboard-response","488","1199922","0.0-253.0-1.0","null","<p></p>","null","","","","","","","","","","","","","","","","","","","","","","","",""
"","do_trial","489","1203245","0.0-254.0-0.0","748.1999998092651","","","","","","","","51","0,0,1","6","blank","465","null","0.25187634422133715","0.54337236047089","0.2926299659470321","1","","","","","","","","",""
"","html-keyboard-response","490","1204248","0.0-254.0-1.0","null","<p></p>","null","","","","","","","","","","","","","","","","","","","","","","","",""
"","do_trial","491","1207410","0.0-255.0-0.0","603.2000000476837","","","","","","","","51","0,1,0","6","blank","466","null","0.1516904540858322","0.5179869118223506","0.2647763166215354","0","","","","","","","","",""
"","html-keyboard-response","492","1208420","0.0-255.0-1.0","null","<p></p>","null","","","","","","","","","","","","","","","","","","","","","","","",""
"","do_recog","493","1211650","0.0-256.0-0.0","1712.6000001430511","","","","","","","","53","","","","467","probe-236","","","","","0","[object Object]","null","null","0","","","",""
"","html-keyboard-response","494","1212652","0.0-256.0-1.0","null","<p></p>","null","","","","","","","","","","","","","","","","","","","","","","","",""
"","do_trial","495","1215302","0.0-257.0-0.0","76.09999990463257","","","","","","","","51","0,1,0","6","blank","468","null","0.15035937325519544","0.6563671713659827","0.28630729574894515","0","","","","","","","","",""
"","html-keyboard-response","496","1216311","0.0-257.0-1.0","null","<p></p>","null","","","","","","","","","","","","","","","","","","","","","","","",""
"","do_recog","497","1220319","0.0-258.0-0.0","2484.7000000476837","","","","","","","","53","","","","469","probe-248","","","","","0","[object Object]","null","null","0","","","",""
"","html-keyboard-response","498","1221321","0.0-258.0-1.0","null","<p></p>","null","","","","","","","","","","","","","","","","","","","","","","","",""
"","do_trial","499","1224287","0.0-259.0-0.0","404.80000019073486","","","","","","","","51","0,1,1","6","blank","470","null","0.17162485578417275","0.682862539079325","0.3498540363735213","1","","","","","","","","",""
"","html-keyboard-response","500","1225301","0.0-259.0-1.0","null","<p></p>","null","","","","","","","","","","","","","","","","","","","","","","","",""
"","do_trial","501","1228398","0.0-260.0-0.0","521.9000000953674","","","","","","","","51","0,1,0","6","blank","471","null","0.22695003176788098","0.5880637917122916","0.408443009924433","0","","","","","","","","",""
"","html-keyboard-response","502","1229400","0.0-260.0-1.0","null","<p></p>","null","","","","","","","","","","","","","","","","","","","","","","","",""
"","do_trial","503","1231964","0.0-261.0-0.0","0.09999990463256836","","","","","","","","51","0,1,1","6","blank","472","null","0.0846368341515533","0.5743186290177351","0.4130489794300074","1","","","","","","","","",""
"","html-keyboard-response","504","1232967","0.0-261.0-1.0","null","<p></p>","null","","","","","","","","","","","","","","","","","","","","","","","",""
"","do_recog","505","1236546","0.0-262.0-0.0","2058.600000143051","","","","","","","","56","","","","473","probe-243","","","","","0","[object Object]","null","null","1","","","",""
"","html-keyboard-response","506","1237549","0.0-262.0-1.0","null","<p></p>","null","","","","","","","","","","","","","","","","","","","","","","","",""
"","do_trial","507","1240118","0.0-263.0-0.0","9.199999809265137","","","","","","","","51","0,0,0","6","blank","474","null","0.21356441517657637","0.49616793496684064","0.35300948696664036","0","","","","","","","","",""
"","html-keyboard-response","508","1241128","0.0-263.0-1.0","null","<p></p>","null","","","","","","","","","","","","","","","","","","","","","","","",""
"","do_recog","509","1244349","0.0-264.0-0.0","1708.9000000953674","","","","","","","","56","","","","475","probe-235","","","","","0","[object Object]","null","null","1","","","",""
"","html-keyboard-response","510","1245364","0.0-264.0-1.0","null","<p></p>","null","","","","","","","","","","","","","","","","","","","","","","","",""
"","do_trial","511","1248192","0.0-265.0-0.0","249.40000009536743","","","","","","","","51","0,1,0","6","blank","476","null","0.12002092728304639","0.538437746407975","0.35785159220125984","0","","","","","","","","",""
"","html-keyboard-response","512","1249201","0.0-265.0-1.0","null","<p></p>","null","","","","","","","","","","","","","","","","","","","","","","","",""
"","do_trial","513","1253446","0.0-266.0-0.0","1663.1000001430511","","","","","","","","51","0,1,0","6","blank","477","null","0.2411237157987103","0.5396427948652144","0.41532248463054816","0","","","","","","","","",""
