"success","trial_type","trial_index","time_elapsed","internal_node_id","interactions","blur_events","focus_events","fullscreenenter_events","fullscreenexit_events","rt","stimulus","key_press","subject_id","participant_id","age","gender","prompt","response","choice_outcomes","context_n","context_img_id","trial_n","probe_img_id","pR_red","pR_white","pR_black","outcome","is_valid","image_to_show","probed_trial","probed_context","correct","probe","probed_trial_n","probed_context_n","context_im"
"true","fullscreen","0","2876","0.0-0.0","""event"",""trial"",""time""
""fullscreenenter"",""0"",""1889""
","
","
","""event"",""trial"",""time""
""fullscreenenter"",""0"",""1889""
","
","","","","","","","","","","","","","","","","","","","","","","","","","","",""
"","pavlovia","1","2886","0.0-1.0","""event"",""trial"",""time""
""fullscreenenter"",""0"",""1889""
","
","
","""event"",""trial"",""time""
""fullscreenenter"",""0"",""1889""
","
","","","","","","","","","","","","","","","","","","","","","","","","","","",""
"","welc_back","2","12689","0.0-2.0","""event"",""trial"",""time""
""fullscreenenter"",""0"",""1889""
","
","
","""event"",""trial"",""time""
""fullscreenenter"",""0"",""1889""
","
","null","run_exp/static/audio/clip_29_welcome_back.m4a","null","449","547","10","Female","<div class='center'><p>Welcome to day 2!</p><p> Yesterday, you were the head captain of a pirate ship. You asked your fellow pirates to rob other ships of their gold across six different islands.</p></div>","","","","","","","","","","","","","","","","","","",""
"","html-keyboard-response","3","14503","0.0-3.0","""event"",""trial"",""time""
""fullscreenenter"",""0"",""1889""
","
","
","""event"",""trial"",""time""
""fullscreenenter"",""0"",""1889""
","
","1804.0999999046326","<div class='center'><p>Welcome to day 2!</p><p> Yesterday, you were the head captain of a pirate ship. You asked your fellow pirates to rob other ships of their gold across six different islands.</p><p><b>[Press the space bar to continue]</b></p></div>","32","","","","","","","","","","","","","","","","","","","","","","","",""
"","day_1_summary_goal","4","31708","0.0-4.0","""event"",""trial"",""time""
""fullscreenenter"",""0"",""1889""
","
","
","""event"",""trial"",""time""
""fullscreenenter"",""0"",""1889""
","
","null","run_exp/static/audio/clip_30_goal_of_game.m4a","null","","","","","<div class='center'><p>Today, like yesterday, you get to pick which pirate you want to rob the next ship.</p><p>If the pirate is successful in robbing a ship, you get gold coins that look like this: </p><p><img src='run_exp/static/images/tutorial/reward.png' height='150'></p><p> If they were not successful in robbing the ship, then you will get no gold coins and you'll see a big red x like this: </p><p><img src='run_exp/static/images/tutorial/reward_no.png' height='150'></p></div>","","","","","","","","","","","","","","","","","","",""
"","html-keyboard-response","5","33897","0.0-5.0","""event"",""trial"",""time""
""fullscreenenter"",""0"",""1889""
","
","
","""event"",""trial"",""time""
""fullscreenenter"",""0"",""1889""
","
","2184.2000000476837","<div class='center'><p>Today, like yesterday, you get to pick which pirate you want to rob the next ship.</p><p>If the pirate is successful in robbing a ship, you get gold coins that look like this: </p><p><img src='run_exp/static/images/tutorial/reward.png' height='150'></p><p> If they were not successful in robbing the ship, then you will get no gold coins and you'll see a big red x like this: </p><p><img src='run_exp/static/images/tutorial/reward_no.png' height='150'></p><p><b>[Press the space bar to continue]</b></p></div>","32","","","","","","","","","","","","","","","","","","","","","","","",""
"","day_1_summary_pick","6","48607","0.0-6.0","""event"",""trial"",""time""
""fullscreenenter"",""0"",""1889""
","
","
","""event"",""trial"",""time""
""fullscreenenter"",""0"",""1889""
","
","null","run_exp/static/audio/clip_31_how_to_pick_a_pirate.m4a","null","","","","","<div class='center'><p>Also, just like yesterday, you will use the 1,2,3 keys on your keyboard to pick a pirate. Press '1' to choose red beard, '2' to choose white beard, and '3' to choose black beard . You only have 3 seconds to pick a pirate, so please make a choice quickly!</p></div>","","","","","","","","","","","","","","","","","","",""
"","html-keyboard-response","7","49039","0.0-7.0","""event"",""trial"",""time""
""fullscreenenter"",""0"",""1889""
","
","
","""event"",""trial"",""time""
""fullscreenenter"",""0"",""1889""
","
","427.7000000476837","<div class='center'><p>Also, just like yesterday, you will use the 1,2,3 keys on your keyboard to pick a pirate. Press '1' to choose red beard, '2' to choose white beard, and '3' to choose black beard . You only have 3 seconds to pick a pirate, so please make a choice quickly!</p><p><b>[Press the space bar to continue]</b></p></div>","32","","","","","","","","","","","","","","","","","","","","","","","",""
"","test_phase_begin","8","79447","0.0-8.0","""event"",""trial"",""time""
""fullscreenenter"",""0"",""1889""
","
","
","""event"",""trial"",""time""
""fullscreenenter"",""0"",""1889""
","
","null","run_exp/static/audio/clip_32_final_place.m4a","null","","","","","<div class='center'><p>You’ve arrived at the final island of your journey! Unfortunately, it’s very foggy out, so you won’t be able to see it in the distance like the other islands you've visited.</p><p>You’ll still be deciding which pirate you want to rob a ship like before. However, because of the fog, you also won’t be able to see the ship.</p><p>This means you do not have to remember the ships you rob on this island.</p><p>Unlike yesterday, you won't be visiting multiple islands today. You will stay on this island for the entire game. This game will last ~30 minutes.</p></div>","","","","","","","","","","","","","","","","","","",""
"","html-keyboard-response","9","80029","0.0-9.0","""event"",""trial"",""time""
""fullscreenenter"",""0"",""1889""
","
","
","""event"",""trial"",""time""
""fullscreenenter"",""0"",""1889""
","
","579.8999999761581","<div class='center'><p>You’ve arrived at the final island of your journey! Unfortunately, it’s very foggy out, so you won’t be able to see it in the distance like the other islands you've visited.</p><p>You’ll still be deciding which pirate you want to rob a ship like before. However, because of the fog, you also won’t be able to see the ship.</p><p>This means you do not have to remember the ships you rob on this island.</p><p>Unlike yesterday, you won't be visiting multiple islands today. You will stay on this island for the entire game. This game will last ~30 minutes.</p><p><b>[Press the space bar to continue]</b></p></div>","32","","","","","","","","","","","","","","","","","","","","","","","",""
"","explain_probe_1","10","87727","0.0-10.0","""event"",""trial"",""time""
""fullscreenenter"",""0"",""1889""
","
","
","""event"",""trial"",""time""
""fullscreenenter"",""0"",""1889""
","
","null","run_exp/static/audio/clip_33_recognition_1.m4a","null","","","","","<div class='center'><p> Sometimes you’ll be shown a ship, and you will be asked if you saw this ship on a past island.</p><p> Here is an example of what you will see.</p><p><img src='run_exp/static/images/tutorial/example_recog_trial.png' height='500'></p></div>","","","","","","","","","","","","","","","","","","",""
"","html-keyboard-response","11","94784","0.0-11.0","""event"",""trial"",""time""
""fullscreenenter"",""0"",""1889""
","
","
","""event"",""trial"",""time""
""fullscreenenter"",""0"",""1889""
","
","7051.599999904633","<div class='center'><p> Sometimes you’ll be shown a ship, and you will be asked if you saw this ship on a past island.</p><p> Here is an example of what you will see.</p><p><img src='run_exp/static/images/tutorial/example_recog_trial.png' height='500'></p><p><b>[Press the space bar to continue]</b></p></div>","32","","","","","","","","","","","","","","","","","","","","","","","",""
"","explain_probe_2","12","116507","0.0-12.0","""event"",""trial"",""time""
""fullscreenenter"",""0"",""1889""
","
","
","""event"",""trial"",""time""
""fullscreenenter"",""0"",""1889""
","
","null","run_exp/static/audio/clip_34_recognition_2.m4a","null","","","","","<div class='center'><p> You will press the 5, 6, 7, 8 keys on your keyboard to respond.</p><p>If you are sure you saw the ship, press <b>5</b> on your keyboard.</p><p> If you think you saw it before but aren't sure, then press <b>6</b>.</p><p> If you think you have <b>not</b> seen it before but aren't sure, then press <b>7</b>.</p><p> If you are sure you did <b>not</b> see the ship before, then press <b>8</b>.</p><p><img src='run_exp/static/images/tutorial/example_recog_trial.png' height='500'></p></div>","","","","","","","","","","","","","","","","","","",""
"","html-keyboard-response","13","117191","0.0-13.0","""event"",""trial"",""time""
""fullscreenenter"",""0"",""1889""
","
","
","""event"",""trial"",""time""
""fullscreenenter"",""0"",""1889""
","
","681.5999999046326","<div class='center'><p> You will press the 5, 6, 7, 8 keys on your keyboard to respond.</p><p>If you are sure you saw the ship, press <b>5</b> on your keyboard.</p><p> If you think you saw it before but aren't sure, then press <b>6</b>.</p><p> If you think you have <b>not</b> seen it before but aren't sure, then press <b>7</b>.</p><p> If you are sure you did <b>not</b> see the ship before, then press <b>8</b>.</p><p><img src='run_exp/static/images/tutorial/example_recog_trial.png' height='500'></p><p><b>[Press the space bar to continue]</b></p></div>","32","","","","","","","","","","","","","","","","","","","","","","","",""
"","explain_outcome","14","134407","0.0-14.0","""event"",""trial"",""time""
""fullscreenenter"",""0"",""1889""
","
","
","""event"",""trial"",""time""
""fullscreenenter"",""0"",""1889""
","
","null","run_exp/static/audio/clip_35_recognition_3.m4a","null","","","","","<div class='center'><p> If you remember correctly, then you’ll get a gold coin like this: </p><p><img src='run_exp/static/images/tutorial/reward_small.png' height='200'></p><p>If you do not remember correctly, then you'll see a red x like this: </p><p><img src='run_exp/static/images/tutorial/reward_no.png' height='200'></p><p>Importantly, when you are shown a ship, take the time to remind yourself which island you saw it on. This will help you in the next part of the study.</p></div>","","","","","","","","","","","","","","","","","","",""
"","html-keyboard-response","15","134902","0.0-15.0","""event"",""trial"",""time""
""fullscreenenter"",""0"",""1889""
","
","
","""event"",""trial"",""time""
""fullscreenenter"",""0"",""1889""
","
","490.60000002384186","<div class='center'><p> If you remember correctly, then you’ll get a gold coin like this: </p><p><img src='run_exp/static/images/tutorial/reward_small.png' height='200'></p><p>If you do not remember correctly, then you'll see a red x like this: </p><p><img src='run_exp/static/images/tutorial/reward_no.png' height='200'></p><p>Importantly, when you are shown a ship, take the time to remind yourself which island you saw it on. This will help you in the next part of the study.</p><p><b>[Press the space bar to continue]</b></p></div>","32","","","","","","","","","","","","","","","","","","","","","","","",""
"","begin_test_phase","16","150727","0.0-16.0","""event"",""trial"",""time""
""fullscreenenter"",""0"",""1889""
","
","
","""event"",""trial"",""time""
""fullscreenenter"",""0"",""1889""
","
","null","run_exp/static/audio/clip_36_begin_final.m4a","null","","","","","<div class='center'><p>Let's go over the important points again. Your job is to: </p><p>1. Pick the pirate who is best at robbing ships and will bring you back gold coins. </p><p>2. Correctly remember whether or not you saw a ship before. If you did see the ship before, remind yourself on which island you saw it. </p></div>","","","","","","","","","","","","","","","","","","",""
"","html-keyboard-response","17","151911","0.0-17.0","""event"",""trial"",""time""
""fullscreenenter"",""0"",""1889""
","
","
","""event"",""trial"",""time""
""fullscreenenter"",""0"",""1889""
","
","1108.1000000238419","<div class='center'><p>Let's go over the important points again. Your job is to: </p><p>1. Pick the pirate who is best at robbing ships and will bring you back gold coins. </p><p>2. Correctly remember whether or not you saw a ship before. If you did see the ship before, remind yourself on which island you saw it. </p><p><b>[Press the space bar to continue]</b></p></div>","32","","","","","","","","","","","","","","","","","","","","","","","",""
"","do_welcome","18","155928","0.0-18.0","""event"",""trial"",""time""
""fullscreenenter"",""0"",""1889""
","
","
","""event"",""trial"",""time""
""fullscreenenter"",""0"",""1889""
","
","null","","","","","","","","null","","","","","","","","","","","","","","","","","",""
"","do_trial","19","159960","0.0-19.0-0.0","""event"",""trial"",""time""
""fullscreenenter"",""0"",""1889""
","
","
","""event"",""trial"",""time""
""fullscreenenter"",""0"",""1889""
","
","1408","","","","","","","","49","1,0,0","6","blank","230","null","0.869706191528937","0.10208963387073411","0.22832895537718892","1","","","","","","","","",""
"","html-keyboard-response","20","160969","0.0-19.0-1.0","""event"",""trial"",""time""
""fullscreenenter"",""0"",""1889""
","
","
","""event"",""trial"",""time""
""fullscreenenter"",""0"",""1889""
","
","null","<p></p>","null","","","","","","","","","","","","","","","","","","","","","","","",""
"","do_trial","21","164064","0.0-20.0-0.0","""event"",""trial"",""time""
""fullscreenenter"",""0"",""1889""
","
","
","""event"",""trial"",""time""
""fullscreenenter"",""0"",""1889""
","
","482.1999999284744","","","","","","","","50","1,0,1","6","blank","231","null","0.7177974858294972","0.09392790953073156","0.1807785596055573","0","","","","","","","","",""
"","html-keyboard-response","22","165075","0.0-20.0-1.0","""event"",""trial"",""time""
""fullscreenenter"",""0"",""1889""
","
","
","""event"",""trial"",""time""
""fullscreenenter"",""0"",""1889""
","
","null","<p></p>","null","","","","","","","","","","","","","","","","","","","","","","","",""
"","do_trial","23","168047","0.0-21.0-0.0","""event"",""trial"",""time""
""fullscreenenter"",""0"",""1889""
","
","
","""event"",""trial"",""time""
""fullscreenenter"",""0"",""1889""
","
","362.2000000476837","","","","","","","","51","1,0,1","6","blank","232","null","0.7485136141766732","0.07711291032124541","0.23210250919679276","1","","","","","","","","",""
"","html-keyboard-response","24","169057","0.0-21.0-1.0","""event"",""trial"",""time""
""fullscreenenter"",""0"",""1889""
","
","
","""event"",""trial"",""time""
""fullscreenenter"",""0"",""1889""
","
","null","<p></p>","null","","","","","","","","","","","","","","","","","","","","","","","",""
"","do_trial","25","172471","0.0-22.0-0.0","""event"",""trial"",""time""
""fullscreenenter"",""0"",""1889""
","
","
","""event"",""trial"",""time""
""fullscreenenter"",""0"",""1889""
","
","804.8999999761581","","","","","","","","51","1,0,1","6","blank","233","null","0.7872121882433848","0.18193253853342137","0.3459051511856648","1","","","","","","","","",""
"","html-keyboard-response","26","173479","0.0-22.0-1.0","""event"",""trial"",""time""
""fullscreenenter"",""0"",""1889""
","
","
","""event"",""trial"",""time""
""fullscreenenter"",""0"",""1889""
","
","null","<p></p>","null","","","","","","","","","","","","","","","","","","","","","","","",""
"","do_trial","27","176550","0.0-23.0-0.0","""event"",""trial"",""time""
""fullscreenenter"",""0"",""1889""
","
","
","""event"",""trial"",""time""
""fullscreenenter"",""0"",""1889""
","
","452.5","","","","","","","","51","1,0,0","6","blank","234","null","0.766321521905735","0.18465381354518368","0.5538656435381649","0","","","","","","","","",""
"","html-keyboard-response","28","177555","0.0-23.0-1.0","""event"",""trial"",""time""
""fullscreenenter"",""0"",""1889""
","
","
","""event"",""trial"",""time""
""fullscreenenter"",""0"",""1889""
","
","null","<p></p>","null","","","","","","","","","","","","","","","","","","","","","","","",""
"","do_trial","29","180746","0.0-24.0-0.0","""event"",""trial"",""time""
""fullscreenenter"",""0"",""1889""
","
","
","""event"",""trial"",""time""
""fullscreenenter"",""0"",""1889""
","
","585.5","","","","","","","","51","1,1,1","6","blank","235","null","0.6941056068957779","0.24302626079916564","0.5050991766265217","1","","","","","","","","",""
"","html-keyboard-response","30","181749","0.0-24.0-1.0","""event"",""trial"",""time""
""fullscreenenter"",""0"",""1889""
","
","
","""event"",""trial"",""time""
""fullscreenenter"",""0"",""1889""
","
","null","<p></p>","null","","","","","","","","","","","","","","","","","","","","","","","",""
"","do_trial","31","184751","0.0-25.0-0.0","""event"",""trial"",""time""
""fullscreenenter"",""0"",""1889""
","
","
","""event"",""trial"",""time""
""fullscreenenter"",""0"",""1889""
","
","415.7999999523163","","","","","","","","49","0,1,0","6","blank","236","null","0.5991458041808138","0.0962362495707468","0.33796649103531606","0","","","","","","","","",""
"","html-keyboard-response","32","185764","0.0-25.0-1.0","""event"",""trial"",""time""
""fullscreenenter"",""0"",""1889""
","
","
","""event"",""trial"",""time""
""fullscreenenter"",""0"",""1889""
","
","null","<p></p>","null","","","","","","","","","","","","","","","","","","","","","","","",""
"","do_trial","33","188634","0.0-26.0-0.0","""event"",""trial"",""time""
""fullscreenenter"",""0"",""1889""
","
","
","""event"",""trial"",""time""
""fullscreenenter"",""0"",""1889""
","
","282.10000002384186","","","","","","","","51","1,0,1","6","blank","237","null","0.6865669368260029","0.05980625835485881","0.3721390690439381","1","","","","","","","","",""
"","html-keyboard-response","34","189646","0.0-26.0-1.0","""event"",""trial"",""time""
""fullscreenenter"",""0"",""1889""
","
","
","""event"",""trial"",""time""
""fullscreenenter"",""0"",""1889""
","
","null","<p></p>","null","","","","","","","","","","","","","","","","","","","","","","","",""
"","do_trial","35","192708","0.0-27.0-0.0","""event"",""trial"",""time""
""fullscreenenter"",""0"",""1889""
","
","
","""event"",""trial"",""time""
""fullscreenenter"",""0"",""1889""
","
","446","","","","","","","","51","1,1,1","6","blank","238","null","0.6447964148416607","0.07461062009102468","0.4029880217700138","1","","","","","","","","",""
"","html-keyboard-response","36","193720","0.0-27.0-1.0","""event"",""trial"",""time""
""fullscreenenter"",""0"",""1889""
","
","
","""event"",""trial"",""time""
""fullscreenenter"",""0"",""1889""
","
","null","<p></p>","null","","","","","","","","","","","","","","","","","","","","","","","",""
"","do_trial","37","196686","0.0-28.0-0.0","""event"",""trial"",""time""
""fullscreenenter"",""0"",""1889""
","
","
","""event"",""trial"",""time""
""fullscreenenter"",""0"",""1889""
","
","335.89999997615814","","","","","","","","51","1,0,0","6","blank","239","null","0.6845567568769694","0.12683243109429848","0.25878720587496573","0","","","","","","","","",""
"","html-keyboard-response","38","197694","0.0-28.0-1.0","""event"",""trial"",""time""
""fullscreenenter"",""0"",""1889""
","
","
","""event"",""trial"",""time""
""fullscreenenter"",""0"",""1889""
","
","null","<p></p>","null","","","","","","","","","","","","","","","","","","","","","","","",""
"","do_trial","39","200728","0.0-29.0-0.0","""event"",""trial"",""time""
""fullscreenenter"",""0"",""1889""
","
","
","""event"",""trial"",""time""
""fullscreenenter"",""0"",""1889""
","
","397.2000000476837","","","","","","","","51","0,0,0","6","blank","240","null","0.647478629894593","0.16684894178995177","0.3625771973150412","0","","","","","","","","",""
"","html-keyboard-response","40","201739","0.0-29.0-1.0","""event"",""trial"",""time""
""fullscreenenter"",""0"",""1889""
","
","
","""event"",""trial"",""time""
""fullscreenenter"",""0"",""1889""
","
","null","<p></p>","null","","","","","","","","","","","","","","","","","","","","","","","",""
"","do_trial","41","204661","0.0-30.0-0.0","""event"",""trial"",""time""
""fullscreenenter"",""0"",""1889""
","
","
","""event"",""trial"",""time""
""fullscreenenter"",""0"",""1889""
","
","307.7000000476837","","","","","","","","51","1,0,0","6","blank","241","null","0.5785590897219902","0.16241708688069317","0.21364158435667896","0","","","","","","","","",""
"","html-keyboard-response","42","205667","0.0-30.0-1.0","""event"",""trial"",""time""
""fullscreenenter"",""0"",""1889""
","
","
","""event"",""trial"",""time""
""fullscreenenter"",""0"",""1889""
","
","null","<p></p>","null","","","","","","","","","","","","","","","","","","","","","","","",""
"","do_trial","43","208745","0.0-31.0-0.0","""event"",""trial"",""time""
""fullscreenenter"",""0"",""1889""
","
","
","""event"",""trial"",""time""
""fullscreenenter"",""0"",""1889""
","
","461.60000002384186","","","","","","","","51","0,0,0","6","blank","242","null","0.5389588577448424","0.25991489263856915","0.17025679038982244","0","","","","","","","","",""
"","html-keyboard-response","44","209753","0.0-31.0-1.0","""event"",""trial"",""time""
""fullscreenenter"",""0"",""1889""
","
","
","""event"",""trial"",""time""
""fullscreenenter"",""0"",""1889""
","
","null","<p></p>","null","","","","","","","","","","","","","","","","","","","","","","","",""
"","do_trial","45","212647","0.0-32.0-0.0","""event"",""trial"",""time""
""fullscreenenter"",""0"",""1889""
","
","
","""event"",""trial"",""time""
""fullscreenenter"",""0"",""1889""
","
","305.6999999284744","","","","","","","","50","1,1,0","6","blank","243","null","0.4743839002796809","0.45681842810554535","0.06188395095559244","1","","","","","","","","",""
"","html-keyboard-response","46","213654","0.0-32.0-1.0","""event"",""trial"",""time""
""fullscreenenter"",""0"",""1889""
","
","
","""event"",""trial"",""time""
""fullscreenenter"",""0"",""1889""
","
","null","<p></p>","null","","","","","","","","","","","","","","","","","","","","","","","",""
"","do_trial","47","216724","0.0-33.0-0.0","""event"",""trial"",""time""
""fullscreenenter"",""0"",""1889""
","
","
","""event"",""trial"",""time""
""fullscreenenter"",""0"",""1889""
","
","465.89999997615814","","","","","","","","50","1,1,0","6","blank","244","null","0.30552478514441367","0.4868963523330116","0.14521459227706288","1","","","","","","","","",""
"","html-keyboard-response","48","217731","0.0-33.0-1.0","""event"",""trial"",""time""
""fullscreenenter"",""0"",""1889""
","
","
","""event"",""trial"",""time""
""fullscreenenter"",""0"",""1889""
","
","null","<p></p>","null","","","","","","","","","","","","","","","","","","","","","","","",""
"","do_recog","49","223776","0.0-34.0-0.0","""event"",""trial"",""time""
""fullscreenenter"",""0"",""1889""
","
","
","""event"",""trial"",""time""
""fullscreenenter"",""0"",""1889""
","
","null","","","","","","","","null","","","","245","probe-138","","","","","1","[object Object]","194","4","0","","","",""
"","html-keyboard-response","50","224785","0.0-34.0-1.0","""event"",""trial"",""time""
""fullscreenenter"",""0"",""1889""
","
","
","""event"",""trial"",""time""
""fullscreenenter"",""0"",""1889""
","
","null","<p></p>","null","","","","","","","","","","","","","","","","","","","","","","","",""
"","do_trial","51","228655","0.0-35.0-0.0","""event"",""trial"",""time""
""fullscreenenter"",""0"",""1889""
","
","
","""event"",""trial"",""time""
""fullscreenenter"",""0"",""1889""
","
","1277.6000000238419","","","","","","","","49","0,1,0","6","blank","246","null","0.29314658332261556","0.5674899762560172","0.0719048561336988","0","","","","","","","","",""
"","html-keyboard-response","52","229660","0.0-35.0-1.0","""event"",""trial"",""time""
""fullscreenenter"",""0"",""1889""
","
","
","""event"",""trial"",""time""
""fullscreenenter"",""0"",""1889""
","
","null","<p></p>","null","","","","","","","","","","","","","","","","","","","","","","","",""
"","do_recog","53","235692","0.0-36.0-0.0","""event"",""trial"",""time""
""fullscreenenter"",""0"",""1889""
","
","
","""event"",""trial"",""time""
""fullscreenenter"",""0"",""1889""
","
","null","","","","","","","","null","","","","247","probe-246","","","","","0","[object Object]","null","null","0","","","",""
"","html-keyboard-response","54","236700","0.0-36.0-1.0","""event"",""trial"",""time""
""fullscreenenter"",""0"",""1889""
","
","
","""event"",""trial"",""time""
""fullscreenenter"",""0"",""1889""
","
","null","<p></p>","null","","","","","","","","","","","","","","","","","","","","","","","",""
"","do_trial","55","239788","0.0-37.0-0.0","""event"",""trial"",""time""
""fullscreenenter"",""0"",""1889""
","
","
","""event"",""trial"",""time""
""fullscreenenter"",""0"",""1889""
","
","486.7000000476837","","","","","","","","49","0,1,0","6","blank","248","null","0.0980535702074771","0.48757323194711905","0.09703176778323719","0","","","","","","","","",""
"","html-keyboard-response","56","240800","0.0-37.0-1.0","""event"",""trial"",""time""
""fullscreenenter"",""0"",""1889""
","
","
","""event"",""trial"",""time""
""fullscreenenter"",""0"",""1889""
","
","null","<p></p>","null","","","","","","","","","","","","","","","","","","","","","","","",""
"","do_trial","57","243806","0.0-38.0-0.0","""event"",""trial"",""time""
""fullscreenenter"",""0"",""1889""
","
","
","""event"",""trial"",""time""
""fullscreenenter"",""0"",""1889""
","
","453.89999997615814","","","","","","","","51","0,1,0","6","blank","249","null","0.08618751882122432","0.5800182568264515","0.1098356680310507","0","","","","","","","","",""
"","html-keyboard-response","58","244811","0.0-38.0-1.0","""event"",""trial"",""time""
""fullscreenenter"",""0"",""1889""
","
","
","""event"",""trial"",""time""
""fullscreenenter"",""0"",""1889""
","
","null","<p></p>","null","","","","","","","","","","","","","","","","","","","","","","","",""
"","do_trial","59","247845","0.0-39.0-0.0","""event"",""trial"",""time""
""fullscreenenter"",""0"",""1889""
","
","
","""event"",""trial"",""time""
""fullscreenenter"",""0"",""1889""
","
","436.60000002384186","","","","","","","","50","1,1,0","6","blank","250","null","0.21594041393053054","0.6350568954746677","0.05746987736799368","1","","","","","","","","",""
"","html-keyboard-response","60","248853","0.0-39.0-1.0","""event"",""trial"",""time""
""fullscreenenter"",""0"",""1889""
","
","
","""event"",""trial"",""time""
""fullscreenenter"",""0"",""1889""
","
","null","<p></p>","null","","","","","","","","","","","","","","","","","","","","","","","",""
"","do_trial","61","252030","0.0-40.0-0.0","""event"",""trial"",""time""
""fullscreenenter"",""0"",""1889""
","
","
","""event"",""trial"",""time""
""fullscreenenter"",""0"",""1889""
","
","597.1000000238419","","","","","","","","50","0,1,0","6","blank","251","null","0.24178937177811502","0.6515000305936178","0.07441600959022181","1","","","","","","","","",""
"","html-keyboard-response","62","253045","0.0-40.0-1.0","""event"",""trial"",""time""
""fullscreenenter"",""0"",""1889""
","
","
","""event"",""trial"",""time""
""fullscreenenter"",""0"",""1889""
","
","null","<p></p>","null","","","","","","","","","","","","","","","","","","","","","","","",""
"","do_trial","63","256764","0.0-41.0-0.0","""event"",""trial"",""time""
""fullscreenenter"",""0"",""1889""
","
","
","""event"",""trial"",""time""
""fullscreenenter"",""0"",""1889""
","
","1075.5","","","","","","","","50","0,0,0","6","blank","252","null","0.385408430530001","0.6505565282285187","0.1135340872984687","0","","","","","","","","",""
"","html-keyboard-response","64","257771","0.0-41.0-1.0","""event"",""trial"",""time""
""fullscreenenter"",""0"",""1889""
","
","
","""event"",""trial"",""time""
""fullscreenenter"",""0"",""1889""
","
","null","<p></p>","null","","","","","","","","","","","","","","","","","","","","","","","",""
"","do_recog","65","261353","0.0-42.0-0.0","""event"",""trial"",""time""
""fullscreenenter"",""0"",""1889""
","
","
","""event"",""trial"",""time""
""fullscreenenter"",""0"",""1889""
","
","2064.899999976158","","","","","","","","56","","","","253","probe-159","","","","","1","[object Object]","79","1","0","","","",""
"","html-keyboard-response","66","262356","0.0-42.0-1.0","""event"",""trial"",""time""
""fullscreenenter"",""0"",""1889""
","
","
","""event"",""trial"",""time""
""fullscreenenter"",""0"",""1889""
","
","null","<p></p>","null","","","","","","","","","","","","","","","","","","","","","","","",""
"","do_trial","67","265813","0.0-43.0-0.0","""event"",""trial"",""time""
""fullscreenenter"",""0"",""1889""
","
","
","""event"",""trial"",""time""
""fullscreenenter"",""0"",""1889""
","
","820.3000000715256","","","","","","","","50","1,1,0","6","blank","254","null","0.4723666180530039","0.7019914171559434","0.05196762701256412","1","","","","","","","","",""
"","html-keyboard-response","68","266815","0.0-43.0-1.0","""event"",""trial"",""time""
""fullscreenenter"",""0"",""1889""
","
","
","""event"",""trial"",""time""
""fullscreenenter"",""0"",""1889""
","
","null","<p></p>","null","","","","","","","","","","","","","","","","","","","","","","","",""
"","do_trial","69","269856","0.0-44.0-0.0","""event"",""trial"",""time""
""fullscreenenter"",""0"",""1889""
","
","
","""event"",""trial"",""time""
""fullscreenenter"",""0"",""1889""
","
","398","","","","","","","","50","1,1,0","6","blank","255","null","0.4396037080325016","0.7080310686851808","0.1256430607851347","1","","","","","","","","",""
"","html-keyboard-response","70","270869","0.0-44.0-1.0","""event"",""trial"",""time""
""fullscreenenter"",""0"",""1889""
","
","
","""event"",""trial"",""time""
""fullscreenenter"",""0"",""1889""
","
","null","<p></p>","null","","","","","","","","","","","","","","","","","","","","","","","",""
"","do_trial","71","274137","0.0-45.0-0.0","""event"",""trial"",""time""
""fullscreenenter"",""0"",""1889""
","
","
","""event"",""trial"",""time""
""fullscreenenter"",""0"",""1889""
","
","675.3999999761581","","","","","","","","50","1,1,0","6","blank","256","null","0.39731858534972153","0.7765227369182247","0.09942459984074768","1","","","","","","","","",""
"","html-keyboard-response","72","275144","0.0-45.0-1.0","""event"",""trial"",""time""
""fullscreenenter"",""0"",""1889""
","
","
","""event"",""trial"",""time""
""fullscreenenter"",""0"",""1889""
","
","null","<p></p>","null","","","","","","","","","","","","","","","","","","","","","","","",""
"","do_recog","73","278604","0.0-46.0-0.0","""event"",""trial"",""time""
""fullscreenenter"",""0"",""1889""
","
","
","""event"",""trial"",""time""
""fullscreenenter"",""0"",""1889""
","
","1937.3999999761581","","","","","","","","56","","","","257","probe-231","","","","","0","[object Object]","null","null","1","","","",""
"","html-keyboard-response","74","279609","0.0-46.0-1.0","""event"",""trial"",""time""
""fullscreenenter"",""0"",""1889""
","
","
","""event"",""trial"",""time""
""fullscreenenter"",""0"",""1889""
","
","null","<p></p>","null","","","","","","","","","","","","","","","","","","","","","","","",""
"","do_trial","75","283191","0.0-47.0-0.0","""event"",""trial"",""time""
""fullscreenenter"",""0"",""1889""
","
","
","""event"",""trial"",""time""
""fullscreenenter"",""0"",""1889""
","
","963.8000000715256","","","","","","","","50","0,0,0","6","blank","258","null","0.35080613650612924","0.520368099432857","0.16320387610240347","0","","","","","","","","",""
"","html-keyboard-response","76","284196","0.0-47.0-1.0","""event"",""trial"",""time""
""fullscreenenter"",""0"",""1889""
","
","
","""event"",""trial"",""time""
""fullscreenenter"",""0"",""1889""
","
","null","<p></p>","null","","","","","","","","","","","","","","","","","","","","","","","",""
"","do_trial","77","287224","0.0-48.0-0.0","""event"",""trial"",""time""
""fullscreenenter"",""0"",""1889""
","
","
","""event"",""trial"",""time""
""fullscreenenter"",""0"",""1889""
","
","434.60000002384186","","","","","","","","49","0,1,0","6","blank","259","null","0.3038772127154803","0.5324869076473463","0.26800677678366575","0","","","","","","","","",""
"","html-keyboard-response","78","288232","0.0-48.0-1.0","""event"",""trial"",""time""
""fullscreenenter"",""0"",""1889""
","
","
","""event"",""trial"",""time""
""fullscreenenter"",""0"",""1889""
","
","null","<p></p>","null","","","","","","","","","","","","","","","","","","","","","","","",""
"","do_recog","79","292297","0.0-49.0-0.0","""event"",""trial"",""time""
""fullscreenenter"",""0"",""1889""
","
","
","""event"",""trial"",""time""
""fullscreenenter"",""0"",""1889""
","
","2545.3000000715256","","","","","","","","55","","","","260","probe-230","","","","","1","[object Object]","36","0","0","","","",""
"","html-keyboard-response","80","293300","0.0-49.0-1.0","""event"",""trial"",""time""
""fullscreenenter"",""0"",""1889""
","
","
","""event"",""trial"",""time""
""fullscreenenter"",""0"",""1889""
","
","null","<p></p>","null","","","","","","","","","","","","","","","","","","","","","","","",""
"","do_trial","81","296484","0.0-50.0-0.0","""event"",""trial"",""time""
""fullscreenenter"",""0"",""1889""
","
","
","""event"",""trial"",""time""
""fullscreenenter"",""0"",""1889""
","
","604.8999999761581","","","","","","","","51","0,0,0","6","blank","261","null","0.31769227967170466","0.5215715428998934","0.220467740745367","0","","","","","","","","",""
"","html-keyboard-response","82","297493","0.0-50.0-1.0","""event"",""trial"",""time""
""fullscreenenter"",""0"",""1889""
","
","
","""event"",""trial"",""time""
""fullscreenenter"",""0"",""1889""
","
","null","<p></p>","null","","","","","","","","","","","","","","","","","","","","","","","",""
"","do_recog","83","303527","0.0-51.0-0.0","""event"",""trial"",""time""
""fullscreenenter"",""0"",""1889""
","
","
","""event"",""trial"",""time""
""fullscreenenter"",""0"",""1889""
","
","null","","","","","","","","null","","","","262","probe-149","","","","","1","[object Object]","70","1","0","","","",""
"","html-keyboard-response","84","304539","0.0-51.0-1.0","""event"",""trial"",""time""
""fullscreenenter"",""0"",""1889""
","
","
","""event"",""trial"",""time""
""fullscreenenter"",""0"",""1889""
","
","null","<p></p>","null","","","","","","","","","","","","","","","","","","","","","","","",""
"","do_trial","85","307638","0.0-52.0-0.0","""event"",""trial"",""time""
""fullscreenenter"",""0"",""1889""
","
","
","""event"",""trial"",""time""
""fullscreenenter"",""0"",""1889""
","
","511.89999997615814","","","","","","","","49","0,1,0","6","blank","263","null","0.3571616825742291","0.5184157776702415","0.21723707551335686","0","","","","","","","","",""
"","html-keyboard-response","86","308645","0.0-52.0-1.0","""event"",""trial"",""time""
""fullscreenenter"",""0"",""1889""
","
","
","""event"",""trial"",""time""
""fullscreenenter"",""0"",""1889""
","
","null","<p></p>","null","","","","","","","","","","","","","","","","","","","","","","","",""
"","do_recog","87","312718","0.0-53.0-0.0","""event"",""trial"",""time""
""fullscreenenter"",""0"",""1889""
","
","
","""event"",""trial"",""time""
""fullscreenenter"",""0"",""1889""
","
","2550.4000000953674","","","","","","","","53","","","","264","probe-63","","","","","1","[object Object]","157","3","1","","","",""
"","html-keyboard-response","88","313731","0.0-53.0-1.0","""event"",""trial"",""time""
""fullscreenenter"",""0"",""1889""
","
","
","""event"",""trial"",""time""
""fullscreenenter"",""0"",""1889""
","
","null","<p></p>","null","","","","","","","","","","","","","","","","","","","","","","","",""
"","do_trial","89","316748","0.0-54.0-0.0","""event"",""trial"",""time""
""fullscreenenter"",""0"",""1889""
","
","
","""event"",""trial"",""time""
""fullscreenenter"",""0"",""1889""
","
","398","","","","","","","","51","0,0,0","6","blank","265","null","0.3696015746311665","0.7340793307397654","0.25863664525268415","0","","","","","","","","",""
"","html-keyboard-response","90","317755","0.0-54.0-1.0","""event"",""trial"",""time""
""fullscreenenter"",""0"",""1889""
","
","
","""event"",""trial"",""time""
""fullscreenenter"",""0"",""1889""
","
","null","<p></p>","null","","","","","","","","","","","","","","","","","","","","","","","",""
"","do_trial","91","320890","0.0-55.0-0.0","""event"",""trial"",""time""
""fullscreenenter"",""0"",""1889""
","
","
","""event"",""trial"",""time""
""fullscreenenter"",""0"",""1889""
","
","534.6000000238419","","","","","","","","50","0,1,1","6","blank","266","null","0.3128599382397329","0.6923711572793932","0.24056329167645682","1","","","","","","","","",""
"","html-keyboard-response","92","321901","0.0-55.0-1.0","""event"",""trial"",""time""
""fullscreenenter"",""0"",""1889""
","
","
","""event"",""trial"",""time""
""fullscreenenter"",""0"",""1889""
","
","null","<p></p>","null","","","","","","","","","","","","","","","","","","","","","","","",""
"","do_recog","93","325822","0.0-56.0-0.0","""event"",""trial"",""time""
""fullscreenenter"",""0"",""1889""
","
","
","""event"",""trial"",""time""
""fullscreenenter"",""0"",""1889""
","
","2398.399999976158","","","","","","","","53","","","","267","probe-193","","","","","1","[object Object]","118","2","1","","","",""
"","html-keyboard-response","94","326828","0.0-56.0-1.0","""event"",""trial"",""time""
""fullscreenenter"",""0"",""1889""
","
","
","""event"",""trial"",""time""
""fullscreenenter"",""0"",""1889""
","
","null","<p></p>","null","","","","","","","","","","","","","","","","","","","","","","","",""
"","do_trial","95","330133","0.0-57.0-0.0","""event"",""trial"",""time""
""fullscreenenter"",""0"",""1889""
","
","
","""event"",""trial"",""time""
""fullscreenenter"",""0"",""1889""
","
","692","","","","","","","","49","0,1,1","6","blank","268","null","0.3181894819400896","0.7125810436863345","0.17964991928273133","0","","","","","","","","",""
"","html-keyboard-response","96","331143","0.0-57.0-1.0","""event"",""trial"",""time""
""fullscreenenter"",""0"",""1889""
","
","
","""event"",""trial"",""time""
""fullscreenenter"",""0"",""1889""
","
","null","<p></p>","null","","","","","","","","","","","","","","","","","","","","","","","",""
"","break","97","344110","0.0-58.0-0.0","""event"",""trial"",""time""
""fullscreenenter"",""0"",""1889""
","
","
","""event"",""trial"",""time""
""fullscreenenter"",""0"",""1889""
","
","12965.100000023842","<div class='center'><p>Time to take a quick break! You have 2 minutes to rest, but you can move on sooner if you'd like.</p><p> Press the <b>space bar</b> to continue.</p></div>","32","","","","","","","","","","","","","","","","","","","","","","","",""
"","do_trial","98","347388","0.0-58.0-1.0","""event"",""trial"",""time""
""fullscreenenter"",""0"",""1889""
","
","
","""event"",""trial"",""time""
""fullscreenenter"",""0"",""1889""
","
","667.2000000476837","","","","","","","","50","0,1,0","6","blank","269","null","0.4471675766926528","0.5927953264073017","0.0740370498086822","1","","","","","","","","",""
"","html-keyboard-response","99","348393","0.0-58.0-2.0","""event"",""trial"",""time""
""fullscreenenter"",""0"",""1889""
","
","
","""event"",""trial"",""time""
""fullscreenenter"",""0"",""1889""
","
","null","<p></p>","null","","","","","","","","","","","","","","","","","","","","","","","",""
"","do_recog","100","351859","0.0-59.0-0.0","""event"",""trial"",""time""
""fullscreenenter"",""0"",""1889""
","
","
","""event"",""trial"",""time""
""fullscreenenter"",""0"",""1889""
","
","1944.6000000238419","","","","","","","","53","","","","270","probe-36","","","","","1","[object Object]","119","2","1","","","",""
"","html-keyboard-response","101","352868","0.0-59.0-1.0","""event"",""trial"",""time""
""fullscreenenter"",""0"",""1889""
","
","
","""event"",""trial"",""time""
""fullscreenenter"",""0"",""1889""
","
","null","<p></p>","null","","","","","","","","","","","","","","","","","","","","","","","",""
"","do_trial","102","356054","0.0-60.0-0.0","""event"",""trial"",""time""
""fullscreenenter"",""0"",""1889""
","
","
","""event"",""trial"",""time""
""fullscreenenter"",""0"",""1889""
","
","575.1999999284744","","","","","","","","50","0,0,0","6","blank","271","null","0.23702179100833898","0.6054794237627116","0.08800565053726675","0","","","","","","","","",""
"","html-keyboard-response","103","357061","0.0-60.0-1.0","""event"",""trial"",""time""
""fullscreenenter"",""0"",""1889""
","
","
","""event"",""trial"",""time""
""fullscreenenter"",""0"",""1889""
","
","null","<p></p>","null","","","","","","","","","","","","","","","","","","","","","","","",""
"","do_trial","104","360272","0.0-61.0-0.0","""event"",""trial"",""time""
""fullscreenenter"",""0"",""1889""
","
","
","""event"",""trial"",""time""
""fullscreenenter"",""0"",""1889""
","
","590.6000000238419","","","","","","","","49","0,1,0","6","blank","272","null","0.26398652260461675","0.5460070032623411","0.17928215008560888","0","","","","","","","","",""
"","html-keyboard-response","105","361286","0.0-61.0-1.0","""event"",""trial"",""time""
""fullscreenenter"",""0"",""1889""
","
","
","""event"",""trial"",""time""
""fullscreenenter"",""0"",""1889""
","
","null","<p></p>","null","","","","","","","","","","","","","","","","","","","","","","","",""
"","do_trial","106","364319","0.0-62.0-0.0","""event"",""trial"",""time""
""fullscreenenter"",""0"",""1889""
","
","
","""event"",""trial"",""time""
""fullscreenenter"",""0"",""1889""
","
","426.59999990463257","","","","","","","","51","0,1,0","6","blank","273","null","0.2748298191187905","0.5538592288329511","0.11677642860019734","0","","","","","","","","",""
"","html-keyboard-response","107","365325","0.0-62.0-1.0","""event"",""trial"",""time""
""fullscreenenter"",""0"",""1889""
","
","
","""event"",""trial"",""time""
""fullscreenenter"",""0"",""1889""
","
","null","<p></p>","null","","","","","","","","","","","","","","","","","","","","","","","",""
"","do_recog","108","369568","0.0-63.0-0.0","""event"",""trial"",""time""
""fullscreenenter"",""0"",""1889""
","
","
","""event"",""trial"",""time""
""fullscreenenter"",""0"",""1889""
","
","2716.7999999523163","","","","","","","","54","","","","274","probe-92","","","","","1","[object Object]","193","4","1","","","",""
"","html-keyboard-response","109","370573","0.0-63.0-1.0","""event"",""trial"",""time""
""fullscreenenter"",""0"",""1889""
","
","
","""event"",""trial"",""time""
""fullscreenenter"",""0"",""1889""
","
","null","<p></p>","null","","","","","","","","","","","","","","","","","","","","","","","",""
"","do_trial","110","373622","0.0-64.0-0.0","""event"",""trial"",""time""
""fullscreenenter"",""0"",""1889""
","
","
","""event"",""trial"",""time""
""fullscreenenter"",""0"",""1889""
","
","436.2999999523163","","","","","","","","51","1,0,0","6","blank","275","null","0.43098166980977076","0.6468148274183041","0.16370449338344353","0","","","","","","","","",""
"","html-keyboard-response","111","374627","0.0-64.0-1.0","""event"",""trial"",""time""
""fullscreenenter"",""0"",""1889""
","
","
","""event"",""trial"",""time""
""fullscreenenter"",""0"",""1889""
","
","null","<p></p>","null","","","","","","","","","","","","","","","","","","","","","","","",""
"","do_trial","112","377658","0.0-65.0-0.0","""event"",""trial"",""time""
""fullscreenenter"",""0"",""1889""
","
","
","""event"",""trial"",""time""
""fullscreenenter"",""0"",""1889""
","
","422.89999997615814","","","","","","","","49","0,1,0","6","blank","276","null","0.30592940511146205","0.6434817917920529","0.08250321116773916","0","","","","","","","","",""
"","html-keyboard-response","113","378671","0.0-65.0-1.0","""event"",""trial"",""time""
""fullscreenenter"",""0"",""1889""
","
","
","""event"",""trial"",""time""
""fullscreenenter"",""0"",""1889""
","
","null","<p></p>","null","","","","","","","","","","","","","","","","","","","","","","","",""
"","do_recog","114","382715","0.0-66.0-0.0","""event"",""trial"",""time""
""fullscreenenter"",""0"",""1889""
","
","
","""event"",""trial"",""time""
""fullscreenenter"",""0"",""1889""
","
","2515.100000023842","","","","","","","","53","","","","277","probe-133","","","","","1","[object Object]","112","2","1","","","",""
"","html-keyboard-response","115","383720","0.0-66.0-1.0","""event"",""trial"",""time""
""fullscreenenter"",""0"",""1889""
","
","
","""event"",""trial"",""time""
""fullscreenenter"",""0"",""1889""
","
","null","<p></p>","null","","","","","","","","","","","","","","","","","","","","","","","",""
"","do_trial","116","386902","0.0-67.0-0.0","""event"",""trial"",""time""
""fullscreenenter"",""0"",""1889""
","
","
","""event"",""trial"",""time""
""fullscreenenter"",""0"",""1889""
","
","555.1999999284744","","","","","","","","50","0,1,0","6","blank","278","null","0.15040263139568505","0.8625179811957854","0.13770474009131856","1","","","","","","","","",""
"","html-keyboard-response","117","387910","0.0-67.0-1.0","""event"",""trial"",""time""
""fullscreenenter"",""0"",""1889""
","
","
","""event"",""trial"",""time""
""fullscreenenter"",""0"",""1889""
","
","null","<p></p>","null","","","","","","","","","","","","","","","","","","","","","","","",""
"","do_trial","118","390956","0.0-68.0-0.0","""event"",""trial"",""time""
""fullscreenenter"",""0"",""1889""
","
","
","""event"",""trial"",""time""
""fullscreenenter"",""0"",""1889""
","
","459.10000002384186","","","","","","","","50","0,1,0","6","blank","279","null","0.24841476343415117","0.6048137973402519","0.23879698311596037","1","","","","","","","","",""
"","html-keyboard-response","119","391963","0.0-68.0-1.0","""event"",""trial"",""time""
""fullscreenenter"",""0"",""1889""
","
","
","""event"",""trial"",""time""
""fullscreenenter"",""0"",""1889""
","
","null","<p></p>","null","","","","","","","","","","","","","","","","","","","","","","","",""
"","do_trial","120","394992","0.0-69.0-0.0","""event"",""trial"",""time""
""fullscreenenter"",""0"",""1889""
","
","
","""event"",""trial"",""time""
""fullscreenenter"",""0"",""1889""
","
","423.5","","","","","","","","50","0,0,0","6","blank","280","null","0.16641762001273816","0.738208535407326","0.19856497325486913","0","","","","","","","","",""
"","html-keyboard-response","121","395999","0.0-69.0-1.0","""event"",""trial"",""time""
""fullscreenenter"",""0"",""1889""
","
","
","""event"",""trial"",""time""
""fullscreenenter"",""0"",""1889""
","
","null","<p></p>","null","","","","","","","","","","","","","","","","","","","","","","","",""
"","do_recog","122","400025","0.0-70.0-0.0","""event"",""trial"",""time""
""fullscreenenter"",""0"",""1889""
","
","
","""event"",""trial"",""time""
""fullscreenenter"",""0"",""1889""
","
","2498.7000000476837","","","","","","","","54","","","","281","probe-152","","","","","1","[object Object]","154","3","1","","","",""
"","html-keyboard-response","123","401034","0.0-70.0-1.0","""event"",""trial"",""time""
""fullscreenenter"",""0"",""1889""
","
","
","""event"",""trial"",""time""
""fullscreenenter"",""0"",""1889""
","
","null","<p></p>","null","","","","","","","","","","","","","","","","","","","","","","","",""
"","do_trial","124","404150","0.0-71.0-0.0","""event"",""trial"",""time""
""fullscreenenter"",""0"",""1889""
","
","
","""event"",""trial"",""time""
""fullscreenenter"",""0"",""1889""
","
","504.8000000715256","","","","","","","","50","0,1,0","6","blank","282","null","0.2924936936464073","0.5814915232079895","0.11308297934773894","1","","","","","","","","",""
"","html-keyboard-response","125","405153","0.0-71.0-1.0","""event"",""trial"",""time""
""fullscreenenter"",""0"",""1889""
","
","
","""event"",""trial"",""time""
""fullscreenenter"",""0"",""1889""
","
","null","<p></p>","null","","","","","","","","","","","","","","","","","","","","","","","",""
"","do_trial","126","408298","0.0-72.0-0.0","""event"",""trial"",""time""
""fullscreenenter"",""0"",""1889""
","
","
","""event"",""trial"",""time""
""fullscreenenter"",""0"",""1889""
","
","537","","","","","","","","50","0,0,1","6","blank","283","null","0.29972405314920886","0.5194370863651336","0.19978557538299224","0","","","","","","","","",""
"","html-keyboard-response","127","409302","0.0-72.0-1.0","""event"",""trial"",""time""
""fullscreenenter"",""0"",""1889""
","
","
","""event"",""trial"",""time""
""fullscreenenter"",""0"",""1889""
","
","null","<p></p>","null","","","","","","","","","","","","","","","","","","","","","","","",""
"","do_trial","128","412402","0.0-73.0-0.0","""event"",""trial"",""time""
""fullscreenenter"",""0"",""1889""
","
","
","""event"",""trial"",""time""
""fullscreenenter"",""0"",""1889""
","
","462.6999999284744","","","","","","","","50","0,1,0","6","blank","284","null","0.33573979067088916","0.4885865049744982","0.14903784340952736","1","","","","","","","","",""
"","html-keyboard-response","129","413410","0.0-73.0-1.0","""event"",""trial"",""time""
""fullscreenenter"",""0"",""1889""
","
","
","""event"",""trial"",""time""
""fullscreenenter"",""0"",""1889""
","
","null","<p></p>","null","","","","","","","","","","","","","","","","","","","","","","","",""
"","do_trial","130","416510","0.0-74.0-0.0","""event"",""trial"",""time""
""fullscreenenter"",""0"",""1889""
","
","
","""event"",""trial"",""time""
""fullscreenenter"",""0"",""1889""
","
","500.90000009536743","","","","","","","","50","0,1,1","6","blank","285","null","0.40251448981271126","0.4220434090302858","0.20477217186803004","1","","","","","","","","",""
"","html-keyboard-response","131","417520","0.0-74.0-1.0","""event"",""trial"",""time""
""fullscreenenter"",""0"",""1889""
","
","
","""event"",""trial"",""time""
""fullscreenenter"",""0"",""1889""
","
","null","<p></p>","null","","","","","","","","","","","","","","","","","","","","","","","",""
"","do_trial","132","420419","0.0-75.0-0.0","""event"",""trial"",""time""
""fullscreenenter"",""0"",""1889""
","
","
","""event"",""trial"",""time""
""fullscreenenter"",""0"",""1889""
","
","282.89999997615814","","","","","","","","50","1,0,0","6","blank","286","null","0.37649433273079475","0.574059812551225","0.19565825024114794","0","","","","","","","","",""
"","html-keyboard-response","133","421430","0.0-75.0-1.0","""event"",""trial"",""time""
""fullscreenenter"",""0"",""1889""
","
","
","""event"",""trial"",""time""
""fullscreenenter"",""0"",""1889""
","
","null","<p></p>","null","","","","","","","","","","","","","","","","","","","","","","","",""
"","do_trial","134","424579","0.0-76.0-0.0","""event"",""trial"",""time""
""fullscreenenter"",""0"",""1889""
","
","
","""event"",""trial"",""time""
""fullscreenenter"",""0"",""1889""
","
","528.2999999523163","","","","","","","","50","0,0,0","6","blank","287","null","0.40045420686540545","0.6793106620070613","0.11768922574157628","0","","","","","","","","",""
"","html-keyboard-response","135","425587","0.0-76.0-1.0","""event"",""trial"",""time""
""fullscreenenter"",""0"",""1889""
","
","
","""event"",""trial"",""time""
""fullscreenenter"",""0"",""1889""
","
","null","<p></p>","null","","","","","","","","","","","","","","","","","","","","","","","",""
"","do_trial","136","428949","0.0-77.0-0.0","""event"",""trial"",""time""
""fullscreenenter"",""0"",""1889""
","
","
","""event"",""trial"",""time""
""fullscreenenter"",""0"",""1889""
","
","781.2000000476837","","","","","","","","49","0,1,0","6","blank","288","null","0.48571733358170166","0.646619561604873","0.22397763991136063","0","","","","","","","","",""
"","html-keyboard-response","137","429956","0.0-77.0-1.0","""event"",""trial"",""time""
""fullscreenenter"",""0"",""1889""
","
","
","""event"",""trial"",""time""
""fullscreenenter"",""0"",""1889""
","
","null","<p></p>","null","","","","","","","","","","","","","","","","","","","","","","","",""
"","do_recog","138","433772","0.0-78.0-0.0","""event"",""trial"",""time""
""fullscreenenter"",""0"",""1889""
","
","
","""event"",""trial"",""time""
""fullscreenenter"",""0"",""1889""
","
","2303.899999976158","","","","","","","","54","","","","289","probe-188","","","","","1","[object Object]","34","0","1","","","",""
"","html-keyboard-response","139","434781","0.0-78.0-1.0","""event"",""trial"",""time""
""fullscreenenter"",""0"",""1889""
","
","
","""event"",""trial"",""time""
""fullscreenenter"",""0"",""1889""
","
","null","<p></p>","null","","","","","","","","","","","","","","","","","","","","","","","",""
"","do_trial","140","438049","0.0-79.0-0.0","""event"",""trial"",""time""
""fullscreenenter"",""0"",""1889""
","
","
","""event"",""trial"",""time""
""fullscreenenter"",""0"",""1889""
","
","729.3000000715256","","","","","","","","50","0,0,0","6","blank","290","null","0.34409756585018814","0.5714294551250582","0.16827294320377031","0","","","","","","","","",""
"","html-keyboard-response","141","439052","0.0-79.0-1.0","""event"",""trial"",""time""
""fullscreenenter"",""0"",""1889""
","
","
","""event"",""trial"",""time""
""fullscreenenter"",""0"",""1889""
","
","null","<p></p>","null","","","","","","","","","","","","","","","","","","","","","","","",""
"","do_trial","142","442126","0.0-80.0-0.0","""event"",""trial"",""time""
""fullscreenenter"",""0"",""1889""
","
","
","""event"",""trial"",""time""
""fullscreenenter"",""0"",""1889""
","
","462.40000009536743","","","","","","","","51","0,1,0","6","blank","291","null","0.4053032733359798","0.6537434465831947","0.15851146354744466","0","","","","","","","","",""
"","html-keyboard-response","143","443135","0.0-80.0-1.0","""event"",""trial"",""time""
""fullscreenenter"",""0"",""1889""
","
","
","""event"",""trial"",""time""
""fullscreenenter"",""0"",""1889""
","
","null","<p></p>","null","","","","","","","","","","","","","","","","","","","","","","","",""
"","do_recog","144","446862","0.0-81.0-0.0","""event"",""trial"",""time""
""fullscreenenter"",""0"",""1889""
","
","
","""event"",""trial"",""time""
""fullscreenenter"",""0"",""1889""
","
","2204.1999999284744","","","","","","","","55","","","","292","probe-243","","","","","0","[object Object]","null","null","1","","","",""
"","html-keyboard-response","145","447869","0.0-81.0-1.0","""event"",""trial"",""time""
""fullscreenenter"",""0"",""1889""
","
","
","""event"",""trial"",""time""
""fullscreenenter"",""0"",""1889""
","
","null","<p></p>","null","","","","","","","","","","","","","","","","","","","","","","","",""
"","do_trial","146","451288","0.0-82.0-0.0","""event"",""trial"",""time""
""fullscreenenter"",""0"",""1889""
","
","
","""event"",""trial"",""time""
""fullscreenenter"",""0"",""1889""
","
","798","","","","","","","","50","0,1,0","6","blank","293","null","0.46906012782894246","0.6143103055945308","0.3021114214410452","1","","","","","","","","",""
"","html-keyboard-response","147","452298","0.0-82.0-1.0","""event"",""trial"",""time""
""fullscreenenter"",""0"",""1889""
","
","
","""event"",""trial"",""time""
""fullscreenenter"",""0"",""1889""
","
","null","<p></p>","null","","","","","","","","","","","","","","","","","","","","","","","",""
"","do_recog","148","455866","0.0-83.0-0.0","""event"",""trial"",""time""
""fullscreenenter"",""0"",""1889""
","
","
","""event"",""trial"",""time""
""fullscreenenter"",""0"",""1889""
","
","2039.9000000953674","","","","","","","","53","","","","294","probe-42","","","","","1","[object Object]","196","4","1","","","",""
"","html-keyboard-response","149","456871","0.0-83.0-1.0","""event"",""trial"",""time""
""fullscreenenter"",""0"",""1889""
","
","
","""event"",""trial"",""time""
""fullscreenenter"",""0"",""1889""
","
","null","<p></p>","null","","","","","","","","","","","","","","","","","","","","","","","",""
"","do_trial","150","460087","0.0-84.0-0.0","""event"",""trial"",""time""
""fullscreenenter"",""0"",""1889""
","
","
","""event"",""trial"",""time""
""fullscreenenter"",""0"",""1889""
","
","578.7000000476837","","","","","","","","50","1,1,0","6","blank","295","null","0.5680292246900509","0.49995579237757287","0.30491995523641835","1","","","","","","","","",""
"","html-keyboard-response","151","461092","0.0-84.0-1.0","""event"",""trial"",""time""
""fullscreenenter"",""0"",""1889""
","
","
","""event"",""trial"",""time""
""fullscreenenter"",""0"",""1889""
","
","null","<p></p>","null","","","","","","","","","","","","","","","","","","","","","","","",""
"","do_trial","152","464043","0.0-85.0-0.0","""event"",""trial"",""time""
""fullscreenenter"",""0"",""1889""
","
","
","""event"",""trial"",""time""
""fullscreenenter"",""0"",""1889""
","
","351.60000002384186","","","","","","","","50","0,0,0","6","blank","296","null","0.6693411854756072","0.43251939228452174","0.18893512822930242","0","","","","","","","","",""
"","html-keyboard-response","153","465054","0.0-85.0-1.0","""event"",""trial"",""time""
""fullscreenenter"",""0"",""1889""
","
","
","""event"",""trial"",""time""
""fullscreenenter"",""0"",""1889""
","
","null","<p></p>","null","","","","","","","","","","","","","","","","","","","","","","","",""
"","do_trial","154","468306","0.0-86.0-0.0","""event"",""trial"",""time""
""fullscreenenter"",""0"",""1889""
","
","
","""event"",""trial"",""time""
""fullscreenenter"",""0"",""1889""
","
","669","","","","","","","","50","1,0,0","6","blank","297","null","0.5464635436229387","0.1859569227716982","0.21802306446000452","0","","","","","","","","",""
"","html-keyboard-response","155","469309","0.0-86.0-1.0","""event"",""trial"",""time""
""fullscreenenter"",""0"",""1889""
","
","
","""event"",""trial"",""time""
""fullscreenenter"",""0"",""1889""
","
","null","<p></p>","null","","","","","","","","","","","","","","","","","","","","","","","",""
"","do_trial","156","472495","0.0-87.0-0.0","""event"",""trial"",""time""
""fullscreenenter"",""0"",""1889""
","
","
","""event"",""trial"",""time""
""fullscreenenter"",""0"",""1889""
","
","586","","","","","","","","50","0,0,1","6","blank","298","null","0.5420986107301795","0.29526809607729876","0.27920763822219036","0","","","","","","","","",""
"","html-keyboard-response","157","473500","0.0-87.0-1.0","""event"",""trial"",""time""
""fullscreenenter"",""0"",""1889""
","
","
","""event"",""trial"",""time""
""fullscreenenter"",""0"",""1889""
","
","null","<p></p>","null","","","","","","","","","","","","","","","","","","","","","","","",""
"","do_trial","158","476462","0.0-88.0-0.0","""event"",""trial"",""time""
""fullscreenenter"",""0"",""1889""
","
","
","""event"",""trial"",""time""
""fullscreenenter"",""0"",""1889""
","
","352.90000009536743","","","","","","","","49","0,1,0","6","blank","299","null","0.5682813874077335","0.2394585437855586","0.2578903432064752","0","","","","","","","","",""
"","html-keyboard-response","159","477469","0.0-88.0-1.0","""event"",""trial"",""time""
""fullscreenenter"",""0"",""1889""
","
","
","""event"",""trial"",""time""
""fullscreenenter"",""0"",""1889""
","
","null","<p></p>","null","","","","","","","","","","","","","","","","","","","","","","","",""
"","do_recog","160","480958","0.0-89.0-0.0","""event"",""trial"",""time""
""fullscreenenter"",""0"",""1889""
","
","
","""event"",""trial"",""time""
""fullscreenenter"",""0"",""1889""
","
","1973.2999999523163","","","","","","","","53","","","","300","probe-227","","","","","1","[object Object]","74","1","1","","","",""
"","html-keyboard-response","161","481969","0.0-89.0-1.0","""event"",""trial"",""time""
""fullscreenenter"",""0"",""1889""
","
","
","""event"",""trial"",""time""
""fullscreenenter"",""0"",""1889""
","
","null","<p></p>","null","","","","","","","","","","","","","","","","","","","","","","","",""
"","do_trial","162","485032","0.0-90.0-0.0","""event"",""trial"",""time""
""fullscreenenter"",""0"",""1889""
","
","
","""event"",""trial"",""time""
""fullscreenenter"",""0"",""1889""
","
","489.60000002384186","","","","","","","","49","0,0,0","6","blank","301","null","0.6137747752887546","0.29503567442685225","0.2470952458236886","0","","","","","","","","",""
"","html-keyboard-response","163","486038","0.0-90.0-1.0","""event"",""trial"",""time""
""fullscreenenter"",""0"",""1889""
","
","
","""event"",""trial"",""time""
""fullscreenenter"",""0"",""1889""
","
","null","<p></p>","null","","","","","","","","","","","","","","","","","","","","","","","",""
"","do_recog","164","492063","0.0-91.0-0.0","""event"",""trial"",""time""
""fullscreenenter"",""0"",""1889""
","
","
","""event"",""trial"",""time""
""fullscreenenter"",""0"",""1889""
","
","null","","","","","","","","null","","","","302","probe-157","","","","","1","[object Object]","153","3","0","","","",""
"","html-keyboard-response","165","493073","0.0-91.0-1.0","""event"",""trial"",""time""
""fullscreenenter"",""0"",""1889""
","
","
","""event"",""trial"",""time""
""fullscreenenter"",""0"",""1889""
","
","null","<p></p>","null","","","","","","","","","","","","","","","","","","","","","","","",""
"","do_trial","166","496318","0.0-92.0-0.0","""event"",""trial"",""time""
""fullscreenenter"",""0"",""1889""
","
","
","""event"",""trial"",""time""
""fullscreenenter"",""0"",""1889""
","
","650.8999999761581","","","","","","","","51","1,0,0","6","blank","303","null","0.5580197431314227","0.31420067754070774","0.1387084341766558","0","","","","","","","","",""
"","html-keyboard-response","167","497328","0.0-92.0-1.0","""event"",""trial"",""time""
""fullscreenenter"",""0"",""1889""
","
","
","""event"",""trial"",""time""
""fullscreenenter"",""0"",""1889""
","
","null","<p></p>","null","","","","","","","","","","","","","","","","","","","","","","","",""
"","do_recog","168","500613","0.0-93.0-0.0","""event"",""trial"",""time""
""fullscreenenter"",""0"",""1889""
","
","
","""event"",""trial"",""time""
""fullscreenenter"",""0"",""1889""
","
","1761.5","","","","","","","","53","","","","304","probe-155","","","","","1","[object Object]","76","1","1","","","",""
"","html-keyboard-response","169","501618","0.0-93.0-1.0","""event"",""trial"",""time""
""fullscreenenter"",""0"",""1889""
","
","
","""event"",""trial"",""time""
""fullscreenenter"",""0"",""1889""
","
","null","<p></p>","null","","","","","","","","","","","","","","","","","","","","","","","",""
"","do_trial","170","504855","0.0-94.0-0.0","""event"",""trial"",""time""
""fullscreenenter"",""0"",""1889""
","
","
","""event"",""trial"",""time""
""fullscreenenter"",""0"",""1889""
","
","623.7999999523163","","","","","","","","51","1,1,0","6","blank","305","null","0.6102821600869452","0.42056127651179676","0.16067431024112697","0","","","","","","","","",""
"","html-keyboard-response","171","505862","0.0-94.0-1.0","""event"",""trial"",""time""
""fullscreenenter"",""0"",""1889""
","
","
","""event"",""trial"",""time""
""fullscreenenter"",""0"",""1889""
","
","null","<p></p>","null","","","","","","","","","","","","","","","","","","","","","","","",""
"","do_trial","172","508917","0.0-95.0-0.0","""event"",""trial"",""time""
""fullscreenenter"",""0"",""1889""
","
","
","""event"",""trial"",""time""
""fullscreenenter"",""0"",""1889""
","
","452","","","","","","","","50","0,0,0","6","blank","306","null","0.6234797101526118","0.38608298896464627","0.20868221962446687","0","","","","","","","","",""
"","html-keyboard-response","173","509925","0.0-95.0-1.0","""event"",""trial"",""time""
""fullscreenenter"",""0"",""1889""
","
","
","""event"",""trial"",""time""
""fullscreenenter"",""0"",""1889""
","
","null","<p></p>","null","","","","","","","","","","","","","","","","","","","","","","","",""
"","do_trial","174","512887","0.0-96.0-0.0","""event"",""trial"",""time""
""fullscreenenter"",""0"",""1889""
","
","
","""event"",""trial"",""time""
""fullscreenenter"",""0"",""1889""
","
","358","","","","","","","","50","0,1,0","6","blank","307","null","0.46398987523118346","0.32685360285938986","0.14754620678035543","1","","","","","","","","",""
"","html-keyboard-response","175","513896","0.0-96.0-1.0","""event"",""trial"",""time""
""fullscreenenter"",""0"",""1889""
","
","
","""event"",""trial"",""time""
""fullscreenenter"",""0"",""1889""
","
","null","<p></p>","null","","","","","","","","","","","","","","","","","","","","","","","",""
"","do_trial","176","516876","0.0-97.0-0.0","""event"",""trial"",""time""
""fullscreenenter"",""0"",""1889""
","
","
","""event"",""trial"",""time""
""fullscreenenter"",""0"",""1889""
","
","316.90000009536743","","","","","","","","50","1,0,0","6","blank","308","null","0.6446006409105328","0.26766443845924276","0.10308039781248667","0","","","","","","","","",""
"","html-keyboard-response","177","517883","0.0-97.0-1.0","""event"",""trial"",""time""
""fullscreenenter"",""0"",""1889""
","
","
","""event"",""trial"",""time""
""fullscreenenter"",""0"",""1889""
","
","null","<p></p>","null","","","","","","","","","","","","","","","","","","","","","","","",""
"","break","178","527110","0.0-98.0-0.0","""event"",""trial"",""time""
""fullscreenenter"",""0"",""1889""
","
","
","""event"",""trial"",""time""
""fullscreenenter"",""0"",""1889""
","
","9224.5","<div class='center'><p>Time to take a quick break! You have 2 minutes to rest, but you can move on sooner if you'd like.</p><p> Press the <b>space bar</b> to continue.</p></div>","32","","","","","","","","","","","","","","","","","","","","","","","",""
"","do_trial","179","530429","0.0-98.0-1.0","""event"",""trial"",""time""
""fullscreenenter"",""0"",""1889""
","
","
","""event"",""trial"",""time""
""fullscreenenter"",""0"",""1889""
","
","737.7000000476837","","","","","","","","49","0,0,0","6","blank","309","null","0.6194548691191037","0.33487730595988596","0.1817277411080902","0","","","","","","","","",""
"","html-keyboard-response","180","531438","0.0-98.0-2.0","""event"",""trial"",""time""
""fullscreenenter"",""0"",""1889""
","
","
","""event"",""trial"",""time""
""fullscreenenter"",""0"",""1889""
","
","null","<p></p>","null","","","","","","","","","","","","","","","","","","","","","","","",""
"","do_recog","181","534419","0.0-99.0-0.0","""event"",""trial"",""time""
""fullscreenenter"",""0"",""1889""
","
","
","""event"",""trial"",""time""
""fullscreenenter"",""0"",""1889""
","
","1459","","","","","","","","53","","","","310","probe-87","","","","","1","[object Object]","75","1","1","","","",""
"","html-keyboard-response","182","535428","0.0-99.0-1.0","""event"",""trial"",""time""
""fullscreenenter"",""0"",""1889""
","
","
","""event"",""trial"",""time""
""fullscreenenter"",""0"",""1889""
","
","null","<p></p>","null","","","","","","","","","","","","","","","","","","","","","","","",""
"","do_trial","183","538638","0.0-100.0-0.0","""event"",""trial"",""time""
""fullscreenenter"",""0"",""1889""
","
","
","""event"",""trial"",""time""
""fullscreenenter"",""0"",""1889""
","
","622.8999999761581","","","","","","","","49","1,0,0","6","blank","311","null","0.6367630601047843","0.29480619972214916","0.26860859216775795","1","","","","","","","","",""
"","html-keyboard-response","184","539649","0.0-100.0-1.0","""event"",""trial"",""time""
""fullscreenenter"",""0"",""1889""
","
","
","""event"",""trial"",""time""
""fullscreenenter"",""0"",""1889""
","
","null","<p></p>","null","","","","","","","","","","","","","","","","","","","","","","","",""
"","do_trial","185","542702","0.0-101.0-0.0","""event"",""trial"",""time""
""fullscreenenter"",""0"",""1889""
","
","
","""event"",""trial"",""time""
""fullscreenenter"",""0"",""1889""
","
","453.89999997615814","","","","","","","","49","0,1,0","6","blank","312","null","0.5653130987207738","0.3189456418360713","0.20169124955953036","0","","","","","","","","",""
"","html-keyboard-response","186","543715","0.0-101.0-1.0","""event"",""trial"",""time""
""fullscreenenter"",""0"",""1889""
","
","
","""event"",""trial"",""time""
""fullscreenenter"",""0"",""1889""
","
","null","<p></p>","null","","","","","","","","","","","","","","","","","","","","","","","",""
"","do_trial","187","546996","0.0-102.0-0.0","""event"",""trial"",""time""
""fullscreenenter"",""0"",""1889""
","
","
","""event"",""trial"",""time""
""fullscreenenter"",""0"",""1889""
","
","675.5","","","","","","","","49","0,0,1","6","blank","313","null","0.4827973357291844","0.32472069142489646","0.1279659412881565","0","","","","","","","","",""
"","html-keyboard-response","188","548001","0.0-102.0-1.0","""event"",""trial"",""time""
""fullscreenenter"",""0"",""1889""
","
","
","""event"",""trial"",""time""
""fullscreenenter"",""0"",""1889""
","
","null","<p></p>","null","","","","","","","","","","","","","","","","","","","","","","","",""
"","do_recog","189","551302","0.0-103.0-0.0","""event"",""trial"",""time""
""fullscreenenter"",""0"",""1889""
","
","
","""event"",""trial"",""time""
""fullscreenenter"",""0"",""1889""
","
","1785","","","","","","","","54","","","","314","probe-110","","","","","1","[object Object]","111","2","1","","","",""
"","html-keyboard-response","190","552309","0.0-103.0-1.0","""event"",""trial"",""time""
""fullscreenenter"",""0"",""1889""
","
","
","""event"",""trial"",""time""
""fullscreenenter"",""0"",""1889""
","
","null","<p></p>","null","","","","","","","","","","","","","","","","","","","","","","","",""
"","do_trial","191","555637","0.0-104.0-0.0","""event"",""trial"",""time""
""fullscreenenter"",""0"",""1889""
","
","
","""event"",""trial"",""time""
""fullscreenenter"",""0"",""1889""
","
","730.2999999523163","","","","","","","","51","0,0,0","6","blank","315","null","0.574544184934896","0.29036835128836924","0.2644043746737478","0","","","","","","","","",""
"","html-keyboard-response","192","556643","0.0-104.0-1.0","""event"",""trial"",""time""
""fullscreenenter"",""0"",""1889""
","
","
","""event"",""trial"",""time""
""fullscreenenter"",""0"",""1889""
","
","null","<p></p>","null","","","","","","","","","","","","","","","","","","","","","","","",""
"","do_recog","193","559836","0.0-105.0-0.0","""event"",""trial"",""time""
""fullscreenenter"",""0"",""1889""
","
","
","""event"",""trial"",""time""
""fullscreenenter"",""0"",""1889""
","
","1670.5","","","","","","","","55","","","","316","probe-52","","","","","1","[object Object]","38","0","0","","","",""
"","html-keyboard-response","194","560849","0.0-105.0-1.0","""event"",""trial"",""time""
""fullscreenenter"",""0"",""1889""
","
","
","""event"",""trial"",""time""
""fullscreenenter"",""0"",""1889""
","
","null","<p></p>","null","","","","","","","","","","","","","","","","","","","","","","","",""
"","do_trial","195","564403","0.0-106.0-0.0","""event"",""trial"",""time""
""fullscreenenter"",""0"",""1889""
","
","
","""event"",""trial"",""time""
""fullscreenenter"",""0"",""1889""
","
","939.8999999761581","","","","","","","","50","1,1,0","6","blank","317","null","0.6019505927001391","0.3742416439250246","0.14398356956244296","1","","","","","","","","",""
"","html-keyboard-response","196","565414","0.0-106.0-1.0","""event"",""trial"",""time""
""fullscreenenter"",""0"",""1889""
","
","
","""event"",""trial"",""time""
""fullscreenenter"",""0"",""1889""
","
","null","<p></p>","null","","","","","","","","","","","","","","","","","","","","","","","",""
"","do_recog","197","568051","0.0-107.0-0.0","""event"",""trial"",""time""
""fullscreenenter"",""0"",""1889""
","
","
","""event"",""trial"",""time""
""fullscreenenter"",""0"",""1889""
","
","1115.5","","","","","","","","53","","","","318","probe-143","","","","","1","[object Object]","199","4","1","","","",""
"","html-keyboard-response","198","569064","0.0-107.0-1.0","""event"",""trial"",""time""
""fullscreenenter"",""0"",""1889""
","
","
","""event"",""trial"",""time""
""fullscreenenter"",""0"",""1889""
","
","null","<p></p>","null","","","","","","","","","","","","","","","","","","","","","","","",""
"","do_trial","199","573162","0.0-108.0-0.0","""event"",""trial"",""time""
""fullscreenenter"",""0"",""1889""
","
","
","""event"",""trial"",""time""
""fullscreenenter"",""0"",""1889""
","
","1463.7999999523163","","","","","","","","50","1,1,0","6","blank","319","null","0.6507504782360377","0.3779259843868301","0.08993179431076861","1","","","","","","","","",""
"","html-keyboard-response","200","574170","0.0-108.0-1.0","""event"",""trial"",""time""
""fullscreenenter"",""0"",""1889""
","
","
","""event"",""trial"",""time""
""fullscreenenter"",""0"",""1889""
","
","null","<p></p>","null","","","","","","","","","","","","","","","","","","","","","","","",""
"","do_trial","201","577331","0.0-109.0-0.0","""event"",""trial"",""time""
""fullscreenenter"",""0"",""1889""
","
","
","""event"",""trial"",""time""
""fullscreenenter"",""0"",""1889""
","
","521.0999999046326","","","","","","","","50","1,0,0","6","blank","320","null","0.6711541081774319","0.2692602077149139","0.19880781355496202","0","","","","","","","","",""
"","html-keyboard-response","202","578338","0.0-109.0-1.0","""event"",""trial"",""time""
""fullscreenenter"",""0"",""1889""
","
","
","""event"",""trial"",""time""
""fullscreenenter"",""0"",""1889""
","
","null","<p></p>","null","","","","","","","","","","","","","","","","","","","","","","","",""
"","do_trial","203","581622","0.0-110.0-0.0","""event"",""trial"",""time""
""fullscreenenter"",""0"",""1889""
","
","
","""event"",""trial"",""time""
""fullscreenenter"",""0"",""1889""
","
","688.5","","","","","","","","49","1,1,0","6","blank","321","null","0.6339778039762672","0.3267863494063464","0.2005128533570869","1","","","","","","","","",""
"","html-keyboard-response","204","582630","0.0-110.0-1.0","""event"",""trial"",""time""
""fullscreenenter"",""0"",""1889""
","
","
","""event"",""trial"",""time""
""fullscreenenter"",""0"",""1889""
","
","null","<p></p>","null","","","","","","","","","","","","","","","","","","","","","","","",""
"","do_trial","205","585749","0.0-111.0-0.0","""event"",""trial"",""time""
""fullscreenenter"",""0"",""1889""
","
","
","""event"",""trial"",""time""
""fullscreenenter"",""0"",""1889""
","
","511.7999999523163","","","","","","","","49","1,0,0","6","blank","322","null","0.713641814021928","0.4430337385949541","0.10848640602246672","1","","","","","","","","",""
"","html-keyboard-response","206","586753","0.0-111.0-1.0","""event"",""trial"",""time""
""fullscreenenter"",""0"",""1889""
","
","
","""event"",""trial"",""time""
""fullscreenenter"",""0"",""1889""
","
","null","<p></p>","null","","","","","","","","","","","","","","","","","","","","","","","",""
"","do_recog","207","589499","0.0-112.0-0.0","""event"",""trial"",""time""
""fullscreenenter"",""0"",""1889""
","
","
","""event"",""trial"",""time""
""fullscreenenter"",""0"",""1889""
","
","1232.8999999761581","","","","","","","","54","","","","323","probe-35","","","","","1","[object Object]","155","3","1","","","",""
"","html-keyboard-response","208","590507","0.0-112.0-1.0","""event"",""trial"",""time""
""fullscreenenter"",""0"",""1889""
","
","
","""event"",""trial"",""time""
""fullscreenenter"",""0"",""1889""
","
","null","<p></p>","null","","","","","","","","","","","","","","","","","","","","","","","",""
"","do_trial","209","593573","0.0-113.0-0.0","""event"",""trial"",""time""
""fullscreenenter"",""0"",""1889""
","
","
","""event"",""trial"",""time""
""fullscreenenter"",""0"",""1889""
","
","449.6999999284744","","","","","","","","49","1,0,0","6","blank","324","null","0.6310182817581447","0.41533659959663044","0.07416123598422036","1","","","","","","","","",""
"","html-keyboard-response","210","594582","0.0-113.0-1.0","""event"",""trial"",""time""
""fullscreenenter"",""0"",""1889""
","
","
","""event"",""trial"",""time""
""fullscreenenter"",""0"",""1889""
","
","null","<p></p>","null","","","","","","","","","","","","","","","","","","","","","","","",""
"","do_trial","211","598807","0.0-114.0-0.0","""event"",""trial"",""time""
""fullscreenenter"",""0"",""1889""
","
","
","""event"",""trial"",""time""
""fullscreenenter"",""0"",""1889""
","
","1611.2999999523163","","","","","","","","51","1,0,0","6","blank","325","null","0.6469327811359271","0.39146383779461963","0.07680566927791065","0","","","","","","","","",""
"","html-keyboard-response","212","599815","0.0-114.0-1.0","""event"",""trial"",""time""
""fullscreenenter"",""0"",""1889""
","
","
","""event"",""trial"",""time""
""fullscreenenter"",""0"",""1889""
","
","null","<p></p>","null","","","","","","","","","","","","","","","","","","","","","","","",""
"","do_trial","213","603342","0.0-115.0-0.0","""event"",""trial"",""time""
""fullscreenenter"",""0"",""1889""
","
","
","""event"",""trial"",""time""
""fullscreenenter"",""0"",""1889""
","
","927.7999999523163","","","","","","","","50","0,1,0","6","blank","326","null","0.5604551526776825","0.4027001448047156","0.09961082065247924","1","","","","","","","","",""
"","html-keyboard-response","214","604352","0.0-115.0-1.0","""event"",""trial"",""time""
""fullscreenenter"",""0"",""1889""
","
","
","""event"",""trial"",""time""
""fullscreenenter"",""0"",""1889""
","
","null","<p></p>","null","","","","","","","","","","","","","","","","","","","","","","","",""
"","do_trial","215","607397","0.0-116.0-0.0","""event"",""trial"",""time""
""fullscreenenter"",""0"",""1889""
","
","
","""event"",""trial"",""time""
""fullscreenenter"",""0"",""1889""
","
","427.89999997615814","","","","","","","","50","1,0,0","6","blank","327","null","0.4874245721595571","0.2704943498707792","0.10144250839205948","0","","","","","","","","",""
"","html-keyboard-response","216","608403","0.0-116.0-1.0","""event"",""trial"",""time""
""fullscreenenter"",""0"",""1889""
","
","
","""event"",""trial"",""time""
""fullscreenenter"",""0"",""1889""
","
","null","<p></p>","null","","","","","","","","","","","","","","","","","","","","","","","",""
"","do_trial","217","611378","0.0-117.0-0.0","""event"",""trial"",""time""
""fullscreenenter"",""0"",""1889""
","
","
","""event"",""trial"",""time""
""fullscreenenter"",""0"",""1889""
","
","366.7000000476837","","","","","","","","49","0,0,0","6","blank","328","null","0.3764115343891847","0.23015795809650105","0.1933462730786307","0","","","","","","","","",""
"","html-keyboard-response","218","612386","0.0-117.0-1.0","""event"",""trial"",""time""
""fullscreenenter"",""0"",""1889""
","
","
","""event"",""trial"",""time""
""fullscreenenter"",""0"",""1889""
","
","null","<p></p>","null","","","","","","","","","","","","","","","","","","","","","","","",""
"","do_recog","219","615417","0.0-118.0-0.0","""event"",""trial"",""time""
""fullscreenenter"",""0"",""1889""
","
","
","""event"",""trial"",""time""
""fullscreenenter"",""0"",""1889""
","
","1509","","","","","","","","53","","","","329","probe-180","","","","","1","[object Object]","71","1","1","","","",""
"","html-keyboard-response","220","616425","0.0-118.0-1.0","""event"",""trial"",""time""
""fullscreenenter"",""0"",""1889""
","
","
","""event"",""trial"",""time""
""fullscreenenter"",""0"",""1889""
","
","null","<p></p>","null","","","","","","","","","","","","","","","","","","","","","","","",""
"","do_trial","221","619573","0.0-119.0-0.0","""event"",""trial"",""time""
""fullscreenenter"",""0"",""1889""
","
","
","""event"",""trial"",""time""
""fullscreenenter"",""0"",""1889""
","
","540.3999999761581","","","","","","","","50","1,0,0","6","blank","330","null","0.48018380281816686","0.2413055229665833","0.18189800450941473","0","","","","","","","","",""
"","html-keyboard-response","222","620579","0.0-119.0-1.0","""event"",""trial"",""time""
""fullscreenenter"",""0"",""1889""
","
","
","""event"",""trial"",""time""
""fullscreenenter"",""0"",""1889""
","
","null","<p></p>","null","","","","","","","","","","","","","","","","","","","","","","","",""
"","do_recog","223","623161","0.0-120.0-0.0","""event"",""trial"",""time""
""fullscreenenter"",""0"",""1889""
","
","
","""event"",""trial"",""time""
""fullscreenenter"",""0"",""1889""
","
","1054.6999999284744","","","","","","","","56","","","","331","probe-250","","","","","0","[object Object]","null","null","1","","","",""
"","html-keyboard-response","224","624172","0.0-120.0-1.0","""event"",""trial"",""time""
""fullscreenenter"",""0"",""1889""
","
","
","""event"",""trial"",""time""
""fullscreenenter"",""0"",""1889""
","
","null","<p></p>","null","","","","","","","","","","","","","","","","","","","","","","","",""
"","do_trial","225","627230","0.0-121.0-0.0","""event"",""trial"",""time""
""fullscreenenter"",""0"",""1889""
","
","
","""event"",""trial"",""time""
""fullscreenenter"",""0"",""1889""
","
","455.6999999284744","","","","","","","","49","1,1,1","6","blank","332","null","0.4870116373516373","0.2502908106616907","0.13194288529061235","1","","","","","","","","",""
"","html-keyboard-response","226","628237","0.0-121.0-1.0","""event"",""trial"",""time""
""fullscreenenter"",""0"",""1889""
","
","
","""event"",""trial"",""time""
""fullscreenenter"",""0"",""1889""
","
","null","<p></p>","null","","","","","","","","","","","","","","","","","","","","","","","",""
"","do_recog","227","631116","0.0-122.0-0.0","""event"",""trial"",""time""
""fullscreenenter"",""0"",""1889""
","
","
","""event"",""trial"",""time""
""fullscreenenter"",""0"",""1889""
","
","1357.6000000238419","","","","","","","","56","","","","333","probe-84","","","","","1","[object Object]","30","0","0","","","",""
"","html-keyboard-response","228","632120","0.0-122.0-1.0","""event"",""trial"",""time""
""fullscreenenter"",""0"",""1889""
","
","
","""event"",""trial"",""time""
""fullscreenenter"",""0"",""1889""
","
","null","<p></p>","null","","","","","","","","","","","","","","","","","","","","","","","",""
"","do_trial","229","635212","0.0-123.0-0.0","""event"",""trial"",""time""
""fullscreenenter"",""0"",""1889""
","
","
","""event"",""trial"",""time""
""fullscreenenter"",""0"",""1889""
","
","520.2999999523163","","","","","","","","49","1,0,0","6","blank","334","null","0.7127395551317587","0.27392014374913626","0.15771200929995793","1","","","","","","","","",""
"","html-keyboard-response","230","636220","0.0-123.0-1.0","""event"",""trial"",""time""
""fullscreenenter"",""0"",""1889""
","
","
","""event"",""trial"",""time""
""fullscreenenter"",""0"",""1889""
","
","null","<p></p>","null","","","","","","","","","","","","","","","","","","","","","","","",""
"","do_recog","231","638995","0.0-124.0-0.0","""event"",""trial"",""time""
""fullscreenenter"",""0"",""1889""
","
","
","""event"",""trial"",""time""
""fullscreenenter"",""0"",""1889""
","
","1257.7999999523163","","","","","","","","56","","","","335","probe-186","","","","","1","[object Object]","110","2","0","","","",""
"","html-keyboard-response","232","640006","0.0-124.0-1.0","""event"",""trial"",""time""
""fullscreenenter"",""0"",""1889""
","
","
","""event"",""trial"",""time""
""fullscreenenter"",""0"",""1889""
","
","null","<p></p>","null","","","","","","","","","","","","","","","","","","","","","","","",""
"","do_trial","233","643032","0.0-125.0-0.0","""event"",""trial"",""time""
""fullscreenenter"",""0"",""1889""
","
","
","""event"",""trial"",""time""
""fullscreenenter"",""0"",""1889""
","
","426","","","","","","","","49","1,0,0","6","blank","336","null","0.68556384066197","0.2720218855540596","0.05956028295275649","1","","","","","","","","",""
"","html-keyboard-response","234","644043","0.0-125.0-1.0","""event"",""trial"",""time""
""fullscreenenter"",""0"",""1889""
","
","
","""event"",""trial"",""time""
""fullscreenenter"",""0"",""1889""
","
","null","<p></p>","null","","","","","","","","","","","","","","","","","","","","","","","",""
"","do_trial","235","647064","0.0-126.0-0.0","""event"",""trial"",""time""
""fullscreenenter"",""0"",""1889""
","
","
","""event"",""trial"",""time""
""fullscreenenter"",""0"",""1889""
","
","405.1999999284744","","","","","","","","49","0,0,0","6","blank","337","null","0.5727811365616167","0.3550241605088674","0.09345384968839614","0","","","","","","","","",""
"","html-keyboard-response","236","648069","0.0-126.0-1.0","""event"",""trial"",""time""
""fullscreenenter"",""0"",""1889""
","
","
","""event"",""trial"",""time""
""fullscreenenter"",""0"",""1889""
","
","null","<p></p>","null","","","","","","","","","","","","","","","","","","","","","","","",""
"","do_recog","237","651837","0.0-127.0-0.0","""event"",""trial"",""time""
""fullscreenenter"",""0"",""1889""
","
","
","""event"",""trial"",""time""
""fullscreenenter"",""0"",""1889""
","
","2244","","","","","","","","56","","","","338","probe-253","","","","","0","[object Object]","null","null","1","","","",""
"","html-keyboard-response","238","652840","0.0-127.0-1.0","""event"",""trial"",""time""
""fullscreenenter"",""0"",""1889""
","
","
","""event"",""trial"",""time""
""fullscreenenter"",""0"",""1889""
","
","null","<p></p>","null","","","","","","","","","","","","","","","","","","","","","","","",""
"","do_trial","239","655875","0.0-128.0-0.0","""event"",""trial"",""time""
""fullscreenenter"",""0"",""1889""
","
","
","""event"",""trial"",""time""
""fullscreenenter"",""0"",""1889""
","
","431.40000009536743","","","","","","","","50","1,0,0","6","blank","339","null","0.734461633479795","0.37954193862954394","0.05995662603863889","0","","","","","","","","",""
"","html-keyboard-response","240","656883","0.0-128.0-1.0","""event"",""trial"",""time""
""fullscreenenter"",""0"",""1889""
","
","
","""event"",""trial"",""time""
""fullscreenenter"",""0"",""1889""
","
","null","<p></p>","null","","","","","","","","","","","","","","","","","","","","","","","",""
"","do_trial","241","659865","0.0-129.0-0.0","""event"",""trial"",""time""
""fullscreenenter"",""0"",""1889""
","
","
","""event"",""trial"",""time""
""fullscreenenter"",""0"",""1889""
","
","375.7000000476837","","","","","","","","49","1,0,0","6","blank","340","null","0.539596353125927","0.3589948388985687","0.14249832595626824","1","","","","","","","","",""
"","html-keyboard-response","242","660874","0.0-129.0-1.0","""event"",""trial"",""time""
""fullscreenenter"",""0"",""1889""
","
","
","""event"",""trial"",""time""
""fullscreenenter"",""0"",""1889""
","
","null","<p></p>","null","","","","","","","","","","","","","","","","","","","","","","","",""
"","do_trial","243","663939","0.0-130.0-0.0","""event"",""trial"",""time""
""fullscreenenter"",""0"",""1889""
","
","
","""event"",""trial"",""time""
""fullscreenenter"",""0"",""1889""
","
","454.5","","","","","","","","49","0,0,0","6","blank","341","null","0.5034762849495958","0.2896447120123665","0.1751641864544496","0","","","","","","","","",""
"","html-keyboard-response","244","664957","0.0-130.0-1.0","""event"",""trial"",""time""
""fullscreenenter"",""0"",""1889""
","
","
","""event"",""trial"",""time""
""fullscreenenter"",""0"",""1889""
","
","null","<p></p>","null","","","","","","","","","","","","","","","","","","","","","","","",""
"","do_recog","245","667613","0.0-131.0-0.0","""event"",""trial"",""time""
""fullscreenenter"",""0"",""1889""
","
","
","""event"",""trial"",""time""
""fullscreenenter"",""0"",""1889""
","
","1142.3999999761581","","","","","","","","53","","","","342","probe-130","","","","","1","[object Object]","73","1","1","","","",""
"","html-keyboard-response","246","668619","0.0-131.0-1.0","""event"",""trial"",""time""
""fullscreenenter"",""0"",""1889""
","
","
","""event"",""trial"",""time""
""fullscreenenter"",""0"",""1889""
","
","null","<p></p>","null","","","","","","","","","","","","","","","","","","","","","","","",""
"","do_trial","247","671755","0.0-132.0-0.0","""event"",""trial"",""time""
""fullscreenenter"",""0"",""1889""
","
","
","""event"",""trial"",""time""
""fullscreenenter"",""0"",""1889""
","
","485.6999999284744","","","","","","","","50","0,1,0","6","blank","343","null","0.5586972778620697","0.34836069115983165","0.10298643212713199","1","","","","","","","","",""
"","html-keyboard-response","248","672766","0.0-132.0-1.0","""event"",""trial"",""time""
""fullscreenenter"",""0"",""1889""
","
","
","""event"",""trial"",""time""
""fullscreenenter"",""0"",""1889""
","
","null","<p></p>","null","","","","","","","","","","","","","","","","","","","","","","","",""
"","do_trial","249","675838","0.0-133.0-0.0","""event"",""trial"",""time""
""fullscreenenter"",""0"",""1889""
","
","
","""event"",""trial"",""time""
""fullscreenenter"",""0"",""1889""
","
","441.5","","","","","","","","50","1,1,0","6","blank","344","null","0.36273971683504974","0.32707229586011854","0.10861165733989694","1","","","","","","","","",""
"","html-keyboard-response","250","676846","0.0-133.0-1.0","""event"",""trial"",""time""
""fullscreenenter"",""0"",""1889""
","
","
","""event"",""trial"",""time""
""fullscreenenter"",""0"",""1889""
","
","null","<p></p>","null","","","","","","","","","","","","","","","","","","","","","","","",""
"","do_recog","251","679435","0.0-134.0-0.0","""event"",""trial"",""time""
""fullscreenenter"",""0"",""1889""
","
","
","""event"",""trial"",""time""
""fullscreenenter"",""0"",""1889""
","
","1066.4000000953674","","","","","","","","53","","","","345","probe-183","","","","","1","[object Object]","159","3","1","","","",""
"","html-keyboard-response","252","680438","0.0-134.0-1.0","""event"",""trial"",""time""
""fullscreenenter"",""0"",""1889""
","
","
","""event"",""trial"",""time""
""fullscreenenter"",""0"",""1889""
","
","null","<p></p>","null","","","","","","","","","","","","","","","","","","","","","","","",""
"","do_trial","253","683741","0.0-135.0-0.0","""event"",""trial"",""time""
""fullscreenenter"",""0"",""1889""
","
","
","""event"",""trial"",""time""
""fullscreenenter"",""0"",""1889""
","
","717.5","","","","","","","","50","1,0,0","6","blank","346","null","0.5207325863485648","0.2125016993826412","0.1270297609488007","0","","","","","","","","",""
"","html-keyboard-response","254","684747","0.0-135.0-1.0","""event"",""trial"",""time""
""fullscreenenter"",""0"",""1889""
","
","
","""event"",""trial"",""time""
""fullscreenenter"",""0"",""1889""
","
","null","<p></p>","null","","","","","","","","","","","","","","","","","","","","","","","",""
"","do_recog","255","687356","0.0-136.0-0.0","""event"",""trial"",""time""
""fullscreenenter"",""0"",""1889""
","
","
","""event"",""trial"",""time""
""fullscreenenter"",""0"",""1889""
","
","1087.1000000238419","","","","","","","","53","","","","347","probe-119","","","","","1","[object Object]","191","4","1","","","",""
"","html-keyboard-response","256","688363","0.0-136.0-1.0","""event"",""trial"",""time""
""fullscreenenter"",""0"",""1889""
","
","
","""event"",""trial"",""time""
""fullscreenenter"",""0"",""1889""
","
","null","<p></p>","null","","","","","","","","","","","","","","","","","","","","","","","",""
"","do_trial","257","691387","0.0-137.0-0.0","""event"",""trial"",""time""
""fullscreenenter"",""0"",""1889""
","
","
","""event"",""trial"",""time""
""fullscreenenter"",""0"",""1889""
","
","433.7000000476837","","","","","","","","50","1,0,1","6","blank","348","null","0.585535151490657","0.3725652048695731","0.25707629666328685","0","","","","","","","","",""
"","html-keyboard-response","258","692393","0.0-137.0-1.0","""event"",""trial"",""time""
""fullscreenenter"",""0"",""1889""
","
","
","""event"",""trial"",""time""
""fullscreenenter"",""0"",""1889""
","
","null","<p></p>","null","","","","","","","","","","","","","","","","","","","","","","","",""
"","break","259","697684","0.0-138.0-0.0","""event"",""trial"",""time""
""fullscreenenter"",""0"",""1889""
","
","
","""event"",""trial"",""time""
""fullscreenenter"",""0"",""1889""
","
","5289.700000047684","<div class='center'><p>Time to take a quick break! You have 2 minutes to rest, but you can move on sooner if you'd like.</p><p> Press the <b>space bar</b> to continue.</p></div>","32","","","","","","","","","","","","","","","","","","","","","","","",""
"","do_recog","260","700353","0.0-138.0-1.0","""event"",""trial"",""time""
""fullscreenenter"",""0"",""1889""
","
","
","""event"",""trial"",""time""
""fullscreenenter"",""0"",""1889""
","
","1147.9000000953674","","","","","","","","53","","","","349","probe-109","","","","","1","[object Object]","72","1","1","","","",""
"","html-keyboard-response","261","701360","0.0-138.0-2.0","""event"",""trial"",""time""
""fullscreenenter"",""0"",""1889""
","
","
","""event"",""trial"",""time""
""fullscreenenter"",""0"",""1889""
","
","null","<p></p>","null","","","","","","","","","","","","","","","","","","","","","","","",""
"","do_trial","262","704428","0.0-139.0-0.0","""event"",""trial"",""time""
""fullscreenenter"",""0"",""1889""
","
","
","""event"",""trial"",""time""
""fullscreenenter"",""0"",""1889""
","
","468.39999997615814","","","","","","","","49","1,0,0","6","blank","350","null","0.5789080279713997","0.2731925381528337","0.14667578656569338","1","","","","","","","","",""
"","html-keyboard-response","263","705437","0.0-139.0-1.0","""event"",""trial"",""time""
""fullscreenenter"",""0"",""1889""
","
","
","""event"",""trial"",""time""
""fullscreenenter"",""0"",""1889""
","
","null","<p></p>","null","","","","","","","","","","","","","","","","","","","","","","","",""
"","do_recog","264","707775","0.0-140.0-0.0","""event"",""trial"",""time""
""fullscreenenter"",""0"",""1889""
","
","
","""event"",""trial"",""time""
""fullscreenenter"",""0"",""1889""
","
","811.7999999523163","","","","","","","","53","","","","351","probe-190","","","","","1","[object Object]","198","4","1","","","",""
"","html-keyboard-response","265","708781","0.0-140.0-1.0","""event"",""trial"",""time""
""fullscreenenter"",""0"",""1889""
","
","
","""event"",""trial"",""time""
""fullscreenenter"",""0"",""1889""
","
","null","<p></p>","null","","","","","","","","","","","","","","","","","","","","","","","",""
"","do_trial","266","711873","0.0-141.0-0.0","""event"",""trial"",""time""
""fullscreenenter"",""0"",""1889""
","
","
","""event"",""trial"",""time""
""fullscreenenter"",""0"",""1889""
","
","484.60000002384186","","","","","","","","49","1,0,0","6","blank","352","null","0.6158618949303436","0.19262868680557924","0.1909148015942604","1","","","","","","","","",""
"","html-keyboard-response","267","712881","0.0-141.0-1.0","""event"",""trial"",""time""
""fullscreenenter"",""0"",""1889""
","
","
","""event"",""trial"",""time""
""fullscreenenter"",""0"",""1889""
","
","null","<p></p>","null","","","","","","","","","","","","","","","","","","","","","","","",""
"","do_trial","268","716062","0.0-142.0-0.0","""event"",""trial"",""time""
""fullscreenenter"",""0"",""1889""
","
","
","""event"",""trial"",""time""
""fullscreenenter"",""0"",""1889""
","
","527.6000000238419","","","","","","","","49","1,0,0","6","blank","353","null","0.7448038705499503","0.2718069644875933","0.06297686260478326","1","","","","","","","","",""
"","html-keyboard-response","269","717068","0.0-142.0-1.0","""event"",""trial"",""time""
""fullscreenenter"",""0"",""1889""
","
","
","""event"",""trial"",""time""
""fullscreenenter"",""0"",""1889""
","
","null","<p></p>","null","","","","","","","","","","","","","","","","","","","","","","","",""
"","do_trial","270","720158","0.0-143.0-0.0","""event"",""trial"",""time""
""fullscreenenter"",""0"",""1889""
","
","
","""event"",""trial"",""time""
""fullscreenenter"",""0"",""1889""
","
","500.89999997615814","","","","","","","","49","1,0,0","6","blank","354","null","0.6931787355954953","0.25352325352453253","0.0966411006432986","1","","","","","","","","",""
"","html-keyboard-response","271","721170","0.0-143.0-1.0","""event"",""trial"",""time""
""fullscreenenter"",""0"",""1889""
","
","
","""event"",""trial"",""time""
""fullscreenenter"",""0"",""1889""
","
","null","<p></p>","null","","","","","","","","","","","","","","","","","","","","","","","",""
"","do_recog","272","723745","0.0-144.0-0.0","""event"",""trial"",""time""
""fullscreenenter"",""0"",""1889""
","
","
","""event"",""trial"",""time""
""fullscreenenter"",""0"",""1889""
","
","1054.6000000238419","","","","","","","","53","","","","355","probe-10","","","","","1","[object Object]","195","4","1","","","",""
"","html-keyboard-response","273","724757","0.0-144.0-1.0","""event"",""trial"",""time""
""fullscreenenter"",""0"",""1889""
","
","
","""event"",""trial"",""time""
""fullscreenenter"",""0"",""1889""
","
","null","<p></p>","null","","","","","","","","","","","","","","","","","","","","","","","",""
"","do_trial","274","727813","0.0-145.0-0.0","""event"",""trial"",""time""
""fullscreenenter"",""0"",""1889""
","
","
","""event"",""trial"",""time""
""fullscreenenter"",""0"",""1889""
","
","415.7000000476837","","","","","","","","49","1,0,0","6","blank","356","null","0.6089312246592702","0.17375328056217731","0.2693724631030202","1","","","","","","","","",""
"","html-keyboard-response","275","728817","0.0-145.0-1.0","""event"",""trial"",""time""
""fullscreenenter"",""0"",""1889""
","
","
","""event"",""trial"",""time""
""fullscreenenter"",""0"",""1889""
","
","null","<p></p>","null","","","","","","","","","","","","","","","","","","","","","","","",""
"","do_recog","276","731740","0.0-146.0-0.0","""event"",""trial"",""time""
""fullscreenenter"",""0"",""1889""
","
","
","""event"",""trial"",""time""
""fullscreenenter"",""0"",""1889""
","
","1407.7000000476837","","","","","","","","56","","","","357","probe-46","","","","","1","[object Object]","37","0","0","","","",""
"","html-keyboard-response","277","732751","0.0-146.0-1.0","""event"",""trial"",""time""
""fullscreenenter"",""0"",""1889""
","
","
","""event"",""trial"",""time""
""fullscreenenter"",""0"",""1889""
","
","null","<p></p>","null","","","","","","","","","","","","","","","","","","","","","","","",""
"","do_trial","278","735791","0.0-147.0-0.0","""event"",""trial"",""time""
""fullscreenenter"",""0"",""1889""
","
","
","""event"",""trial"",""time""
