"success","trial_type","trial_index","time_elapsed","internal_node_id","interactions","blur_events","focus_events","fullscreenenter_events","fullscreenexit_events","rt","stimulus","key_press","subject_id","participant_id","age","gender","prompt","response","choice_outcomes","context_n","context_img_id","trial_n","probe_img_id","pR_red","pR_white","pR_black","outcome","is_valid","image_to_show","probed_trial","probed_context","correct","probe","probed_trial_n","probed_context_n","context_im"
"true","fullscreen","0","4163","0.0-0.0","""event"",""trial"",""time""
""fullscreenenter"",""0"",""3172""
","
","
","""event"",""trial"",""time""
""fullscreenenter"",""0"",""3172""
","
","","","","","","","","","","","","","","","","","","","","","","","","","","",""
"","pavlovia","1","4169","0.0-1.0","""event"",""trial"",""time""
""fullscreenenter"",""0"",""3172""
","
","
","""event"",""trial"",""time""
""fullscreenenter"",""0"",""3172""
","
","","","","","","","","","","","","","","","","","","","","","","","","","","",""
"","welc_back","2","14172","0.0-2.0","""event"",""trial"",""time""
""fullscreenenter"",""0"",""3172""
","
","
","""event"",""trial"",""time""
""fullscreenenter"",""0"",""3172""
","
","null","run_exp/static/audio/clip_29_welcome_back.m4a","null","439","136","14","Male","<div class='center'><p>Welcome to day 2!</p><p> Yesterday, you were the head captain of a pirate ship. You asked your fellow pirates to rob other ships of their gold across six different islands.</p></div>","","","","","","","","","","","","","","","","","","",""
"","html-keyboard-response","3","15203","0.0-3.0","""event"",""trial"",""time""
""fullscreenenter"",""0"",""3172""
","
","
","""event"",""trial"",""time""
""fullscreenenter"",""0"",""3172""
","
","1029.8999999761581","<div class='center'><p>Welcome to day 2!</p><p> Yesterday, you were the head captain of a pirate ship. You asked your fellow pirates to rob other ships of their gold across six different islands.</p><p><b>[Press the space bar to continue]</b></p></div>","32","","","","","","","","","","","","","","","","","","","","","","","",""
"","day_1_summary_goal","4","32454","0.0-4.0","""event"",""trial"",""time""
""fullscreenenter"",""0"",""3172""
","
","
","""event"",""trial"",""time""
""fullscreenenter"",""0"",""3172""
","
","null","run_exp/static/audio/clip_30_goal_of_game.m4a","null","","","","","<div class='center'><p>Today, like yesterday, you get to pick which pirate you want to rob the next ship.</p><p>If the pirate is successful in robbing a ship, you get gold coins that look like this: </p><p><img src='run_exp/static/images/tutorial/reward.png' height='150'></p><p> If they were not successful in robbing the ship, then you will get no gold coins and you'll see a big red x like this: </p><p><img src='run_exp/static/images/tutorial/reward_no.png' height='150'></p></div>","","","","","","","","","","","","","","","","","","",""
"","html-keyboard-response","5","33224","0.0-5.0","""event"",""trial"",""time""
""fullscreenenter"",""0"",""3172""
","
","
","""event"",""trial"",""time""
""fullscreenenter"",""0"",""3172""
","
","768.3000000119209","<div class='center'><p>Today, like yesterday, you get to pick which pirate you want to rob the next ship.</p><p>If the pirate is successful in robbing a ship, you get gold coins that look like this: </p><p><img src='run_exp/static/images/tutorial/reward.png' height='150'></p><p> If they were not successful in robbing the ship, then you will get no gold coins and you'll see a big red x like this: </p><p><img src='run_exp/static/images/tutorial/reward_no.png' height='150'></p><p><b>[Press the space bar to continue]</b></p></div>","32","","","","","","","","","","","","","","","","","","","","","","","",""
"","day_1_summary_pick","6","47934","0.0-6.0","""event"",""trial"",""time""
""fullscreenenter"",""0"",""3172""
","
","
","""event"",""trial"",""time""
""fullscreenenter"",""0"",""3172""
","
","null","run_exp/static/audio/clip_31_how_to_pick_a_pirate.m4a","null","","","","","<div class='center'><p>Also, just like yesterday, you will use the 1,2,3 keys on your keyboard to pick a pirate. Press '1' to choose red beard, '2' to choose white beard, and '3' to choose black beard . You only have 3 seconds to pick a pirate, so please make a choice quickly!</p></div>","","","","","","","","","","","","","","","","","","",""
"","html-keyboard-response","7","48312","0.0-7.0","""event"",""trial"",""time""
""fullscreenenter"",""0"",""3172""
","
","
","""event"",""trial"",""time""
""fullscreenenter"",""0"",""3172""
","
","375.0999999642372","<div class='center'><p>Also, just like yesterday, you will use the 1,2,3 keys on your keyboard to pick a pirate. Press '1' to choose red beard, '2' to choose white beard, and '3' to choose black beard . You only have 3 seconds to pick a pirate, so please make a choice quickly!</p><p><b>[Press the space bar to continue]</b></p></div>","32","","","","","","","","","","","","","","","","","","","","","","","",""
"","test_phase_begin","8","78710","0.0-8.0","""event"",""trial"",""time""
""fullscreenenter"",""0"",""3172""
","
","
","""event"",""trial"",""time""
""fullscreenenter"",""0"",""3172""
","
","null","run_exp/static/audio/clip_32_final_place.m4a","null","","","","","<div class='center'><p>You’ve arrived at the final island of your journey! Unfortunately, it’s very foggy out, so you won’t be able to see it in the distance like the other islands you've visited.</p><p>You’ll still be deciding which pirate you want to rob a ship like before. However, because of the fog, you also won’t be able to see the ship.</p><p>This means you do not have to remember the ships you rob on this island.</p><p>Unlike yesterday, you won't be visiting multiple islands today. You will stay on this island for the entire game. This game will last ~30 minutes.</p></div>","","","","","","","","","","","","","","","","","","",""
"","html-keyboard-response","9","79409","0.0-9.0","""event"",""trial"",""time""
""fullscreenenter"",""0"",""3172""
","
","
","""event"",""trial"",""time""
""fullscreenenter"",""0"",""3172""
","
","697.2000000476837","<div class='center'><p>You’ve arrived at the final island of your journey! Unfortunately, it’s very foggy out, so you won’t be able to see it in the distance like the other islands you've visited.</p><p>You’ll still be deciding which pirate you want to rob a ship like before. However, because of the fog, you also won’t be able to see the ship.</p><p>This means you do not have to remember the ships you rob on this island.</p><p>Unlike yesterday, you won't be visiting multiple islands today. You will stay on this island for the entire game. This game will last ~30 minutes.</p><p><b>[Press the space bar to continue]</b></p></div>","32","","","","","","","","","","","","","","","","","","","","","","","",""
"","explain_probe_1","10","87132","0.0-10.0","""event"",""trial"",""time""
""fullscreenenter"",""0"",""3172""
","
","
","""event"",""trial"",""time""
""fullscreenenter"",""0"",""3172""
","
","null","run_exp/static/audio/clip_33_recognition_1.m4a","null","","","","","<div class='center'><p> Sometimes you’ll be shown a ship, and you will be asked if you saw this ship on a past island.</p><p> Here is an example of what you will see.</p><p><img src='run_exp/static/images/tutorial/example_recog_trial.png' height='500'></p></div>","","","","","","","","","","","","","","","","","","",""
"","html-keyboard-response","11","88728","0.0-11.0","""event"",""trial"",""time""
""fullscreenenter"",""0"",""3172""
","
","
","""event"",""trial"",""time""
""fullscreenenter"",""0"",""3172""
","
","1593.1000000238419","<div class='center'><p> Sometimes you’ll be shown a ship, and you will be asked if you saw this ship on a past island.</p><p> Here is an example of what you will see.</p><p><img src='run_exp/static/images/tutorial/example_recog_trial.png' height='500'></p><p><b>[Press the space bar to continue]</b></p></div>","32","","","","","","","","","","","","","","","","","","","","","","","",""
"","explain_probe_2","12","110472","0.0-12.0","""event"",""trial"",""time""
""fullscreenenter"",""0"",""3172""
","
","
","""event"",""trial"",""time""
""fullscreenenter"",""0"",""3172""
","
","null","run_exp/static/audio/clip_34_recognition_2.m4a","null","","","","","<div class='center'><p> You will press the 5, 6, 7, 8 keys on your keyboard to respond.</p><p>If you are sure you saw the ship, press <b>5</b> on your keyboard.</p><p> If you think you saw it before but aren't sure, then press <b>6</b>.</p><p> If you think you have <b>not</b> seen it before but aren't sure, then press <b>7</b>.</p><p> If you are sure you did <b>not</b> see the ship before, then press <b>8</b>.</p><p><img src='run_exp/static/images/tutorial/example_recog_trial.png' height='500'></p></div>","","","","","","","","","","","","","","","","","","",""
"","html-keyboard-response","13","111636","0.0-13.0","""event"",""trial"",""time""
""fullscreenenter"",""0"",""3172""
","
","
","""event"",""trial"",""time""
""fullscreenenter"",""0"",""3172""
","
","1162.300000011921","<div class='center'><p> You will press the 5, 6, 7, 8 keys on your keyboard to respond.</p><p>If you are sure you saw the ship, press <b>5</b> on your keyboard.</p><p> If you think you saw it before but aren't sure, then press <b>6</b>.</p><p> If you think you have <b>not</b> seen it before but aren't sure, then press <b>7</b>.</p><p> If you are sure you did <b>not</b> see the ship before, then press <b>8</b>.</p><p><img src='run_exp/static/images/tutorial/example_recog_trial.png' height='500'></p><p><b>[Press the space bar to continue]</b></p></div>","32","","","","","","","","","","","","","","","","","","","","","","","",""
"","explain_outcome","14","128931","0.0-14.0","""event"",""trial"",""time""
""fullscreenenter"",""0"",""3172""
","
","
","""event"",""trial"",""time""
""fullscreenenter"",""0"",""3172""
","
","null","run_exp/static/audio/clip_35_recognition_3.m4a","null","","","","","<div class='center'><p> If you remember correctly, then you’ll get a gold coin like this: </p><p><img src='run_exp/static/images/tutorial/reward_small.png' height='200'></p><p>If you do not remember correctly, then you'll see a red x like this: </p><p><img src='run_exp/static/images/tutorial/reward_no.png' height='200'></p><p>Importantly, when you are shown a ship, take the time to remind yourself which island you saw it on. This will help you in the next part of the study.</p></div>","","","","","","","","","","","","","","","","","","",""
"","html-keyboard-response","15","129744","0.0-15.0","""event"",""trial"",""time""
""fullscreenenter"",""0"",""3172""
","
","
","""event"",""trial"",""time""
""fullscreenenter"",""0"",""3172""
","
","809.8999999761581","<div class='center'><p> If you remember correctly, then you’ll get a gold coin like this: </p><p><img src='run_exp/static/images/tutorial/reward_small.png' height='200'></p><p>If you do not remember correctly, then you'll see a red x like this: </p><p><img src='run_exp/static/images/tutorial/reward_no.png' height='200'></p><p>Importantly, when you are shown a ship, take the time to remind yourself which island you saw it on. This will help you in the next part of the study.</p><p><b>[Press the space bar to continue]</b></p></div>","32","","","","","","","","","","","","","","","","","","","","","","","",""
"","begin_test_phase","16","145573","0.0-16.0","""event"",""trial"",""time""
""fullscreenenter"",""0"",""3172""
","
","
","""event"",""trial"",""time""
""fullscreenenter"",""0"",""3172""
","
","null","run_exp/static/audio/clip_36_begin_final.m4a","null","","","","","<div class='center'><p>Let's go over the important points again. Your job is to: </p><p>1. Pick the pirate who is best at robbing ships and will bring you back gold coins. </p><p>2. Correctly remember whether or not you saw a ship before. If you did see the ship before, remind yourself on which island you saw it. </p></div>","","","","","","","","","","","","","","","","","","",""
"","html-keyboard-response","17","146612","0.0-17.0","""event"",""trial"",""time""
""fullscreenenter"",""0"",""3172""
","
","
","""event"",""trial"",""time""
""fullscreenenter"",""0"",""3172""
","
","897.1999999880791","<div class='center'><p>Let's go over the important points again. Your job is to: </p><p>1. Pick the pirate who is best at robbing ships and will bring you back gold coins. </p><p>2. Correctly remember whether or not you saw a ship before. If you did see the ship before, remind yourself on which island you saw it. </p><p><b>[Press the space bar to continue]</b></p></div>","32","","","","","","","","","","","","","","","","","","","","","","","",""
"","do_welcome","18","150632","0.0-18.0","""event"",""trial"",""time""
""fullscreenenter"",""0"",""3172""
","
","
","""event"",""trial"",""time""
""fullscreenenter"",""0"",""3172""
","
","null","","","","","","","","null","","","","","","","","","","","","","","","","","",""
"","do_trial","19","154053","0.0-19.0-0.0","""event"",""trial"",""time""
""fullscreenenter"",""0"",""3172""
","
","
","""event"",""trial"",""time""
""fullscreenenter"",""0"",""3172""
","
","809.6999999880791","","","","","","","","49","0,1,0","6","blank","230","null","0.3319086388988839","0.6212722561015138","0.10325630647671347","0","","","","","","","","",""
"","html-keyboard-response","20","155060","0.0-19.0-1.0","""event"",""trial"",""time""
""fullscreenenter"",""0"",""3172""
","
","
","""event"",""trial"",""time""
""fullscreenenter"",""0"",""3172""
","
","null","<p></p>","null","","","","","","","","","","","","","","","","","","","","","","","",""
"","do_trial","21","157957","0.0-20.0-0.0","""event"",""trial"",""time""
""fullscreenenter"",""0"",""3172""
","
","
","""event"",""trial"",""time""
""fullscreenenter"",""0"",""3172""
","
","286.19999998807907","","","","","","","","49","0,1,0","6","blank","231","null","0.3234534789482448","0.6083980082225335","0.06546147693364315","0","","","","","","","","",""
"","html-keyboard-response","22","158969","0.0-20.0-1.0","""event"",""trial"",""time""
""fullscreenenter"",""0"",""3172""
","
","
","""event"",""trial"",""time""
""fullscreenenter"",""0"",""3172""
","
","null","<p></p>","null","","","","","","","","","","","","","","","","","","","","","","","",""
"","do_trial","23","161560","0.0-21.0-0.0","""event"",""trial"",""time""
""fullscreenenter"",""0"",""3172""
","
","
","""event"",""trial"",""time""
""fullscreenenter"",""0"",""3172""
","
","0.20000004768371582","","","","","","","","49","0,0,0","6","blank","232","null","0.3599167411896053","0.7019490474648677","0.10393558109796741","0","","","","","","","","",""
"","html-keyboard-response","24","162565","0.0-21.0-1.0","""event"",""trial"",""time""
""fullscreenenter"",""0"",""3172""
","
","
","""event"",""trial"",""time""
""fullscreenenter"",""0"",""3172""
","
","null","<p></p>","null","","","","","","","","","","","","","","","","","","","","","","","",""
"","do_trial","25","165163","0.0-22.0-0.0","""event"",""trial"",""time""
""fullscreenenter"",""0"",""3172""
","
","
","""event"",""trial"",""time""
""fullscreenenter"",""0"",""3172""
","
","0.19999998807907104","","","","","","","","49","0,1,0","6","blank","233","null","0.238165041122801","0.7993931487474343","0.06808596935901595","0","","","","","","","","",""
"","html-keyboard-response","26","166174","0.0-22.0-1.0","""event"",""trial"",""time""
""fullscreenenter"",""0"",""3172""
","
","
","""event"",""trial"",""time""
""fullscreenenter"",""0"",""3172""
","
","null","<p></p>","null","","","","","","","","","","","","","","","","","","","","","","","",""
"","do_trial","27","168809","0.0-23.0-0.0","""event"",""trial"",""time""
""fullscreenenter"",""0"",""3172""
","
","
","""event"",""trial"",""time""
""fullscreenenter"",""0"",""3172""
","
","0.30000001192092896","","","","","","","","49","0,1,0","6","blank","234","null","0.23309067548817705","0.7287663638590773","0.09082977943655719","0","","","","","","","","",""
"","html-keyboard-response","28","169826","0.0-23.0-1.0","""event"",""trial"",""time""
""fullscreenenter"",""0"",""3172""
","
","
","""event"",""trial"",""time""
""fullscreenenter"",""0"",""3172""
","
","null","<p></p>","null","","","","","","","","","","","","","","","","","","","","","","","",""
"","do_trial","29","172524","0.0-24.0-0.0","""event"",""trial"",""time""
""fullscreenenter"",""0"",""3172""
","
","
","""event"",""trial"",""time""
""fullscreenenter"",""0"",""3172""
","
","94.90000003576279","","","","","","","","50","1,1,0","6","blank","235","null","0.3084251269078759","0.6479661599307567","0.08062945857817726","1","","","","","","","","",""
"","html-keyboard-response","30","173529","0.0-24.0-1.0","""event"",""trial"",""time""
""fullscreenenter"",""0"",""3172""
","
","
","""event"",""trial"",""time""
""fullscreenenter"",""0"",""3172""
","
","null","<p></p>","null","","","","","","","","","","","","","","","","","","","","","","","",""
"","do_trial","31","176243","0.0-25.0-0.0","""event"",""trial"",""time""
""fullscreenenter"",""0"",""3172""
","
","
","""event"",""trial"",""time""
""fullscreenenter"",""0"",""3172""
","
","124.19999998807907","","","","","","","","50","0,1,0","6","blank","236","null","0.28023477033080624","0.4747904858623109","0.08250278879792539","1","","","","","","","","",""
"","html-keyboard-response","32","177253","0.0-25.0-1.0","""event"",""trial"",""time""
""fullscreenenter"",""0"",""3172""
","
","
","""event"",""trial"",""time""
""fullscreenenter"",""0"",""3172""
","
","null","<p></p>","null","","","","","","","","","","","","","","","","","","","","","","","",""
"","do_trial","33","179840","0.0-26.0-0.0","""event"",""trial"",""time""
""fullscreenenter"",""0"",""3172""
","
","
","""event"",""trial"",""time""
""fullscreenenter"",""0"",""3172""
","
","0.19999998807907104","","","","","","","","50","1,1,1","6","blank","237","null","0.41614564108315066","0.5305720496323127","0.07373468813128685","1","","","","","","","","",""
"","html-keyboard-response","34","180846","0.0-26.0-1.0","""event"",""trial"",""time""
""fullscreenenter"",""0"",""3172""
","
","
","""event"",""trial"",""time""
""fullscreenenter"",""0"",""3172""
","
","null","<p></p>","null","","","","","","","","","","","","","","","","","","","","","","","",""
"","do_trial","35","183477","0.0-27.0-0.0","""event"",""trial"",""time""
""fullscreenenter"",""0"",""3172""
","
","
","""event"",""trial"",""time""
""fullscreenenter"",""0"",""3172""
","
","34.39999997615814","","","","","","","","50","0,0,1","6","blank","238","null","0.3663296258835965","0.49938541133517383","0.06999021231825914","0","","","","","","","","",""
"","html-keyboard-response","36","184480","0.0-27.0-1.0","""event"",""trial"",""time""
""fullscreenenter"",""0"",""3172""
","
","
","""event"",""trial"",""time""
""fullscreenenter"",""0"",""3172""
","
","null","<p></p>","null","","","","","","","","","","","","","","","","","","","","","","","",""
"","do_trial","37","187075","0.0-28.0-0.0","""event"",""trial"",""time""
""fullscreenenter"",""0"",""3172""
","
","
","""event"",""trial"",""time""
""fullscreenenter"",""0"",""3172""
","
","0.19999998807907104","","","","","","","","50","1,1,0","6","blank","239","null","0.40805021431778477","0.6090685256252433","0.12286146647357686","1","","","","","","","","",""
"","html-keyboard-response","38","188090","0.0-28.0-1.0","""event"",""trial"",""time""
""fullscreenenter"",""0"",""3172""
","
","
","""event"",""trial"",""time""
""fullscreenenter"",""0"",""3172""
","
","null","<p></p>","null","","","","","","","","","","","","","","","","","","","","","","","",""
"","do_trial","39","190737","0.0-29.0-0.0","""event"",""trial"",""time""
""fullscreenenter"",""0"",""3172""
","
","
","""event"",""trial"",""time""
""fullscreenenter"",""0"",""3172""
","
","49.19999998807907","","","","","","","","51","0,1,0","6","blank","240","null","0.37908736636171997","0.599231578352025","0.18399350640988105","0","","","","","","","","",""
"","html-keyboard-response","40","191743","0.0-29.0-1.0","""event"",""trial"",""time""
""fullscreenenter"",""0"",""3172""
","
","
","""event"",""trial"",""time""
""fullscreenenter"",""0"",""3172""
","
","null","<p></p>","null","","","","","","","","","","","","","","","","","","","","","","","",""
"","do_trial","41","194407","0.0-30.0-0.0","""event"",""trial"",""time""
""fullscreenenter"",""0"",""3172""
","
","
","""event"",""trial"",""time""
""fullscreenenter"",""0"",""3172""
","
","65.90000003576279","","","","","","","","51","1,0,1","6","blank","241","null","0.3966450987352211","0.582026734094023","0.20406652527622715","1","","","","","","","","",""
"","html-keyboard-response","42","195411","0.0-30.0-1.0","""event"",""trial"",""time""
""fullscreenenter"",""0"",""3172""
","
","
","""event"",""trial"",""time""
""fullscreenenter"",""0"",""3172""
","
","null","<p></p>","null","","","","","","","","","","","","","","","","","","","","","","","",""
"","do_trial","43","198011","0.0-31.0-0.0","""event"",""trial"",""time""
""fullscreenenter"",""0"",""3172""
","
","
","""event"",""trial"",""time""
""fullscreenenter"",""0"",""3172""
","
","5.800000011920929","","","","","","","","51","1,1,1","6","blank","242","null","0.36551696005469475","0.3737937606995866","0.45565013275280636","1","","","","","","","","",""
"","html-keyboard-response","44","199015","0.0-31.0-1.0","""event"",""trial"",""time""
""fullscreenenter"",""0"",""3172""
","
","
","""event"",""trial"",""time""
""fullscreenenter"",""0"",""3172""
","
","null","<p></p>","null","","","","","","","","","","","","","","","","","","","","","","","",""
"","do_recog","45","205049","0.0-32.0-0.0","""event"",""trial"",""time""
""fullscreenenter"",""0"",""3172""
","
","
","""event"",""trial"",""time""
""fullscreenenter"",""0"",""3172""
","
","null","","","","","","","","null","","","","243","probe-122","","","","","1","[object Object]","76","1","0","","","",""
"","html-keyboard-response","46","206064","0.0-32.0-1.0","""event"",""trial"",""time""
""fullscreenenter"",""0"",""3172""
","
","
","""event"",""trial"",""time""
""fullscreenenter"",""0"",""3172""
","
","null","<p></p>","null","","","","","","","","","","","","","","","","","","","","","","","",""
"","do_trial","47","209739","0.0-33.0-0.0","""event"",""trial"",""time""
""fullscreenenter"",""0"",""3172""
","
","
","""event"",""trial"",""time""
""fullscreenenter"",""0"",""3172""
","
","1078.0999999642372","","","","","","","","51","0,0,1","6","blank","244","null","0.3400016451249836","0.21081646654599062","0.521976905918592","1","","","","","","","","",""
"","html-keyboard-response","48","210757","0.0-33.0-1.0","""event"",""trial"",""time""
""fullscreenenter"",""0"",""3172""
","
","
","""event"",""trial"",""time""
""fullscreenenter"",""0"",""3172""
","
","null","<p></p>","null","","","","","","","","","","","","","","","","","","","","","","","",""
"","do_trial","49","213365","0.0-34.0-0.0","""event"",""trial"",""time""
""fullscreenenter"",""0"",""3172""
","
","
","""event"",""trial"",""time""
""fullscreenenter"",""0"",""3172""
","
","16.100000023841858","","","","","","","","50","0,0,0","6","blank","245","null","0.515853864882083","0.2464675242824565","0.48394673812366285","0","","","","","","","","",""
"","html-keyboard-response","50","214381","0.0-34.0-1.0","""event"",""trial"",""time""
""fullscreenenter"",""0"",""3172""
","
","
","""event"",""trial"",""time""
""fullscreenenter"",""0"",""3172""
","
","null","<p></p>","null","","","","","","","","","","","","","","","","","","","","","","","",""
"","do_recog","51","220409","0.0-35.0-0.0","""event"",""trial"",""time""
""fullscreenenter"",""0"",""3172""
","
","
","""event"",""trial"",""time""
""fullscreenenter"",""0"",""3172""
","
","null","","","","","","","","null","","","","246","probe-241","","","","","0","[object Object]","null","null","0","","","",""
"","html-keyboard-response","52","221426","0.0-35.0-1.0","""event"",""trial"",""time""
""fullscreenenter"",""0"",""3172""
","
","
","""event"",""trial"",""time""
""fullscreenenter"",""0"",""3172""
","
","null","<p></p>","null","","","","","","","","","","","","","","","","","","","","","","","",""
"","do_trial","53","225293","0.0-36.0-0.0","""event"",""trial"",""time""
""fullscreenenter"",""0"",""3172""
","
","
","""event"",""trial"",""time""
""fullscreenenter"",""0"",""3172""
","
","1277.8999999761581","","","","","","","","51","1,1,0","6","blank","247","null","0.26839834431521803","0.14399910721752143","0.5190357996991052","0","","","","","","","","",""
"","html-keyboard-response","54","226307","0.0-36.0-1.0","""event"",""trial"",""time""
""fullscreenenter"",""0"",""3172""
","
","
","""event"",""trial"",""time""
""fullscreenenter"",""0"",""3172""
","
","null","<p></p>","null","","","","","","","","","","","","","","","","","","","","","","","",""
"","do_trial","55","229332","0.0-37.0-0.0","""event"",""trial"",""time""
""fullscreenenter"",""0"",""3172""
","
","
","""event"",""trial"",""time""
""fullscreenenter"",""0"",""3172""
","
","396","","","","","","","","51","1,0,1","6","blank","248","null","0.34277311552330775","0.08632367927747212","0.606102626592271","1","","","","","","","","",""
"","html-keyboard-response","56","230336","0.0-37.0-1.0","""event"",""trial"",""time""
""fullscreenenter"",""0"",""3172""
","
","
","""event"",""trial"",""time""
""fullscreenenter"",""0"",""3172""
","
","null","<p></p>","null","","","","","","","","","","","","","","","","","","","","","","","",""
"","do_trial","57","233341","0.0-38.0-0.0","""event"",""trial"",""time""
""fullscreenenter"",""0"",""3172""
","
","
","""event"",""trial"",""time""
""fullscreenenter"",""0"",""3172""
","
","422.7000000476837","","","","","","","","51","1,0,0","6","blank","249","null","0.20999637669501645","0.09307514922890602","0.69152329033818","0","","","","","","","","",""
"","html-keyboard-response","58","234343","0.0-38.0-1.0","""event"",""trial"",""time""
""fullscreenenter"",""0"",""3172""
","
","
","""event"",""trial"",""time""
""fullscreenenter"",""0"",""3172""
","
","null","<p></p>","null","","","","","","","","","","","","","","","","","","","","","","","",""
"","do_recog","59","237594","0.0-39.0-0.0","""event"",""trial"",""time""
""fullscreenenter"",""0"",""3172""
","
","
","""event"",""trial"",""time""
""fullscreenenter"",""0"",""3172""
","
","1730.5","","","","","","","","55","","","","250","probe-253","","","","","0","[object Object]","null","null","1","","","",""
"","html-keyboard-response","60","238611","0.0-39.0-1.0","""event"",""trial"",""time""
""fullscreenenter"",""0"",""3172""
","
","
","""event"",""trial"",""time""
""fullscreenenter"",""0"",""3172""
","
","null","<p></p>","null","","","","","","","","","","","","","","","","","","","","","","","",""
"","do_trial","61","241459","0.0-40.0-0.0","""event"",""trial"",""time""
""fullscreenenter"",""0"",""3172""
","
","
","""event"",""trial"",""time""
""fullscreenenter"",""0"",""3172""
","
","250.9000000357628","","","","","","","","50","0,0,1","6","blank","251","null","0.23265733253407495","0.07833675672884699","0.6938227312163037","0","","","","","","","","",""
"","html-keyboard-response","62","242475","0.0-40.0-1.0","""event"",""trial"",""time""
""fullscreenenter"",""0"",""3172""
","
","
","""event"",""trial"",""time""
""fullscreenenter"",""0"",""3172""
","
","null","<p></p>","null","","","","","","","","","","","","","","","","","","","","","","","",""
"","do_trial","63","245086","0.0-41.0-0.0","""event"",""trial"",""time""
""fullscreenenter"",""0"",""3172""
","
","
","""event"",""trial"",""time""
""fullscreenenter"",""0"",""3172""
","
","0.3999999761581421","","","","","","","","50","0,1,0","6","blank","252","null","0.23002914408798983","0.2087621657735514","0.6570395238822226","1","","","","","","","","",""
"","html-keyboard-response","64","246100","0.0-41.0-1.0","""event"",""trial"",""time""
""fullscreenenter"",""0"",""3172""
","
","
","""event"",""trial"",""time""
""fullscreenenter"",""0"",""3172""
","
","null","<p></p>","null","","","","","","","","","","","","","","","","","","","","","","","",""
"","do_recog","65","249215","0.0-42.0-0.0","""event"",""trial"",""time""
""fullscreenenter"",""0"",""3172""
","
","
","""event"",""trial"",""time""
""fullscreenenter"",""0"",""3172""
","
","1592.699999988079","","","","","","","","55","","","","253","probe-148","","","","","1","[object Object]","72","1","0","","","",""
"","html-keyboard-response","66","250217","0.0-42.0-1.0","""event"",""trial"",""time""
""fullscreenenter"",""0"",""3172""
","
","
","""event"",""trial"",""time""
""fullscreenenter"",""0"",""3172""
","
","null","<p></p>","null","","","","","","","","","","","","","","","","","","","","","","","",""
"","do_trial","67","252820","0.0-43.0-0.0","""event"",""trial"",""time""
""fullscreenenter"",""0"",""3172""
","
","
","""event"",""trial"",""time""
""fullscreenenter"",""0"",""3172""
","
","0.09999996423721313","","","","","","","","50","0,0,1","6","blank","254","null","0.46117514343528904","0.12546465452955585","0.5515082919926868","0","","","","","","","","",""
"","html-keyboard-response","68","253829","0.0-43.0-1.0","""event"",""trial"",""time""
""fullscreenenter"",""0"",""3172""
","
","
","""event"",""trial"",""time""
""fullscreenenter"",""0"",""3172""
","
","null","<p></p>","null","","","","","","","","","","","","","","","","","","","","","","","",""
"","do_recog","69","257207","0.0-44.0-0.0","""event"",""trial"",""time""
""fullscreenenter"",""0"",""3172""
","
","
","""event"",""trial"",""time""
""fullscreenenter"",""0"",""3172""
","
","1858.6000000238419","","","","","","","","54","","","","255","probe-225","","","","","1","[object Object]","198","4","1","","","",""
"","html-keyboard-response","70","258213","0.0-44.0-1.0","""event"",""trial"",""time""
""fullscreenenter"",""0"",""3172""
","
","
","""event"",""trial"",""time""
""fullscreenenter"",""0"",""3172""
","
","null","<p></p>","null","","","","","","","","","","","","","","","","","","","","","","","",""
"","do_trial","71","261265","0.0-45.0-0.0","""event"",""trial"",""time""
""fullscreenenter"",""0"",""3172""
","
","
","""event"",""trial"",""time""
""fullscreenenter"",""0"",""3172""
","
","465.39999997615814","","","","","","","","50","0,0,0","6","blank","256","null","0.482787199949144","0.1285465507919954","0.4777983700518064","0","","","","","","","","",""
"","html-keyboard-response","72","262269","0.0-45.0-1.0","""event"",""trial"",""time""
""fullscreenenter"",""0"",""3172""
","
","
","""event"",""trial"",""time""
""fullscreenenter"",""0"",""3172""
","
","null","<p></p>","null","","","","","","","","","","","","","","","","","","","","","","","",""
"","do_trial","73","264858","0.0-46.0-0.0","""event"",""trial"",""time""
""fullscreenenter"",""0"",""3172""
","
","
","""event"",""trial"",""time""
""fullscreenenter"",""0"",""3172""
","
","0.19999998807907104","","","","","","","","50","1,0,1","6","blank","257","null","0.2973496390149712","0.09381893185582126","0.6316217548432844","0","","","","","","","","",""
"","html-keyboard-response","74","265861","0.0-46.0-1.0","""event"",""trial"",""time""
""fullscreenenter"",""0"",""3172""
","
","
","""event"",""trial"",""time""
""fullscreenenter"",""0"",""3172""
","
","null","<p></p>","null","","","","","","","","","","","","","","","","","","","","","","","",""
"","do_trial","75","268525","0.0-47.0-0.0","""event"",""trial"",""time""
""fullscreenenter"",""0"",""3172""
","
","
","""event"",""trial"",""time""
""fullscreenenter"",""0"",""3172""
","
","72.90000003576279","","","","","","","","51","0,0,0","6","blank","258","null","0.3383414497073438","0.08289891294471201","0.7103735348091419","0","","","","","","","","",""
"","html-keyboard-response","76","269530","0.0-47.0-1.0","""event"",""trial"",""time""
""fullscreenenter"",""0"",""3172""
","
","
","""event"",""trial"",""time""
""fullscreenenter"",""0"",""3172""
","
","null","<p></p>","null","","","","","","","","","","","","","","","","","","","","","","","",""
"","do_trial","77","272132","0.0-48.0-0.0","""event"",""trial"",""time""
""fullscreenenter"",""0"",""3172""
","
","
","""event"",""trial"",""time""
""fullscreenenter"",""0"",""3172""
","
","0.20000004768371582","","","","","","","","51","1,1,1","6","blank","259","null","0.2577815725900583","0.10375548528953403","0.7000239167122879","1","","","","","","","","",""
"","html-keyboard-response","78","273138","0.0-48.0-1.0","""event"",""trial"",""time""
""fullscreenenter"",""0"",""3172""
","
","
","""event"",""trial"",""time""
""fullscreenenter"",""0"",""3172""
","
","null","<p></p>","null","","","","","","","","","","","","","","","","","","","","","","","",""
"","do_recog","79","276601","0.0-49.0-0.0","""event"",""trial"",""time""
""fullscreenenter"",""0"",""3172""
","
","
","""event"",""trial"",""time""
""fullscreenenter"",""0"",""3172""
","
","1946.300000011921","","","","","","","","56","","","","260","probe-191","","","","","1","[object Object]","197","4","0","","","",""
"","html-keyboard-response","80","277603","0.0-49.0-1.0","""event"",""trial"",""time""
""fullscreenenter"",""0"",""3172""
","
","
","""event"",""trial"",""time""
""fullscreenenter"",""0"",""3172""
","
","null","<p></p>","null","","","","","","","","","","","","","","","","","","","","","","","",""
"","do_trial","81","280220","0.0-50.0-0.0","""event"",""trial"",""time""
""fullscreenenter"",""0"",""3172""
","
","
","""event"",""trial"",""time""
""fullscreenenter"",""0"",""3172""
","
","26","","","","","","","","51","1,0,0","6","blank","261","null","0.2489136834883307","0.20519421291600737","0.5670347411084394","0","","","","","","","","",""
"","html-keyboard-response","82","281225","0.0-50.0-1.0","""event"",""trial"",""time""
""fullscreenenter"",""0"",""3172""
","
","
","""event"",""trial"",""time""
""fullscreenenter"",""0"",""3172""
","
","null","<p></p>","null","","","","","","","","","","","","","","","","","","","","","","","",""
"","do_recog","83","284472","0.0-51.0-0.0","""event"",""trial"",""time""
""fullscreenenter"",""0"",""3172""
","
","
","""event"",""trial"",""time""
""fullscreenenter"",""0"",""3172""
","
","1722.800000011921","","","","","","","","55","","","","262","probe-109","","","","","1","[object Object]","159","3","0","","","",""
"","html-keyboard-response","84","285485","0.0-51.0-1.0","""event"",""trial"",""time""
""fullscreenenter"",""0"",""3172""
","
","
","""event"",""trial"",""time""
""fullscreenenter"",""0"",""3172""
","
","null","<p></p>","null","","","","","","","","","","","","","","","","","","","","","","","",""
"","do_trial","85","288077","0.0-52.0-0.0","""event"",""trial"",""time""
""fullscreenenter"",""0"",""3172""
","
","
","""event"",""trial"",""time""
""fullscreenenter"",""0"",""3172""
","
","0.5","","","","","","","","51","0,0,0","6","blank","263","null","0.25731568901097696","0.15024412505561907","0.4127629549998335","0","","","","","","","","",""
"","html-keyboard-response","86","289092","0.0-52.0-1.0","""event"",""trial"",""time""
""fullscreenenter"",""0"",""3172""
","
","
","""event"",""trial"",""time""
""fullscreenenter"",""0"",""3172""
","
","null","<p></p>","null","","","","","","","","","","","","","","","","","","","","","","","",""
"","do_trial","87","291800","0.0-53.0-0.0","""event"",""trial"",""time""
""fullscreenenter"",""0"",""3172""
","
","
","""event"",""trial"",""time""
""fullscreenenter"",""0"",""3172""
","
","58.89999997615814","","","","","","","","51","0,0,0","6","blank","264","null","0.34632302973690904","0.25474031735725056","0.4680922859441733","0","","","","","","","","",""
"","html-keyboard-response","88","292817","0.0-53.0-1.0","""event"",""trial"",""time""
""fullscreenenter"",""0"",""3172""
","
","
","""event"",""trial"",""time""
""fullscreenenter"",""0"",""3172""
","
","null","<p></p>","null","","","","","","","","","","","","","","","","","","","","","","","",""
"","do_trial","89","295813","0.0-54.0-0.0","""event"",""trial"",""time""
""fullscreenenter"",""0"",""3172""
","
","
","""event"",""trial"",""time""
""fullscreenenter"",""0"",""3172""
","
","399.30000001192093","","","","","","","","50","0,0,0","6","blank","265","null","0.4010024284788566","0.27932797752725497","0.5202550667495294","0","","","","","","","","",""
"","html-keyboard-response","90","296823","0.0-54.0-1.0","""event"",""trial"",""time""
""fullscreenenter"",""0"",""3172""
","
","
","""event"",""trial"",""time""
""fullscreenenter"",""0"",""3172""
","
","null","<p></p>","null","","","","","","","","","","","","","","","","","","","","","","","",""
"","do_trial","91","299695","0.0-55.0-0.0","""event"",""trial"",""time""
""fullscreenenter"",""0"",""3172""
","
","
","""event"",""trial"",""time""
""fullscreenenter"",""0"",""3172""
","
","272.5","","","","","","","","50","0,0,0","6","blank","266","null","0.29584484496391883","0.13446937526067104","0.5262073182386101","0","","","","","","","","",""
"","html-keyboard-response","92","300711","0.0-55.0-1.0","""event"",""trial"",""time""
""fullscreenenter"",""0"",""3172""
","
","
","""event"",""trial"",""time""
""fullscreenenter"",""0"",""3172""
","
","null","<p></p>","null","","","","","","","","","","","","","","","","","","","","","","","",""
"","do_recog","93","305144","0.0-56.0-0.0","""event"",""trial"",""time""
""fullscreenenter"",""0"",""3172""
","
","
","""event"",""trial"",""time""
""fullscreenenter"",""0"",""3172""
","
","2913.300000011921","","","","","","","","55","","","","267","probe-121","","","","","1","[object Object]","36","0","0","","","",""
"","html-keyboard-response","94","306158","0.0-56.0-1.0","""event"",""trial"",""time""
""fullscreenenter"",""0"",""3172""
","
","
","""event"",""trial"",""time""
""fullscreenenter"",""0"",""3172""
","
","null","<p></p>","null","","","","","","","","","","","","","","","","","","","","","","","",""
"","do_trial","95","309314","0.0-57.0-0.0","""event"",""trial"",""time""
""fullscreenenter"",""0"",""3172""
","
","
","""event"",""trial"",""time""
""fullscreenenter"",""0"",""3172""
","
","569.9000000357628","","","","","","","","49","0,0,0","6","blank","268","null","0.2465972787313947","0.1328063782906101","0.6252441470275574","0","","","","","","","","",""
"","html-keyboard-response","96","310330","0.0-57.0-1.0","""event"",""trial"",""time""
""fullscreenenter"",""0"",""3172""
","
","
","""event"",""trial"",""time""
""fullscreenenter"",""0"",""3172""
","
","null","<p></p>","null","","","","","","","","","","","","","","","","","","","","","","","",""
"","break","97","311713","0.0-58.0-0.0","""event"",""trial"",""time""
""fullscreenenter"",""0"",""3172""
","
","
","""event"",""trial"",""time""
""fullscreenenter"",""0"",""3172""
","
","1381.300000011921","<div class='center'><p>Time to take a quick break! You have 2 minutes to rest, but you can move on sooner if you'd like.</p><p> Press the <b>space bar</b> to continue.</p></div>","32","","","","","","","","","","","","","","","","","","","","","","","",""
"","do_trial","98","315065","0.0-58.0-1.0","""event"",""trial"",""time""
""fullscreenenter"",""0"",""3172""
","
","
","""event"",""trial"",""time""
""fullscreenenter"",""0"",""3172""
","
","766.6000000238419","","","","","","","","49","0,0,1","6","blank","269","null","0.3434490171992332","0.06737649497175788","0.6092890122840117","0","","","","","","","","",""
"","html-keyboard-response","99","316070","0.0-58.0-2.0","""event"",""trial"",""time""
""fullscreenenter"",""0"",""3172""
","
","
","""event"",""trial"",""time""
""fullscreenenter"",""0"",""3172""
","
","null","<p></p>","null","","","","","","","","","","","","","","","","","","","","","","","",""
"","do_trial","100","318771","0.0-59.0-0.0","""event"",""trial"",""time""
""fullscreenenter"",""0"",""3172""
","
","
","""event"",""trial"",""time""
""fullscreenenter"",""0"",""3172""
","
","106.40000003576279","","","","","","","","50","1,0,1","6","blank","270","null","0.4142340680771605","0.14484719917519265","0.7509338268727247","0","","","","","","","","",""
"","html-keyboard-response","101","319781","0.0-59.0-1.0","""event"",""trial"",""time""
""fullscreenenter"",""0"",""3172""
","
","
","""event"",""trial"",""time""
""fullscreenenter"",""0"",""3172""
","
","null","<p></p>","null","","","","","","","","","","","","","","","","","","","","","","","",""
"","do_recog","102","323176","0.0-60.0-0.0","""event"",""trial"",""time""
""fullscreenenter"",""0"",""3172""
","
","
","""event"",""trial"",""time""
""fullscreenenter"",""0"",""3172""
","
","1881.9000000357628","","","","","","","","54","","","","271","probe-156","","","","","1","[object Object]","154","3","1","","","",""
"","html-keyboard-response","103","324179","0.0-60.0-1.0","""event"",""trial"",""time""
""fullscreenenter"",""0"",""3172""
","
","
","""event"",""trial"",""time""
""fullscreenenter"",""0"",""3172""
","
","null","<p></p>","null","","","","","","","","","","","","","","","","","","","","","","","",""
"","do_trial","104","327385","0.0-61.0-0.0","""event"",""trial"",""time""
""fullscreenenter"",""0"",""3172""
","
","
","""event"",""trial"",""time""
""fullscreenenter"",""0"",""3172""
","
","602.8999999761581","","","","","","","","51","0,0,0","6","blank","272","null","0.5021057624657229","0.16677238246957796","0.6740542061113518","0","","","","","","","","",""
"","html-keyboard-response","105","328399","0.0-61.0-1.0","""event"",""trial"",""time""
""fullscreenenter"",""0"",""3172""
","
","
","""event"",""trial"",""time""
""fullscreenenter"",""0"",""3172""
","
","null","<p></p>","null","","","","","","","","","","","","","","","","","","","","","","","",""
"","do_trial","106","331261","0.0-62.0-0.0","""event"",""trial"",""time""
""fullscreenenter"",""0"",""3172""
","
","
","""event"",""trial"",""time""
""fullscreenenter"",""0"",""3172""
","
","259.30000001192093","","","","","","","","50","1,0,0","6","blank","273","null","0.5004201431319902","0.13294980492086386","0.549648054445962","0","","","","","","","","",""
"","html-keyboard-response","107","332266","0.0-62.0-1.0","""event"",""trial"",""time""
""fullscreenenter"",""0"",""3172""
","
","
","""event"",""trial"",""time""
""fullscreenenter"",""0"",""3172""
","
","null","<p></p>","null","","","","","","","","","","","","","","","","","","","","","","","",""
"","do_trial","108","334858","0.0-63.0-0.0","""event"",""trial"",""time""
""fullscreenenter"",""0"",""3172""
","
","
","""event"",""trial"",""time""
""fullscreenenter"",""0"",""3172""
","
","2.199999988079071","","","","","","","","50","1,0,1","6","blank","274","null","0.37738580976469055","0.17219133592369132","0.5030823315976759","0","","","","","","","","",""
"","html-keyboard-response","109","335864","0.0-63.0-1.0","""event"",""trial"",""time""
""fullscreenenter"",""0"",""3172""
","
","
","""event"",""trial"",""time""
""fullscreenenter"",""0"",""3172""
","
","null","<p></p>","null","","","","","","","","","","","","","","","","","","","","","","","",""
"","do_recog","110","339027","0.0-64.0-0.0","""event"",""trial"",""time""
""fullscreenenter"",""0"",""3172""
","
","
","""event"",""trial"",""time""
""fullscreenenter"",""0"",""3172""
","
","1650.4000000357628","","","","","","","","55","","","","275","probe-237","","","","","0","[object Object]","null","null","1","","","",""
"","html-keyboard-response","111","340036","0.0-64.0-1.0","""event"",""trial"",""time""
""fullscreenenter"",""0"",""3172""
","
","
","""event"",""trial"",""time""
""fullscreenenter"",""0"",""3172""
","
","null","<p></p>","null","","","","","","","","","","","","","","","","","","","","","","","",""
"","do_trial","112","342915","0.0-65.0-0.0","""event"",""trial"",""time""
""fullscreenenter"",""0"",""3172""
","
","
","""event"",""trial"",""time""
""fullscreenenter"",""0"",""3172""
","
","275.9000000357628","","","","","","","","51","1,0,0","6","blank","276","null","0.34041218429384584","0.058939140363045775","0.45797367666665184","0","","","","","","","","",""
"","html-keyboard-response","113","343930","0.0-65.0-1.0","""event"",""trial"",""time""
""fullscreenenter"",""0"",""3172""
","
","
","""event"",""trial"",""time""
""fullscreenenter"",""0"",""3172""
","
","null","<p></p>","null","","","","","","","","","","","","","","","","","","","","","","","",""
"","do_trial","114","346535","0.0-66.0-0.0","""event"",""trial"",""time""
""fullscreenenter"",""0"",""3172""
","
","
","""event"",""trial"",""time""
""fullscreenenter"",""0"",""3172""
","
","0.40000003576278687","","","","","","","","50","0,0,0","6","blank","277","null","0.47851022492954054","0.11086388579419783","0.496507049634765","0","","","","","","","","",""
"","html-keyboard-response","115","347539","0.0-66.0-1.0","""event"",""trial"",""time""
""fullscreenenter"",""0"",""3172""
","
","
","""event"",""trial"",""time""
""fullscreenenter"",""0"",""3172""
","
","null","<p></p>","null","","","","","","","","","","","","","","","","","","","","","","","",""
"","do_trial","116","350131","0.0-67.0-0.0","""event"",""trial"",""time""
""fullscreenenter"",""0"",""3172""
","
","
","""event"",""trial"",""time""
""fullscreenenter"",""0"",""3172""
","
","0.19999998807907104","","","","","","","","51","0,0,0","6","blank","278","null","0.2961956712399476","0.13192061729971244","0.7161845166670909","0","","","","","","","","",""
"","html-keyboard-response","117","351143","0.0-67.0-1.0","""event"",""trial"",""time""
""fullscreenenter"",""0"",""3172""
","
","
","""event"",""trial"",""time""
""fullscreenenter"",""0"",""3172""
","
","null","<p></p>","null","","","","","","","","","","","","","","","","","","","","","","","",""
"","do_trial","118","353732","0.0-68.0-0.0","""event"",""trial"",""time""
""fullscreenenter"",""0"",""3172""
","
","
","""event"",""trial"",""time""
""fullscreenenter"",""0"",""3172""
","
","0.19999998807907104","","","","","","","","50","0,0,1","6","blank","279","null","0.26103174922405337","0.1406293947758595","0.6937202707632847","0","","","","","","","","",""
"","html-keyboard-response","119","354739","0.0-68.0-1.0","""event"",""trial"",""time""
""fullscreenenter"",""0"",""3172""
","
","
","""event"",""trial"",""time""
""fullscreenenter"",""0"",""3172""
","
","null","<p></p>","null","","","","","","","","","","","","","","","","","","","","","","","",""
"","do_trial","120","357445","0.0-69.0-0.0","""event"",""trial"",""time""
""fullscreenenter"",""0"",""3172""
","
","
","""event"",""trial"",""time""
""fullscreenenter"",""0"",""3172""
","
","98.5","","","","","","","","50","0,0,1","6","blank","280","null","0.19387146027444346","0.1762605462195705","0.6696859933377516","0","","","","","","","","",""
"","html-keyboard-response","121","358456","0.0-69.0-1.0","""event"",""trial"",""time""
""fullscreenenter"",""0"",""3172""
","
","
","""event"",""trial"",""time""
""fullscreenenter"",""0"",""3172""
","
","null","<p></p>","null","","","","","","","","","","","","","","","","","","","","","","","",""
"","do_recog","122","361790","0.0-70.0-0.0","""event"",""trial"",""time""
""fullscreenenter"",""0"",""3172""
","
","
","""event"",""trial"",""time""
""fullscreenenter"",""0"",""3172""
","
","1825.300000011921","","","","","","","","56","","","","281","probe-240","","","","","0","[object Object]","null","null","1","","","",""
"","html-keyboard-response","123","362797","0.0-70.0-1.0","""event"",""trial"",""time""
""fullscreenenter"",""0"",""3172""
","
","
","""event"",""trial"",""time""
""fullscreenenter"",""0"",""3172""
","
","null","<p></p>","null","","","","","","","","","","","","","","","","","","","","","","","",""
"","do_trial","124","366269","0.0-71.0-0.0","""event"",""trial"",""time""
""fullscreenenter"",""0"",""3172""
","
","
","""event"",""trial"",""time""
""fullscreenenter"",""0"",""3172""
","
","851","","","","","","","","50","0,0,1","6","blank","282","null","0.18295137181198728","0.12242991591425278","0.663271260344944","0","","","","","","","","",""
"","html-keyboard-response","125","367280","0.0-71.0-1.0","""event"",""trial"",""time""
""fullscreenenter"",""0"",""3172""
","
","
","""event"",""trial"",""time""
""fullscreenenter"",""0"",""3172""
","
","null","<p></p>","null","","","","","","","","","","","","","","","","","","","","","","","",""
"","do_trial","126","370303","0.0-72.0-0.0","""event"",""trial"",""time""
""fullscreenenter"",""0"",""3172""
","
","
","""event"",""trial"",""time""
""fullscreenenter"",""0"",""3172""
","
","414.7999999523163","","","","","","","","50","1,0,1","6","blank","283","null","0.38785101226282354","0.05250273476085843","0.6648944354493693","0","","","","","","","","",""
"","html-keyboard-response","127","371314","0.0-72.0-1.0","""event"",""trial"",""time""
""fullscreenenter"",""0"",""3172""
","
","
","""event"",""trial"",""time""
""fullscreenenter"",""0"",""3172""
","
","null","<p></p>","null","","","","","","","","","","","","","","","","","","","","","","","",""
"","do_trial","128","374205","0.0-73.0-0.0","""event"",""trial"",""time""
""fullscreenenter"",""0"",""3172""
","
","
","""event"",""trial"",""time""
""fullscreenenter"",""0"",""3172""
","
","293.2000000476837","","","","","","","","50","1,0,1","6","blank","284","null","0.39595313851802016","0.19553192767451905","0.5822465729626275","0","","","","","","","","",""
"","html-keyboard-response","129","375209","0.0-73.0-1.0","""event"",""trial"",""time""
""fullscreenenter"",""0"",""3172""
","
","
","""event"",""trial"",""time""
""fullscreenenter"",""0"",""3172""
","
","null","<p></p>","null","","","","","","","","","","","","","","","","","","","","","","","",""
"","do_trial","130","377879","0.0-74.0-0.0","""event"",""trial"",""time""
""fullscreenenter"",""0"",""3172""
","
","
","""event"",""trial"",""time""
""fullscreenenter"",""0"",""3172""
","
","72.80000001192093","","","","","","","","51","1,1,1","6","blank","285","null","0.4880702486263415","0.22393631388541335","0.8512356583122827","1","","","","","","","","",""
"","html-keyboard-response","131","378890","0.0-74.0-1.0","""event"",""trial"",""time""
""fullscreenenter"",""0"",""3172""
","
","
","""event"",""trial"",""time""
""fullscreenenter"",""0"",""3172""
","
","null","<p></p>","null","","","","","","","","","","","","","","","","","","","","","","","",""
"","do_trial","132","381778","0.0-75.0-0.0","""event"",""trial"",""time""
""fullscreenenter"",""0"",""3172""
","
","
","""event"",""trial"",""time""
""fullscreenenter"",""0"",""3172""
","
","291.30000001192093","","","","","","","","51","1,0,1","6","blank","286","null","0.5473104996538986","0.1777735678768634","0.7922126012441192","1","","","","","","","","",""
"","html-keyboard-response","133","382784","0.0-75.0-1.0","""event"",""trial"",""time""
""fullscreenenter"",""0"",""3172""
","
","
","""event"",""trial"",""time""
""fullscreenenter"",""0"",""3172""
","
","null","<p></p>","null","","","","","","","","","","","","","","","","","","","","","","","",""
"","do_trial","134","385839","0.0-76.0-0.0","""event"",""trial"",""time""
""fullscreenenter"",""0"",""3172""
","
","
","""event"",""trial"",""time""
""fullscreenenter"",""0"",""3172""
","
","457.80000001192093","","","","","","","","51","0,0,1","6","blank","287","null","0.33358724419619","0.15451017693590116","0.600225574166801","1","","","","","","","","",""
"","html-keyboard-response","135","386851","0.0-76.0-1.0","""event"",""trial"",""time""
""fullscreenenter"",""0"",""3172""
","
","
","""event"",""trial"",""time""
""fullscreenenter"",""0"",""3172""
","
","null","<p></p>","null","","","","","","","","","","","","","","","","","","","","","","","",""
"","do_trial","136","389758","0.0-77.0-0.0","""event"",""trial"",""time""
""fullscreenenter"",""0"",""3172""
","
","
","""event"",""trial"",""time""
""fullscreenenter"",""0"",""3172""
","
","307.5","","","","","","","","51","0,0,1","6","blank","288","null","0.2941246784031082","0.23700469096971397","0.6692952309628224","1","","","","","","","","",""
"","html-keyboard-response","137","390759","0.0-77.0-1.0","""event"",""trial"",""time""
""fullscreenenter"",""0"",""3172""
","
","
","""event"",""trial"",""time""
""fullscreenenter"",""0"",""3172""
","
","null","<p></p>","null","","","","","","","","","","","","","","","","","","","","","","","",""
"","do_recog","138","393537","0.0-78.0-0.0","""event"",""trial"",""time""
""fullscreenenter"",""0"",""3172""
","
","
","""event"",""trial"",""time""
""fullscreenenter"",""0"",""3172""
","
","1264.0999999642372","","","","","","","","54","","","","289","probe-45","","","","","1","[object Object]","39","0","1","","","",""
"","html-keyboard-response","139","394548","0.0-78.0-1.0","""event"",""trial"",""time""
""fullscreenenter"",""0"",""3172""
","
","
","""event"",""trial"",""time""
""fullscreenenter"",""0"",""3172""
","
","null","<p></p>","null","","","","","","","","","","","","","","","","","","","","","","","",""
"","do_trial","140","397402","0.0-79.0-0.0","""event"",""trial"",""time""
""fullscreenenter"",""0"",""3172""
","
","
","""event"",""trial"",""time""
""fullscreenenter"",""0"",""3172""
","
","255.19999998807907","","","","","","","","51","0,0,1","6","blank","290","null","0.21627530354614588","0.11659761225011696","0.7808556977061213","1","","","","","","","","",""
"","html-keyboard-response","141","398404","0.0-79.0-1.0","""event"",""trial"",""time""
""fullscreenenter"",""0"",""3172""
","
","
","""event"",""trial"",""time""
""fullscreenenter"",""0"",""3172""
","
","null","<p></p>","null","","","","","","","","","","","","","","","","","","","","","","","",""
"","do_trial","142","401231","0.0-80.0-0.0","""event"",""trial"",""time""
""fullscreenenter"",""0"",""3172""
","
","
","""event"",""trial"",""time""
""fullscreenenter"",""0"",""3172""
","
","242.30000001192093","","","","","","","","51","0,0,1","6","blank","291","null","0.2605689258240945","0.09246342671957378","0.8520354265177875","1","","","","","","","","",""
"","html-keyboard-response","143","402243","0.0-80.0-1.0","""event"",""trial"",""time""
""fullscreenenter"",""0"",""3172""
","
","
","""event"",""trial"",""time""
""fullscreenenter"",""0"",""3172""
","
","null","<p></p>","null","","","","","","","","","","","","","","","","","","","","","","","",""
"","do_trial","144","405039","0.0-81.0-0.0","""event"",""trial"",""time""
""fullscreenenter"",""0"",""3172""
","
","
","""event"",""trial"",""time""
""fullscreenenter"",""0"",""3172""
","
","197.70000004768372","","","","","","","","51","0,0,1","6","blank","292","null","0.19168758298691707","0.24898154335954314","0.9238446319015702","1","","","","","","","","",""
"","html-keyboard-response","145","406056","0.0-81.0-1.0","""event"",""trial"",""time""
""fullscreenenter"",""0"",""3172""
","
","
","""event"",""trial"",""time""
""fullscreenenter"",""0"",""3172""
","
","null","<p></p>","null","","","","","","","","","","","","","","","","","","","","","","","",""
"","do_trial","146","409075","0.0-82.0-0.0","""event"",""trial"",""time""
""fullscreenenter"",""0"",""3172""
","
","
","""event"",""trial"",""time""
""fullscreenenter"",""0"",""3172""
","
","431.30000001192093","","","","","","","","51","1,0,1","6","blank","293","null","0.09239696549994668","0.3036646262849775","0.9166399347750401","1","","","","","","","","",""
"","html-keyboard-response","147","410089","0.0-82.0-1.0","""event"",""trial"",""time""
""fullscreenenter"",""0"",""3172""
","
","
","""event"",""trial"",""time""
""fullscreenenter"",""0"",""3172""
","
","null","<p></p>","null","","","","","","","","","","","","","","","","","","","","","","","",""
"","do_recog","148","412928","0.0-83.0-0.0","""event"",""trial"",""time""
""fullscreenenter"",""0"",""3172""
","
","
","""event"",""trial"",""time""
""fullscreenenter"",""0"",""3172""
","
","1318.800000011921","","","","","","","","55","","","","294","probe-03","","","","","1","[object Object]","113","2","0","","","",""
"","html-keyboard-response","149","413942","0.0-83.0-1.0","""event"",""trial"",""time""
""fullscreenenter"",""0"",""3172""
","
","
","""event"",""trial"",""time""
""fullscreenenter"",""0"",""3172""
","
","null","<p></p>","null","","","","","","","","","","","","","","","","","","","","","","","",""
"","do_trial","150","417159","0.0-84.0-0.0","""event"",""trial"",""time""
""fullscreenenter"",""0"",""3172""
","
","
","""event"",""trial"",""time""
""fullscreenenter"",""0"",""3172""
","
","627.9000000357628","","","","","","","","51","0,0,0","6","blank","295","null","0.06785437747994003","0.2792256565892186","0.6994730867449853","0","","","","","","","","",""
"","html-keyboard-response","151","418175","0.0-84.0-1.0","""event"",""trial"",""time""
""fullscreenenter"",""0"",""3172""
","
","
","""event"",""trial"",""time""
""fullscreenenter"",""0"",""3172""
","
","null","<p></p>","null","","","","","","","","","","","","","","","","","","","","","","","",""
"","do_recog","152","421598","0.0-85.0-0.0","""event"",""trial"",""time""
""fullscreenenter"",""0"",""3172""
","
","
","""event"",""trial"",""time""
""fullscreenenter"",""0"",""3172""
","
","1899.5999999642372","","","","","","","","54","","","","296","probe-120","","","","","1","[object Object]","153","3","1","","","",""
"","html-keyboard-response","153","422615","0.0-85.0-1.0","""event"",""trial"",""time""
""fullscreenenter"",""0"",""3172""
","
","
","""event"",""trial"",""time""
""fullscreenenter"",""0"",""3172""
","
","null","<p></p>","null","","","","","","","","","","","","","","","","","","","","","","","",""
"","do_trial","154","425474","0.0-86.0-0.0","""event"",""trial"",""time""
""fullscreenenter"",""0"",""3172""
","
","
","""event"",""trial"",""time""
""fullscreenenter"",""0"",""3172""
","
","264.5","","","","","","","","50","0,0,1","6","blank","297","null","0.12991290903177918","0.4419979361622594","0.6055919495846732","0","","","","","","","","",""
"","html-keyboard-response","155","426489","0.0-86.0-1.0","""event"",""trial"",""time""
""fullscreenenter"",""0"",""3172""
","
","
","""event"",""trial"",""time""
""fullscreenenter"",""0"",""3172""
","
","null","<p></p>","null","","","","","","","","","","","","","","","","","","","","","","","",""
"","do_recog","156","429113","0.0-87.0-0.0","""event"",""trial"",""time""
""fullscreenenter"",""0"",""3172""
","
","
","""event"",""trial"",""time""
""fullscreenenter"",""0"",""3172""
","
","1115.0999999642372","","","","","","","","55","","","","298","probe-75","","","","","1","[object Object]","152","3","0","","","",""
"","html-keyboard-response","157","430116","0.0-87.0-1.0","""event"",""trial"",""time""
""fullscreenenter"",""0"",""3172""
","
","
","""event"",""trial"",""time""
""fullscreenenter"",""0"",""3172""
","
","null","<p></p>","null","","","","","","","","","","","","","","","","","","","","","","","",""
"","do_trial","158","433688","0.0-88.0-0.0","""event"",""trial"",""time""
""fullscreenenter"",""0"",""3172""
","
","
","""event"",""trial"",""time""
""fullscreenenter"",""0"",""3172""
","
","979.9000000357628","","","","","","","","51","0,0,0","6","blank","299","null","0.13054458259906035","0.536127872545626","0.5950257761426968","0","","","","","","","","",""
"","html-keyboard-response","159","434693","0.0-88.0-1.0","""event"",""trial"",""time""
""fullscreenenter"",""0"",""3172""
","
","
","""event"",""trial"",""time""
""fullscreenenter"",""0"",""3172""
","
","null","<p></p>","null","","","","","","","","","","","","","","","","","","","","","","","",""
"","do_recog","160","437623","0.0-89.0-0.0","""event"",""trial"",""time""
""fullscreenenter"",""0"",""3172""
","
","
","""event"",""trial"",""time""
""fullscreenenter"",""0"",""3172""
","
","1420.5","","","","","","","","54","","","","300","probe-170","","","","","1","[object Object]","73","1","1","","","",""
"","html-keyboard-response","161","438638","0.0-89.0-1.0","""event"",""trial"",""time""
""fullscreenenter"",""0"",""3172""
""blur"",""162"",""438902""
""focus"",""162"",""440778""
","""event"",""trial"",""time""
""blur"",""162"",""438902""
","""event"",""trial"",""time""
""focus"",""162"",""440778""
","""event"",""trial"",""time""
""fullscreenenter"",""0"",""3172""
","
","null","<p></p>","null","","","","","","","","","","","","","","","","","","","","","","","",""
"","do_trial","162","441408","0.0-90.0-0.0","""event"",""trial"",""time""
""fullscreenenter"",""0"",""3172""
""blur"",""162"",""438902""
""focus"",""162"",""440778""
","""event"",""trial"",""time""
""blur"",""162"",""438902""
","""event"",""trial"",""time""
""focus"",""162"",""440778""
","""event"",""trial"",""time""
""fullscreenenter"",""0"",""3172""
","
","0.2999999523162842","","","","","","","","49","0,0,1","6","blank","301","null","0.05054697369273739","0.67658188784993","0.5316806471168287","0","","","","","","","","",""
"","html-keyboard-response","163","442410","0.0-90.0-1.0","""event"",""trial"",""time""
""fullscreenenter"",""0"",""3172""
""blur"",""162"",""438902""
""focus"",""162"",""440778""
","""event"",""trial"",""time""
""blur"",""162"",""438902""
","""event"",""trial"",""time""
""focus"",""162"",""440778""
","""event"",""trial"",""time""
""fullscreenenter"",""0"",""3172""
","
","null","<p></p>","null","","","","","","","","","","","","","","","","","","","","","","","",""
"","do_trial","164","445305","0.0-91.0-0.0","""event"",""trial"",""time""
""fullscreenenter"",""0"",""3172""
""blur"",""162"",""438902""
""focus"",""162"",""440778""
","""event"",""trial"",""time""
""blur"",""162"",""438902""
","""event"",""trial"",""time""
""focus"",""162"",""440778""
","""event"",""trial"",""time""
""fullscreenenter"",""0"",""3172""
","
","297.5999999642372","","","","","","","","49","0,0,0","6","blank","302","null","0.10133486034318652","0.7066859126333873","0.5107281153151467","0","","","","","","","","",""
"","html-keyboard-response","165","446309","0.0-91.0-1.0","""event"",""trial"",""time""
""fullscreenenter"",""0"",""3172""
""blur"",""162"",""438902""
""focus"",""162"",""440778""
","""event"",""trial"",""time""
""blur"",""162"",""438902""
","""event"",""trial"",""time""
""focus"",""162"",""440778""
","""event"",""trial"",""time""
""fullscreenenter"",""0"",""3172""
","
","null","<p></p>","null","","","","","","","","","","","","","","","","","","","","","","","",""
"","do_trial","166","449038","0.0-92.0-0.0","""event"",""trial"",""time""
""fullscreenenter"",""0"",""3172""
""blur"",""162"",""438902""
""focus"",""162"",""440778""
","""event"",""trial"",""time""
""blur"",""162"",""438902""
","""event"",""trial"",""time""
""focus"",""162"",""440778""
","""event"",""trial"",""time""
""fullscreenenter"",""0"",""3172""
","
","142.10000002384186","","","","","","","","50","0,1,1","6","blank","303","null","0.10982919554021493","0.6774590497098393","0.3752367073930512","1","","","","","","","","",""
"","html-keyboard-response","167","450054","0.0-92.0-1.0","""event"",""trial"",""time""
""fullscreenenter"",""0"",""3172""
""blur"",""162"",""438902""
""focus"",""162"",""440778""
","""event"",""trial"",""time""
""blur"",""162"",""438902""
","""event"",""trial"",""time""
""focus"",""162"",""440778""
","""event"",""trial"",""time""
""fullscreenenter"",""0"",""3172""
","
","null","<p></p>","null","","","","","","","","","","","","","","","","","","","","","","","",""
"","do_trial","168","452805","0.0-93.0-0.0","""event"",""trial"",""time""
""fullscreenenter"",""0"",""3172""
""blur"",""162"",""438902""
""focus"",""162"",""440778""
","""event"",""trial"",""time""
""blur"",""162"",""438902""
","""event"",""trial"",""time""
""focus"",""162"",""440778""
","""event"",""trial"",""time""
""fullscreenenter"",""0"",""3172""
","
","158.39999997615814","","","","","","","","50","0,0,0","6","blank","304","null","0.06050095408654797","0.6935815943408921","0.45030832561900125","0","","","","","","","","",""
"","html-keyboard-response","169","453810","0.0-93.0-1.0","""event"",""trial"",""time""
""fullscreenenter"",""0"",""3172""
""blur"",""162"",""438902""
""focus"",""162"",""440778""
","""event"",""trial"",""time""
""blur"",""162"",""438902""
","""event"",""trial"",""time""
""focus"",""162"",""440778""
","""event"",""trial"",""time""
""fullscreenenter"",""0"",""3172""
","
","null","<p></p>","null","","","","","","","","","","","","","","","","","","","","","","","",""
"","do_trial","170","456439","0.0-94.0-0.0","""event"",""trial"",""time""
""fullscreenenter"",""0"",""3172""
""blur"",""162"",""438902""
""focus"",""162"",""440778""
","""event"",""trial"",""time""
""blur"",""162"",""438902""
","""event"",""trial"",""time""
""focus"",""162"",""440778""
","""event"",""trial"",""time""
""fullscreenenter"",""0"",""3172""
","
","43.19999998807907","","","","","","","","50","0,1,0","6","blank","305","null","0.1668803821658895","0.5227770024583542","0.32904140565843376","1","","","","","","","","",""
"","html-keyboard-response","171","457450","0.0-94.0-1.0","""event"",""trial"",""time""
""fullscreenenter"",""0"",""3172""
""blur"",""162"",""438902""
""focus"",""162"",""440778""
","""event"",""trial"",""time""
""blur"",""162"",""438902""
","""event"",""trial"",""time""
""focus"",""162"",""440778""
","""event"",""trial"",""time""
""fullscreenenter"",""0"",""3172""
","
","null","<p></p>","null","","","","","","","","","","","","","","","","","","","","","","","",""
"","do_trial","172","460097","0.0-95.0-0.0","""event"",""trial"",""time""
""fullscreenenter"",""0"",""3172""
""blur"",""162"",""438902""
""focus"",""162"",""440778""
","""event"",""trial"",""time""
""blur"",""162"",""438902""
","""event"",""trial"",""time""
""focus"",""162"",""440778""
","""event"",""trial"",""time""
""fullscreenenter"",""0"",""3172""
","
","57.40000003576279","","","","","","","","50","0,1,0","6","blank","306","null","0.1173633279885986","0.5249889275321513","0.27028704414306826","1","","","","","","","","",""
"","html-keyboard-response","173","461113","0.0-95.0-1.0","""event"",""trial"",""time""
""fullscreenenter"",""0"",""3172""
""blur"",""162"",""438902""
""focus"",""162"",""440778""
","""event"",""trial"",""time""
""blur"",""162"",""438902""
","""event"",""trial"",""time""
""focus"",""162"",""440778""
","""event"",""trial"",""time""
""fullscreenenter"",""0"",""3172""
","
","null","<p></p>","null","","","","","","","","","","","","","","","","","","","","","","","",""
"","do_trial","174","463788","0.0-96.0-0.0","""event"",""trial"",""time""
""fullscreenenter"",""0"",""3172""
""blur"",""162"",""438902""
""focus"",""162"",""440778""
","""event"",""trial"",""time""
""blur"",""162"",""438902""
","""event"",""trial"",""time""
""focus"",""162"",""440778""
","""event"",""trial"",""time""
""fullscreenenter"",""0"",""3172""
","
","79.5","","","","","","","","50","0,0,1","6","blank","307","null","0.17632530665592291","0.5775737619114066","0.2030026810465676","0","","","","","","","","",""
"","html-keyboard-response","175","464793","0.0-96.0-1.0","""event"",""trial"",""time""
""fullscreenenter"",""0"",""3172""
""blur"",""162"",""438902""
""focus"",""162"",""440778""
","""event"",""trial"",""time""
""blur"",""162"",""438902""
","""event"",""trial"",""time""
""focus"",""162"",""440778""
","""event"",""trial"",""time""
""fullscreenenter"",""0"",""3172""
","
","null","<p></p>","null","","","","","","","","","","","","","","","","","","","","","","","",""
"","do_recog","176","467615","0.0-97.0-0.0","""event"",""trial"",""time""
""fullscreenenter"",""0"",""3172""
""blur"",""162"",""438902""
""focus"",""162"",""440778""
","""event"",""trial"",""time""
""blur"",""162"",""438902""
","""event"",""trial"",""time""
""focus"",""162"",""440778""
","""event"",""trial"",""time""
""fullscreenenter"",""0"",""3172""
","
","1308.3999999761581","","","","","","","","54","","","","308","probe-106","","","","","1","[object Object]","155","3","1","","","",""
"","html-keyboard-response","177","468628","0.0-97.0-1.0","""event"",""trial"",""time""
""fullscreenenter"",""0"",""3172""
""blur"",""162"",""438902""
""focus"",""162"",""440778""
","""event"",""trial"",""time""
""blur"",""162"",""438902""
","""event"",""trial"",""time""
""focus"",""162"",""440778""
","""event"",""trial"",""time""
""fullscreenenter"",""0"",""3172""
","
","null","<p></p>","null","","","","","","","","","","","","","","","","","","","","","","","",""
"","break","178","470120","0.0-98.0-0.0","""event"",""trial"",""time""
""fullscreenenter"",""0"",""3172""
""blur"",""162"",""438902""
""focus"",""162"",""440778""
","""event"",""trial"",""time""
""blur"",""162"",""438902""
","""event"",""trial"",""time""
""focus"",""162"",""440778""
","""event"",""trial"",""time""
""fullscreenenter"",""0"",""3172""
","
","1490.800000011921","<div class='center'><p>Time to take a quick break! You have 2 minutes to rest, but you can move on sooner if you'd like.</p><p> Press the <b>space bar</b> to continue.</p></div>","32","","","","","","","","","","","","","","","","","","","","","","","",""
"","do_trial","179","473162","0.0-98.0-1.0","""event"",""trial"",""time""
""fullscreenenter"",""0"",""3172""
""blur"",""162"",""438902""
""focus"",""162"",""440778""
","""event"",""trial"",""time""
""blur"",""162"",""438902""
","""event"",""trial"",""time""
""focus"",""162"",""440778""
","""event"",""trial"",""time""
""fullscreenenter"",""0"",""3172""
","
","446.19999998807907","","","","","","","","50","0,1,1","6","blank","309","null","0.14507455330451513","0.6443374601400238","0.2527047839528002","1","","","","","","","","",""
"","html-keyboard-response","180","474178","0.0-98.0-2.0","""event"",""trial"",""time""
""fullscreenenter"",""0"",""3172""
""blur"",""162"",""438902""
""focus"",""162"",""440778""
","""event"",""trial"",""time""
""blur"",""162"",""438902""
","""event"",""trial"",""time""
""focus"",""162"",""440778""
","""event"",""trial"",""time""
""fullscreenenter"",""0"",""3172""
","
","null","<p></p>","null","","","","","","","","","","","","","","","","","","","","","","","",""
"","do_trial","181","476782","0.0-99.0-0.0","""event"",""trial"",""time""
""fullscreenenter"",""0"",""3172""
""blur"",""162"",""438902""
""focus"",""162"",""440778""
","""event"",""trial"",""time""
""blur"",""162"",""438902""
","""event"",""trial"",""time""
""focus"",""162"",""440778""
","""event"",""trial"",""time""
""fullscreenenter"",""0"",""3172""
","
","14.300000011920929","","","","","","","","50","0,0,1","6","blank","310","null","0.07658846417968128","0.5780635798459555","0.25131581804477526","0","","","","","","","","",""
"","html-keyboard-response","182","477799","0.0-99.0-1.0","""event"",""trial"",""time""
""fullscreenenter"",""0"",""3172""
""blur"",""162"",""438902""
""focus"",""162"",""440778""
","""event"",""trial"",""time""
""blur"",""162"",""438902""
","""event"",""trial"",""time""
""focus"",""162"",""440778""
","""event"",""trial"",""time""
""fullscreenenter"",""0"",""3172""
","
","null","<p></p>","null","","","","","","","","","","","","","","","","","","","","","","","",""
"","do_recog","183","480763","0.0-100.0-0.0","""event"",""trial"",""time""
""fullscreenenter"",""0"",""3172""
""blur"",""162"",""438902""
""focus"",""162"",""440778""
","""event"",""trial"",""time""
""blur"",""162"",""438902""
","""event"",""trial"",""time""
""focus"",""162"",""440778""
","""event"",""trial"",""time""
""fullscreenenter"",""0"",""3172""
","
","1441.7000000476837","","","","","","","","55","","","","311","probe-85","","","","","1","[object Object]","156","3","0","","","",""
"","html-keyboard-response","184","481774","0.0-100.0-1.0","""event"",""trial"",""time""
""fullscreenenter"",""0"",""3172""
""blur"",""162"",""438902""
""focus"",""162"",""440778""
","""event"",""trial"",""time""
""blur"",""162"",""438902""
","""event"",""trial"",""time""
""focus"",""162"",""440778""
","""event"",""trial"",""time""
""fullscreenenter"",""0"",""3172""
","
","null","<p></p>","null","","","","","","","","","","","","","","","","","","","","","","","",""
"","do_trial","185","484439","0.0-101.0-0.0","""event"",""trial"",""time""
""fullscreenenter"",""0"",""3172""
""blur"",""162"",""438902""
""focus"",""162"",""440778""
","""event"",""trial"",""time""
""blur"",""162"",""438902""
","""event"",""trial"",""time""
""focus"",""162"",""440778""
","""event"",""trial"",""time""
""fullscreenenter"",""0"",""3172""
","
","68.59999996423721","","","","","","","","50","0,1,0","6","blank","312","null","0.06367774760636981","0.7191503066792844","0.2672439959449142","1","","","","","","","","",""
"","html-keyboard-response","186","485441","0.0-101.0-1.0","""event"",""trial"",""time""
""fullscreenenter"",""0"",""3172""
""blur"",""162"",""438902""
""focus"",""162"",""440778""
","""event"",""trial"",""time""
""blur"",""162"",""438902""
","""event"",""trial"",""time""
""focus"",""162"",""440778""
","""event"",""trial"",""time""
""fullscreenenter"",""0"",""3172""
","
","null","<p></p>","null","","","","","","","","","","","","","","","","","","","","","","","",""
"","do_recog","187","488245","0.0-102.0-0.0","""event"",""trial"",""time""
""fullscreenenter"",""0"",""3172""
""blur"",""162"",""438902""
""focus"",""162"",""440778""
","""event"",""trial"",""time""
""blur"",""162"",""438902""
","""event"",""trial"",""time""
""focus"",""162"",""440778""
","""event"",""trial"",""time""
""fullscreenenter"",""0"",""3172""
","
","1285","","","","","","","","55","","","","313","probe-57","","","","","1","[object Object]","111","2","0","","","",""
"","html-keyboard-response","188","489260","0.0-102.0-1.0","""event"",""trial"",""time""
""fullscreenenter"",""0"",""3172""
""blur"",""162"",""438902""
""focus"",""162"",""440778""
","""event"",""trial"",""time""
""blur"",""162"",""438902""
","""event"",""trial"",""time""
""focus"",""162"",""440778""
","""event"",""trial"",""time""
""fullscreenenter"",""0"",""3172""
","
","null","<p></p>","null","","","","","","","","","","","","","","","","","","","","","","","",""
"","do_trial","189","491861","0.0-103.0-0.0","""event"",""trial"",""time""
""fullscreenenter"",""0"",""3172""
""blur"",""162"",""438902""
""focus"",""162"",""440778""
","""event"",""trial"",""time""
""blur"",""162"",""438902""
","""event"",""trial"",""time""
""focus"",""162"",""440778""
","""event"",""trial"",""time""
""fullscreenenter"",""0"",""3172""
","
","0.19999998807907104","","","","","","","","50","0,1,0","6","blank","314","null","0.12784541778800812","0.5724624188967742","0.3627239044339228","1","","","","","","","","",""
"","html-keyboard-response","190","492875","0.0-103.0-1.0","""event"",""trial"",""time""
""fullscreenenter"",""0"",""3172""
""blur"",""162"",""438902""
""focus"",""162"",""440778""
","""event"",""trial"",""time""
""blur"",""162"",""438902""
","""event"",""trial"",""time""
""focus"",""162"",""440778""
","""event"",""trial"",""time""
""fullscreenenter"",""0"",""3172""
","
","null","<p></p>","null","","","","","","","","","","","","","","","","","","","","","","","",""
"","do_recog","191","495593","0.0-104.0-0.0","""event"",""trial"",""time""
""fullscreenenter"",""0"",""3172""
""blur"",""162"",""438902""
""focus"",""162"",""440778""
","""event"",""trial"",""time""
""blur"",""162"",""438902""
","""event"",""trial"",""time""
""focus"",""162"",""440778""
","""event"",""trial"",""time""
""fullscreenenter"",""0"",""3172""
","
","1197","","","","","","","","55","","","","315","probe-77","","","","","1","[object Object]","33","0","0","","","",""
"","html-keyboard-response","192","496610","0.0-104.0-1.0","""event"",""trial"",""time""
""fullscreenenter"",""0"",""3172""
""blur"",""162"",""438902""
""focus"",""162"",""440778""
","""event"",""trial"",""time""
""blur"",""162"",""438902""
","""event"",""trial"",""time""
""focus"",""162"",""440778""
","""event"",""trial"",""time""
""fullscreenenter"",""0"",""3172""
","
","null","<p></p>","null","","","","","","","","","","","","","","","","","","","","","","","",""
"","do_trial","193","499316","0.0-105.0-0.0","""event"",""trial"",""time""
""fullscreenenter"",""0"",""3172""
""blur"",""162"",""438902""
""focus"",""162"",""440778""
","""event"",""trial"",""time""
""blur"",""162"",""438902""
","""event"",""trial"",""time""
""focus"",""162"",""440778""
","""event"",""trial"",""time""
""fullscreenenter"",""0"",""3172""
","
","112.5","","","","","","","","50","0,0,1","6","blank","316","null","0.19802636845230873","0.6652640462988564","0.4888046355680603","0","","","","","","","","",""
"","html-keyboard-response","194","500329","0.0-105.0-1.0","""event"",""trial"",""time""
""fullscreenenter"",""0"",""3172""
""blur"",""162"",""438902""
""focus"",""162"",""440778""
","""event"",""trial"",""time""
""blur"",""162"",""438902""
","""event"",""trial"",""time""
""focus"",""162"",""440778""
","""event"",""trial"",""time""
""fullscreenenter"",""0"",""3172""
","
","null","<p></p>","null","","","","","","","","","","","","","","","","","","","","","","","",""
"","do_trial","195","502928","0.0-106.0-0.0","""event"",""trial"",""time""
""fullscreenenter"",""0"",""3172""
""blur"",""162"",""438902""
""focus"",""162"",""440778""
","""event"",""trial"",""time""
""blur"",""162"",""438902""
","""event"",""trial"",""time""
""focus"",""162"",""440778""
","""event"",""trial"",""time""
""fullscreenenter"",""0"",""3172""
","
","0.2999999523162842","","","","","","","","50","0,0,1","6","blank","317","null","0.07688253232413926","0.653615152420155","0.4502983248454927","0","","","","","","","","",""
"","html-keyboard-response","196","503940","0.0-106.0-1.0","""event"",""trial"",""time""
""fullscreenenter"",""0"",""3172""
""blur"",""162"",""438902""
""focus"",""162"",""440778""
","""event"",""trial"",""time""
""blur"",""162"",""438902""
","""event"",""trial"",""time""
""focus"",""162"",""440778""
","""event"",""trial"",""time""
""fullscreenenter"",""0"",""3172""
","
","null","<p></p>","null","","","","","","","","","","","","","","","","","","","","","","","",""
"","do_trial","197","506528","0.0-107.0-0.0","""event"",""trial"",""time""
""fullscreenenter"",""0"",""3172""
""blur"",""162"",""438902""
""focus"",""162"",""440778""
","""event"",""trial"",""time""
""blur"",""162"",""438902""
","""event"",""trial"",""time""
""focus"",""162"",""440778""
","""event"",""trial"",""time""
""fullscreenenter"",""0"",""3172""
","
","0.19999998807907104","","","","","","","","50","0,1,0","6","blank","318","null","0.11135807360918917","0.7405184605106959","0.26285753845779014","1","","","","","","","","",""
"","html-keyboard-response","198","507545","0.0-107.0-1.0","""event"",""trial"",""time""
""fullscreenenter"",""0"",""3172""
""blur"",""162"",""438902""
""focus"",""162"",""440778""
","""event"",""trial"",""time""
""blur"",""162"",""438902""
","""event"",""trial"",""time""
""focus"",""162"",""440778""
","""event"",""trial"",""time""
""fullscreenenter"",""0"",""3172""
","
","null","<p></p>","null","","","","","","","","","","","","","","","","","","","","","","","",""
"","do_trial","199","510224","0.0-108.0-0.0","""event"",""trial"",""time""
""fullscreenenter"",""0"",""3172""
""blur"",""162"",""438902""
""focus"",""162"",""440778""
","""event"",""trial"",""time""
""blur"",""162"",""438902""
","""event"",""trial"",""time""
""focus"",""162"",""440778""
","""event"",""trial"",""time""
""fullscreenenter"",""0"",""3172""
","
","76.80000001192093","","","","","","","","50","0,1,1","6","blank","319","null","0.08050379058460484","0.6379383677561693","0.22621337174256276","1","","","","","","","","",""
"","html-keyboard-response","200","511238","0.0-108.0-1.0","""event"",""trial"",""time""
""fullscreenenter"",""0"",""3172""
""blur"",""162"",""438902""
""focus"",""162"",""440778""
","""event"",""trial"",""time""
""blur"",""162"",""438902""
","""event"",""trial"",""time""
""focus"",""162"",""440778""
","""event"",""trial"",""time""
""fullscreenenter"",""0"",""3172""
","
","null","<p></p>","null","","","","","","","","","","","","","","","","","","","","","","","",""
"","do_trial","201","513831","0.0-109.0-0.0","""event"",""trial"",""time""
""fullscreenenter"",""0"",""3172""
""blur"",""162"",""438902""
""focus"",""162"",""440778""
","""event"",""trial"",""time""
""blur"",""162"",""438902""
","""event"",""trial"",""time""
""focus"",""162"",""440778""
","""event"",""trial"",""time""
""fullscreenenter"",""0"",""3172""
","
","0.2999999523162842","","","","","","","","50","0,0,0","6","blank","320","null","0.07255582146785644","0.7506865074515235","0.18777397918733374","0","","","","","","","","",""
"","html-keyboard-response","202","514840","0.0-109.0-1.0","""event"",""trial"",""time""
""fullscreenenter"",""0"",""3172""
""blur"",""162"",""438902""
""focus"",""162"",""440778""
","""event"",""trial"",""time""
""blur"",""162"",""438902""
","""event"",""trial"",""time""
""focus"",""162"",""440778""
","""event"",""trial"",""time""
""fullscreenenter"",""0"",""3172""
","
","null","<p></p>","null","","","","","","","","","","","","","","","","","","","","","","","",""
"","do_recog","203","518388","0.0-110.0-0.0","""event"",""trial"",""time""
""fullscreenenter"",""0"",""3172""
""blur"",""162"",""438902""
""focus"",""162"",""440778""
","""event"",""trial"",""time""
""blur"",""162"",""438902""
","""event"",""trial"",""time""
""focus"",""162"",""440778""
","""event"",""trial"",""time""
""fullscreenenter"",""0"",""3172""
","
","2039.5","","","","","","","","54","","","","321","probe-224","","","","","1","[object Object]","75","1","1","","","",""
"","html-keyboard-response","204","519402","0.0-110.0-1.0","""event"",""trial"",""time""
""fullscreenenter"",""0"",""3172""
""blur"",""162"",""438902""
""focus"",""162"",""440778""
","""event"",""trial"",""time""
""blur"",""162"",""438902""
","""event"",""trial"",""time""
""focus"",""162"",""440778""
","""event"",""trial"",""time""
""fullscreenenter"",""0"",""3172""
","
","null","<p></p>","null","","","","","","","","","","","","","","","","","","","","","","","",""
"","do_trial","205","522025","0.0-111.0-0.0","""event"",""trial"",""time""
""fullscreenenter"",""0"",""3172""
""blur"",""162"",""438902""
""focus"",""162"",""440778""
","""event"",""trial"",""time""
""blur"",""162"",""438902""
","""event"",""trial"",""time""
""focus"",""162"",""440778""
","""event"",""trial"",""time""
""fullscreenenter"",""0"",""3172""
","
","0.40000003576278687","","","","","","","","50","0,0,0","6","blank","322","null","0.0953683269937223","0.6866987934282013","0.20320444109829786","0","","","","","","","","",""
"","html-keyboard-response","206","523043","0.0-111.0-1.0","""event"",""trial"",""time""
""fullscreenenter"",""0"",""3172""
""blur"",""162"",""438902""
""focus"",""162"",""440778""
","""event"",""trial"",""time""
""blur"",""162"",""438902""
","""event"",""trial"",""time""
""focus"",""162"",""440778""
","""event"",""trial"",""time""
""fullscreenenter"",""0"",""3172""
","
","null","<p></p>","null","","","","","","","","","","","","","","","","","","","","","","","",""
"","do_trial","207","525633","0.0-112.0-0.0","""event"",""trial"",""time""
""fullscreenenter"",""0"",""3172""
""blur"",""162"",""438902""
""focus"",""162"",""440778""
","""event"",""trial"",""time""
""blur"",""162"",""438902""
","""event"",""trial"",""time""
""focus"",""162"",""440778""
","""event"",""trial"",""time""
""fullscreenenter"",""0"",""3172""
","
","0.2999999523162842","","","","","","","","50","0,1,1","6","blank","323","null","0.07718439287300734","0.6848395646388525","0.2585429680725161","1","","","","","","","","",""
"","html-keyboard-response","208","526648","0.0-112.0-1.0","""event"",""trial"",""time""
""fullscreenenter"",""0"",""3172""
""blur"",""162"",""438902""
""focus"",""162"",""440778""
","""event"",""trial"",""time""
""blur"",""162"",""438902""
","""event"",""trial"",""time""
""focus"",""162"",""440778""
","""event"",""trial"",""time""
""fullscreenenter"",""0"",""3172""
","
","null","<p></p>","null","","","","","","","","","","","","","","","","","","","","","","","",""
"","do_trial","209","529322","0.0-113.0-0.0","""event"",""trial"",""time""
""fullscreenenter"",""0"",""3172""
""blur"",""162"",""438902""
""focus"",""162"",""440778""
","""event"",""trial"",""time""
""blur"",""162"",""438902""
","""event"",""trial"",""time""
""focus"",""162"",""440778""
","""event"",""trial"",""time""
""fullscreenenter"",""0"",""3172""
","
","86.59999996423721","","","","","","","","50","0,0,0","6","blank","324","null","0.052136014092850735","0.5469648786652347","0.3292844607258813","0","","","","","","","","",""
"","html-keyboard-response","210","530330","0.0-113.0-1.0","""event"",""trial"",""time""
""fullscreenenter"",""0"",""3172""
""blur"",""162"",""438902""
""focus"",""162"",""440778""
","""event"",""trial"",""time""
""blur"",""162"",""438902""
","""event"",""trial"",""time""
""focus"",""162"",""440778""
","""event"",""trial"",""time""
""fullscreenenter"",""0"",""3172""
","
","null","<p></p>","null","","","","","","","","","","","","","","","","","","","","","","","",""
"","do_trial","211","532947","0.0-114.0-0.0","""event"",""trial"",""time""
""fullscreenenter"",""0"",""3172""
""blur"",""162"",""438902""
""focus"",""162"",""440778""
","""event"",""trial"",""time""
""blur"",""162"",""438902""
","""event"",""trial"",""time""
""focus"",""162"",""440778""
","""event"",""trial"",""time""
""fullscreenenter"",""0"",""3172""
","
","30.600000023841858","","","","","","","","50","0,0,0","6","blank","325","null","0.0857254196486185","0.5793483206693949","0.3233103904788953","0","","","","","","","","",""
"","html-keyboard-response","212","533961","0.0-114.0-1.0","""event"",""trial"",""time""
""fullscreenenter"",""0"",""3172""
""blur"",""162"",""438902""
""focus"",""162"",""440778""
","""event"",""trial"",""time""
""blur"",""162"",""438902""
","""event"",""trial"",""time""
""focus"",""162"",""440778""
","""event"",""trial"",""time""
""fullscreenenter"",""0"",""3172""
","
","null","<p></p>","null","","","","","","","","","","","","","","","","","","","","","","","",""
"","do_trial","213","536760","0.0-115.0-0.0","""event"",""trial"",""time""
""fullscreenenter"",""0"",""3172""
""blur"",""162"",""438902""
""focus"",""162"",""440778""
","""event"",""trial"",""time""
""blur"",""162"",""438902""
","""event"",""trial"",""time""
""focus"",""162"",""440778""
","""event"",""trial"",""time""
""fullscreenenter"",""0"",""3172""
","
","210.5999999642372","","","","","","","","50","0,1,0","6","blank","326","null","0.05689907057592303","0.5895327769667709","0.37546434762028674","1","","","","","","","","",""
"","html-keyboard-response","214","537775","0.0-115.0-1.0","""event"",""trial"",""time""
""fullscreenenter"",""0"",""3172""
""blur"",""162"",""438902""
""focus"",""162"",""440778""
","""event"",""trial"",""time""
""blur"",""162"",""438902""
","""event"",""trial"",""time""
""focus"",""162"",""440778""
","""event"",""trial"",""time""
""fullscreenenter"",""0"",""3172""
","
","null","<p></p>","null","","","","","","","","","","","","","","","","","","","","","","","",""
"","do_recog","215","540626","0.0-116.0-0.0","""event"",""trial"",""time""
""fullscreenenter"",""0"",""3172""
""blur"",""162"",""438902""
""focus"",""162"",""440778""
","""event"",""trial"",""time""
""blur"",""162"",""438902""
","""event"",""trial"",""time""
""focus"",""162"",""440778""
","""event"",""trial"",""time""
""fullscreenenter"",""0"",""3172""
","
","1327.4000000357628","","","","","","","","55","","","","327","probe-137","","","","","1","[object Object]","191","4","0","","","",""
"","html-keyboard-response","216","541640","0.0-116.0-1.0","""event"",""trial"",""time""
""fullscreenenter"",""0"",""3172""
""blur"",""162"",""438902""
""focus"",""162"",""440778""
","""event"",""trial"",""time""
""blur"",""162"",""438902""
","""event"",""trial"",""time""
""focus"",""162"",""440778""
","""event"",""trial"",""time""
""fullscreenenter"",""0"",""3172""
","
","null","<p></p>","null","","","","","","","","","","","","","","","","","","","","","","","",""
"","do_trial","217","544234","0.0-117.0-0.0","""event"",""trial"",""time""
""fullscreenenter"",""0"",""3172""
""blur"",""162"",""438902""
""focus"",""162"",""440778""
","""event"",""trial"",""time""
""blur"",""162"",""438902""
","""event"",""trial"",""time""
""focus"",""162"",""440778""
","""event"",""trial"",""time""
""fullscreenenter"",""0"",""3172""
","
","0.2999999523162842","","","","","","","","50","0,1,0","6","blank","328","null","0.19333551638343285","0.6347466766195301","0.23906466712172808","1","","","","","","","","",""
"","html-keyboard-response","218","545238","0.0-117.0-1.0","""event"",""trial"",""time""
""fullscreenenter"",""0"",""3172""
""blur"",""162"",""438902""
""focus"",""162"",""440778""
","""event"",""trial"",""time""
""blur"",""162"",""438902""
","""event"",""trial"",""time""
""focus"",""162"",""440778""
","""event"",""trial"",""time""
""fullscreenenter"",""0"",""3172""
","
","null","<p></p>","null","","","","","","","","","","","","","","","","","","","","","","","",""
"","do_recog","219","548102","0.0-118.0-0.0","""event"",""trial"",""time""
""fullscreenenter"",""0"",""3172""
""blur"",""162"",""438902""
""focus"",""162"",""440778""
","""event"",""trial"",""time""
""blur"",""162"",""438902""
","""event"",""trial"",""time""
""focus"",""162"",""440778""
","""event"",""trial"",""time""
""fullscreenenter"",""0"",""3172""
","
","1344.0999999642372","","","","","","","","55","","","","329","probe-154","","","","","1","[object Object]","196","4","0","","","",""
"","html-keyboard-response","220","549113","0.0-118.0-1.0","""event"",""trial"",""time""
""fullscreenenter"",""0"",""3172""
""blur"",""162"",""438902""
""focus"",""162"",""440778""
","""event"",""trial"",""time""
""blur"",""162"",""438902""
","""event"",""trial"",""time""
""focus"",""162"",""440778""
","""event"",""trial"",""time""
""fullscreenenter"",""0"",""3172""
","
","null","<p></p>","null","","","","","","","","","","","","","","","","","","","","","","","",""
"","do_trial","221","551825","0.0-119.0-0.0","""event"",""trial"",""time""
""fullscreenenter"",""0"",""3172""
""blur"",""162"",""438902""
""focus"",""162"",""440778""
","""event"",""trial"",""time""
""blur"",""162"",""438902""
","""event"",""trial"",""time""
""focus"",""162"",""440778""
","""event"",""trial"",""time""
""fullscreenenter"",""0"",""3172""
","
","114.89999997615814","","","","","","","","50","1,0,1","6","blank","330","null","0.36387490062066363","0.7546605144103701","0.30453672102920537","0","","","","","","","","",""
"","html-keyboard-response","222","552840","0.0-119.0-1.0","""event"",""trial"",""time""
""fullscreenenter"",""0"",""3172""
""blur"",""162"",""438902""
""focus"",""162"",""440778""
","""event"",""trial"",""time""
""blur"",""162"",""438902""
","""event"",""trial"",""time""
""focus"",""162"",""440778""
","""event"",""trial"",""time""
""fullscreenenter"",""0"",""3172""
","
","null","<p></p>","null","","","","","","","","","","","","","","","","","","","","","","","",""
"","do_recog","223","555830","0.0-120.0-0.0","""event"",""trial"",""time""
""fullscreenenter"",""0"",""3172""
""blur"",""162"",""438902""
""focus"",""162"",""440778""
","""event"",""trial"",""time""
""blur"",""162"",""438902""
","""event"",""trial"",""time""
""focus"",""162"",""440778""
","""event"",""trial"",""time""
""fullscreenenter"",""0"",""3172""
","
","1476.699999988079","","","","","","","","54","","","","331","probe-197","","","","","1","[object Object]","30","0","1","","","",""
"","html-keyboard-response","224","556832","0.0-120.0-1.0","""event"",""trial"",""time""
""fullscreenenter"",""0"",""3172""
""blur"",""162"",""438902""
""focus"",""162"",""440778""
""blur"",""225"",""558943""
","""event"",""trial"",""time""
""blur"",""162"",""438902""
""blur"",""225"",""558943""
","""event"",""trial"",""time""
""focus"",""162"",""440778""
","""event"",""trial"",""time""
""fullscreenenter"",""0"",""3172""
","
","null","<p></p>","null","","","","","","","","","","","","","","","","","","","","","","","",""
"","do_trial","225","560654","0.0-121.0-0.0","""event"",""trial"",""time""
""fullscreenenter"",""0"",""3172""
""blur"",""162"",""438902""
""focus"",""162"",""440778""
""blur"",""225"",""558943""
","""event"",""trial"",""time""
""blur"",""162"",""438902""
""blur"",""225"",""558943""
","""event"",""trial"",""time""
""focus"",""162"",""440778""
","""event"",""trial"",""time""
""fullscreenenter"",""0"",""3172""
","
","470.0999999642372","","","","","","","","50","1,1,1","6","blank","332","null","0.41587247311675934","0.5937694835814912","0.35522900379996847","1","","","","","","","","",""
"","html-keyboard-response","226","562647","0.0-121.0-1.0","""event"",""trial"",""time""
""fullscreenenter"",""0"",""3172""
""blur"",""162"",""438902""
""focus"",""162"",""440778""
""blur"",""225"",""558943""
","""event"",""trial"",""time""
""blur"",""162"",""438902""
""blur"",""225"",""558943""
","""event"",""trial"",""time""
""focus"",""162"",""440778""
","""event"",""trial"",""time""
""fullscreenenter"",""0"",""3172""
","
","null","<p></p>","null","","","","","","","","","","","","","","","","","","","","","","","",""
"","do_recog","227","570653","0.0-122.0-0.0","""event"",""trial"",""time""
""fullscreenenter"",""0"",""3172""
""blur"",""162"",""438902""
""focus"",""162"",""440778""
""blur"",""225"",""558943""
","""event"",""trial"",""time""
""blur"",""162"",""438902""
""blur"",""225"",""558943""
","""event"",""trial"",""time""
""focus"",""162"",""440778""
","""event"",""trial"",""time""
""fullscreenenter"",""0"",""3172""
","
","null","","","","","","","","null","","","","333","probe-42","","","","","1","[object Object]","192","4","0","","","",""
"","html-keyboard-response","228","572645","0.0-122.0-1.0","""event"",""trial"",""time""
""fullscreenenter"",""0"",""3172""
""blur"",""162"",""438902""
""focus"",""162"",""440778""
""blur"",""225"",""558943""
","""event"",""trial"",""time""
""blur"",""162"",""438902""
""blur"",""225"",""558943""
","""event"",""trial"",""time""
""focus"",""162"",""440778""
","""event"",""trial"",""time""
""fullscreenenter"",""0"",""3172""
","
","null","<p></p>","null","","","","","","","","","","","","","","","","","","","","","","","",""
"","do_trial","229","580656","0.0-123.0-0.0","""event"",""trial"",""time""
""fullscreenenter"",""0"",""3172""
""blur"",""162"",""438902""
""focus"",""162"",""440778""
""blur"",""225"",""558943""
","""event"",""trial"",""time""
""blur"",""162"",""438902""
""blur"",""225"",""558943""
","""event"",""trial"",""time""
""focus"",""162"",""440778""
","""event"",""trial"",""time""
""fullscreenenter"",""0"",""3172""
","
","null","","","","","","","","null","0,0,1","6","blank","334","null","0.2653562532772059","0.6164827248213246","0.3204020096717498","","","","","","","","","",""
"","html-keyboard-response","230","582654","0.0-123.0-1.0","""event"",""trial"",""time""
""fullscreenenter"",""0"",""3172""
""blur"",""162"",""438902""
""focus"",""162"",""440778""
""blur"",""225"",""558943""
""focus"",""231"",""586943""
","""event"",""trial"",""time""
""blur"",""162"",""438902""
""blur"",""225"",""558943""
","""event"",""trial"",""time""
""focus"",""162"",""440778""
""focus"",""231"",""586943""
","""event"",""trial"",""time""
""fullscreenenter"",""0"",""3172""
","
","null","<p></p>","null","","","","","","","","","","","","","","","","","","","","","","","",""
"","do_recog","231","589659","0.0-124.0-0.0","""event"",""trial"",""time""
""fullscreenenter"",""0"",""3172""
""blur"",""162"",""438902""
""focus"",""162"",""440778""
""blur"",""225"",""558943""
""focus"",""231"",""586943""
","""event"",""trial"",""time""
""blur"",""162"",""438902""
""blur"",""225"",""558943""
","""event"",""trial"",""time""
""focus"",""162"",""440778""
""focus"",""231"",""586943""
","""event"",""trial"",""time""
""fullscreenenter"",""0"",""3172""
","
","null","","","","","","","","null","","","","335","probe-117","","","","","1","[object Object]","32","0","0","","","",""
"","html-keyboard-response","232","590673","0.0-124.0-1.0","""event"",""trial"",""time""
""fullscreenenter"",""0"",""3172""
""blur"",""162"",""438902""
""focus"",""162"",""440778""
""blur"",""225"",""558943""
""focus"",""231"",""586943""
","""event"",""trial"",""time""
""blur"",""162"",""438902""
""blur"",""225"",""558943""
","""event"",""trial"",""time""
""focus"",""162"",""440778""
""focus"",""231"",""586943""
","""event"",""trial"",""time""
""fullscreenenter"",""0"",""3172""
","
","null","<p></p>","null","","","","","","","","","","","","","","","","","","","","","","","",""
"","do_trial","233","594716","0.0-125.0-0.0","""event"",""trial"",""time""
""fullscreenenter"",""0"",""3172""
""blur"",""162"",""438902""
""focus"",""162"",""440778""
""blur"",""225"",""558943""
""focus"",""231"",""586943""
","""event"",""trial"",""time""
""blur"",""162"",""438902""
""blur"",""225"",""558943""
","""event"",""trial"",""time""
""focus"",""162"",""440778""
""focus"",""231"",""586943""
","""event"",""trial"",""time""
""fullscreenenter"",""0"",""3172""
","
","1449.5","","","","","","","","50","0,0,0","6","blank","336","null","0.28807076619122157","0.6706642532121285","0.3218311008710238","0","","","","","","","","",""
"","html-keyboard-response","234","595734","0.0-125.0-1.0","""event"",""trial"",""time""
""fullscreenenter"",""0"",""3172""
""blur"",""162"",""438902""
""focus"",""162"",""440778""
""blur"",""225"",""558943""
""focus"",""231"",""586943""
","""event"",""trial"",""time""
""blur"",""162"",""438902""
""blur"",""225"",""558943""
","""event"",""trial"",""time""
""focus"",""162"",""440778""
""focus"",""231"",""586943""
","""event"",""trial"",""time""
""fullscreenenter"",""0"",""3172""
","
","null","<p></p>","null","","","","","","","","","","","","","","","","","","","","","","","",""
"","do_trial","235","598539","0.0-126.0-0.0","""event"",""trial"",""time""
""fullscreenenter"",""0"",""3172""
""blur"",""162"",""438902""
""focus"",""162"",""440778""
""blur"",""225"",""558943""
""focus"",""231"",""586943""
","""event"",""trial"",""time""
""blur"",""162"",""438902""
""blur"",""225"",""558943""
","""event"",""trial"",""time""
""focus"",""162"",""440778""
""focus"",""231"",""586943""
","""event"",""trial"",""time""
""fullscreenenter"",""0"",""3172""
","
