"success","trial_type","trial_index","time_elapsed","internal_node_id","interactions","blur_events","focus_events","fullscreenenter_events","fullscreenexit_events","rt","stimulus","key_press","subject_id","participant_id","age","gender","prompt","response","choice_outcomes","context_n","context_img_id","trial_n","probe_img_id","pR_red","pR_white","pR_black","outcome","is_valid","image_to_show","probed_trial","probed_context","correct","probe","probed_trial_n","probed_context_n","context_im"
"true","fullscreen","0","3244","0.0-0.0","""event"",""trial"",""time""
""fullscreenenter"",""0"",""2269""
","
","
","""event"",""trial"",""time""
""fullscreenenter"",""0"",""2269""
","
","","","","","","","","","","","","","","","","","","","","","","","","","","",""
"","pavlovia","1","3256","0.0-1.0","""event"",""trial"",""time""
""fullscreenenter"",""0"",""2269""
","
","
","""event"",""trial"",""time""
""fullscreenenter"",""0"",""2269""
","
","","","","","","","","","","","","","","","","","","","","","","","","","","",""
"","welc_back","2","13302","0.0-2.0","""event"",""trial"",""time""
""fullscreenenter"",""0"",""2269""
","
","
","""event"",""trial"",""time""
""fullscreenenter"",""0"",""2269""
","
","null","run_exp/static/audio/clip_29_welcome_back.m4a","null","440","603","16","Male","<div class='center'><p>Welcome to day 2!</p><p> Yesterday, you were the head captain of a pirate ship. You asked your fellow pirates to rob other ships of their gold across six different islands.</p></div>","","","","","","","","","","","","","","","","","","",""
"","html-keyboard-response","3","35762","0.0-3.0","""event"",""trial"",""time""
""fullscreenenter"",""0"",""2269""
","
","
","""event"",""trial"",""time""
""fullscreenenter"",""0"",""2269""
","
","22455.599999997765","<div class='center'><p>Welcome to day 2!</p><p> Yesterday, you were the head captain of a pirate ship. You asked your fellow pirates to rob other ships of their gold across six different islands.</p><p><b>[Press the space bar to continue]</b></p></div>","32","","","","","","","","","","","","","","","","","","","","","","","",""
"","day_1_summary_goal","4","53154","0.0-4.0","""event"",""trial"",""time""
""fullscreenenter"",""0"",""2269""
","
","
","""event"",""trial"",""time""
""fullscreenenter"",""0"",""2269""
","
","null","run_exp/static/audio/clip_30_goal_of_game.m4a","null","","","","","<div class='center'><p>Today, like yesterday, you get to pick which pirate you want to rob the next ship.</p><p>If the pirate is successful in robbing a ship, you get gold coins that look like this: </p><p><img src='run_exp/static/images/tutorial/reward.png' height='150'></p><p> If they were not successful in robbing the ship, then you will get no gold coins and you'll see a big red x like this: </p><p><img src='run_exp/static/images/tutorial/reward_no.png' height='150'></p></div>","","","","","","","","","","","","","","","","","","",""
"","html-keyboard-response","5","55057","0.0-5.0","""event"",""trial"",""time""
""fullscreenenter"",""0"",""2269""
","
","
","""event"",""trial"",""time""
""fullscreenenter"",""0"",""2269""
","
","1893.8999999985099","<div class='center'><p>Today, like yesterday, you get to pick which pirate you want to rob the next ship.</p><p>If the pirate is successful in robbing a ship, you get gold coins that look like this: </p><p><img src='run_exp/static/images/tutorial/reward.png' height='150'></p><p> If they were not successful in robbing the ship, then you will get no gold coins and you'll see a big red x like this: </p><p><img src='run_exp/static/images/tutorial/reward_no.png' height='150'></p><p><b>[Press the space bar to continue]</b></p></div>","32","","","","","","","","","","","","","","","","","","","","","","","",""
"","day_1_summary_pick","6","69965","0.0-6.0","""event"",""trial"",""time""
""fullscreenenter"",""0"",""2269""
","
","
","""event"",""trial"",""time""
""fullscreenenter"",""0"",""2269""
","
","null","run_exp/static/audio/clip_31_how_to_pick_a_pirate.m4a","null","","","","","<div class='center'><p>Also, just like yesterday, you will use the 1,2,3 keys on your keyboard to pick a pirate. Press '1' to choose red beard, '2' to choose white beard, and '3' to choose black beard . You only have 3 seconds to pick a pirate, so please make a choice quickly!</p></div>","","","","","","","","","","","","","","","","","","",""
"","html-keyboard-response","7","76543","0.0-7.0","""event"",""trial"",""time""
""fullscreenenter"",""0"",""2269""
","
","
","""event"",""trial"",""time""
""fullscreenenter"",""0"",""2269""
","
","6574.800000000745","<div class='center'><p>Also, just like yesterday, you will use the 1,2,3 keys on your keyboard to pick a pirate. Press '1' to choose red beard, '2' to choose white beard, and '3' to choose black beard . You only have 3 seconds to pick a pirate, so please make a choice quickly!</p><p><b>[Press the space bar to continue]</b></p></div>","32","","","","","","","","","","","","","","","","","","","","","","","",""
"","test_phase_begin","8","107209","0.0-8.0","""event"",""trial"",""time""
""fullscreenenter"",""0"",""2269""
","
","
","""event"",""trial"",""time""
""fullscreenenter"",""0"",""2269""
","
","null","run_exp/static/audio/clip_32_final_place.m4a","null","","","","","<div class='center'><p>You’ve arrived at the final island of your journey! Unfortunately, it’s very foggy out, so you won’t be able to see it in the distance like the other islands you've visited.</p><p>You’ll still be deciding which pirate you want to rob a ship like before. However, because of the fog, you also won’t be able to see the ship.</p><p>This means you do not have to remember the ships you rob on this island.</p><p>Unlike yesterday, you won't be visiting multiple islands today. You will stay on this island for the entire game. This game will last ~30 minutes.</p></div>","","","","","","","","","","","","","","","","","","",""
"","html-keyboard-response","9","112618","0.0-9.0","""event"",""trial"",""time""
""fullscreenenter"",""0"",""2269""
","
","
","""event"",""trial"",""time""
""fullscreenenter"",""0"",""2269""
","
","5401.10000000149","<div class='center'><p>You’ve arrived at the final island of your journey! Unfortunately, it’s very foggy out, so you won’t be able to see it in the distance like the other islands you've visited.</p><p>You’ll still be deciding which pirate you want to rob a ship like before. However, because of the fog, you also won’t be able to see the ship.</p><p>This means you do not have to remember the ships you rob on this island.</p><p>Unlike yesterday, you won't be visiting multiple islands today. You will stay on this island for the entire game. This game will last ~30 minutes.</p><p><b>[Press the space bar to continue]</b></p></div>","32","","","","","","","","","","","","","","","","","","","","","","","",""
"","explain_probe_1","10","120584","0.0-10.0","""event"",""trial"",""time""
""fullscreenenter"",""0"",""2269""
","
","
","""event"",""trial"",""time""
""fullscreenenter"",""0"",""2269""
","
","null","run_exp/static/audio/clip_33_recognition_1.m4a","null","","","","","<div class='center'><p> Sometimes you’ll be shown a ship, and you will be asked if you saw this ship on a past island.</p><p> Here is an example of what you will see.</p><p><img src='run_exp/static/images/tutorial/example_recog_trial.png' height='500'></p></div>","","","","","","","","","","","","","","","","","","",""
"","html-keyboard-response","11","121697","0.0-11.0","""event"",""trial"",""time""
""fullscreenenter"",""0"",""2269""
","
","
","""event"",""trial"",""time""
""fullscreenenter"",""0"",""2269""
","
","1106.6000000014901","<div class='center'><p> Sometimes you’ll be shown a ship, and you will be asked if you saw this ship on a past island.</p><p> Here is an example of what you will see.</p><p><img src='run_exp/static/images/tutorial/example_recog_trial.png' height='500'></p><p><b>[Press the space bar to continue]</b></p></div>","32","","","","","","","","","","","","","","","","","","","","","","","",""
"","explain_probe_2","12","143619","0.0-12.0","""event"",""trial"",""time""
""fullscreenenter"",""0"",""2269""
","
","
","""event"",""trial"",""time""
""fullscreenenter"",""0"",""2269""
","
","null","run_exp/static/audio/clip_34_recognition_2.m4a","null","","","","","<div class='center'><p> You will press the 5, 6, 7, 8 keys on your keyboard to respond.</p><p>If you are sure you saw the ship, press <b>5</b> on your keyboard.</p><p> If you think you saw it before but aren't sure, then press <b>6</b>.</p><p> If you think you have <b>not</b> seen it before but aren't sure, then press <b>7</b>.</p><p> If you are sure you did <b>not</b> see the ship before, then press <b>8</b>.</p><p><img src='run_exp/static/images/tutorial/example_recog_trial.png' height='500'></p></div>","","","","","","","","","","","","","","","","","","",""
"","html-keyboard-response","13","144847","0.0-13.0","""event"",""trial"",""time""
""fullscreenenter"",""0"",""2269""
","
","
","""event"",""trial"",""time""
""fullscreenenter"",""0"",""2269""
","
","1224.4000000022352","<div class='center'><p> You will press the 5, 6, 7, 8 keys on your keyboard to respond.</p><p>If you are sure you saw the ship, press <b>5</b> on your keyboard.</p><p> If you think you saw it before but aren't sure, then press <b>6</b>.</p><p> If you think you have <b>not</b> seen it before but aren't sure, then press <b>7</b>.</p><p> If you are sure you did <b>not</b> see the ship before, then press <b>8</b>.</p><p><img src='run_exp/static/images/tutorial/example_recog_trial.png' height='500'></p><p><b>[Press the space bar to continue]</b></p></div>","32","","","","","","","","","","","","","","","","","","","","","","","",""
"","explain_outcome","14","162287","0.0-14.0","""event"",""trial"",""time""
""fullscreenenter"",""0"",""2269""
","
","
","""event"",""trial"",""time""
""fullscreenenter"",""0"",""2269""
","
","null","run_exp/static/audio/clip_35_recognition_3.m4a","null","","","","","<div class='center'><p> If you remember correctly, then you’ll get a gold coin like this: </p><p><img src='run_exp/static/images/tutorial/reward_small.png' height='200'></p><p>If you do not remember correctly, then you'll see a red x like this: </p><p><img src='run_exp/static/images/tutorial/reward_no.png' height='200'></p><p>Importantly, when you are shown a ship, take the time to remind yourself which island you saw it on. This will help you in the next part of the study.</p></div>","","","","","","","","","","","","","","","","","","",""
"","html-keyboard-response","15","168877","0.0-15.0","""event"",""trial"",""time""
""fullscreenenter"",""0"",""2269""
","
","
","""event"",""trial"",""time""
""fullscreenenter"",""0"",""2269""
","
","6581","<div class='center'><p> If you remember correctly, then you’ll get a gold coin like this: </p><p><img src='run_exp/static/images/tutorial/reward_small.png' height='200'></p><p>If you do not remember correctly, then you'll see a red x like this: </p><p><img src='run_exp/static/images/tutorial/reward_no.png' height='200'></p><p>Importantly, when you are shown a ship, take the time to remind yourself which island you saw it on. This will help you in the next part of the study.</p><p><b>[Press the space bar to continue]</b></p></div>","32","","","","","","","","","","","","","","","","","","","","","","","",""
"","begin_test_phase","16","184950","0.0-16.0","""event"",""trial"",""time""
""fullscreenenter"",""0"",""2269""
","
","
","""event"",""trial"",""time""
""fullscreenenter"",""0"",""2269""
","
","null","run_exp/static/audio/clip_36_begin_final.m4a","null","","","","","<div class='center'><p>Let's go over the important points again. Your job is to: </p><p>1. Pick the pirate who is best at robbing ships and will bring you back gold coins. </p><p>2. Correctly remember whether or not you saw a ship before. If you did see the ship before, remind yourself on which island you saw it. </p></div>","","","","","","","","","","","","","","","","","","",""
"","html-keyboard-response","17","185726","0.0-17.0","""event"",""trial"",""time""
""fullscreenenter"",""0"",""2269""
","
","
","""event"",""trial"",""time""
""fullscreenenter"",""0"",""2269""
","
","633.8999999985099","<div class='center'><p>Let's go over the important points again. Your job is to: </p><p>1. Pick the pirate who is best at robbing ships and will bring you back gold coins. </p><p>2. Correctly remember whether or not you saw a ship before. If you did see the ship before, remind yourself on which island you saw it. </p><p><b>[Press the space bar to continue]</b></p></div>","32","","","","","","","","","","","","","","","","","","","","","","","",""
"","do_welcome","18","189748","0.0-18.0","""event"",""trial"",""time""
""fullscreenenter"",""0"",""2269""
","
","
","""event"",""trial"",""time""
""fullscreenenter"",""0"",""2269""
","
","null","","","","","","","","null","","","","","","","","","","","","","","","","","",""
"","do_trial","19","193805","0.0-19.0-0.0","""event"",""trial"",""time""
""fullscreenenter"",""0"",""2269""
","
","
","""event"",""trial"",""time""
""fullscreenenter"",""0"",""2269""
","
","1436.5","","","","","","","","49","0,0,0","6","blank","230","null","0.5875374966887223","0.1246776371211785","0.2738373083637088","0","","","","","","","","",""
"","html-keyboard-response","20","194813","0.0-19.0-1.0","""event"",""trial"",""time""
""fullscreenenter"",""0"",""2269""
","
","
","""event"",""trial"",""time""
""fullscreenenter"",""0"",""2269""
","
","null","<p></p>","null","","","","","","","","","","","","","","","","","","","","","","","",""
"","do_trial","21","198438","0.0-20.0-0.0","""event"",""trial"",""time""
""fullscreenenter"",""0"",""2269""
","
","
","""event"",""trial"",""time""
""fullscreenenter"",""0"",""2269""
","
","1023.8000000007451","","","","","","","","49","0,0,0","6","blank","231","null","0.5338552481066884","0.13764244979454213","0.19974927596947553","0","","","","","","","","",""
"","html-keyboard-response","22","199443","0.0-20.0-1.0","""event"",""trial"",""time""
""fullscreenenter"",""0"",""2269""
","
","
","""event"",""trial"",""time""
""fullscreenenter"",""0"",""2269""
","
","null","<p></p>","null","","","","","","","","","","","","","","","","","","","","","","","",""
"","do_trial","23","202392","0.0-21.0-0.0","""event"",""trial"",""time""
""fullscreenenter"",""0"",""2269""
","
","
","""event"",""trial"",""time""
""fullscreenenter"",""0"",""2269""
","
","331.4000000022352","","","","","","","","50","1,0,0","6","blank","232","null","0.6464143662948031","0.18716915008820728","0.08324065178919403","0","","","","","","","","",""
"","html-keyboard-response","24","203397","0.0-21.0-1.0","""event"",""trial"",""time""
""fullscreenenter"",""0"",""2269""
","
","
","""event"",""trial"",""time""
""fullscreenenter"",""0"",""2269""
","
","null","<p></p>","null","","","","","","","","","","","","","","","","","","","","","","","",""
"","do_trial","25","207205","0.0-22.0-0.0","""event"",""trial"",""time""
""fullscreenenter"",""0"",""2269""
","
","
","""event"",""trial"",""time""
""fullscreenenter"",""0"",""2269""
","
","1191.1000000014901","","","","","","","","51","1,0,0","6","blank","233","null","0.6450745117985883","0.2322995249266763","0.07928531781599894","0","","","","","","","","",""
"","html-keyboard-response","26","208210","0.0-22.0-1.0","""event"",""trial"",""time""
""fullscreenenter"",""0"",""2269""
","
","
","""event"",""trial"",""time""
""fullscreenenter"",""0"",""2269""
","
","null","<p></p>","null","","","","","","","","","","","","","","","","","","","","","","","",""
"","do_trial","27","211238","0.0-23.0-0.0","""event"",""trial"",""time""
""fullscreenenter"",""0"",""2269""
","
","
","""event"",""trial"",""time""
""fullscreenenter"",""0"",""2269""
","
","414.5","","","","","","","","49","0,0,0","6","blank","234","null","0.6574292933993989","0.29888956068680106","0.33658359643530616","0","","","","","","","","",""
"","html-keyboard-response","28","212243","0.0-23.0-1.0","""event"",""trial"",""time""
""fullscreenenter"",""0"",""2269""
","
","
","""event"",""trial"",""time""
""fullscreenenter"",""0"",""2269""
","
","null","<p></p>","null","","","","","","","","","","","","","","","","","","","","","","","",""
"","do_trial","29","215037","0.0-24.0-0.0","""event"",""trial"",""time""
""fullscreenenter"",""0"",""2269""
","
","
","""event"",""trial"",""time""
""fullscreenenter"",""0"",""2269""
","
","178.89999999850988","","","","","","","","50","1,0,1","6","blank","235","null","0.6137147731668937","0.28747967670068747","0.31592052507231366","0","","","","","","","","",""
"","html-keyboard-response","30","216042","0.0-24.0-1.0","""event"",""trial"",""time""
""fullscreenenter"",""0"",""2269""
","
","
","""event"",""trial"",""time""
""fullscreenenter"",""0"",""2269""
","
","null","<p></p>","null","","","","","","","","","","","","","","","","","","","","","","","",""
"","do_trial","31","218789","0.0-25.0-0.0","""event"",""trial"",""time""
""fullscreenenter"",""0"",""2269""
","
","
","""event"",""trial"",""time""
""fullscreenenter"",""0"",""2269""
","
","132.5","","","","","","","","51","1,0,1","6","blank","236","null","0.5251880199897786","0.23701598671962917","0.27528409020180516","1","","","","","","","","",""
"","html-keyboard-response","32","219794","0.0-25.0-1.0","""event"",""trial"",""time""
""fullscreenenter"",""0"",""2269""
","
","
","""event"",""trial"",""time""
""fullscreenenter"",""0"",""2269""
","
","null","<p></p>","null","","","","","","","","","","","","","","","","","","","","","","","",""
"","do_trial","33","222413","0.0-26.0-0.0","""event"",""trial"",""time""
""fullscreenenter"",""0"",""2269""
","
","
","""event"",""trial"",""time""
""fullscreenenter"",""0"",""2269""
","
","0.4000000022351742","","","","","","","","51","1,0,0","6","blank","237","null","0.6257115115060331","0.09121343673306846","0.36005035977250044","0","","","","","","","","",""
"","html-keyboard-response","34","223418","0.0-26.0-1.0","""event"",""trial"",""time""
""fullscreenenter"",""0"",""2269""
","
","
","""event"",""trial"",""time""
""fullscreenenter"",""0"",""2269""
","
","null","<p></p>","null","","","","","","","","","","","","","","","","","","","","","","","",""
"","do_trial","35","226308","0.0-27.0-0.0","""event"",""trial"",""time""
""fullscreenenter"",""0"",""2269""
","
","
","""event"",""trial"",""time""
""fullscreenenter"",""0"",""2269""
","
","272.5999999977648","","","","","","","","51","0,0,0","6","blank","238","null","0.5414276787928246","0.15671642506075098","0.32610329298845286","0","","","","","","","","",""
"","html-keyboard-response","36","227313","0.0-27.0-1.0","""event"",""trial"",""time""
""fullscreenenter"",""0"",""2269""
","
","
","""event"",""trial"",""time""
""fullscreenenter"",""0"",""2269""
","
","null","<p></p>","null","","","","","","","","","","","","","","","","","","","","","","","",""
"","do_trial","37","230224","0.0-28.0-0.0","""event"",""trial"",""time""
""fullscreenenter"",""0"",""2269""
","
","
","""event"",""trial"",""time""
""fullscreenenter"",""0"",""2269""
","
","292.30000000074506","","","","","","","","50","0,0,0","6","blank","239","null","0.578530568867221","0.09592317824567971","0.2659075336427007","0","","","","","","","","",""
"","html-keyboard-response","38","231229","0.0-28.0-1.0","""event"",""trial"",""time""
""fullscreenenter"",""0"",""2269""
","
","
","""event"",""trial"",""time""
""fullscreenenter"",""0"",""2269""
","
","null","<p></p>","null","","","","","","","","","","","","","","","","","","","","","","","",""
"","do_trial","39","233995","0.0-29.0-0.0","""event"",""trial"",""time""
""fullscreenenter"",""0"",""2269""
","
","
","""event"",""trial"",""time""
""fullscreenenter"",""0"",""2269""
","
","144","","","","","","","","49","1,0,0","6","blank","240","null","0.6458493711144115","0.12125756630982122","0.37200966695632964","1","","","","","","","","",""
"","html-keyboard-response","40","234999","0.0-29.0-1.0","""event"",""trial"",""time""
""fullscreenenter"",""0"",""2269""
","
","
","""event"",""trial"",""time""
""fullscreenenter"",""0"",""2269""
","
","null","<p></p>","null","","","","","","","","","","","","","","","","","","","","","","","",""
"","do_trial","41","237670","0.0-30.0-0.0","""event"",""trial"",""time""
""fullscreenenter"",""0"",""2269""
","
","
","""event"",""trial"",""time""
""fullscreenenter"",""0"",""2269""
","
","51.399999998509884","","","","","","","","49","1,1,0","6","blank","241","null","0.5879195066037446","0.12396670642515496","0.3151867974056274","1","","","","","","","","",""
"","html-keyboard-response","42","238674","0.0-30.0-1.0","""event"",""trial"",""time""
""fullscreenenter"",""0"",""2269""
","
","
","""event"",""trial"",""time""
""fullscreenenter"",""0"",""2269""
","
","null","<p></p>","null","","","","","","","","","","","","","","","","","","","","","","","",""
"","do_trial","43","241352","0.0-31.0-0.0","""event"",""trial"",""time""
""fullscreenenter"",""0"",""2269""
","
","
","""event"",""trial"",""time""
""fullscreenenter"",""0"",""2269""
","
","61","","","","","","","","49","1,0,0","6","blank","242","null","0.4503447741496614","0.35637497130860396","0.34770212096506453","1","","","","","","","","",""
"","html-keyboard-response","44","242369","0.0-31.0-1.0","""event"",""trial"",""time""
""fullscreenenter"",""0"",""2269""
","
","
","""event"",""trial"",""time""
""fullscreenenter"",""0"",""2269""
","
","null","<p></p>","null","","","","","","","","","","","","","","","","","","","","","","","",""
"","do_recog","45","248389","0.0-32.0-0.0","""event"",""trial"",""time""
""fullscreenenter"",""0"",""2269""
","
","
","""event"",""trial"",""time""
""fullscreenenter"",""0"",""2269""
","
","null","","","","","","","","null","","","","243","probe-224","","","","","1","[object Object]","199","4","0","","","",""
"","html-keyboard-response","46","249394","0.0-32.0-1.0","""event"",""trial"",""time""
""fullscreenenter"",""0"",""2269""
","
","
","""event"",""trial"",""time""
""fullscreenenter"",""0"",""2269""
","
","null","<p></p>","null","","","","","","","","","","","","","","","","","","","","","","","",""
"","do_trial","47","252728","0.0-33.0-0.0","""event"",""trial"",""time""
""fullscreenenter"",""0"",""2269""
","
","
","""event"",""trial"",""time""
""fullscreenenter"",""0"",""2269""
","
","713.8000000007451","","","","","","","","49","0,0,0","6","blank","244","null","0.28740566961553954","0.4006811623063139","0.238142142420119","0","","","","","","","","",""
"","html-keyboard-response","48","253733","0.0-33.0-1.0","""event"",""trial"",""time""
""fullscreenenter"",""0"",""2269""
","
","
","""event"",""trial"",""time""
""fullscreenenter"",""0"",""2269""
","
","null","<p></p>","null","","","","","","","","","","","","","","","","","","","","","","","",""
"","do_recog","49","257500","0.0-34.0-0.0","""event"",""trial"",""time""
""fullscreenenter"",""0"",""2269""
","
","
","""event"",""trial"",""time""
""fullscreenenter"",""0"",""2269""
","
","2246.89999999851","","","","","","","","54","","","","245","probe-47","","","","","1","[object Object]","197","4","1","","","",""
"","html-keyboard-response","50","258504","0.0-34.0-1.0","""event"",""trial"",""time""
""fullscreenenter"",""0"",""2269""
","
","
","""event"",""trial"",""time""
""fullscreenenter"",""0"",""2269""
","
","null","<p></p>","null","","","","","","","","","","","","","","","","","","","","","","","",""
"","do_trial","51","261982","0.0-35.0-0.0","""event"",""trial"",""time""
""fullscreenenter"",""0"",""2269""
","
","
","""event"",""trial"",""time""
""fullscreenenter"",""0"",""2269""
","
","863.3999999985099","","","","","","","","50","1,1,0","6","blank","246","null","0.3416725816066202","0.39370581285109824","0.34383178693508293","1","","","","","","","","",""
"","html-keyboard-response","52","262987","0.0-35.0-1.0","""event"",""trial"",""time""
""fullscreenenter"",""0"",""2269""
","
","
","""event"",""trial"",""time""
""fullscreenenter"",""0"",""2269""
","
","null","<p></p>","null","","","","","","","","","","","","","","","","","","","","","","","",""
"","do_recog","53","266537","0.0-36.0-0.0","""event"",""trial"",""time""
""fullscreenenter"",""0"",""2269""
","
","
","""event"",""trial"",""time""
""fullscreenenter"",""0"",""2269""
","
","2032.6000000014901","","","","","","","","53","","","","247","probe-76","","","","","1","[object Object]","72","1","1","","","",""
"","html-keyboard-response","54","267542","0.0-36.0-1.0","""event"",""trial"",""time""
""fullscreenenter"",""0"",""2269""
","
","
","""event"",""trial"",""time""
""fullscreenenter"",""0"",""2269""
","
","null","<p></p>","null","","","","","","","","","","","","","","","","","","","","","","","",""
"","do_trial","55","271476","0.0-37.0-0.0","""event"",""trial"",""time""
""fullscreenenter"",""0"",""2269""
","
","
","""event"",""trial"",""time""
""fullscreenenter"",""0"",""2269""
","
","1320","","","","","","","","51","0,0,0","6","blank","248","null","0.3387036187809186","0.43976015496979404","0.1211990878217474","0","","","","","","","","",""
"","html-keyboard-response","56","272481","0.0-37.0-1.0","""event"",""trial"",""time""
""fullscreenenter"",""0"",""2269""
","
","
","""event"",""trial"",""time""
""fullscreenenter"",""0"",""2269""
","
","null","<p></p>","null","","","","","","","","","","","","","","","","","","","","","","","",""
"","do_trial","57","275614","0.0-38.0-0.0","""event"",""trial"",""time""
""fullscreenenter"",""0"",""2269""
","
","
","""event"",""trial"",""time""
""fullscreenenter"",""0"",""2269""
","
","513.8999999985099","","","","","","","","49","1,0,1","6","blank","249","null","0.16091977429490315","0.3642545341252301","0.16871472404952836","1","","","","","","","","",""
"","html-keyboard-response","58","276620","0.0-38.0-1.0","""event"",""trial"",""time""
""fullscreenenter"",""0"",""2269""
","
","
","""event"",""trial"",""time""
""fullscreenenter"",""0"",""2269""
","
","null","<p></p>","null","","","","","","","","","","","","","","","","","","","","","","","",""
"","do_trial","59","279728","0.0-39.0-0.0","""event"",""trial"",""time""
""fullscreenenter"",""0"",""2269""
","
","
","""event"",""trial"",""time""
""fullscreenenter"",""0"",""2269""
","
","489.19999999925494","","","","","","","","49","1,1,1","6","blank","250","null","0.2753531562513822","0.40815368663594925","0.14895232303234815","1","","","","","","","","",""
"","html-keyboard-response","60","280736","0.0-39.0-1.0","""event"",""trial"",""time""
""fullscreenenter"",""0"",""2269""
","
","
","""event"",""trial"",""time""
""fullscreenenter"",""0"",""2269""
","
","null","<p></p>","null","","","","","","","","","","","","","","","","","","","","","","","",""
"","do_trial","61","283850","0.0-40.0-0.0","""event"",""trial"",""time""
""fullscreenenter"",""0"",""2269""
","
","
","""event"",""trial"",""time""
""fullscreenenter"",""0"",""2269""
","
","500.3999999985099","","","","","","","","49","0,0,0","6","blank","251","null","0.2618507083344877","0.45898624485523165","0.1624837895075978","0","","","","","","","","",""
"","html-keyboard-response","62","284855","0.0-40.0-1.0","""event"",""trial"",""time""
""fullscreenenter"",""0"",""2269""
","
","
","""event"",""trial"",""time""
""fullscreenenter"",""0"",""2269""
","
","null","<p></p>","null","","","","","","","","","","","","","","","","","","","","","","","",""
"","do_trial","63","287475","0.0-41.0-0.0","""event"",""trial"",""time""
""fullscreenenter"",""0"",""2269""
","
","
","""event"",""trial"",""time""
""fullscreenenter"",""0"",""2269""
","
","0.3999999985098839","","","","","","","","49","0,0,0","6","blank","252","null","0.18087537303413181","0.53783190063908","0.19944922452607164","0","","","","","","","","",""
"","html-keyboard-response","64","288479","0.0-41.0-1.0","""event"",""trial"",""time""
""fullscreenenter"",""0"",""2269""
","
","
","""event"",""trial"",""time""
""fullscreenenter"",""0"",""2269""
","
","null","<p></p>","null","","","","","","","","","","","","","","","","","","","","","","","",""
"","do_recog","65","292009","0.0-42.0-0.0","""event"",""trial"",""time""
""fullscreenenter"",""0"",""2269""
","
","
","""event"",""trial"",""time""
""fullscreenenter"",""0"",""2269""
","
","2011.4000000022352","","","","","","","","53","","","","253","probe-195","","","","","1","[object Object]","38","0","1","","","",""
"","html-keyboard-response","66","293013","0.0-42.0-1.0","""event"",""trial"",""time""
""fullscreenenter"",""0"",""2269""
","
","
","""event"",""trial"",""time""
""fullscreenenter"",""0"",""2269""
","
","null","<p></p>","null","","","","","","","","","","","","","","","","","","","","","","","",""
"","do_trial","67","296587","0.0-43.0-0.0","""event"",""trial"",""time""
""fullscreenenter"",""0"",""2269""
","
","
","""event"",""trial"",""time""
""fullscreenenter"",""0"",""2269""
","
","954.6999999992549","","","","","","","","49","1,0,0","6","blank","254","null","0.06056173768115338","0.512378635157887","0.2522285825374996","1","","","","","","","","",""
"","html-keyboard-response","68","297591","0.0-43.0-1.0","""event"",""trial"",""time""
""fullscreenenter"",""0"",""2269""
","
","
","""event"",""trial"",""time""
""fullscreenenter"",""0"",""2269""
","
","null","<p></p>","null","","","","","","","","","","","","","","","","","","","","","","","",""
"","do_trial","69","300962","0.0-44.0-0.0","""event"",""trial"",""time""
""fullscreenenter"",""0"",""2269""
","
","
","""event"",""trial"",""time""
""fullscreenenter"",""0"",""2269""
","
","754","","","","","","","","49","0,0,0","6","blank","255","null","0.16190310933411592","0.422283083157966","0.31866060419573494","0","","","","","","","","",""
"","html-keyboard-response","70","301967","0.0-44.0-1.0","""event"",""trial"",""time""
""fullscreenenter"",""0"",""2269""
","
","
","""event"",""trial"",""time""
""fullscreenenter"",""0"",""2269""
","
","null","<p></p>","null","","","","","","","","","","","","","","","","","","","","","","","",""
"","do_trial","71","305190","0.0-45.0-0.0","""event"",""trial"",""time""
""fullscreenenter"",""0"",""2269""
","
","
","""event"",""trial"",""time""
""fullscreenenter"",""0"",""2269""
","
","604.6000000014901","","","","","","","","49","0,1,0","6","blank","256","null","0.13210574225716523","0.464437834260628","0.31518574416370926","0","","","","","","","","",""
"","html-keyboard-response","72","306194","0.0-45.0-1.0","""event"",""trial"",""time""
""fullscreenenter"",""0"",""2269""
","
","
","""event"",""trial"",""time""
""fullscreenenter"",""0"",""2269""
","
","null","<p></p>","null","","","","","","","","","","","","","","","","","","","","","","","",""
"","do_recog","73","308998","0.0-46.0-0.0","""event"",""trial"",""time""
""fullscreenenter"",""0"",""2269""
","
","
","""event"",""trial"",""time""
""fullscreenenter"",""0"",""2269""
","
","1285.699999999255","","","","","","","","53","","","","257","probe-102","","","","","1","[object Object]","150","3","1","","","",""
"","html-keyboard-response","74","310002","0.0-46.0-1.0","""event"",""trial"",""time""
""fullscreenenter"",""0"",""2269""
","
","
","""event"",""trial"",""time""
""fullscreenenter"",""0"",""2269""
","
","null","<p></p>","null","","","","","","","","","","","","","","","","","","","","","","","",""
"","do_trial","75","313026","0.0-47.0-0.0","""event"",""trial"",""time""
""fullscreenenter"",""0"",""2269""
","
","
","""event"",""trial"",""time""
""fullscreenenter"",""0"",""2269""
","
","400.30000000074506","","","","","","","","50","0,0,1","6","blank","258","null","0.05493623528685382","0.5249397682104296","0.34522529411784136","0","","","","","","","","",""
"","html-keyboard-response","76","314033","0.0-47.0-1.0","""event"",""trial"",""time""
""fullscreenenter"",""0"",""2269""
","
","
","""event"",""trial"",""time""
""fullscreenenter"",""0"",""2269""
","
","null","<p></p>","null","","","","","","","","","","","","","","","","","","","","","","","",""
"","do_trial","77","316909","0.0-48.0-0.0","""event"",""trial"",""time""
""fullscreenenter"",""0"",""2269""
","
","
","""event"",""trial"",""time""
""fullscreenenter"",""0"",""2269""
","
","257.1000000014901","","","","","","","","51","0,0,1","6","blank","259","null","0.14647501946892832","0.5436999968527713","0.2981349578433681","1","","","","","","","","",""
"","html-keyboard-response","78","317913","0.0-48.0-1.0","""event"",""trial"",""time""
""fullscreenenter"",""0"",""2269""
","
","
","""event"",""trial"",""time""
""fullscreenenter"",""0"",""2269""
","
","null","<p></p>","null","","","","","","","","","","","","","","","","","","","","","","","",""
"","do_trial","79","320988","0.0-49.0-0.0","""event"",""trial"",""time""
""fullscreenenter"",""0"",""2269""
","
","
","""event"",""trial"",""time""
""fullscreenenter"",""0"",""2269""
","
","456","","","","","","","","51","1,0,0","6","blank","260","null","0.2022632050647728","0.576617001888268","0.21270628371561479","0","","","","","","","","",""
"","html-keyboard-response","80","321993","0.0-49.0-1.0","""event"",""trial"",""time""
""fullscreenenter"",""0"",""2269""
","
","
","""event"",""trial"",""time""
""fullscreenenter"",""0"",""2269""
","
","null","<p></p>","null","","","","","","","","","","","","","","","","","","","","","","","",""
"","do_trial","81","325087","0.0-50.0-0.0","""event"",""trial"",""time""
""fullscreenenter"",""0"",""2269""
","
","
","""event"",""trial"",""time""
""fullscreenenter"",""0"",""2269""
","
","476.70000000298023","","","","","","","","51","1,0,0","6","blank","261","null","0.14481760857868328","0.5478337308525204","0.2883605235824565","0","","","","","","","","",""
"","html-keyboard-response","82","326091","0.0-50.0-1.0","""event"",""trial"",""time""
""fullscreenenter"",""0"",""2269""
","
","
","""event"",""trial"",""time""
""fullscreenenter"",""0"",""2269""
","
","null","<p></p>","null","","","","","","","","","","","","","","","","","","","","","","","",""
"","do_trial","83","328879","0.0-51.0-0.0","""event"",""trial"",""time""
""fullscreenenter"",""0"",""2269""
","
","
","""event"",""trial"",""time""
""fullscreenenter"",""0"",""2269""
","
","167.69999999925494","","","","","","","","49","0,0,0","6","blank","262","null","0.16449406423679336","0.6761911283382875","0.2676010178933558","0","","","","","","","","",""
"","html-keyboard-response","84","329884","0.0-51.0-1.0","""event"",""trial"",""time""
""fullscreenenter"",""0"",""2269""
","
","
","""event"",""trial"",""time""
""fullscreenenter"",""0"",""2269""
","
","null","<p></p>","null","","","","","","","","","","","","","","","","","","","","","","","",""
"","do_trial","85","332984","0.0-52.0-0.0","""event"",""trial"",""time""
""fullscreenenter"",""0"",""2269""
","
","
","""event"",""trial"",""time""
""fullscreenenter"",""0"",""2269""
","
","481.9000000022352","","","","","","","","50","1,1,0","6","blank","263","null","0.3670425589049945","0.6143291476550325","0.3332280631856602","1","","","","","","","","",""
"","html-keyboard-response","86","333988","0.0-52.0-1.0","""event"",""trial"",""time""
""fullscreenenter"",""0"",""2269""
","
","
","""event"",""trial"",""time""
""fullscreenenter"",""0"",""2269""
","
","null","<p></p>","null","","","","","","","","","","","","","","","","","","","","","","","",""
"","do_recog","87","336867","0.0-53.0-0.0","""event"",""trial"",""time""
""fullscreenenter"",""0"",""2269""
","
","
","""event"",""trial"",""time""
""fullscreenenter"",""0"",""2269""
","
","1361","","","","","","","","53","","","","264","probe-57","","","","","1","[object Object]","70","1","1","","","",""
"","html-keyboard-response","88","337871","0.0-53.0-1.0","""event"",""trial"",""time""
""fullscreenenter"",""0"",""2269""
","
","
","""event"",""trial"",""time""
""fullscreenenter"",""0"",""2269""
","
","null","<p></p>","null","","","","","","","","","","","","","","","","","","","","","","","",""
"","do_trial","89","341035","0.0-54.0-0.0","""event"",""trial"",""time""
""fullscreenenter"",""0"",""2269""
","
","
","""event"",""trial"",""time""
""fullscreenenter"",""0"",""2269""
","
","544.6000000014901","","","","","","","","50","0,1,0","6","blank","265","null","0.36507261115659717","0.5182013859409607","0.3772303399490691","1","","","","","","","","",""
"","html-keyboard-response","90","342040","0.0-54.0-1.0","""event"",""trial"",""time""
""fullscreenenter"",""0"",""2269""
","
","
","""event"",""trial"",""time""
""fullscreenenter"",""0"",""2269""
","
","null","<p></p>","null","","","","","","","","","","","","","","","","","","","","","","","",""
"","do_trial","91","345356","0.0-55.0-0.0","""event"",""trial"",""time""
""fullscreenenter"",""0"",""2269""
","
","
","""event"",""trial"",""time""
""fullscreenenter"",""0"",""2269""
","
","695.0999999977648","","","","","","","","50","0,0,0","6","blank","266","null","0.20873040362640816","0.716918533706639","0.13820698874890788","0","","","","","","","","",""
"","html-keyboard-response","92","346362","0.0-55.0-1.0","""event"",""trial"",""time""
""fullscreenenter"",""0"",""2269""
","
","
","""event"",""trial"",""time""
""fullscreenenter"",""0"",""2269""
","
","null","<p></p>","null","","","","","","","","","","","","","","","","","","","","","","","",""
"","do_trial","93","349397","0.0-56.0-0.0","""event"",""trial"",""time""
""fullscreenenter"",""0"",""2269""
","
","
","""event"",""trial"",""time""
""fullscreenenter"",""0"",""2269""
","
","412.6000000014901","","","","","","","","50","0,1,0","6","blank","267","null","0.28659460378336704","0.5488364866203624","0.25887019702107733","1","","","","","","","","",""
"","html-keyboard-response","94","350401","0.0-56.0-1.0","""event"",""trial"",""time""
""fullscreenenter"",""0"",""2269""
","
","
","""event"",""trial"",""time""
""fullscreenenter"",""0"",""2269""
","
","null","<p></p>","null","","","","","","","","","","","","","","","","","","","","","","","",""
"","do_trial","95","353340","0.0-57.0-0.0","""event"",""trial"",""time""
""fullscreenenter"",""0"",""2269""
","
","
","""event"",""trial"",""time""
""fullscreenenter"",""0"",""2269""
","
","305.3999999985099","","","","","","","","50","1,1,0","6","blank","268","null","0.1048689496987808","0.5399937338728249","0.4418692327650054","1","","","","","","","","",""
"","html-keyboard-response","96","354345","0.0-57.0-1.0","""event"",""trial"",""time""
""fullscreenenter"",""0"",""2269""
","
","
","""event"",""trial"",""time""
""fullscreenenter"",""0"",""2269""
","
","null","<p></p>","null","","","","","","","","","","","","","","","","","","","","","","","",""
"","break","97","362729","0.0-58.0-0.0","""event"",""trial"",""time""
""fullscreenenter"",""0"",""2269""
","
","
","""event"",""trial"",""time""
""fullscreenenter"",""0"",""2269""
","
","8379.800000000745","<div class='center'><p>Time to take a quick break! You have 2 minutes to rest, but you can move on sooner if you'd like.</p><p> Press the <b>space bar</b> to continue.</p></div>","32","","","","","","","","","","","","","","","","","","","","","","","",""
"","do_recog","98","368746","0.0-58.0-1.0","""event"",""trial"",""time""
""fullscreenenter"",""0"",""2269""
","
","
","""event"",""trial"",""time""
""fullscreenenter"",""0"",""2269""
","
","null","","","","","","","","null","","","","269","probe-254","","","","","0","[object Object]","null","null","0","","","",""
"","html-keyboard-response","99","369750","0.0-58.0-2.0","""event"",""trial"",""time""
""fullscreenenter"",""0"",""2269""
","
","
","""event"",""trial"",""time""
""fullscreenenter"",""0"",""2269""
","
","null","<p></p>","null","","","","","","","","","","","","","","","","","","","","","","","",""
"","do_trial","100","372920","0.0-59.0-0.0","""event"",""trial"",""time""
""fullscreenenter"",""0"",""2269""
","
","
","""event"",""trial"",""time""
""fullscreenenter"",""0"",""2269""
","
","546.0999999977648","","","","","","","","49","0,1,0","6","blank","270","null","0.08401869308846405","0.6859523894220166","0.4174342812717797","0","","","","","","","","",""
"","html-keyboard-response","101","373925","0.0-59.0-1.0","""event"",""trial"",""time""
""fullscreenenter"",""0"",""2269""
","
","
","""event"",""trial"",""time""
""fullscreenenter"",""0"",""2269""
","
","null","<p></p>","null","","","","","","","","","","","","","","","","","","","","","","","",""
"","do_trial","102","377189","0.0-60.0-0.0","""event"",""trial"",""time""
""fullscreenenter"",""0"",""2269""
","
","
","""event"",""trial"",""time""
""fullscreenenter"",""0"",""2269""
","
","647.1000000014901","","","","","","","","49","0,1,0","6","blank","271","null","0.25108014973916537","0.6471507408066228","0.43898739341520404","0","","","","","","","","",""
"","html-keyboard-response","103","378194","0.0-60.0-1.0","""event"",""trial"",""time""
""fullscreenenter"",""0"",""2269""
","
","
","""event"",""trial"",""time""
""fullscreenenter"",""0"",""2269""
","
","null","<p></p>","null","","","","","","","","","","","","","","","","","","","","","","","",""
"","do_trial","104","381389","0.0-61.0-0.0","""event"",""trial"",""time""
""fullscreenenter"",""0"",""2269""
","
","
","""event"",""trial"",""time""
""fullscreenenter"",""0"",""2269""
","
","577.8000000007451","","","","","","","","49","0,1,0","6","blank","272","null","0.13757870887492607","0.6004773937435816","0.351237793921325","0","","","","","","","","",""
"","html-keyboard-response","105","382393","0.0-61.0-1.0","""event"",""trial"",""time""
""fullscreenenter"",""0"",""2269""
","
","
","""event"",""trial"",""time""
""fullscreenenter"",""0"",""2269""
","
","null","<p></p>","null","","","","","","","","","","","","","","","","","","","","","","","",""
"","do_trial","106","385296","0.0-62.0-0.0","""event"",""trial"",""time""
""fullscreenenter"",""0"",""2269""
","
","
","""event"",""trial"",""time""
""fullscreenenter"",""0"",""2269""
","
","288.19999999925494","","","","","","","","50","0,0,1","6","blank","273","null","0.23855390531993664","0.5152117796687452","0.3548869145740565","0","","","","","","","","",""
"","html-keyboard-response","107","386300","0.0-62.0-1.0","""event"",""trial"",""time""
""fullscreenenter"",""0"",""2269""
","
","
","""event"",""trial"",""time""
""fullscreenenter"",""0"",""2269""
","
","null","<p></p>","null","","","","","","","","","","","","","","","","","","","","","","","",""
"","do_trial","108","388922","0.0-63.0-0.0","""event"",""trial"",""time""
""fullscreenenter"",""0"",""2269""
","
","
","""event"",""trial"",""time""
""fullscreenenter"",""0"",""2269""
","
","0.30000000074505806","","","","","","","","51","1,0,1","6","blank","274","null","0.2648887130257459","0.6624395761775038","0.23210315272185533","1","","","","","","","","",""
"","html-keyboard-response","109","389926","0.0-63.0-1.0","""event"",""trial"",""time""
""fullscreenenter"",""0"",""2269""
","
","
","""event"",""trial"",""time""
""fullscreenenter"",""0"",""2269""
","
","null","<p></p>","null","","","","","","","","","","","","","","","","","","","","","","","",""
"","do_trial","110","392919","0.0-64.0-0.0","""event"",""trial"",""time""
""fullscreenenter"",""0"",""2269""
","
","
","""event"",""trial"",""time""
""fullscreenenter"",""0"",""2269""
","
","371.6000000014901","","","","","","","","51","0,1,0","6","blank","275","null","0.21754799535124314","0.5598829537443575","0.19741602030685798","0","","","","","","","","",""
"","html-keyboard-response","111","393923","0.0-64.0-1.0","""event"",""trial"",""time""
""fullscreenenter"",""0"",""2269""
","
","
","""event"",""trial"",""time""
""fullscreenenter"",""0"",""2269""
","
","null","<p></p>","null","","","","","","","","","","","","","","","","","","","","","","","",""
"","do_recog","112","396895","0.0-65.0-0.0","""event"",""trial"",""time""
""fullscreenenter"",""0"",""2269""
","
","
","""event"",""trial"",""time""
""fullscreenenter"",""0"",""2269""
","
","1454.2999999970198","","","","","","","","53","","","","276","probe-109","","","","","1","[object Object]","37","0","1","","","",""
"","html-keyboard-response","113","397901","0.0-65.0-1.0","""event"",""trial"",""time""
""fullscreenenter"",""0"",""2269""
","
","
","""event"",""trial"",""time""
""fullscreenenter"",""0"",""2269""
","
","null","<p></p>","null","","","","","","","","","","","","","","","","","","","","","","","",""
"","do_trial","114","401575","0.0-66.0-0.0","""event"",""trial"",""time""
""fullscreenenter"",""0"",""2269""
","
","
","""event"",""trial"",""time""
""fullscreenenter"",""0"",""2269""
","
","1056.5","","","","","","","","50","0,0,1","6","blank","277","null","0.12379283499696224","0.6865757364743373","0.2688132082985217","0","","","","","","","","",""
"","html-keyboard-response","115","402579","0.0-66.0-1.0","""event"",""trial"",""time""
""fullscreenenter"",""0"",""2269""
","
","
","""event"",""trial"",""time""
""fullscreenenter"",""0"",""2269""
","
","null","<p></p>","null","","","","","","","","","","","","","","","","","","","","","","","",""
"","do_trial","116","405497","0.0-67.0-0.0","""event"",""trial"",""time""
""fullscreenenter"",""0"",""2269""
","
","
","""event"",""trial"",""time""
""fullscreenenter"",""0"",""2269""
","
","301.4000000022352","","","","","","","","51","0,0,0","6","blank","278","null","0.1207713518751363","0.4607582696935444","0.3634816982073835","0","","","","","","","","",""
"","html-keyboard-response","117","406501","0.0-67.0-1.0","""event"",""trial"",""time""
""fullscreenenter"",""0"",""2269""
","
","
","""event"",""trial"",""time""
""fullscreenenter"",""0"",""2269""
","
","null","<p></p>","null","","","","","","","","","","","","","","","","","","","","","","","",""
"","do_trial","118","409517","0.0-68.0-0.0","""event"",""trial"",""time""
""fullscreenenter"",""0"",""2269""
","
","
","""event"",""trial"",""time""
""fullscreenenter"",""0"",""2269""
","
","394.80000000074506","","","","","","","","51","0,0,0","6","blank","279","null","0.07908077473240349","0.37538004797596486","0.23202248014449944","0","","","","","","","","",""
"","html-keyboard-response","119","410522","0.0-68.0-1.0","""event"",""trial"",""time""
""fullscreenenter"",""0"",""2269""
","
","
","""event"",""trial"",""time""
""fullscreenenter"",""0"",""2269""
","
","null","<p></p>","null","","","","","","","","","","","","","","","","","","","","","","","",""
"","do_trial","120","413619","0.0-69.0-0.0","""event"",""trial"",""time""
""fullscreenenter"",""0"",""2269""
","
","
","""event"",""trial"",""time""
""fullscreenenter"",""0"",""2269""
","
","477.5","","","","","","","","51","0,1,0","6","blank","280","null","0.08852514341794081","0.4409906995223896","0.1791611274097906","0","","","","","","","","",""
"","html-keyboard-response","121","414624","0.0-69.0-1.0","""event"",""trial"",""time""
""fullscreenenter"",""0"",""2269""
","
","
","""event"",""trial"",""time""
""fullscreenenter"",""0"",""2269""
","
","null","<p></p>","null","","","","","","","","","","","","","","","","","","","","","","","",""
"","do_trial","122","417678","0.0-70.0-0.0","""event"",""trial"",""time""
""fullscreenenter"",""0"",""2269""
","
","
","""event"",""trial"",""time""
""fullscreenenter"",""0"",""2269""
","
","437.6000000014901","","","","","","","","49","1,0,0","6","blank","281","null","0.14395913367841254","0.3668126153235564","0.11334971171152267","1","","","","","","","","",""
"","html-keyboard-response","123","418683","0.0-70.0-1.0","""event"",""trial"",""time""
""fullscreenenter"",""0"",""2269""
","
","
","""event"",""trial"",""time""
""fullscreenenter"",""0"",""2269""
","
","null","<p></p>","null","","","","","","","","","","","","","","","","","","","","","","","",""
"","do_recog","124","421713","0.0-71.0-0.0","""event"",""trial"",""time""
""fullscreenenter"",""0"",""2269""
","
","
","""event"",""trial"",""time""
""fullscreenenter"",""0"",""2269""
","
","1512.8999999985099","","","","","","","","53","","","","282","probe-253","","","","","0","[object Object]","null","null","0","","","",""
"","html-keyboard-response","125","422718","0.0-71.0-1.0","""event"",""trial"",""time""
""fullscreenenter"",""0"",""2269""
","
","
","""event"",""trial"",""time""
""fullscreenenter"",""0"",""2269""
","
","null","<p></p>","null","","","","","","","","","","","","","","","","","","","","","","","",""
"","do_trial","126","425952","0.0-72.0-0.0","""event"",""trial"",""time""
""fullscreenenter"",""0"",""2269""
","
","
","""event"",""trial"",""time""
""fullscreenenter"",""0"",""2269""
","
","616.8999999985099","","","","","","","","49","0,1,0","6","blank","283","null","0.13357747873345355","0.5512357568800491","0.25001383762702284","0","","","","","","","","",""
"","html-keyboard-response","127","426957","0.0-72.0-1.0","""event"",""trial"",""time""
""fullscreenenter"",""0"",""2269""
","
","
","""event"",""trial"",""time""
""fullscreenenter"",""0"",""2269""
","
","null","<p></p>","null","","","","","","","","","","","","","","","","","","","","","","","",""
"","do_recog","128","430487","0.0-73.0-0.0","""event"",""trial"",""time""
""fullscreenenter"",""0"",""2269""
","
","
","""event"",""trial"",""time""
""fullscreenenter"",""0"",""2269""
","
","2012.2000000029802","","","","","","","","56","","","","284","probe-238","","","","","0","[object Object]","null","null","1","","","",""
"","html-keyboard-response","129","431492","0.0-73.0-1.0","""event"",""trial"",""time""
""fullscreenenter"",""0"",""2269""
","
","
","""event"",""trial"",""time""
""fullscreenenter"",""0"",""2269""
","
","null","<p></p>","null","","","","","","","","","","","","","","","","","","","","","","","",""
"","do_trial","130","434884","0.0-74.0-0.0","""event"",""trial"",""time""
""fullscreenenter"",""0"",""2269""
","
","
","""event"",""trial"",""time""
""fullscreenenter"",""0"",""2269""
","
","772.1000000014901","","","","","","","","49","0,0,0","6","blank","285","null","0.09819261651801117","0.8295402147642474","0.17147529880102183","0","","","","","","","","",""
"","html-keyboard-response","131","435889","0.0-74.0-1.0","""event"",""trial"",""time""
""fullscreenenter"",""0"",""2269""
","
","
","""event"",""trial"",""time""
""fullscreenenter"",""0"",""2269""
","
","null","<p></p>","null","","","","","","","","","","","","","","","","","","","","","","","",""
"","do_recog","132","439609","0.0-75.0-0.0","""event"",""trial"",""time""
""fullscreenenter"",""0"",""2269""
","
","
","""event"",""trial"",""time""
""fullscreenenter"",""0"",""2269""
","
","2202.099999997765","","","","","","","","53","","","","286","probe-82","","","","","1","[object Object]","73","1","1","","","",""
"","html-keyboard-response","133","440614","0.0-75.0-1.0","""event"",""trial"",""time""
""fullscreenenter"",""0"",""2269""
","
","
","""event"",""trial"",""time""
""fullscreenenter"",""0"",""2269""
","
","null","<p></p>","null","","","","","","","","","","","","","","","","","","","","","","","",""
"","do_trial","134","444211","0.0-76.0-0.0","""event"",""trial"",""time""
""fullscreenenter"",""0"",""2269""
","
","
","""event"",""trial"",""time""
""fullscreenenter"",""0"",""2269""
","
","975.6000000014901","","","","","","","","49","0,1,0","6","blank","287","null","0.16403053118628944","0.8049245790590243","0.1773223189852303","0","","","","","","","","",""
"","html-keyboard-response","135","445216","0.0-76.0-1.0","""event"",""trial"",""time""
""fullscreenenter"",""0"",""2269""
","
","
","""event"",""trial"",""time""
""fullscreenenter"",""0"",""2269""
","
","null","<p></p>","null","","","","","","","","","","","","","","","","","","","","","","","",""
"","do_recog","136","448460","0.0-77.0-0.0","""event"",""trial"",""time""
""fullscreenenter"",""0"",""2269""
","
","
","""event"",""trial"",""time""
""fullscreenenter"",""0"",""2269""
","
","1724.5999999977648","","","","","","","","56","","","","288","probe-10","","","","","1","[object Object]","155","3","0","","","",""
"","html-keyboard-response","137","449465","0.0-77.0-1.0","""event"",""trial"",""time""
""fullscreenenter"",""0"",""2269""
","
","
","""event"",""trial"",""time""
""fullscreenenter"",""0"",""2269""
","
","null","<p></p>","null","","","","","","","","","","","","","","","","","","","","","","","",""
"","do_trial","138","453373","0.0-78.0-0.0","""event"",""trial"",""time""
""fullscreenenter"",""0"",""2269""
","
","
","""event"",""trial"",""time""
""fullscreenenter"",""0"",""2269""
","
","1286.6000000014901","","","","","","","","49","0,1,0","6","blank","289","null","0.1997112766697321","0.5565491277929876","0.06957913139483807","0","","","","","","","","",""
"","html-keyboard-response","139","454378","0.0-78.0-1.0","""event"",""trial"",""time""
""fullscreenenter"",""0"",""2269""
","
","
","""event"",""trial"",""time""
""fullscreenenter"",""0"",""2269""
","
","null","<p></p>","null","","","","","","","","","","","","","","","","","","","","","","","",""
"","do_trial","140","457556","0.0-79.0-0.0","""event"",""trial"",""time""
""fullscreenenter"",""0"",""2269""
","
","
","""event"",""trial"",""time""
""fullscreenenter"",""0"",""2269""
","
","561.8000000007451","","","","","","","","50","0,1,0","6","blank","290","null","0.2272375454103517","0.6109773386807711","0.11655661966539073","1","","","","","","","","",""
"","html-keyboard-response","141","458561","0.0-79.0-1.0","""event"",""trial"",""time""
""fullscreenenter"",""0"",""2269""
","
","
","""event"",""trial"",""time""
""fullscreenenter"",""0"",""2269""
","
","null","<p></p>","null","","","","","","","","","","","","","","","","","","","","","","","",""
"","do_trial","142","461644","0.0-80.0-0.0","""event"",""trial"",""time""
""fullscreenenter"",""0"",""2269""
","
","
","""event"",""trial"",""time""
""fullscreenenter"",""0"",""2269""
","
","467.69999999925494","","","","","","","","50","0,0,0","6","blank","291","null","0.22354793532795472","0.48775959207194924","0.19728305804132787","0","","","","","","","","",""
"","html-keyboard-response","143","462649","0.0-80.0-1.0","""event"",""trial"",""time""
""fullscreenenter"",""0"",""2269""
","
","
","""event"",""trial"",""time""
""fullscreenenter"",""0"",""2269""
","
","null","<p></p>","null","","","","","","","","","","","","","","","","","","","","","","","",""
"","do_recog","144","465912","0.0-81.0-0.0","""event"",""trial"",""time""
""fullscreenenter"",""0"",""2269""
","
","
","""event"",""trial"",""time""
""fullscreenenter"",""0"",""2269""
","
","1745.699999999255","","","","","","","","53","","","","292","probe-190","","","","","1","[object Object]","113","2","1","","","",""
"","html-keyboard-response","145","466917","0.0-81.0-1.0","""event"",""trial"",""time""
""fullscreenenter"",""0"",""2269""
","
","
","""event"",""trial"",""time""
""fullscreenenter"",""0"",""2269""
","
","null","<p></p>","null","","","","","","","","","","","","","","","","","","","","","","","",""
"","do_trial","146","470618","0.0-82.0-0.0","""event"",""trial"",""time""
""fullscreenenter"",""0"",""2269""
","
","
","""event"",""trial"",""time""
""fullscreenenter"",""0"",""2269""
","
","1080.7999999970198","","","","","","","","51","0,0,0","6","blank","293","null","0.0994417982696602","0.39381546893245345","0.13440026138034178","0","","","","","","","","",""
"","html-keyboard-response","147","471622","0.0-82.0-1.0","""event"",""trial"",""time""
""fullscreenenter"",""0"",""2269""
","
","
","""event"",""trial"",""time""
""fullscreenenter"",""0"",""2269""
","
","null","<p></p>","null","","","","","","","","","","","","","","","","","","","","","","","",""
"","do_recog","148","474861","0.0-83.0-0.0","""event"",""trial"",""time""
""fullscreenenter"",""0"",""2269""
","
","
","""event"",""trial"",""time""
""fullscreenenter"",""0"",""2269""
","
","1721.199999999255","","","","","","","","56","","","","294","probe-170","","","","","1","[object Object]","191","4","0","","","",""
"","html-keyboard-response","149","475866","0.0-83.0-1.0","""event"",""trial"",""time""
""fullscreenenter"",""0"",""2269""
","
","
","""event"",""trial"",""time""
""fullscreenenter"",""0"",""2269""
","
","null","<p></p>","null","","","","","","","","","","","","","","","","","","","","","","","",""
"","do_trial","150","479371","0.0-84.0-0.0","""event"",""trial"",""time""
""fullscreenenter"",""0"",""2269""
","
","
","""event"",""trial"",""time""
""fullscreenenter"",""0"",""2269""
","
","886","","","","","","","","49","0,0,0","6","blank","295","null","0.07048884773059115","0.40911940599886537","0.06141952464025087","0","","","","","","","","",""
"","html-keyboard-response","151","480376","0.0-84.0-1.0","""event"",""trial"",""time""
""fullscreenenter"",""0"",""2269""
","
","
","""event"",""trial"",""time""
""fullscreenenter"",""0"",""2269""
","
","null","<p></p>","null","","","","","","","","","","","","","","","","","","","","","","","",""
"","do_trial","152","483071","0.0-85.0-0.0","""event"",""trial"",""time""
""fullscreenenter"",""0"",""2269""
","
","
","""event"",""trial"",""time""
""fullscreenenter"",""0"",""2269""
","
","75","","","","","","","","50","0,0,0","6","blank","296","null","0.28491986094699623","0.31898063111776226","0.1245212279542522","0","","","","","","","","",""
"","html-keyboard-response","153","484076","0.0-85.0-1.0","""event"",""trial"",""time""
""fullscreenenter"",""0"",""2269""
","
","
","""event"",""trial"",""time""
""fullscreenenter"",""0"",""2269""
","
","null","<p></p>","null","","","","","","","","","","","","","","","","","","","","","","","",""
"","do_recog","154","487143","0.0-86.0-0.0","""event"",""trial"",""time""
""fullscreenenter"",""0"",""2269""
","
","
","""event"",""trial"",""time""
""fullscreenenter"",""0"",""2269""
","
","1549.1000000014901","","","","","","","","53","","","","297","probe-182","","","","","1","[object Object]","198","4","1","","","",""
"","html-keyboard-response","155","488147","0.0-86.0-1.0","""event"",""trial"",""time""
""fullscreenenter"",""0"",""2269""
","
","
","""event"",""trial"",""time""
""fullscreenenter"",""0"",""2269""
","
","null","<p></p>","null","","","","","","","","","","","","","","","","","","","","","","","",""
"","do_trial","156","491904","0.0-87.0-0.0","""event"",""trial"",""time""
""fullscreenenter"",""0"",""2269""
","
","
","""event"",""trial"",""time""
""fullscreenenter"",""0"",""2269""
","
","1139.1000000014901","","","","","","","","49","0,0,0","6","blank","298","null","0.3594766030334175","0.29015245530128647","0.21428378518648739","0","","","","","","","","",""
"","html-keyboard-response","157","492909","0.0-87.0-1.0","""event"",""trial"",""time""
""fullscreenenter"",""0"",""2269""
","
","
","""event"",""trial"",""time""
""fullscreenenter"",""0"",""2269""
","
","null","<p></p>","null","","","","","","","","","","","","","","","","","","","","","","","",""
"","do_trial","158","496006","0.0-88.0-0.0","""event"",""trial"",""time""
""fullscreenenter"",""0"",""2269""
","
","
","""event"",""trial"",""time""
""fullscreenenter"",""0"",""2269""
","
","479.6000000014901","","","","","","","","50","0,0,0","6","blank","299","null","0.26909440057918693","0.2885890468370939","0.3516264181667875","0","","","","","","","","",""
"","html-keyboard-response","159","497011","0.0-88.0-1.0","""event"",""trial"",""time""
""fullscreenenter"",""0"",""2269""
","
","
","""event"",""trial"",""time""
""fullscreenenter"",""0"",""2269""
","
","null","<p></p>","null","","","","","","","","","","","","","","","","","","","","","","","",""
"","do_trial","160","500087","0.0-89.0-0.0","""event"",""trial"",""time""
""fullscreenenter"",""0"",""2269""
","
","
","""event"",""trial"",""time""
""fullscreenenter"",""0"",""2269""
","
","458.6000000014901","","","","","","","","49","0,1,1","6","blank","300","null","0.24340882990015492","0.2250882568189021","0.5157621520215827","0","","","","","","","","",""
"","html-keyboard-response","161","501092","0.0-89.0-1.0","""event"",""trial"",""time""
""fullscreenenter"",""0"",""2269""
","
","
","""event"",""trial"",""time""
""fullscreenenter"",""0"",""2269""
","
","null","<p></p>","null","","","","","","","","","","","","","","","","","","","","","","","",""
"","do_trial","162","504339","0.0-90.0-0.0","""event"",""trial"",""time""
""fullscreenenter"",""0"",""2269""
","
","
","""event"",""trial"",""time""
""fullscreenenter"",""0"",""2269""
","
","629.2000000029802","","","","","","","","49","0,0,0","6","blank","301","null","0.22987870980383815","0.16185451022634154","0.605140803205766","0","","","","","","","","",""
"","html-keyboard-response","163","505344","0.0-90.0-1.0","""event"",""trial"",""time""
""fullscreenenter"",""0"",""2269""
","
","
","""event"",""trial"",""time""
""fullscreenenter"",""0"",""2269""
","
","null","<p></p>","null","","","","","","","","","","","","","","","","","","","","","","","",""
"","do_recog","164","508312","0.0-91.0-0.0","""event"",""trial"",""time""
""fullscreenenter"",""0"",""2269""
","
","
","""event"",""trial"",""time""
""fullscreenenter"",""0"",""2269""
","
","1450","","","","","","","","53","","","","302","probe-12","","","","","1","[object Object]","193","4","1","","","",""
"","html-keyboard-response","165","509316","0.0-91.0-1.0","""event"",""trial"",""time""
""fullscreenenter"",""0"",""2269""
","
","
","""event"",""trial"",""time""
""fullscreenenter"",""0"",""2269""
","
","null","<p></p>","null","","","","","","","","","","","","","","","","","","","","","","","",""
"","do_trial","166","512416","0.0-92.0-0.0","""event"",""trial"",""time""
""fullscreenenter"",""0"",""2269""
","
","
","""event"",""trial"",""time""
""fullscreenenter"",""0"",""2269""
","
","476.5","","","","","","","","49","0,1,1","6","blank","303","null","0.31093320100900235","0.1537599809255288","0.6916073439841334","0","","","","","","","","",""
"","html-keyboard-response","167","513421","0.0-92.0-1.0","""event"",""trial"",""time""
""fullscreenenter"",""0"",""2269""
","
","
","""event"",""trial"",""time""
""fullscreenenter"",""0"",""2269""
","
","null","<p></p>","null","","","","","","","","","","","","","","","","","","","","","","","",""
"","do_recog","168","516459","0.0-93.0-0.0","""event"",""trial"",""time""
""fullscreenenter"",""0"",""2269""
","
","
","""event"",""trial"",""time""
""fullscreenenter"",""0"",""2269""
","
","1520.300000000745","","","","","","","","53","","","","304","probe-149","","","","","1","[object Object]","32","0","1","","","",""
"","html-keyboard-response","169","517464","0.0-93.0-1.0","""event"",""trial"",""time""
""fullscreenenter"",""0"",""2269""
","
","
","""event"",""trial"",""time""
""fullscreenenter"",""0"",""2269""
","
","null","<p></p>","null","","","","","","","","","","","","","","","","","","","","","","","",""
"","do_trial","170","520796","0.0-94.0-0.0","""event"",""trial"",""time""
""fullscreenenter"",""0"",""2269""
","
","
","""event"",""trial"",""time""
""fullscreenenter"",""0"",""2269""
","
","713.1999999992549","","","","","","","","49","0,0,0","6","blank","305","null","0.2677405709981789","0.12233764106393573","0.6729464003408338","0","","","","","","","","",""
"","html-keyboard-response","171","521801","0.0-94.0-1.0","""event"",""trial"",""time""
""fullscreenenter"",""0"",""2269""
","
","
","""event"",""trial"",""time""
""fullscreenenter"",""0"",""2269""
","
","null","<p></p>","null","","","","","","","","","","","","","","","","","","","","","","","",""
"","do_trial","172","524859","0.0-95.0-0.0","""event"",""trial"",""time""
""fullscreenenter"",""0"",""2269""
","
","
","""event"",""trial"",""time""
""fullscreenenter"",""0"",""2269""
","
","440.30000000074506","","","","","","","","49","1,0,1","6","blank","306","null","0.36884213006900857","0.07879601162180577","0.7323527383032342","1","","","","","","","","",""
"","html-keyboard-response","173","525864","0.0-95.0-1.0","""event"",""trial"",""time""
""fullscreenenter"",""0"",""2269""
","
","
","""event"",""trial"",""time""
""fullscreenenter"",""0"",""2269""
","
","null","<p></p>","null","","","","","","","","","","","","","","","","","","","","","","","",""
"","do_trial","174","528728","0.0-96.0-0.0","""event"",""trial"",""time""
""fullscreenenter"",""0"",""2269""
","
","
","""event"",""trial"",""time""
""fullscreenenter"",""0"",""2269""
","
","245.30000000074506","","","","","","","","50","0,0,1","6","blank","307","null","0.4341451386225878","0.17696428390611377","0.7077105336376937","0","","","","","","","","",""
"","html-keyboard-response","175","529733","0.0-96.0-1.0","""event"",""trial"",""time""
""fullscreenenter"",""0"",""2269""
","
","
","""event"",""trial"",""time""
""fullscreenenter"",""0"",""2269""
","
","null","<p></p>","null","","","","","","","","","","","","","","","","","","","","","","","",""
"","do_trial","176","533107","0.0-97.0-0.0","""event"",""trial"",""time""
""fullscreenenter"",""0"",""2269""
","
","
","""event"",""trial"",""time""
""fullscreenenter"",""0"",""2269""
","
","733.3000000007451","","","","","","","","50","1,0,1","6","blank","308","null","0.4022989097082865","0.09576437687444898","0.6588752900231526","0","","","","","","","","",""
"","html-keyboard-response","177","534112","0.0-97.0-1.0","""event"",""trial"",""time""
""fullscreenenter"",""0"",""2269""
","
","
","""event"",""trial"",""time""
""fullscreenenter"",""0"",""2269""
","
","null","<p></p>","null","","","","","","","","","","","","","","","","","","","","","","","",""
"","break","178","535273","0.0-98.0-0.0","""event"",""trial"",""time""
""fullscreenenter"",""0"",""2269""
","
","
","""event"",""trial"",""time""
""fullscreenenter"",""0"",""2269""
","
","1156.4000000022352","<div class='center'><p>Time to take a quick break! You have 2 minutes to rest, but you can move on sooner if you'd like.</p><p> Press the <b>space bar</b> to continue.</p></div>","32","","","","","","","","","","","","","","","","","","","","","","","",""
"","do_trial","179","538646","0.0-98.0-1.0","""event"",""trial"",""time""
""fullscreenenter"",""0"",""2269""
","
","
","""event"",""trial"",""time""
""fullscreenenter"",""0"",""2269""
","
","758.3999999985099","","","","","","","","51","0,0,0","6","blank","309","null","0.36157478144809396","0.06513723047054126","0.6044055433859409","0","","","","","","","","",""
"","html-keyboard-response","180","539651","0.0-98.0-2.0","""event"",""trial"",""time""
""fullscreenenter"",""0"",""2269""
","
","
","""event"",""trial"",""time""
""fullscreenenter"",""0"",""2269""
","
","null","<p></p>","null","","","","","","","","","","","","","","","","","","","","","","","",""
"","do_trial","181","542743","0.0-99.0-0.0","""event"",""trial"",""time""
""fullscreenenter"",""0"",""2269""
","
","
","""event"",""trial"",""time""
""fullscreenenter"",""0"",""2269""
","
","475.1000000014901","","","","","","","","49","1,0,0","6","blank","310","null","0.3391516000494879","0.25952362541117674","0.6136046679817583","1","","","","","","","","",""
"","html-keyboard-response","182","543748","0.0-99.0-1.0","""event"",""trial"",""time""
""fullscreenenter"",""0"",""2269""
","
","
","""event"",""trial"",""time""
""fullscreenenter"",""0"",""2269""
","
","null","<p></p>","null","","","","","","","","","","","","","","","","","","","","","","","",""
"","do_trial","183","546869","0.0-100.0-0.0","""event"",""trial"",""time""
""fullscreenenter"",""0"",""2269""
","
","
","""event"",""trial"",""time""
""fullscreenenter"",""0"",""2269""
","
","502.8999999985099","","","","","","","","49","1,0,1","6","blank","311","null","0.340957201892186","0.0982625811770129","0.6632648415228427","1","","","","","","","","",""
"","html-keyboard-response","184","547874","0.0-100.0-1.0","""event"",""trial"",""time""
""fullscreenenter"",""0"",""2269""
","
","
","""event"",""trial"",""time""
""fullscreenenter"",""0"",""2269""
","
","null","<p></p>","null","","","","","","","","","","","","","","","","","","","","","","","",""
"","do_recog","185","550767","0.0-101.0-0.0","""event"",""trial"",""time""
""fullscreenenter"",""0"",""2269""
","
","
","""event"",""trial"",""time""
""fullscreenenter"",""0"",""2269""
","
","1375.300000000745","","","","","","","","53","","","","312","probe-142","","","","","1","[object Object]","74","1","1","","","",""
"","html-keyboard-response","186","551771","0.0-101.0-1.0","""event"",""trial"",""time""
""fullscreenenter"",""0"",""2269""
","
","
","""event"",""trial"",""time""
""fullscreenenter"",""0"",""2269""
","
","null","<p></p>","null","","","","","","","","","","","","","","","","","","","","","","","",""
"","do_trial","187","554772","0.0-102.0-0.0","""event"",""trial"",""time""
""fullscreenenter"",""0"",""2269""
","
","
","""event"",""trial"",""time""
""fullscreenenter"",""0"",""2269""
","
","382.5999999977648","","","","","","","","49","0,1,1","6","blank","313","null","0.24012286745492348","0.21969253530667382","0.5194917086573841","0","","","","","","","","",""
"","html-keyboard-response","188","555778","0.0-102.0-1.0","""event"",""trial"",""time""
""fullscreenenter"",""0"",""2269""
","
","
","""event"",""trial"",""time""
""fullscreenenter"",""0"",""2269""
","
","null","<p></p>","null","","","","","","","","","","","","","","","","","","","","","","","",""
"","do_trial","189","558397","0.0-103.0-0.0","""event"",""trial"",""time""
""fullscreenenter"",""0"",""2269""
","
","
","""event"",""trial"",""time""
""fullscreenenter"",""0"",""2269""
","
","0.30000000074505806","","","","","","","","49","0,1,0","6","blank","314","null","0.18305044053783648","0.21088524900670064","0.5167471100183357","0","","","","","","","","",""
"","html-keyboard-response","190","559402","0.0-103.0-1.0","""event"",""trial"",""time""
""fullscreenenter"",""0"",""2269""
","
","
","""event"",""trial"",""time""
""fullscreenenter"",""0"",""2269""
","
","null","<p></p>","null","","","","","","","","","","","","","","","","","","","","","","","",""
"","do_trial","191","562394","0.0-104.0-0.0","""event"",""trial"",""time""
""fullscreenenter"",""0"",""2269""
","
","
","""event"",""trial"",""time""
""fullscreenenter"",""0"",""2269""
","
","375.5","","","","","","","","50","0,1,0","6","blank","315","null","0.1921079794312528","0.21218131859592354","0.649533060825406","1","","","","","","","","",""
"","html-keyboard-response","192","563399","0.0-104.0-1.0","""event"",""trial"",""time""
""fullscreenenter"",""0"",""2269""
","
","
","""event"",""trial"",""time""
""fullscreenenter"",""0"",""2269""
","
","null","<p></p>","null","","","","","","","","","","","","","","","","","","","","","","","",""
"","do_recog","193","566231","0.0-105.0-0.0","""event"",""trial"",""time""
""fullscreenenter"",""0"",""2269""
","
","
","""event"",""trial"",""time""
""fullscreenenter"",""0"",""2269""
","
","1314.6000000014901","","","","","","","","56","","","","316","probe-05","","","","","1","[object Object]","77","1","0","","","",""
"","html-keyboard-response","194","567237","0.0-105.0-1.0","""event"",""trial"",""time""
""fullscreenenter"",""0"",""2269""
","
","
","""event"",""trial"",""time""
""fullscreenenter"",""0"",""2269""
","
","null","<p></p>","null","","","","","","","","","","","","","","","","","","","","","","","",""
"","do_trial","195","570805","0.0-106.0-0.0","""event"",""trial"",""time""
""fullscreenenter"",""0"",""2269""
","
","
","""event"",""trial"",""time""
""fullscreenenter"",""0"",""2269""
","
","949.5999999977648","","","","","","","","51","0,0,1","6","blank","317","null","0.1329317419879259","0.11111734917329273","0.6741625632307471","1","","","","","","","","",""
"","html-keyboard-response","196","571810","0.0-106.0-1.0","""event"",""trial"",""time""
""fullscreenenter"",""0"",""2269""
","
","
","""event"",""trial"",""time""
""fullscreenenter"",""0"",""2269""
","
","null","<p></p>","null","","","","","","","","","","","","","","","","","","","","","","","",""
"","do_trial","197","575534","0.0-107.0-0.0","""event"",""trial"",""time""
""fullscreenenter"",""0"",""2269""
","
","
","""event"",""trial"",""time""
""fullscreenenter"",""0"",""2269""
","
","1108","","","","","","","","51","0,1,1","6","blank","318","null","0.1824053813616894","0.30935729558385133","0.6861103444447662","1","","","","","","","","",""
"","html-keyboard-response","198","576539","0.0-107.0-1.0","""event"",""trial"",""time""
""fullscreenenter"",""0"",""2269""
","
","
","""event"",""trial"",""time""
""fullscreenenter"",""0"",""2269""
","
","null","<p></p>","null","","","","","","","","","","","","","","","","","","","","","","","",""
"","do_recog","199","579254","0.0-108.0-0.0","""event"",""trial"",""time""
""fullscreenenter"",""0"",""2269""
","
","
","""event"",""trial"",""time""
""fullscreenenter"",""0"",""2269""
","
","1196.5","","","","","","","","53","","","","319","probe-186","","","","","1","[object Object]","33","0","1","","","",""
"","html-keyboard-response","200","580259","0.0-108.0-1.0","""event"",""trial"",""time""
""fullscreenenter"",""0"",""2269""
","
","
","""event"",""trial"",""time""
""fullscreenenter"",""0"",""2269""
","
","null","<p></p>","null","","","","","","","","","","","","","","","","","","","","","","","",""
"","do_trial","201","583837","0.0-109.0-0.0","""event"",""trial"",""time""
""fullscreenenter"",""0"",""2269""
","
","
","""event"",""trial"",""time""
""fullscreenenter"",""0"",""2269""
","
","956.8000000007451","","","","","","","","51","0,0,0","6","blank","320","null","0.3304969876288653","0.17597182223841834","0.6243400214278524","0","","","","","","","","",""
"","html-keyboard-response","202","584842","0.0-109.0-1.0","""event"",""trial"",""time""
""fullscreenenter"",""0"",""2269""
","
","
","""event"",""trial"",""time""
""fullscreenenter"",""0"",""2269""
","
","null","<p></p>","null","","","","","","","","","","","","","","","","","","","","","","","",""
"","do_recog","203","587686","0.0-110.0-0.0","""event"",""trial"",""time""
""fullscreenenter"",""0"",""2269""
","
","
","""event"",""trial"",""time""
""fullscreenenter"",""0"",""2269""
","
","1325.8999999985099","","","","","","","","53","","","","321","probe-112","","","","","1","[object Object]","115","2","1","","","",""
"","html-keyboard-response","204","588691","0.0-110.0-1.0","""event"",""trial"",""time""
""fullscreenenter"",""0"",""2269""
","
","
","""event"",""trial"",""time""
""fullscreenenter"",""0"",""2269""
","
","null","<p></p>","null","","","","","","","","","","","","","","","","","","","","","","","",""
"","do_trial","205","591717","0.0-111.0-0.0","""event"",""trial"",""time""
""fullscreenenter"",""0"",""2269""
","
","
","""event"",""trial"",""time""
""fullscreenenter"",""0"",""2269""
","
","411.5","","","","","","","","51","0,1,0","6","blank","322","null","0.24597813694538648","0.10860908937651928","0.6725478616170439","0","","","","","","","","",""
"","html-keyboard-response","206","592723","0.0-111.0-1.0","""event"",""trial"",""time""
""fullscreenenter"",""0"",""2269""
","
","
","""event"",""trial"",""time""
""fullscreenenter"",""0"",""2269""
","
","null","<p></p>","null","","","","","","","","","","","","","","","","","","","","","","","",""
"","do_trial","207","595727","0.0-112.0-0.0","""event"",""trial"",""time""
""fullscreenenter"",""0"",""2269""
","
","
","""event"",""trial"",""time""
""fullscreenenter"",""0"",""2269""
","
","388.1000000014901","","","","","","","","50","0,0,0","6","blank","323","null","0.20198522692918397","0.06838532163670684","0.7554058647262337","0","","","","","","","","",""
"","html-keyboard-response","208","596735","0.0-112.0-1.0","""event"",""trial"",""time""
""fullscreenenter"",""0"",""2269""
","
","
","""event"",""trial"",""time""
""fullscreenenter"",""0"",""2269""
","
","null","<p></p>","null","","","","","","","","","","","","","","","","","","","","","","","",""
"","do_trial","209","601764","0.0-113.0-0.0","""event"",""trial"",""time""
""fullscreenenter"",""0"",""2269""
","
","
","""event"",""trial"",""time""
""fullscreenenter"",""0"",""2269""
","
","2412.2999999970198","","","","","","","","49","0,0,1","6","blank","324","null","0.34890667976967693","0.11450811006289385","0.6278232182148638","0","","","","","","","","",""
"","html-keyboard-response","210","602769","0.0-113.0-1.0","""event"",""trial"",""time""
""fullscreenenter"",""0"",""2269""
","
","
","""event"",""trial"",""time""
""fullscreenenter"",""0"",""2269""
","
","null","<p></p>","null","","","","","","","","","","","","","","","","","","","","","","","",""
"","do_trial","211","605985","0.0-114.0-0.0","""event"",""trial"",""time""
""fullscreenenter"",""0"",""2269""
","
","
","""event"",""trial"",""time""
""fullscreenenter"",""0"",""2269""
","
","598.3000000007451","","","","","","","","49","1,0,0","6","blank","325","null","0.40476989561470816","0.10175744104488946","0.6445091538787042","1","","","","","","","","",""
"","html-keyboard-response","212","606990","0.0-114.0-1.0","""event"",""trial"",""time""
""fullscreenenter"",""0"",""2269""
","
","
","""event"",""trial"",""time""
""fullscreenenter"",""0"",""2269""
","
","null","<p></p>","null","","","","","","","","","","","","","","","","","","","","","","","",""
"","do_trial","213","610087","0.0-115.0-0.0","""event"",""trial"",""time""
""fullscreenenter"",""0"",""2269""
","
","
","""event"",""trial"",""time""
""fullscreenenter"",""0"",""2269""
","
","470.5","","","","","","","","49","0,0,1","6","blank","326","null","0.42967993512357355","0.09539802680619851","0.5243514030514368","0","","","","","","","","",""
"","html-keyboard-response","214","611092","0.0-115.0-1.0","""event"",""trial"",""time""
""fullscreenenter"",""0"",""2269""
","
","
","""event"",""trial"",""time""
""fullscreenenter"",""0"",""2269""
","
","null","<p></p>","null","","","","","","","","","","","","","","","","","","","","","","","",""
"","do_recog","215","613726","0.0-116.0-0.0","""event"",""trial"",""time""
""fullscreenenter"",""0"",""2269""
","
","
","""event"",""trial"",""time""
""fullscreenenter"",""0"",""2269""
","
","1116.199999999255","","","","","","","","53","","","","327","probe-97","","","","","1","[object Object]","190","4","1","","","",""
"","html-keyboard-response","216","614730","0.0-116.0-1.0","""event"",""trial"",""time""
""fullscreenenter"",""0"",""2269""
","
","
","""event"",""trial"",""time""
""fullscreenenter"",""0"",""2269""
","
","null","<p></p>","null","","","","","","","","","","","","","","","","","","","","","","","",""
"","do_trial","217","618742","0.0-117.0-0.0","""event"",""trial"",""time""
""fullscreenenter"",""0"",""2269""
","
","
","""event"",""trial"",""time""
""fullscreenenter"",""0"",""2269""
","
","1396.199999999255","","","","","","","","49","1,0,1","6","blank","328","null","0.49604491060813993","0.05666049588775149","0.608759248831271","1","","","","","","","","",""
"","html-keyboard-response","218","619747","0.0-117.0-1.0","""event"",""trial"",""time""
""fullscreenenter"",""0"",""2269""
","
","
","""event"",""trial"",""time""
""fullscreenenter"",""0"",""2269""
","
","null","<p></p>","null","","","","","","","","","","","","","","","","","","","","","","","",""
"","do_recog","219","622401","0.0-118.0-0.0","""event"",""trial"",""time""
""fullscreenenter"",""0"",""2269""
","
","
","""event"",""trial"",""time""
""fullscreenenter"",""0"",""2269""
","
","1136.1000000014901","","","","","","","","53","","","","329","probe-193","","","","","1","[object Object]","79","1","1","","","",""
"","html-keyboard-response","220","623406","0.0-118.0-1.0","""event"",""trial"",""time""
""fullscreenenter"",""0"",""2269""
","
","
","""event"",""trial"",""time""
""fullscreenenter"",""0"",""2269""
","
","null","<p></p>","null","","","","","","","","","","","","","","","","","","","","","","","",""
"","do_trial","221","627037","0.0-119.0-0.0","""event"",""trial"",""time""
""fullscreenenter"",""0"",""2269""
","
","
","""event"",""trial"",""time""
""fullscreenenter"",""0"",""2269""
","
","1011.9000000022352","","","","","","","","49","0,0,1","6","blank","330","null","0.4433836001894509","0.05733181317416414","0.7175178025628494","0","","","","","","","","",""
"","html-keyboard-response","222","628042","0.0-119.0-1.0","""event"",""trial"",""time""
""fullscreenenter"",""0"",""2269""
","
","
","""event"",""trial"",""time""
""fullscreenenter"",""0"",""2269""
","
","null","<p></p>","null","","","","","","","","","","","","","","","","","","","","","","","",""
"","do_trial","223","631068","0.0-120.0-0.0","""event"",""trial"",""time""
""fullscreenenter"",""0"",""2269""
","
","
","""event"",""trial"",""time""
""fullscreenenter"",""0"",""2269""
","
","407.9000000022352","","","","","","","","49","0,0,0","6","blank","331","null","0.47072864835832834","0.06092161806648471","0.634891470593235","0","","","","","","","","",""
"","html-keyboard-response","224","632073","0.0-120.0-1.0","""event"",""trial"",""time""
""fullscreenenter"",""0"",""2269""
","
","
","""event"",""trial"",""time""
""fullscreenenter"",""0"",""2269""
","
","null","<p></p>","null","","","","","","","","","","","","","","","","","","","","","","","",""
"","do_trial","225","634769","0.0-121.0-0.0","""event"",""trial"",""time""
""fullscreenenter"",""0"",""2269""
","
","
","""event"",""trial"",""time""
""fullscreenenter"",""0"",""2269""
","
","77.30000000074506","","","","","","","","50","0,0,1","6","blank","332","null","0.41543879603071504","0.13777617513848928","0.6123307223889435","0","","","","","","","","",""
"","html-keyboard-response","226","635775","0.0-121.0-1.0","""event"",""trial"",""time""
""fullscreenenter"",""0"",""2269""
","
","
","""event"",""trial"",""time""
""fullscreenenter"",""0"",""2269""
","
","null","<p></p>","null","","","","","","","","","","","","","","","","","","","","","","","",""
"","do_trial","227","638751","0.0-122.0-0.0","""event"",""trial"",""time""
""fullscreenenter"",""0"",""2269""
","
","
","""event"",""trial"",""time""
""fullscreenenter"",""0"",""2269""
","
","364.30000000074506","","","","","","","","50","1,0,0","6","blank","333","null","0.440289434170629","0.23467702151438133","0.5721011464650249","0","","","","","","","","",""
"","html-keyboard-response","228","639756","0.0-122.0-1.0","""event"",""trial"",""time""
""fullscreenenter"",""0"",""2269""
","
","
","""event"",""trial"",""time""
""fullscreenenter"",""0"",""2269""
","
","null","<p></p>","null","","","","","","","","","","","","","","","","","","","","","","","",""
"","do_recog","229","642831","0.0-123.0-0.0","""event"",""trial"",""time""
""fullscreenenter"",""0"",""2269""
","
","
","""event"",""trial"",""time""
""fullscreenenter"",""0"",""2269""
","
","1558.5","","","","","","","","56","","","","334","probe-246","","","","","0","[object Object]","null","null","1","","","",""
"","html-keyboard-response","230","643836","0.0-123.0-1.0","""event"",""trial"",""time""
""fullscreenenter"",""0"",""2269""
","
","
","""event"",""trial"",""time""
""fullscreenenter"",""0"",""2269""
","
","null","<p></p>","null","","","","","","","","","","","","","","","","","","","","","","","",""
"","do_trial","231","647330","0.0-124.0-0.0","""event"",""trial"",""time""
""fullscreenenter"",""0"",""2269""
","
","
","""event"",""trial"",""time""
""fullscreenenter"",""0"",""2269""
","
","877","","","","","","","","49","0,0,0","6","blank","335","null","0.49482250551579543","0.12585830761382166","0.568207259808905","0","","","","","","","","",""
"","html-keyboard-response","232","648335","0.0-124.0-1.0","""event"",""trial"",""time""
""fullscreenenter"",""0"",""2269""
","
","
","""event"",""trial"",""time""
""fullscreenenter"",""0"",""2269""
","
","null","<p></p>","null","","","","","","","","","","","","","","","","","","","","","","","",""
"","do_trial","233","651065","0.0-125.0-0.0","""event"",""trial"",""time""
""fullscreenenter"",""0"",""2269""
","
","
","""event"",""trial"",""time""
""fullscreenenter"",""0"",""2269""
","
","111.5","","","","","","","","51","0,0,1","6","blank","336","null","0.42837707410554304","0.10138684393908934","0.6915001971437731","1","","","","","","","","",""
"","html-keyboard-response","234","652070","0.0-125.0-1.0","""event"",""trial"",""time""
""fullscreenenter"",""0"",""2269""
","
","
","""event"",""trial"",""time""
""fullscreenenter"",""0"",""2269""
","
","null","<p></p>","null","","","","","","","","","","","","","","","","","","","","","","","",""
"","do_trial","235","655165","0.0-126.0-0.0","""event"",""trial"",""time""
""fullscreenenter"",""0"",""2269""
","
","
","""event"",""trial"",""time""
""fullscreenenter"",""0"",""2269""
","
","476.6000000014901","","","","","","","","51","0,0,0","6","blank","337","null","0.35073748759906054","0.20046371105242933","0.7476964679102801","0","","","","","","","","",""
"","html-keyboard-response","236","656169","0.0-126.0-1.0","""event"",""trial"",""time""
""fullscreenenter"",""0"",""2269""
","
","
","""event"",""trial"",""time""
""fullscreenenter"",""0"",""2269""
","
","null","<p></p>","null","","","","","","","","","","","","","","","","","","","","","","","",""
"","do_trial","237","659180","0.0-127.0-0.0","""event"",""trial"",""time""
""fullscreenenter"",""0"",""2269""
","
","
","""event"",""trial"",""time""
""fullscreenenter"",""0"",""2269""
","
","396.80000000074506","","","","","","","","51","0,0,0","6","blank","338","null","0.17118397772773727","0.11926810548940572","0.6296317550661558","0","","","","","","","","",""
"","html-keyboard-response","238","660200","0.0-127.0-1.0","""event"",""trial"",""time""
""fullscreenenter"",""0"",""2269""
","
","
","""event"",""trial"",""time""
""fullscreenenter"",""0"",""2269""
","
","null","<p></p>","null","","","","","","","","","","","","","","","","","","","","","","","",""
"","do_trial","239","663059","0.0-128.0-0.0","""event"",""trial"",""time""
""fullscreenenter"",""0"",""2269""
","
","
","""event"",""trial"",""time""
""fullscreenenter"",""0"",""2269""
","
","243.59999999776483","","","","","","","","51","0,0,0","6","blank","339","null","0.40503517024920643","0.1431540661050628","0.5524890160907254","0","","","","","","","","",""
"","html-keyboard-response","240","664064","0.0-128.0-1.0","""event"",""trial"",""time""
""fullscreenenter"",""0"",""2269""
","
","
","""event"",""trial"",""time""
""fullscreenenter"",""0"",""2269""
","
","null","<p></p>","null","","","","","","","","","","","","","","","","","","","","","","","",""
"","do_trial","241","667216","0.0-129.0-0.0","""event"",""trial"",""time""
""fullscreenenter"",""0"",""2269""
","
","
","""event"",""trial"",""time""
""fullscreenenter"",""0"",""2269""
","
","534.3000000007451","","","","","","","","49","1,0,1","6","blank","340","null","0.3254407191017567","0.11314979514337889","0.6620043363834976","1","","","","","","","","",""
"","html-keyboard-response","242","668222","0.0-129.0-1.0","""event"",""trial"",""time""
""fullscreenenter"",""0"",""2269""
","
","
","""event"",""trial"",""time""
""fullscreenenter"",""0"",""2269""
","
","null","<p></p>","null","","","","","","","","","","","","","","","","","","","","","","","",""
"","do_recog","243","670757","0.0-130.0-0.0","""event"",""trial"",""time""
""fullscreenenter"",""0"",""2269""
","
","
","""event"",""trial"",""time""
""fullscreenenter"",""0"",""2269""
","
","1017.5","","","","","","","","53","","","","341","probe-129","","","","","1","[object Object]","119","2","1","","","",""
"","html-keyboard-response","244","671762","0.0-130.0-1.0","""event"",""trial"",""time""
""fullscreenenter"",""0"",""2269""
","
","
","""event"",""trial"",""time""
""fullscreenenter"",""0"",""2269""
","
","null","<p></p>","null","","","","","","","","","","","","","","","","","","","","","","","",""
"","do_trial","245","674881","0.0-131.0-0.0","""event"",""trial"",""time""
""fullscreenenter"",""0"",""2269""
","
","
","""event"",""trial"",""time""
""fullscreenenter"",""0"",""2269""
","
","500.3999999985099","","","","","","","","49","0,0,1","6","blank","342","null","0.23534250379920463","0.12023640607069833","0.6897096882710916","0","","","","","","","","",""
"","html-keyboard-response","246","675887","0.0-131.0-1.0","""event"",""trial"",""time""
""fullscreenenter"",""0"",""2269""
","
","
","""event"",""trial"",""time""
""fullscreenenter"",""0"",""2269""
","
","null","<p></p>","null","","","","","","","","","","","","","","","","","","","","","","","",""
"","do_trial","247","682002","0.0-132.0-0.0","""event"",""trial"",""time""
""fullscreenenter"",""0"",""2269""
","
","
","""event"",""trial"",""time""
""fullscreenenter"",""0"",""2269""
","
","null","","","","","","","","null","0,0,1","6","blank","343","null","0.22696651638218332","0.14400271196128248","0.5830055323225061","","","","","","","","","",""
"","html-keyboard-response","248","683009","0.0-132.0-1.0","""event"",""trial"",""time""
""fullscreenenter"",""0"",""2269""
","
","
","""event"",""trial"",""time""
""fullscreenenter"",""0"",""2269""
","
","null","<p></p>","null","","","","","","","","","","","","","","","","","","","","","","","",""
"","do_recog","249","685557","0.0-133.0-0.0","""event"",""trial"",""time""
""fullscreenenter"",""0"",""2269""
","
","
","""event"",""trial"",""time""
""fullscreenenter"",""0"",""2269""
","
","1030.5","","","","","","","","53","","","","344","probe-219","","","","","1","[object Object]","156","3","1","","","",""
"","html-keyboard-response","250","686562","0.0-133.0-1.0","""event"",""trial"",""time""
""fullscreenenter"",""0"",""2269""
","
","
","""event"",""trial"",""time""
""fullscreenenter"",""0"",""2269""
","
","null","<p></p>","null","","","","","","","","","","","","","","","","","","","","","","","",""
"","do_trial","251","689819","0.0-134.0-0.0","""event"",""trial"",""time""
""fullscreenenter"",""0"",""2269""
","
","
","""event"",""trial"",""time""
""fullscreenenter"",""0"",""2269""
","
","642.8999999985099","","","","","","","","49","0,0,1","6","blank","345","null","0.22707624354782596","0.15573853580363417","0.6342953969680143","0","","","","","","","","",""
"","html-keyboard-response","252","690824","0.0-134.0-1.0","""event"",""trial"",""time""
""fullscreenenter"",""0"",""2269""
","
","
","""event"",""trial"",""time""
""fullscreenenter"",""0"",""2269""
","
","null","<p></p>","null","","","","","","","","","","","","","","","","","","","","","","","",""
"","do_trial","253","694745","0.0-135.0-0.0","""event"",""trial"",""time""
""fullscreenenter"",""0"",""2269""
","
","
","""event"",""trial"",""time""
""fullscreenenter"",""0"",""2269""
","
","1302.199999999255","","","","","","","","51","0,0,0","6","blank","346","null","0.2502520810641657","0.12005238602069454","0.5186967050154964","0","","","","","","","","",""
"","html-keyboard-response","254","695750","0.0-135.0-1.0","""event"",""trial"",""time""
""fullscreenenter"",""0"",""2269""
","
","
","""event"",""trial"",""time""
""fullscreenenter"",""0"",""2269""
","
","null","<p></p>","null","","","","","","","","","","","","","","","","","","","","","","","",""
"","do_trial","255","698734","0.0-136.0-0.0","""event"",""trial"",""time""
""fullscreenenter"",""0"",""2269""
","
","
","""event"",""trial"",""time""
""fullscreenenter"",""0"",""2269""
","
","368.5999999977648","","","","","","","","49","0,1,1","6","blank","347","null","0.21121573443872513","0.2163403638359763","0.47111766148419654","0","","","","","","","","",""
"","html-keyboard-response","256","699740","0.0-136.0-1.0","""event"",""trial"",""time""
""fullscreenenter"",""0"",""2269""
","
","
","""event"",""trial"",""time""
""fullscreenenter"",""0"",""2269""
","
","null","<p></p>","null","","","","","","","","","","","","","","","","","","","","","","","",""
"","do_trial","257","702756","0.0-137.0-0.0","""event"",""trial"",""time""
""fullscreenenter"",""0"",""2269""
","
","
","""event"",""trial"",""time""
""fullscreenenter"",""0"",""2269""
","
","397.5999999977648","","","","","","","","50","0,0,0","6","blank","348","null","0.1777914714271606","0.26938453243180244","0.40997408039714645","0","","","","","","","","",""
"","html-keyboard-response","258","703761","0.0-137.0-1.0","""event"",""trial"",""time""
""fullscreenenter"",""0"",""2269""
","
","
","""event"",""trial"",""time""
""fullscreenenter"",""0"",""2269""
","
","null","<p></p>","null","","","","","","","","","","","","","","","","","","","","","","","",""
"","break","259","704801","0.0-138.0-0.0","""event"",""trial"",""time""
""fullscreenenter"",""0"",""2269""
","
","
","""event"",""trial"",""time""
""fullscreenenter"",""0"",""2269""
","
","1035.800000000745","<div class='center'><p>Time to take a quick break! You have 2 minutes to rest, but you can move on sooner if you'd like.</p><p> Press the <b>space bar</b> to continue.</p></div>","32","","","","","","","","","","","","","","","","","","","","","","","",""
"","do_trial","260","708118","0.0-138.0-1.0","""event"",""trial"",""time""
""fullscreenenter"",""0"",""2269""
","
","
","""event"",""trial"",""time""
""fullscreenenter"",""0"",""2269""
","
","700.6000000014901","","","","","","","","49","0,0,0","6","blank","349","null","0.2085269421374347","0.3249503981098578","0.35318247086558835","0","","","","","","","","",""
"","html-keyboard-response","261","709124","0.0-138.0-2.0","""event"",""trial"",""time""
""fullscreenenter"",""0"",""2269""
","
","
","""event"",""trial"",""time""
""fullscreenenter"",""0"",""2269""
","
","null","<p></p>","null","","","","","","","","","","","","","","","","","","","","","","","",""
"","do_recog","262","711741","0.0-139.0-0.0","""event"",""trial"",""time""
""fullscreenenter"",""0"",""2269""
","
","
","""event"",""trial"",""time""
""fullscreenenter"",""0"",""2269""
","
","1099.3999999985099","","","","","","","","53","","","","350","probe-156","","","","","1","[object Object]","39","0","1","","","",""
"","html-keyboard-response","263","712747","0.0-139.0-1.0","""event"",""trial"",""time""
""fullscreenenter"",""0"",""2269""
","
","
","""event"",""trial"",""time""
""fullscreenenter"",""0"",""2269""
","
","null","<p></p>","null","","","","","","","","","","","","","","","","","","","","","","","",""
"","do_trial","264","715833","0.0-140.0-0.0","""event"",""trial"",""time""
""fullscreenenter"",""0"",""2269""
","
","
","""event"",""trial"",""time""
""fullscreenenter"",""0"",""2269""
","
","471.30000000074506","","","","","","","","50","1,0,0","6","blank","351","null","0.09667152337931051","0.3826878086029826","0.4046161256529607","0","","","","","","","","",""
"","html-keyboard-response","265","716838","0.0-140.0-1.0","""event"",""trial"",""time""
""fullscreenenter"",""0"",""2269""
","
","
","""event"",""trial"",""time""
""fullscreenenter"",""0"",""2269""
","
","null","<p></p>","null","","","","","","","","","","","","","","","","","","","","","","","",""
"","do_trial","266","719748","0.0-141.0-0.0","""event"",""trial"",""time""
""fullscreenenter"",""0"",""2269""
","
","
","""event"",""trial"",""time""
""fullscreenenter"",""0"",""2269""
","
","293.0999999977648","","","","","","","","51","0,0,0","6","blank","352","null","0.05546024282005518","0.5431545723762715","0.2538535761064707","0","","","","","","","","",""
"","html-keyboard-response","267","720753","0.0-141.0-1.0","""event"",""trial"",""time""
""fullscreenenter"",""0"",""2269""
","
","
","""event"",""trial"",""time""
""fullscreenenter"",""0"",""2269""
","
","null","<p></p>","null","","","","","","","","","","","","","","","","","","","","","","","",""
"","do_trial","268","723443","0.0-142.0-0.0","""event"",""trial"",""time""
""fullscreenenter"",""0"",""2269""
","
","
","""event"",""trial"",""time""
""fullscreenenter"",""0"",""2269""
","
","70.59999999776483","","","","","","","","49","0,1,0","6","blank","353","null","0.15045275395662386","0.63141590347741","0.4437453799496731","0","","","","","","","","",""
"","html-keyboard-response","269","724448","0.0-142.0-1.0","""event"",""trial"",""time""
""fullscreenenter"",""0"",""2269""
","
","
","""event"",""trial"",""time""
""fullscreenenter"",""0"",""2269""
","
","null","<p></p>","null","","","","","","","","","","","","","","","","","","","","","","","",""
"","do_trial","270","727158","0.0-143.0-0.0","""event"",""trial"",""time""
""fullscreenenter"",""0"",""2269""
","
","
","""event"",""trial"",""time""
""fullscreenenter"",""0"",""2269""
","
","92.80000000074506","","","","","","","","51","1,0,0","6","blank","354","null","0.18197124365590334","0.5410675101506786","0.5019539746358033","0","","","","","","","","",""
"","html-keyboard-response","271","728164","0.0-143.0-1.0","""event"",""trial"",""time""
""fullscreenenter"",""0"",""2269""
","
","
","""event"",""trial"",""time""
""fullscreenenter"",""0"",""2269""
","
","null","<p></p>","null","","","","","","","","","","","","","","","","","","","","","","","",""
"","do_trial","272","730884","0.0-144.0-0.0","""event"",""trial"",""time""
""fullscreenenter"",""0"",""2269""
","
","
","""event"",""trial"",""time""
""fullscreenenter"",""0"",""2269""
","
","100","","","","","","","","51","1,1,0","6","blank","355","null","0.08261922105504761","0.6410482547946385","0.39362313546104843","0","","","","","","","","",""
"","html-keyboard-response","273","731889","0.0-144.0-1.0","""event"",""trial"",""time""
""fullscreenenter"",""0"",""2269""
","
","
","""event"",""trial"",""time""
""fullscreenenter"",""0"",""2269""
","
","null","<p></p>","null","","","","","","","","","","","","","","","","","","","","","","","",""
"","do_trial","274","734862","0.0-145.0-0.0","""event"",""trial"",""time""
""fullscreenenter"",""0"",""2269""
","
","
","""event"",""trial"",""time""
""fullscreenenter"",""0"",""2269""
","
","351.19999999925494","","","","","","","","49","0,1,0","6","blank","356","null","0.10778550431081849","0.6386391098671423","0.13721408486429598","0","","","","","","","","",""
"","html-keyboard-response","275","735867","0.0-145.0-1.0","""event"",""trial"",""time""
""fullscreenenter"",""0"",""2269""
","
","
","""event"",""trial"",""time""
""fullscreenenter"",""0"",""2269""
","
","null","<p></p>","null","","","","","","","","","","","","","","","","","","","","","","","",""
"","do_recog","276","738393","0.0-146.0-0.0","""event"",""trial"",""time""
""fullscreenenter"",""0"",""2269""
","
","
","""event"",""trial"",""time""
""fullscreenenter"",""0"",""2269""
","
","1007.5","","","","","","","","53","","","","357","probe-171","","","","","1","[object Object]","152","3","1","","","",""
"","html-keyboard-response","277","739398","0.0-146.0-1.0","""event"",""trial"",""time""
""fullscreenenter"",""0"",""2269""
","
","
","""event"",""trial"",""time""
