"success","trial_type","trial_index","time_elapsed","internal_node_id","interactions","blur_events","focus_events","fullscreenenter_events","fullscreenexit_events","rt","stimulus","key_press","subject_id","participant_id","age","gender","prompt","response","choice_outcomes","context_n","context_img_id","trial_n","probe_img_id","pR_red","pR_white","pR_black","outcome","is_valid","image_to_show","probed_trial","probed_context","correct","probe","probed_trial_n","probed_context_n","context_im"
"true","fullscreen","0","2471","0.0-0.0","""event"",""trial"",""time""
""fullscreenenter"",""0"",""1482""
","
","
","""event"",""trial"",""time""
""fullscreenenter"",""0"",""1482""
","
","","","","","","","","","","","","","","","","","","","","","","","","","","",""
"","pavlovia","1","2477","0.0-1.0","""event"",""trial"",""time""
""fullscreenenter"",""0"",""1482""
","
","
","""event"",""trial"",""time""
""fullscreenenter"",""0"",""1482""
","
","","","","","","","","","","","","","","","","","","","","","","","","","","",""
"","welc_back","2","12247","0.0-2.0","""event"",""trial"",""time""
""fullscreenenter"",""0"",""1482""
","
","
","""event"",""trial"",""time""
""fullscreenenter"",""0"",""1482""
","
","null","run_exp/static/audio/clip_29_welcome_back.m4a","null","457","260","17","Male","<div class='center'><p>Welcome to day 2!</p><p> Yesterday, you were the head captain of a pirate ship. You asked your fellow pirates to rob other ships of their gold across six different islands.</p></div>","","","","","","","","","","","","","","","","","","",""
"","html-keyboard-response","3","14045","0.0-3.0","""event"",""trial"",""time""
""fullscreenenter"",""0"",""1482""
""fullscreenexit"",""4"",""17021""
""blur"",""4"",""18587""
","""event"",""trial"",""time""
""blur"",""4"",""18587""
","
","""event"",""trial"",""time""
""fullscreenenter"",""0"",""1482""
","""event"",""trial"",""time""
""fullscreenexit"",""4"",""17021""
","1794.5","<div class='center'><p>Welcome to day 2!</p><p> Yesterday, you were the head captain of a pirate ship. You asked your fellow pirates to rob other ships of their gold across six different islands.</p><p><b>[Press the space bar to continue]</b></p></div>","32","","","","","","","","","","","","","","","","","","","","","","","",""
"","day_1_summary_goal","4","31387","0.0-4.0","""event"",""trial"",""time""
""fullscreenenter"",""0"",""1482""
""fullscreenexit"",""4"",""17021""
""blur"",""4"",""18587""
""focus"",""5"",""36939""
","""event"",""trial"",""time""
""blur"",""4"",""18587""
","""event"",""trial"",""time""
""focus"",""5"",""36939""
","""event"",""trial"",""time""
""fullscreenenter"",""0"",""1482""
","""event"",""trial"",""time""
""fullscreenexit"",""4"",""17021""
","null","run_exp/static/audio/clip_30_goal_of_game.m4a","null","","","","","<div class='center'><p>Today, like yesterday, you get to pick which pirate you want to rob the next ship.</p><p>If the pirate is successful in robbing a ship, you get gold coins that look like this: </p><p><img src='run_exp/static/images/tutorial/reward.png' height='150'></p><p> If they were not successful in robbing the ship, then you will get no gold coins and you'll see a big red x like this: </p><p><img src='run_exp/static/images/tutorial/reward_no.png' height='150'></p></div>","","","","","","","","","","","","","","","","","","",""
"","html-keyboard-response","5","37701","0.0-5.0","""event"",""trial"",""time""
""fullscreenenter"",""0"",""1482""
""fullscreenexit"",""4"",""17021""
""blur"",""4"",""18587""
""focus"",""5"",""36939""
","""event"",""trial"",""time""
""blur"",""4"",""18587""
","""event"",""trial"",""time""
""focus"",""5"",""36939""
","""event"",""trial"",""time""
""fullscreenenter"",""0"",""1482""
","""event"",""trial"",""time""
""fullscreenexit"",""4"",""17021""
","6312.600000008941","<div class='center'><p>Today, like yesterday, you get to pick which pirate you want to rob the next ship.</p><p>If the pirate is successful in robbing a ship, you get gold coins that look like this: </p><p><img src='run_exp/static/images/tutorial/reward.png' height='150'></p><p> If they were not successful in robbing the ship, then you will get no gold coins and you'll see a big red x like this: </p><p><img src='run_exp/static/images/tutorial/reward_no.png' height='150'></p><p><b>[Press the space bar to continue]</b></p></div>","32","","","","","","","","","","","","","","","","","","","","","","","",""
"","day_1_summary_pick","6","52558","0.0-6.0","""event"",""trial"",""time""
""fullscreenenter"",""0"",""1482""
""fullscreenexit"",""4"",""17021""
""blur"",""4"",""18587""
""focus"",""5"",""36939""
","""event"",""trial"",""time""
""blur"",""4"",""18587""
","""event"",""trial"",""time""
""focus"",""5"",""36939""
","""event"",""trial"",""time""
""fullscreenenter"",""0"",""1482""
","""event"",""trial"",""time""
""fullscreenexit"",""4"",""17021""
","null","run_exp/static/audio/clip_31_how_to_pick_a_pirate.m4a","null","","","","","<div class='center'><p>Also, just like yesterday, you will use the 1,2,3 keys on your keyboard to pick a pirate. Press '1' to choose red beard, '2' to choose white beard, and '3' to choose black beard . You only have 3 seconds to pick a pirate, so please make a choice quickly!</p></div>","","","","","","","","","","","","","","","","","","",""
"","html-keyboard-response","7","53393","0.0-7.0","""event"",""trial"",""time""
""fullscreenenter"",""0"",""1482""
""fullscreenexit"",""4"",""17021""
""blur"",""4"",""18587""
""focus"",""5"",""36939""
","""event"",""trial"",""time""
""blur"",""4"",""18587""
","""event"",""trial"",""time""
""focus"",""5"",""36939""
","""event"",""trial"",""time""
""fullscreenenter"",""0"",""1482""
","""event"",""trial"",""time""
""fullscreenexit"",""4"",""17021""
","833.8999999910593","<div class='center'><p>Also, just like yesterday, you will use the 1,2,3 keys on your keyboard to pick a pirate. Press '1' to choose red beard, '2' to choose white beard, and '3' to choose black beard . You only have 3 seconds to pick a pirate, so please make a choice quickly!</p><p><b>[Press the space bar to continue]</b></p></div>","32","","","","","","","","","","","","","","","","","","","","","","","",""
"","test_phase_begin","8","83951","0.0-8.0","""event"",""trial"",""time""
""fullscreenenter"",""0"",""1482""
""fullscreenexit"",""4"",""17021""
""blur"",""4"",""18587""
""focus"",""5"",""36939""
","""event"",""trial"",""time""
""blur"",""4"",""18587""
","""event"",""trial"",""time""
""focus"",""5"",""36939""
","""event"",""trial"",""time""
""fullscreenenter"",""0"",""1482""
","""event"",""trial"",""time""
""fullscreenexit"",""4"",""17021""
","null","run_exp/static/audio/clip_32_final_place.m4a","null","","","","","<div class='center'><p>You’ve arrived at the final island of your journey! Unfortunately, it’s very foggy out, so you won’t be able to see it in the distance like the other islands you've visited.</p><p>You’ll still be deciding which pirate you want to rob a ship like before. However, because of the fog, you also won’t be able to see the ship.</p><p>This means you do not have to remember the ships you rob on this island.</p><p>Unlike yesterday, you won't be visiting multiple islands today. You will stay on this island for the entire game. This game will last ~30 minutes.</p></div>","","","","","","","","","","","","","","","","","","",""
"","html-keyboard-response","9","84869","0.0-9.0","""event"",""trial"",""time""
""fullscreenenter"",""0"",""1482""
""fullscreenexit"",""4"",""17021""
""blur"",""4"",""18587""
""focus"",""5"",""36939""
","""event"",""trial"",""time""
""blur"",""4"",""18587""
","""event"",""trial"",""time""
""focus"",""5"",""36939""
","""event"",""trial"",""time""
""fullscreenenter"",""0"",""1482""
","""event"",""trial"",""time""
""fullscreenexit"",""4"",""17021""
","916.7000000029802","<div class='center'><p>You’ve arrived at the final island of your journey! Unfortunately, it’s very foggy out, so you won’t be able to see it in the distance like the other islands you've visited.</p><p>You’ll still be deciding which pirate you want to rob a ship like before. However, because of the fog, you also won’t be able to see the ship.</p><p>This means you do not have to remember the ships you rob on this island.</p><p>Unlike yesterday, you won't be visiting multiple islands today. You will stay on this island for the entire game. This game will last ~30 minutes.</p><p><b>[Press the space bar to continue]</b></p></div>","32","","","","","","","","","","","","","","","","","","","","","","","",""
"","explain_probe_1","10","92774","0.0-10.0","""event"",""trial"",""time""
""fullscreenenter"",""0"",""1482""
""fullscreenexit"",""4"",""17021""
""blur"",""4"",""18587""
""focus"",""5"",""36939""
","""event"",""trial"",""time""
""blur"",""4"",""18587""
","""event"",""trial"",""time""
""focus"",""5"",""36939""
","""event"",""trial"",""time""
""fullscreenenter"",""0"",""1482""
","""event"",""trial"",""time""
""fullscreenexit"",""4"",""17021""
","null","run_exp/static/audio/clip_33_recognition_1.m4a","null","","","","","<div class='center'><p> Sometimes you’ll be shown a ship, and you will be asked if you saw this ship on a past island.</p><p> Here is an example of what you will see.</p><p><img src='run_exp/static/images/tutorial/example_recog_trial.png' height='500'></p></div>","","","","","","","","","","","","","","","","","","",""
"","html-keyboard-response","11","96570","0.0-11.0","""event"",""trial"",""time""
""fullscreenenter"",""0"",""1482""
""fullscreenexit"",""4"",""17021""
""blur"",""4"",""18587""
""focus"",""5"",""36939""
","""event"",""trial"",""time""
""blur"",""4"",""18587""
","""event"",""trial"",""time""
""focus"",""5"",""36939""
","""event"",""trial"",""time""
""fullscreenenter"",""0"",""1482""
","""event"",""trial"",""time""
""fullscreenexit"",""4"",""17021""
","3793.5999999940395","<div class='center'><p> Sometimes you’ll be shown a ship, and you will be asked if you saw this ship on a past island.</p><p> Here is an example of what you will see.</p><p><img src='run_exp/static/images/tutorial/example_recog_trial.png' height='500'></p><p><b>[Press the space bar to continue]</b></p></div>","32","","","","","","","","","","","","","","","","","","","","","","","",""
"","explain_probe_2","12","118409","0.0-12.0","""event"",""trial"",""time""
""fullscreenenter"",""0"",""1482""
""fullscreenexit"",""4"",""17021""
""blur"",""4"",""18587""
""focus"",""5"",""36939""
","""event"",""trial"",""time""
""blur"",""4"",""18587""
","""event"",""trial"",""time""
""focus"",""5"",""36939""
","""event"",""trial"",""time""
""fullscreenenter"",""0"",""1482""
","""event"",""trial"",""time""
""fullscreenexit"",""4"",""17021""
","null","run_exp/static/audio/clip_34_recognition_2.m4a","null","","","","","<div class='center'><p> You will press the 5, 6, 7, 8 keys on your keyboard to respond.</p><p>If you are sure you saw the ship, press <b>5</b> on your keyboard.</p><p> If you think you saw it before but aren't sure, then press <b>6</b>.</p><p> If you think you have <b>not</b> seen it before but aren't sure, then press <b>7</b>.</p><p> If you are sure you did <b>not</b> see the ship before, then press <b>8</b>.</p><p><img src='run_exp/static/images/tutorial/example_recog_trial.png' height='500'></p></div>","","","","","","","","","","","","","","","","","","",""
"","html-keyboard-response","13","120931","0.0-13.0","""event"",""trial"",""time""
""fullscreenenter"",""0"",""1482""
""fullscreenexit"",""4"",""17021""
""blur"",""4"",""18587""
""focus"",""5"",""36939""
","""event"",""trial"",""time""
""blur"",""4"",""18587""
","""event"",""trial"",""time""
""focus"",""5"",""36939""
","""event"",""trial"",""time""
""fullscreenenter"",""0"",""1482""
","""event"",""trial"",""time""
""fullscreenexit"",""4"",""17021""
","2519.800000011921","<div class='center'><p> You will press the 5, 6, 7, 8 keys on your keyboard to respond.</p><p>If you are sure you saw the ship, press <b>5</b> on your keyboard.</p><p> If you think you saw it before but aren't sure, then press <b>6</b>.</p><p> If you think you have <b>not</b> seen it before but aren't sure, then press <b>7</b>.</p><p> If you are sure you did <b>not</b> see the ship before, then press <b>8</b>.</p><p><img src='run_exp/static/images/tutorial/example_recog_trial.png' height='500'></p><p><b>[Press the space bar to continue]</b></p></div>","32","","","","","","","","","","","","","","","","","","","","","","","",""
"","explain_outcome","14","138286","0.0-14.0","""event"",""trial"",""time""
""fullscreenenter"",""0"",""1482""
""fullscreenexit"",""4"",""17021""
""blur"",""4"",""18587""
""focus"",""5"",""36939""
","""event"",""trial"",""time""
""blur"",""4"",""18587""
","""event"",""trial"",""time""
""focus"",""5"",""36939""
","""event"",""trial"",""time""
""fullscreenenter"",""0"",""1482""
","""event"",""trial"",""time""
""fullscreenexit"",""4"",""17021""
","null","run_exp/static/audio/clip_35_recognition_3.m4a","null","","","","","<div class='center'><p> If you remember correctly, then you’ll get a gold coin like this: </p><p><img src='run_exp/static/images/tutorial/reward_small.png' height='200'></p><p>If you do not remember correctly, then you'll see a red x like this: </p><p><img src='run_exp/static/images/tutorial/reward_no.png' height='200'></p><p>Importantly, when you are shown a ship, take the time to remind yourself which island you saw it on. This will help you in the next part of the study.</p></div>","","","","","","","","","","","","","","","","","","",""
"","html-keyboard-response","15","140431","0.0-15.0","""event"",""trial"",""time""
""fullscreenenter"",""0"",""1482""
""fullscreenexit"",""4"",""17021""
""blur"",""4"",""18587""
""focus"",""5"",""36939""
","""event"",""trial"",""time""
""blur"",""4"",""18587""
","""event"",""trial"",""time""
""focus"",""5"",""36939""
","""event"",""trial"",""time""
""fullscreenenter"",""0"",""1482""
","""event"",""trial"",""time""
""fullscreenexit"",""4"",""17021""
","2143.0999999940395","<div class='center'><p> If you remember correctly, then you’ll get a gold coin like this: </p><p><img src='run_exp/static/images/tutorial/reward_small.png' height='200'></p><p>If you do not remember correctly, then you'll see a red x like this: </p><p><img src='run_exp/static/images/tutorial/reward_no.png' height='200'></p><p>Importantly, when you are shown a ship, take the time to remind yourself which island you saw it on. This will help you in the next part of the study.</p><p><b>[Press the space bar to continue]</b></p></div>","32","","","","","","","","","","","","","","","","","","","","","","","",""
"","begin_test_phase","16","156402","0.0-16.0","""event"",""trial"",""time""
""fullscreenenter"",""0"",""1482""
""fullscreenexit"",""4"",""17021""
""blur"",""4"",""18587""
""focus"",""5"",""36939""
","""event"",""trial"",""time""
""blur"",""4"",""18587""
","""event"",""trial"",""time""
""focus"",""5"",""36939""
","""event"",""trial"",""time""
""fullscreenenter"",""0"",""1482""
","""event"",""trial"",""time""
""fullscreenexit"",""4"",""17021""
","null","run_exp/static/audio/clip_36_begin_final.m4a","null","","","","","<div class='center'><p>Let's go over the important points again. Your job is to: </p><p>1. Pick the pirate who is best at robbing ships and will bring you back gold coins. </p><p>2. Correctly remember whether or not you saw a ship before. If you did see the ship before, remind yourself on which island you saw it. </p></div>","","","","","","","","","","","","","","","","","","",""
"","html-keyboard-response","17","163783","0.0-17.0","""event"",""trial"",""time""
""fullscreenenter"",""0"",""1482""
""fullscreenexit"",""4"",""17021""
""blur"",""4"",""18587""
""focus"",""5"",""36939""
","""event"",""trial"",""time""
""blur"",""4"",""18587""
","""event"",""trial"",""time""
""focus"",""5"",""36939""
","""event"",""trial"",""time""
""fullscreenenter"",""0"",""1482""
","""event"",""trial"",""time""
""fullscreenexit"",""4"",""17021""
","7285.4000000059605","<div class='center'><p>Let's go over the important points again. Your job is to: </p><p>1. Pick the pirate who is best at robbing ships and will bring you back gold coins. </p><p>2. Correctly remember whether or not you saw a ship before. If you did see the ship before, remind yourself on which island you saw it. </p><p><b>[Press the space bar to continue]</b></p></div>","32","","","","","","","","","","","","","","","","","","","","","","","",""
"","do_welcome","18","167792","0.0-18.0","""event"",""trial"",""time""
""fullscreenenter"",""0"",""1482""
""fullscreenexit"",""4"",""17021""
""blur"",""4"",""18587""
""focus"",""5"",""36939""
","""event"",""trial"",""time""
""blur"",""4"",""18587""
","""event"",""trial"",""time""
""focus"",""5"",""36939""
","""event"",""trial"",""time""
""fullscreenenter"",""0"",""1482""
","""event"",""trial"",""time""
""fullscreenexit"",""4"",""17021""
","null","","","","","","","","null","","","","","","","","","","","","","","","","","",""
"","do_trial","19","172223","0.0-19.0-0.0","""event"",""trial"",""time""
""fullscreenenter"",""0"",""1482""
""fullscreenexit"",""4"",""17021""
""blur"",""4"",""18587""
""focus"",""5"",""36939""
","""event"",""trial"",""time""
""blur"",""4"",""18587""
","""event"",""trial"",""time""
""focus"",""5"",""36939""
","""event"",""trial"",""time""
""fullscreenenter"",""0"",""1482""
","""event"",""trial"",""time""
""fullscreenexit"",""4"",""17021""
","1861.5","","","","","","","","50","1,0,0","6","blank","230","null","0.7573402169082083","0.19673829713118504","0.36815079528473404","0","","","","","","","","",""
"","html-keyboard-response","20","173227","0.0-19.0-1.0","""event"",""trial"",""time""
""fullscreenenter"",""0"",""1482""
""fullscreenexit"",""4"",""17021""
""blur"",""4"",""18587""
""focus"",""5"",""36939""
","""event"",""trial"",""time""
""blur"",""4"",""18587""
","""event"",""trial"",""time""
""focus"",""5"",""36939""
","""event"",""trial"",""time""
""fullscreenenter"",""0"",""1482""
","""event"",""trial"",""time""
""fullscreenexit"",""4"",""17021""
","null","<p></p>","null","","","","","","","","","","","","","","","","","","","","","","","",""
"","do_trial","21","176453","0.0-20.0-0.0","""event"",""trial"",""time""
""fullscreenenter"",""0"",""1482""
""fullscreenexit"",""4"",""17021""
""blur"",""4"",""18587""
""focus"",""5"",""36939""
","""event"",""trial"",""time""
""blur"",""4"",""18587""
","""event"",""trial"",""time""
""focus"",""5"",""36939""
","""event"",""trial"",""time""
""fullscreenenter"",""0"",""1482""
","""event"",""trial"",""time""
""fullscreenexit"",""4"",""17021""
","654.5999999940395","","","","","","","","49","0,1,1","6","blank","231","null","0.6755565576986827","0.30408892741704546","0.284340129409761","0","","","","","","","","",""
"","html-keyboard-response","22","177456","0.0-20.0-1.0","""event"",""trial"",""time""
""fullscreenenter"",""0"",""1482""
""fullscreenexit"",""4"",""17021""
""blur"",""4"",""18587""
""focus"",""5"",""36939""
","""event"",""trial"",""time""
""blur"",""4"",""18587""
","""event"",""trial"",""time""
""focus"",""5"",""36939""
","""event"",""trial"",""time""
""fullscreenenter"",""0"",""1482""
","""event"",""trial"",""time""
""fullscreenexit"",""4"",""17021""
","null","<p></p>","null","","","","","","","","","","","","","","","","","","","","","","","",""
"","do_trial","23","180194","0.0-21.0-0.0","""event"",""trial"",""time""
""fullscreenenter"",""0"",""1482""
""fullscreenexit"",""4"",""17021""
""blur"",""4"",""18587""
""focus"",""5"",""36939""
","""event"",""trial"",""time""
""blur"",""4"",""18587""
","""event"",""trial"",""time""
""focus"",""5"",""36939""
","""event"",""trial"",""time""
""fullscreenenter"",""0"",""1482""
","""event"",""trial"",""time""
""fullscreenexit"",""4"",""17021""
","172.8999999910593","","","","","","","","51","0,0,0","6","blank","232","null","0.6016793175598147","0.36726215991061717","0.15653399345692587","0","","","","","","","","",""
"","html-keyboard-response","24","181197","0.0-21.0-1.0","""event"",""trial"",""time""
""fullscreenenter"",""0"",""1482""
""fullscreenexit"",""4"",""17021""
""blur"",""4"",""18587""
""focus"",""5"",""36939""
","""event"",""trial"",""time""
""blur"",""4"",""18587""
","""event"",""trial"",""time""
""focus"",""5"",""36939""
","""event"",""trial"",""time""
""fullscreenenter"",""0"",""1482""
","""event"",""trial"",""time""
""fullscreenexit"",""4"",""17021""
","null","<p></p>","null","","","","","","","","","","","","","","","","","","","","","","","",""
"","do_trial","25","183776","0.0-22.0-0.0","""event"",""trial"",""time""
""fullscreenenter"",""0"",""1482""
""fullscreenexit"",""4"",""17021""
""blur"",""4"",""18587""
""focus"",""5"",""36939""
","""event"",""trial"",""time""
""blur"",""4"",""18587""
","""event"",""trial"",""time""
""focus"",""5"",""36939""
","""event"",""trial"",""time""
""fullscreenenter"",""0"",""1482""
","""event"",""trial"",""time""
""fullscreenexit"",""4"",""17021""
","14.100000008940697","","","","","","","","50","0,0,0","6","blank","233","null","0.6426058531027361","0.33714972536023907","0.05499049678026736","0","","","","","","","","",""
"","html-keyboard-response","26","184779","0.0-22.0-1.0","""event"",""trial"",""time""
""fullscreenenter"",""0"",""1482""
""fullscreenexit"",""4"",""17021""
""blur"",""4"",""18587""
""focus"",""5"",""36939""
","""event"",""trial"",""time""
""blur"",""4"",""18587""
","""event"",""trial"",""time""
""focus"",""5"",""36939""
","""event"",""trial"",""time""
""fullscreenenter"",""0"",""1482""
","""event"",""trial"",""time""
""fullscreenexit"",""4"",""17021""
","null","<p></p>","null","","","","","","","","","","","","","","","","","","","","","","","",""
"","do_trial","27","187343","0.0-23.0-0.0","""event"",""trial"",""time""
""fullscreenenter"",""0"",""1482""
""fullscreenexit"",""4"",""17021""
""blur"",""4"",""18587""
""focus"",""5"",""36939""
","""event"",""trial"",""time""
""blur"",""4"",""18587""
","""event"",""trial"",""time""
""focus"",""5"",""36939""
","""event"",""trial"",""time""
""fullscreenenter"",""0"",""1482""
","""event"",""trial"",""time""
""fullscreenexit"",""4"",""17021""
","0.5","","","","","","","","50","0,1,0","6","blank","234","null","0.5687416210554406","0.36887760985979684","0.09535293532920491","1","","","","","","","","",""
"","html-keyboard-response","28","188346","0.0-23.0-1.0","""event"",""trial"",""time""
""fullscreenenter"",""0"",""1482""
""fullscreenexit"",""4"",""17021""
""blur"",""4"",""18587""
""focus"",""5"",""36939""
","""event"",""trial"",""time""
""blur"",""4"",""18587""
","""event"",""trial"",""time""
""focus"",""5"",""36939""
","""event"",""trial"",""time""
""fullscreenenter"",""0"",""1482""
","""event"",""trial"",""time""
""fullscreenexit"",""4"",""17021""
","null","<p></p>","null","","","","","","","","","","","","","","","","","","","","","","","",""
"","do_trial","29","190920","0.0-24.0-0.0","""event"",""trial"",""time""
""fullscreenenter"",""0"",""1482""
""fullscreenexit"",""4"",""17021""
""blur"",""4"",""18587""
""focus"",""5"",""36939""
","""event"",""trial"",""time""
""blur"",""4"",""18587""
","""event"",""trial"",""time""
""focus"",""5"",""36939""
","""event"",""trial"",""time""
""fullscreenenter"",""0"",""1482""
","""event"",""trial"",""time""
""fullscreenexit"",""4"",""17021""
","11.200000002980232","","","","","","","","49","0,1,0","6","blank","235","null","0.6865522624230969","0.47626340883927176","0.05543250707546946","0","","","","","","","","",""
"","html-keyboard-response","30","191923","0.0-24.0-1.0","""event"",""trial"",""time""
""fullscreenenter"",""0"",""1482""
""fullscreenexit"",""4"",""17021""
""blur"",""4"",""18587""
""focus"",""5"",""36939""
","""event"",""trial"",""time""
""blur"",""4"",""18587""
","""event"",""trial"",""time""
""focus"",""5"",""36939""
","""event"",""trial"",""time""
""fullscreenenter"",""0"",""1482""
","""event"",""trial"",""time""
""fullscreenexit"",""4"",""17021""
","null","<p></p>","null","","","","","","","","","","","","","","","","","","","","","","","",""
"","do_trial","31","194489","0.0-25.0-0.0","""event"",""trial"",""time""
""fullscreenenter"",""0"",""1482""
""fullscreenexit"",""4"",""17021""
""blur"",""4"",""18587""
""focus"",""5"",""36939""
","""event"",""trial"",""time""
""blur"",""4"",""18587""
","""event"",""trial"",""time""
""focus"",""5"",""36939""
","""event"",""trial"",""time""
""fullscreenenter"",""0"",""1482""
","""event"",""trial"",""time""
""fullscreenexit"",""4"",""17021""
","0.4000000059604645","","","","","","","","50","0,0,0","6","blank","236","null","0.5955176568536557","0.46930274138057826","0.12799245448477467","0","","","","","","","","",""
"","html-keyboard-response","32","195492","0.0-25.0-1.0","""event"",""trial"",""time""
""fullscreenenter"",""0"",""1482""
""fullscreenexit"",""4"",""17021""
""blur"",""4"",""18587""
""focus"",""5"",""36939""
","""event"",""trial"",""time""
""blur"",""4"",""18587""
","""event"",""trial"",""time""
""focus"",""5"",""36939""
","""event"",""trial"",""time""
""fullscreenenter"",""0"",""1482""
","""event"",""trial"",""time""
""fullscreenexit"",""4"",""17021""
","null","<p></p>","null","","","","","","","","","","","","","","","","","","","","","","","",""
"","do_trial","33","198072","0.0-26.0-0.0","""event"",""trial"",""time""
""fullscreenenter"",""0"",""1482""
""fullscreenexit"",""4"",""17021""
""blur"",""4"",""18587""
""focus"",""5"",""36939""
","""event"",""trial"",""time""
""blur"",""4"",""18587""
","""event"",""trial"",""time""
""focus"",""5"",""36939""
","""event"",""trial"",""time""
""fullscreenenter"",""0"",""1482""
","""event"",""trial"",""time""
""fullscreenexit"",""4"",""17021""
","15","","","","","","","","50","1,1,0","6","blank","237","null","0.5159122752839245","0.43461282268768286","0.20372110330376697","1","","","","","","","","",""
"","html-keyboard-response","34","199074","0.0-26.0-1.0","""event"",""trial"",""time""
""fullscreenenter"",""0"",""1482""
""fullscreenexit"",""4"",""17021""
""blur"",""4"",""18587""
""focus"",""5"",""36939""
","""event"",""trial"",""time""
""blur"",""4"",""18587""
","""event"",""trial"",""time""
""focus"",""5"",""36939""
","""event"",""trial"",""time""
""fullscreenenter"",""0"",""1482""
","""event"",""trial"",""time""
""fullscreenexit"",""4"",""17021""
","null","<p></p>","null","","","","","","","","","","","","","","","","","","","","","","","",""
"","do_trial","35","201638","0.0-27.0-0.0","""event"",""trial"",""time""
""fullscreenenter"",""0"",""1482""
""fullscreenexit"",""4"",""17021""
""blur"",""4"",""18587""
""focus"",""5"",""36939""
","""event"",""trial"",""time""
""blur"",""4"",""18587""
","""event"",""trial"",""time""
""focus"",""5"",""36939""
","""event"",""trial"",""time""
""fullscreenenter"",""0"",""1482""
","""event"",""trial"",""time""
""fullscreenexit"",""4"",""17021""
","0.5","","","","","","","","51","1,0,0","6","blank","238","null","0.6423531169337673","0.33163059044956017","0.3301947161472991","0","","","","","","","","",""
"","html-keyboard-response","36","202640","0.0-27.0-1.0","""event"",""trial"",""time""
""fullscreenenter"",""0"",""1482""
""fullscreenexit"",""4"",""17021""
""blur"",""4"",""18587""
""focus"",""5"",""36939""
","""event"",""trial"",""time""
""blur"",""4"",""18587""
","""event"",""trial"",""time""
""focus"",""5"",""36939""
","""event"",""trial"",""time""
""fullscreenenter"",""0"",""1482""
","""event"",""trial"",""time""
""fullscreenexit"",""4"",""17021""
","null","<p></p>","null","","","","","","","","","","","","","","","","","","","","","","","",""
"","do_trial","37","205215","0.0-28.0-0.0","""event"",""trial"",""time""
""fullscreenenter"",""0"",""1482""
""fullscreenexit"",""4"",""17021""
""blur"",""4"",""18587""
""focus"",""5"",""36939""
","""event"",""trial"",""time""
""blur"",""4"",""18587""
","""event"",""trial"",""time""
""focus"",""5"",""36939""
","""event"",""trial"",""time""
""fullscreenenter"",""0"",""1482""
","""event"",""trial"",""time""
""fullscreenexit"",""4"",""17021""
","12.200000002980232","","","","","","","","51","0,0,0","6","blank","239","null","0.7278107296268101","0.32048221074260647","0.17213881917258042","0","","","","","","","","",""
"","html-keyboard-response","38","206217","0.0-28.0-1.0","""event"",""trial"",""time""
""fullscreenenter"",""0"",""1482""
""fullscreenexit"",""4"",""17021""
""blur"",""4"",""18587""
""focus"",""5"",""36939""
","""event"",""trial"",""time""
""blur"",""4"",""18587""
","""event"",""trial"",""time""
""focus"",""5"",""36939""
","""event"",""trial"",""time""
""fullscreenenter"",""0"",""1482""
","""event"",""trial"",""time""
""fullscreenexit"",""4"",""17021""
","null","<p></p>","null","","","","","","","","","","","","","","","","","","","","","","","",""
"","do_trial","39","208853","0.0-29.0-0.0","""event"",""trial"",""time""
""fullscreenenter"",""0"",""1482""
""fullscreenexit"",""4"",""17021""
""blur"",""4"",""18587""
""focus"",""5"",""36939""
","""event"",""trial"",""time""
""blur"",""4"",""18587""
","""event"",""trial"",""time""
""focus"",""5"",""36939""
","""event"",""trial"",""time""
""fullscreenenter"",""0"",""1482""
","""event"",""trial"",""time""
""fullscreenexit"",""4"",""17021""
","71.09999999403954","","","","","","","","51","0,0,0","6","blank","240","null","0.7656575456781096","0.15285624681149532","0.09971540123764121","0","","","","","","","","",""
"","html-keyboard-response","40","209856","0.0-29.0-1.0","""event"",""trial"",""time""
""fullscreenenter"",""0"",""1482""
""fullscreenexit"",""4"",""17021""
""blur"",""4"",""18587""
""focus"",""5"",""36939""
","""event"",""trial"",""time""
""blur"",""4"",""18587""
","""event"",""trial"",""time""
""focus"",""5"",""36939""
","""event"",""trial"",""time""
""fullscreenenter"",""0"",""1482""
","""event"",""trial"",""time""
""fullscreenexit"",""4"",""17021""
","null","<p></p>","null","","","","","","","","","","","","","","","","","","","","","","","",""
"","do_recog","41","213802","0.0-30.0-0.0","""event"",""trial"",""time""
""fullscreenenter"",""0"",""1482""
""fullscreenexit"",""4"",""17021""
""blur"",""4"",""18587""
""focus"",""5"",""36939""
","""event"",""trial"",""time""
""blur"",""4"",""18587""
","""event"",""trial"",""time""
""focus"",""5"",""36939""
","""event"",""trial"",""time""
""fullscreenenter"",""0"",""1482""
","""event"",""trial"",""time""
""fullscreenexit"",""4"",""17021""
","2437.6000000089407","","","","","","","","54","","","","241","probe-168","","","","","1","[object Object]","158","3","1","","","",""
"","html-keyboard-response","42","214806","0.0-30.0-1.0","""event"",""trial"",""time""
""fullscreenenter"",""0"",""1482""
""fullscreenexit"",""4"",""17021""
""blur"",""4"",""18587""
""focus"",""5"",""36939""
","""event"",""trial"",""time""
""blur"",""4"",""18587""
","""event"",""trial"",""time""
""focus"",""5"",""36939""
","""event"",""trial"",""time""
""fullscreenenter"",""0"",""1482""
","""event"",""trial"",""time""
""fullscreenexit"",""4"",""17021""
","null","<p></p>","null","","","","","","","","","","","","","","","","","","","","","","","",""
"","do_trial","43","217820","0.0-31.0-0.0","""event"",""trial"",""time""
""fullscreenenter"",""0"",""1482""
""fullscreenexit"",""4"",""17021""
""blur"",""4"",""18587""
""focus"",""5"",""36939""
","""event"",""trial"",""time""
""blur"",""4"",""18587""
","""event"",""trial"",""time""
""focus"",""5"",""36939""
","""event"",""trial"",""time""
""fullscreenenter"",""0"",""1482""
","""event"",""trial"",""time""
""fullscreenexit"",""4"",""17021""
","449.59999999403954","","","","","","","","49","1,0,1","6","blank","242","null","0.7606867472349268","0.17565145014086045","0.15784250127311758","1","","","","","","","","",""
"","html-keyboard-response","44","218823","0.0-31.0-1.0","""event"",""trial"",""time""
""fullscreenenter"",""0"",""1482""
""fullscreenexit"",""4"",""17021""
""blur"",""4"",""18587""
""focus"",""5"",""36939""
","""event"",""trial"",""time""
""blur"",""4"",""18587""
","""event"",""trial"",""time""
""focus"",""5"",""36939""
","""event"",""trial"",""time""
""fullscreenenter"",""0"",""1482""
","""event"",""trial"",""time""
""fullscreenexit"",""4"",""17021""
","null","<p></p>","null","","","","","","","","","","","","","","","","","","","","","","","",""
"","do_trial","45","221596","0.0-32.0-0.0","""event"",""trial"",""time""
""fullscreenenter"",""0"",""1482""
""fullscreenexit"",""4"",""17021""
""blur"",""4"",""18587""
""focus"",""5"",""36939""
","""event"",""trial"",""time""
""blur"",""4"",""18587""
","""event"",""trial"",""time""
""focus"",""5"",""36939""
","""event"",""trial"",""time""
""fullscreenenter"",""0"",""1482""
","""event"",""trial"",""time""
""fullscreenexit"",""4"",""17021""
","205.09999999403954","","","","","","","","49","0,1,1","6","blank","243","null","0.39684534658543","0.14330428688036664","0.2440763955670199","0","","","","","","","","",""
"","html-keyboard-response","46","222598","0.0-32.0-1.0","""event"",""trial"",""time""
""fullscreenenter"",""0"",""1482""
""fullscreenexit"",""4"",""17021""
""blur"",""4"",""18587""
""focus"",""5"",""36939""
","""event"",""trial"",""time""
""blur"",""4"",""18587""
","""event"",""trial"",""time""
""focus"",""5"",""36939""
","""event"",""trial"",""time""
""fullscreenenter"",""0"",""1482""
","""event"",""trial"",""time""
""fullscreenexit"",""4"",""17021""
","null","<p></p>","null","","","","","","","","","","","","","","","","","","","","","","","",""
"","do_recog","47","225085","0.0-33.0-0.0","""event"",""trial"",""time""
""fullscreenenter"",""0"",""1482""
""fullscreenexit"",""4"",""17021""
""blur"",""4"",""18587""
""focus"",""5"",""36939""
","""event"",""trial"",""time""
""blur"",""4"",""18587""
","""event"",""trial"",""time""
""focus"",""5"",""36939""
","""event"",""trial"",""time""
""fullscreenenter"",""0"",""1482""
","""event"",""trial"",""time""
""fullscreenexit"",""4"",""17021""
","976.1000000089407","","","","","","","","55","","","","244","probe-164","","","","","1","[object Object]","71","1","0","","","",""
"","html-keyboard-response","48","226089","0.0-33.0-1.0","""event"",""trial"",""time""
""fullscreenenter"",""0"",""1482""
""fullscreenexit"",""4"",""17021""
""blur"",""4"",""18587""
""focus"",""5"",""36939""
","""event"",""trial"",""time""
""blur"",""4"",""18587""
","""event"",""trial"",""time""
""focus"",""5"",""36939""
","""event"",""trial"",""time""
""fullscreenenter"",""0"",""1482""
","""event"",""trial"",""time""
""fullscreenexit"",""4"",""17021""
","null","<p></p>","null","","","","","","","","","","","","","","","","","","","","","","","",""
"","do_trial","49","228678","0.0-34.0-0.0","""event"",""trial"",""time""
""fullscreenenter"",""0"",""1482""
""fullscreenexit"",""4"",""17021""
""blur"",""4"",""18587""
""focus"",""5"",""36939""
","""event"",""trial"",""time""
""blur"",""4"",""18587""
","""event"",""trial"",""time""
""focus"",""5"",""36939""
","""event"",""trial"",""time""
""fullscreenenter"",""0"",""1482""
","""event"",""trial"",""time""
""fullscreenexit"",""4"",""17021""
","27","","","","","","","","49","1,0,1","6","blank","245","null","0.23555299177157976","0.24358888289055972","0.412235638894256","1","","","","","","","","",""
"","html-keyboard-response","50","229681","0.0-34.0-1.0","""event"",""trial"",""time""
""fullscreenenter"",""0"",""1482""
""fullscreenexit"",""4"",""17021""
""blur"",""4"",""18587""
""focus"",""5"",""36939""
","""event"",""trial"",""time""
""blur"",""4"",""18587""
","""event"",""trial"",""time""
""focus"",""5"",""36939""
","""event"",""trial"",""time""
""fullscreenenter"",""0"",""1482""
","""event"",""trial"",""time""
""fullscreenexit"",""4"",""17021""
","null","<p></p>","null","","","","","","","","","","","","","","","","","","","","","","","",""
"","do_recog","51","232895","0.0-35.0-0.0","""event"",""trial"",""time""
""fullscreenenter"",""0"",""1482""
""fullscreenexit"",""4"",""17021""
""blur"",""4"",""18587""
""focus"",""5"",""36939""
","""event"",""trial"",""time""
""blur"",""4"",""18587""
","""event"",""trial"",""time""
""focus"",""5"",""36939""
","""event"",""trial"",""time""
""fullscreenenter"",""0"",""1482""
","""event"",""trial"",""time""
""fullscreenexit"",""4"",""17021""
","1703.7000000029802","","","","","","","","53","","","","246","probe-196","","","","","1","[object Object]","110","2","1","","","",""
"","html-keyboard-response","52","233898","0.0-35.0-1.0","""event"",""trial"",""time""
""fullscreenenter"",""0"",""1482""
""fullscreenexit"",""4"",""17021""
""blur"",""4"",""18587""
""focus"",""5"",""36939""
","""event"",""trial"",""time""
""blur"",""4"",""18587""
","""event"",""trial"",""time""
""focus"",""5"",""36939""
","""event"",""trial"",""time""
""fullscreenenter"",""0"",""1482""
","""event"",""trial"",""time""
""fullscreenexit"",""4"",""17021""
","null","<p></p>","null","","","","","","","","","","","","","","","","","","","","","","","",""
"","do_trial","53","236462","0.0-36.0-0.0","""event"",""trial"",""time""
""fullscreenenter"",""0"",""1482""
""fullscreenexit"",""4"",""17021""
""blur"",""4"",""18587""
""focus"",""5"",""36939""
","""event"",""trial"",""time""
""blur"",""4"",""18587""
","""event"",""trial"",""time""
""focus"",""5"",""36939""
","""event"",""trial"",""time""
""fullscreenenter"",""0"",""1482""
","""event"",""trial"",""time""
""fullscreenexit"",""4"",""17021""
","0.4000000059604645","","","","","","","","51","0,1,0","6","blank","247","null","0.08590643933888993","0.36302609963704685","0.40389077583408994","0","","","","","","","","",""
"","html-keyboard-response","54","237464","0.0-36.0-1.0","""event"",""trial"",""time""
""fullscreenenter"",""0"",""1482""
""fullscreenexit"",""4"",""17021""
""blur"",""4"",""18587""
""focus"",""5"",""36939""
","""event"",""trial"",""time""
""blur"",""4"",""18587""
","""event"",""trial"",""time""
""focus"",""5"",""36939""
","""event"",""trial"",""time""
""fullscreenenter"",""0"",""1482""
","""event"",""trial"",""time""
""fullscreenexit"",""4"",""17021""
","null","<p></p>","null","","","","","","","","","","","","","","","","","","","","","","","",""
"","do_trial","55","240029","0.0-37.0-0.0","""event"",""trial"",""time""
""fullscreenenter"",""0"",""1482""
""fullscreenexit"",""4"",""17021""
""blur"",""4"",""18587""
""focus"",""5"",""36939""
","""event"",""trial"",""time""
""blur"",""4"",""18587""
","""event"",""trial"",""time""
""focus"",""5"",""36939""
","""event"",""trial"",""time""
""fullscreenenter"",""0"",""1482""
","""event"",""trial"",""time""
""fullscreenexit"",""4"",""17021""
","0.3999999910593033","","","","","","","","51","0,1,0","6","blank","248","null","0.055307110703631375","0.2820477876435839","0.4102351406459615","0","","","","","","","","",""
"","html-keyboard-response","56","241032","0.0-37.0-1.0","""event"",""trial"",""time""
""fullscreenenter"",""0"",""1482""
""fullscreenexit"",""4"",""17021""
""blur"",""4"",""18587""
""focus"",""5"",""36939""
","""event"",""trial"",""time""
""blur"",""4"",""18587""
","""event"",""trial"",""time""
""focus"",""5"",""36939""
","""event"",""trial"",""time""
""fullscreenenter"",""0"",""1482""
","""event"",""trial"",""time""
""fullscreenexit"",""4"",""17021""
","null","<p></p>","null","","","","","","","","","","","","","","","","","","","","","","","",""
"","do_trial","57","243607","0.0-38.0-0.0","""event"",""trial"",""time""
""fullscreenenter"",""0"",""1482""
""fullscreenexit"",""4"",""17021""
""blur"",""4"",""18587""
""focus"",""5"",""36939""
","""event"",""trial"",""time""
""blur"",""4"",""18587""
","""event"",""trial"",""time""
""focus"",""5"",""36939""
","""event"",""trial"",""time""
""fullscreenenter"",""0"",""1482""
","""event"",""trial"",""time""
""fullscreenexit"",""4"",""17021""
","0.5","","","","","","","","50","0,0,1","6","blank","249","null","0.10606043606983284","0.3005420882571724","0.4755366055507539","0","","","","","","","","",""
"","html-keyboard-response","58","244609","0.0-38.0-1.0","""event"",""trial"",""time""
""fullscreenenter"",""0"",""1482""
""fullscreenexit"",""4"",""17021""
""blur"",""4"",""18587""
""focus"",""5"",""36939""
","""event"",""trial"",""time""
""blur"",""4"",""18587""
","""event"",""trial"",""time""
""focus"",""5"",""36939""
","""event"",""trial"",""time""
""fullscreenenter"",""0"",""1482""
","""event"",""trial"",""time""
""fullscreenexit"",""4"",""17021""
","null","<p></p>","null","","","","","","","","","","","","","","","","","","","","","","","",""
"","do_trial","59","247175","0.0-39.0-0.0","""event"",""trial"",""time""
""fullscreenenter"",""0"",""1482""
""fullscreenexit"",""4"",""17021""
""blur"",""4"",""18587""
""focus"",""5"",""36939""
","""event"",""trial"",""time""
""blur"",""4"",""18587""
","""event"",""trial"",""time""
""focus"",""5"",""36939""
","""event"",""trial"",""time""
""fullscreenenter"",""0"",""1482""
","""event"",""trial"",""time""
""fullscreenexit"",""4"",""17021""
","0.29999999701976776","","","","","","","","49","0,0,0","6","blank","250","null","0.1264076877696427","0.29367234999695785","0.3989493868826339","0","","","","","","","","",""
"","html-keyboard-response","60","248177","0.0-39.0-1.0","""event"",""trial"",""time""
""fullscreenenter"",""0"",""1482""
""fullscreenexit"",""4"",""17021""
""blur"",""4"",""18587""
""focus"",""5"",""36939""
","""event"",""trial"",""time""
""blur"",""4"",""18587""
","""event"",""trial"",""time""
""focus"",""5"",""36939""
","""event"",""trial"",""time""
""fullscreenenter"",""0"",""1482""
","""event"",""trial"",""time""
""fullscreenexit"",""4"",""17021""
","null","<p></p>","null","","","","","","","","","","","","","","","","","","","","","","","",""
"","do_trial","61","251167","0.0-40.0-0.0","""event"",""trial"",""time""
""fullscreenenter"",""0"",""1482""
""fullscreenexit"",""4"",""17021""
""blur"",""4"",""18587""
""focus"",""5"",""36939""
","""event"",""trial"",""time""
""blur"",""4"",""18587""
","""event"",""trial"",""time""
""focus"",""5"",""36939""
","""event"",""trial"",""time""
""fullscreenenter"",""0"",""1482""
","""event"",""trial"",""time""
""fullscreenexit"",""4"",""17021""
","425.5","","","","","","","","51","0,0,1","6","blank","251","null","0.11499350896512395","0.3314464032863529","0.544449949799403","1","","","","","","","","",""
"","html-keyboard-response","62","252170","0.0-40.0-1.0","""event"",""trial"",""time""
""fullscreenenter"",""0"",""1482""
""fullscreenexit"",""4"",""17021""
""blur"",""4"",""18587""
""focus"",""5"",""36939""
","""event"",""trial"",""time""
""blur"",""4"",""18587""
","""event"",""trial"",""time""
""focus"",""5"",""36939""
","""event"",""trial"",""time""
""fullscreenenter"",""0"",""1482""
","""event"",""trial"",""time""
""fullscreenexit"",""4"",""17021""
","null","<p></p>","null","","","","","","","","","","","","","","","","","","","","","","","",""
"","do_recog","63","255080","0.0-41.0-0.0","""event"",""trial"",""time""
""fullscreenenter"",""0"",""1482""
""fullscreenexit"",""4"",""17021""
""blur"",""4"",""18587""
""focus"",""5"",""36939""
","""event"",""trial"",""time""
""blur"",""4"",""18587""
","""event"",""trial"",""time""
""focus"",""5"",""36939""
","""event"",""trial"",""time""
""fullscreenenter"",""0"",""1482""
","""event"",""trial"",""time""
""fullscreenexit"",""4"",""17021""
","1400","","","","","","","","56","","","","252","probe-252","","","","","0","[object Object]","null","null","1","","","",""
"","html-keyboard-response","64","256083","0.0-41.0-1.0","""event"",""trial"",""time""
""fullscreenenter"",""0"",""1482""
""fullscreenexit"",""4"",""17021""
""blur"",""4"",""18587""
""focus"",""5"",""36939""
","""event"",""trial"",""time""
""blur"",""4"",""18587""
","""event"",""trial"",""time""
""focus"",""5"",""36939""
","""event"",""trial"",""time""
""fullscreenenter"",""0"",""1482""
","""event"",""trial"",""time""
""fullscreenexit"",""4"",""17021""
","null","<p></p>","null","","","","","","","","","","","","","","","","","","","","","","","",""
"","do_trial","65","258648","0.0-42.0-0.0","""event"",""trial"",""time""
""fullscreenenter"",""0"",""1482""
""fullscreenexit"",""4"",""17021""
""blur"",""4"",""18587""
""focus"",""5"",""36939""
","""event"",""trial"",""time""
""blur"",""4"",""18587""
","""event"",""trial"",""time""
""focus"",""5"",""36939""
","""event"",""trial"",""time""
""fullscreenenter"",""0"",""1482""
","""event"",""trial"",""time""
""fullscreenexit"",""4"",""17021""
","0.29999999701976776","","","","","","","","51","1,0,1","6","blank","253","null","0.12036657835226383","0.2801603972103589","0.8474836674231494","1","","","","","","","","",""
"","html-keyboard-response","66","259651","0.0-42.0-1.0","""event"",""trial"",""time""
""fullscreenenter"",""0"",""1482""
""fullscreenexit"",""4"",""17021""
""blur"",""4"",""18587""
""focus"",""5"",""36939""
","""event"",""trial"",""time""
""blur"",""4"",""18587""
","""event"",""trial"",""time""
""focus"",""5"",""36939""
","""event"",""trial"",""time""
""fullscreenenter"",""0"",""1482""
","""event"",""trial"",""time""
""fullscreenexit"",""4"",""17021""
","null","<p></p>","null","","","","","","","","","","","","","","","","","","","","","","","",""
"","do_trial","67","262388","0.0-43.0-0.0","""event"",""trial"",""time""
""fullscreenenter"",""0"",""1482""
""fullscreenexit"",""4"",""17021""
""blur"",""4"",""18587""
""focus"",""5"",""36939""
","""event"",""trial"",""time""
""blur"",""4"",""18587""
","""event"",""trial"",""time""
""focus"",""5"",""36939""
","""event"",""trial"",""time""
""fullscreenenter"",""0"",""1482""
","""event"",""trial"",""time""
""fullscreenexit"",""4"",""17021""
","172.40000000596046","","","","","","","","49","0,1,0","6","blank","254","null","0.09085686939004914","0.1790920430837842","0.7489938725825404","0","","","","","","","","",""
"","html-keyboard-response","68","263390","0.0-43.0-1.0","""event"",""trial"",""time""
""fullscreenenter"",""0"",""1482""
""fullscreenexit"",""4"",""17021""
""blur"",""4"",""18587""
""focus"",""5"",""36939""
","""event"",""trial"",""time""
""blur"",""4"",""18587""
","""event"",""trial"",""time""
""focus"",""5"",""36939""
","""event"",""trial"",""time""
""fullscreenenter"",""0"",""1482""
","""event"",""trial"",""time""
""fullscreenexit"",""4"",""17021""
","null","<p></p>","null","","","","","","","","","","","","","","","","","","","","","","","",""
"","do_trial","69","266031","0.0-44.0-0.0","""event"",""trial"",""time""
""fullscreenenter"",""0"",""1482""
""fullscreenexit"",""4"",""17021""
""blur"",""4"",""18587""
""focus"",""5"",""36939""
","""event"",""trial"",""time""
""blur"",""4"",""18587""
","""event"",""trial"",""time""
""focus"",""5"",""36939""
","""event"",""trial"",""time""
""fullscreenenter"",""0"",""1482""
","""event"",""trial"",""time""
""fullscreenexit"",""4"",""17021""
","72.59999999403954","","","","","","","","51","0,0,1","6","blank","255","null","0.12495468141019676","0.20982286870694367","0.638523777523574","1","","","","","","","","",""
"","html-keyboard-response","70","267033","0.0-44.0-1.0","""event"",""trial"",""time""
""fullscreenenter"",""0"",""1482""
""fullscreenexit"",""4"",""17021""
""blur"",""4"",""18587""
""focus"",""5"",""36939""
","""event"",""trial"",""time""
""blur"",""4"",""18587""
","""event"",""trial"",""time""
""focus"",""5"",""36939""
","""event"",""trial"",""time""
""fullscreenenter"",""0"",""1482""
","""event"",""trial"",""time""
""fullscreenexit"",""4"",""17021""
","null","<p></p>","null","","","","","","","","","","","","","","","","","","","","","","","",""
"","do_trial","71","269803","0.0-45.0-0.0","""event"",""trial"",""time""
""fullscreenenter"",""0"",""1482""
""fullscreenexit"",""4"",""17021""
""blur"",""4"",""18587""
""focus"",""5"",""36939""
","""event"",""trial"",""time""
""blur"",""4"",""18587""
","""event"",""trial"",""time""
""focus"",""5"",""36939""
","""event"",""trial"",""time""
""fullscreenenter"",""0"",""1482""
","""event"",""trial"",""time""
""fullscreenexit"",""4"",""17021""
","205.5","","","","","","","","49","0,0,0","6","blank","256","null","0.13296834560592224","0.3148554087315845","0.5920366233811599","0","","","","","","","","",""
"","html-keyboard-response","72","270805","0.0-45.0-1.0","""event"",""trial"",""time""
""fullscreenenter"",""0"",""1482""
""fullscreenexit"",""4"",""17021""
""blur"",""4"",""18587""
""focus"",""5"",""36939""
","""event"",""trial"",""time""
""blur"",""4"",""18587""
","""event"",""trial"",""time""
""focus"",""5"",""36939""
","""event"",""trial"",""time""
""fullscreenenter"",""0"",""1482""
","""event"",""trial"",""time""
""fullscreenexit"",""4"",""17021""
","null","<p></p>","null","","","","","","","","","","","","","","","","","","","","","","","",""
"","do_trial","73","273380","0.0-46.0-0.0","""event"",""trial"",""time""
""fullscreenenter"",""0"",""1482""
""fullscreenexit"",""4"",""17021""
""blur"",""4"",""18587""
""focus"",""5"",""36939""
","""event"",""trial"",""time""
""blur"",""4"",""18587""
","""event"",""trial"",""time""
""focus"",""5"",""36939""
","""event"",""trial"",""time""
""fullscreenenter"",""0"",""1482""
","""event"",""trial"",""time""
""fullscreenexit"",""4"",""17021""
","10.799999997019768","","","","","","","","49","0,0,0","6","blank","257","null","0.10107936093457813","0.2485228243769434","0.4459015612798399","0","","","","","","","","",""
"","html-keyboard-response","74","274386","0.0-46.0-1.0","""event"",""trial"",""time""
""fullscreenenter"",""0"",""1482""
""fullscreenexit"",""4"",""17021""
""blur"",""4"",""18587""
""focus"",""5"",""36939""
","""event"",""trial"",""time""
""blur"",""4"",""18587""
","""event"",""trial"",""time""
""focus"",""5"",""36939""
","""event"",""trial"",""time""
""fullscreenenter"",""0"",""1482""
","""event"",""trial"",""time""
""fullscreenexit"",""4"",""17021""
","null","<p></p>","null","","","","","","","","","","","","","","","","","","","","","","","",""
"","do_recog","75","277289","0.0-47.0-0.0","""event"",""trial"",""time""
""fullscreenenter"",""0"",""1482""
""fullscreenexit"",""4"",""17021""
""blur"",""4"",""18587""
""focus"",""5"",""36939""
","""event"",""trial"",""time""
""blur"",""4"",""18587""
","""event"",""trial"",""time""
""focus"",""5"",""36939""
","""event"",""trial"",""time""
""fullscreenenter"",""0"",""1482""
","""event"",""trial"",""time""
""fullscreenexit"",""4"",""17021""
","1392.699999988079","","","","","","","","55","","","","258","probe-127","","","","","1","[object Object]","35","0","0","","","",""
"","html-keyboard-response","76","278292","0.0-47.0-1.0","""event"",""trial"",""time""
""fullscreenenter"",""0"",""1482""
""fullscreenexit"",""4"",""17021""
""blur"",""4"",""18587""
""focus"",""5"",""36939""
","""event"",""trial"",""time""
""blur"",""4"",""18587""
","""event"",""trial"",""time""
""focus"",""5"",""36939""
","""event"",""trial"",""time""
""fullscreenenter"",""0"",""1482""
","""event"",""trial"",""time""
""fullscreenexit"",""4"",""17021""
","null","<p></p>","null","","","","","","","","","","","","","","","","","","","","","","","",""
"","do_trial","77","280977","0.0-48.0-0.0","""event"",""trial"",""time""
""fullscreenenter"",""0"",""1482""
""fullscreenexit"",""4"",""17021""
""blur"",""4"",""18587""
""focus"",""5"",""36939""
","""event"",""trial"",""time""
""blur"",""4"",""18587""
","""event"",""trial"",""time""
""focus"",""5"",""36939""
","""event"",""trial"",""time""
""fullscreenenter"",""0"",""1482""
","""event"",""trial"",""time""
""fullscreenexit"",""4"",""17021""
","121.09999999403954","","","","","","","","51","0,0,0","6","blank","259","null","0.1335573385960434","0.2789007606954756","0.5616032931726832","0","","","","","","","","",""
"","html-keyboard-response","78","281980","0.0-48.0-1.0","""event"",""trial"",""time""
""fullscreenenter"",""0"",""1482""
""fullscreenexit"",""4"",""17021""
""blur"",""4"",""18587""
""focus"",""5"",""36939""
","""event"",""trial"",""time""
""blur"",""4"",""18587""
","""event"",""trial"",""time""
""focus"",""5"",""36939""
","""event"",""trial"",""time""
""fullscreenenter"",""0"",""1482""
","""event"",""trial"",""time""
""fullscreenexit"",""4"",""17021""
","null","<p></p>","null","","","","","","","","","","","","","","","","","","","","","","","",""
"","do_recog","79","284574","0.0-49.0-0.0","""event"",""trial"",""time""
""fullscreenenter"",""0"",""1482""
""fullscreenexit"",""4"",""17021""
""blur"",""4"",""18587""
""focus"",""5"",""36939""
","""event"",""trial"",""time""
""blur"",""4"",""18587""
","""event"",""trial"",""time""
""focus"",""5"",""36939""
","""event"",""trial"",""time""
""fullscreenenter"",""0"",""1482""
","""event"",""trial"",""time""
""fullscreenexit"",""4"",""17021""
","1083.7000000029802","","","","","","","","54","","","","260","probe-147","","","","","1","[object Object]","116","2","1","","","",""
"","html-keyboard-response","80","285577","0.0-49.0-1.0","""event"",""trial"",""time""
""fullscreenenter"",""0"",""1482""
""fullscreenexit"",""4"",""17021""
""blur"",""4"",""18587""
""focus"",""5"",""36939""
","""event"",""trial"",""time""
""blur"",""4"",""18587""
","""event"",""trial"",""time""
""focus"",""5"",""36939""
","""event"",""trial"",""time""
""fullscreenenter"",""0"",""1482""
","""event"",""trial"",""time""
""fullscreenexit"",""4"",""17021""
","null","<p></p>","null","","","","","","","","","","","","","","","","","","","","","","","",""
"","do_trial","81","288143","0.0-50.0-0.0","""event"",""trial"",""time""
""fullscreenenter"",""0"",""1482""
""fullscreenexit"",""4"",""17021""
""blur"",""4"",""18587""
""focus"",""5"",""36939""
","""event"",""trial"",""time""
""blur"",""4"",""18587""
","""event"",""trial"",""time""
""focus"",""5"",""36939""
","""event"",""trial"",""time""
""fullscreenenter"",""0"",""1482""
","""event"",""trial"",""time""
""fullscreenexit"",""4"",""17021""
","0.29999999701976776","","","","","","","","49","0,0,0","6","blank","261","null","0.05628393846071456","0.2802031889420912","0.5025710675780193","0","","","","","","","","",""
"","html-keyboard-response","82","289145","0.0-50.0-1.0","""event"",""trial"",""time""
""fullscreenenter"",""0"",""1482""
""fullscreenexit"",""4"",""17021""
""blur"",""4"",""18587""
""focus"",""5"",""36939""
","""event"",""trial"",""time""
""blur"",""4"",""18587""
","""event"",""trial"",""time""
""focus"",""5"",""36939""
","""event"",""trial"",""time""
""fullscreenenter"",""0"",""1482""
","""event"",""trial"",""time""
""fullscreenexit"",""4"",""17021""
","null","<p></p>","null","","","","","","","","","","","","","","","","","","","","","","","",""
"","do_trial","83","291710","0.0-51.0-0.0","""event"",""trial"",""time""
""fullscreenenter"",""0"",""1482""
""fullscreenexit"",""4"",""17021""
""blur"",""4"",""18587""
""focus"",""5"",""36939""
","""event"",""trial"",""time""
""blur"",""4"",""18587""
","""event"",""trial"",""time""
""focus"",""5"",""36939""
","""event"",""trial"",""time""
""fullscreenenter"",""0"",""1482""
","""event"",""trial"",""time""
""fullscreenexit"",""4"",""17021""
","0.4000000059604645","","","","","","","","49","1,0,0","6","blank","262","null","0.24739935823557532","0.3388269965641468","0.5033848003187906","1","","","","","","","","",""
"","html-keyboard-response","84","292712","0.0-51.0-1.0","""event"",""trial"",""time""
""fullscreenenter"",""0"",""1482""
""fullscreenexit"",""4"",""17021""
""blur"",""4"",""18587""
""focus"",""5"",""36939""
","""event"",""trial"",""time""
""blur"",""4"",""18587""
","""event"",""trial"",""time""
""focus"",""5"",""36939""
","""event"",""trial"",""time""
""fullscreenenter"",""0"",""1482""
","""event"",""trial"",""time""
""fullscreenexit"",""4"",""17021""
","null","<p></p>","null","","","","","","","","","","","","","","","","","","","","","","","",""
"","do_trial","85","295319","0.0-52.0-0.0","""event"",""trial"",""time""
""fullscreenenter"",""0"",""1482""
""fullscreenexit"",""4"",""17021""
""blur"",""4"",""18587""
""focus"",""5"",""36939""
","""event"",""trial"",""time""
""blur"",""4"",""18587""
","""event"",""trial"",""time""
""focus"",""5"",""36939""
","""event"",""trial"",""time""
""fullscreenenter"",""0"",""1482""
","""event"",""trial"",""time""
""fullscreenexit"",""4"",""17021""
","43.69999998807907","","","","","","","","51","0,0,0","6","blank","263","null","0.1719203364406021","0.3062852513422196","0.43114201648458883","0","","","","","","","","",""
"","html-keyboard-response","86","296322","0.0-52.0-1.0","""event"",""trial"",""time""
""fullscreenenter"",""0"",""1482""
""fullscreenexit"",""4"",""17021""
""blur"",""4"",""18587""
""focus"",""5"",""36939""
","""event"",""trial"",""time""
""blur"",""4"",""18587""
","""event"",""trial"",""time""
""focus"",""5"",""36939""
","""event"",""trial"",""time""
""fullscreenenter"",""0"",""1482""
","""event"",""trial"",""time""
""fullscreenexit"",""4"",""17021""
","null","<p></p>","null","","","","","","","","","","","","","","","","","","","","","","","",""
"","do_recog","87","299032","0.0-53.0-0.0","""event"",""trial"",""time""
""fullscreenenter"",""0"",""1482""
""fullscreenexit"",""4"",""17021""
""blur"",""4"",""18587""
""focus"",""5"",""36939""
","""event"",""trial"",""time""
""blur"",""4"",""18587""
","""event"",""trial"",""time""
""focus"",""5"",""36939""
","""event"",""trial"",""time""
""fullscreenenter"",""0"",""1482""
","""event"",""trial"",""time""
""fullscreenexit"",""4"",""17021""
","1200.9000000059605","","","","","","","","54","","","","264","probe-185","","","","","1","[object Object]","34","0","1","","","",""
"","html-keyboard-response","88","300035","0.0-53.0-1.0","""event"",""trial"",""time""
""fullscreenenter"",""0"",""1482""
""fullscreenexit"",""4"",""17021""
""blur"",""4"",""18587""
""focus"",""5"",""36939""
","""event"",""trial"",""time""
""blur"",""4"",""18587""
","""event"",""trial"",""time""
""focus"",""5"",""36939""
","""event"",""trial"",""time""
""fullscreenenter"",""0"",""1482""
","""event"",""trial"",""time""
""fullscreenexit"",""4"",""17021""
","null","<p></p>","null","","","","","","","","","","","","","","","","","","","","","","","",""
"","do_trial","89","302599","0.0-54.0-0.0","""event"",""trial"",""time""
""fullscreenenter"",""0"",""1482""
""fullscreenexit"",""4"",""17021""
""blur"",""4"",""18587""
""focus"",""5"",""36939""
","""event"",""trial"",""time""
""blur"",""4"",""18587""
","""event"",""trial"",""time""
""focus"",""5"",""36939""
","""event"",""trial"",""time""
""fullscreenenter"",""0"",""1482""
","""event"",""trial"",""time""
""fullscreenexit"",""4"",""17021""
","0.29999999701976776","","","","","","","","50","1,0,0","6","blank","265","null","0.1126357764607032","0.24006922860902308","0.5397538209125748","0","","","","","","","","",""
"","html-keyboard-response","90","303602","0.0-54.0-1.0","""event"",""trial"",""time""
""fullscreenenter"",""0"",""1482""
""fullscreenexit"",""4"",""17021""
""blur"",""4"",""18587""
""focus"",""5"",""36939""
","""event"",""trial"",""time""
""blur"",""4"",""18587""
","""event"",""trial"",""time""
""focus"",""5"",""36939""
","""event"",""trial"",""time""
""fullscreenenter"",""0"",""1482""
","""event"",""trial"",""time""
""fullscreenexit"",""4"",""17021""
","null","<p></p>","null","","","","","","","","","","","","","","","","","","","","","","","",""
"","do_trial","91","306264","0.0-55.0-0.0","""event"",""trial"",""time""
""fullscreenenter"",""0"",""1482""
""fullscreenexit"",""4"",""17021""
""blur"",""4"",""18587""
""focus"",""5"",""36939""
","""event"",""trial"",""time""
""blur"",""4"",""18587""
","""event"",""trial"",""time""
""focus"",""5"",""36939""
","""event"",""trial"",""time""
""fullscreenenter"",""0"",""1482""
","""event"",""trial"",""time""
""fullscreenexit"",""4"",""17021""
","95.3999999910593","","","","","","","","51","0,0,0","6","blank","266","null","0.25705540020928247","0.27898255843852277","0.6785171672790336","0","","","","","","","","",""
"","html-keyboard-response","92","307267","0.0-55.0-1.0","""event"",""trial"",""time""
""fullscreenenter"",""0"",""1482""
""fullscreenexit"",""4"",""17021""
""blur"",""4"",""18587""
""focus"",""5"",""36939""
","""event"",""trial"",""time""
""blur"",""4"",""18587""
","""event"",""trial"",""time""
""focus"",""5"",""36939""
","""event"",""trial"",""time""
""fullscreenenter"",""0"",""1482""
","""event"",""trial"",""time""
""fullscreenexit"",""4"",""17021""
","null","<p></p>","null","","","","","","","","","","","","","","","","","","","","","","","",""
"","do_trial","93","310140","0.0-56.0-0.0","""event"",""trial"",""time""
""fullscreenenter"",""0"",""1482""
""fullscreenexit"",""4"",""17021""
""blur"",""4"",""18587""
""focus"",""5"",""36939""
","""event"",""trial"",""time""
""blur"",""4"",""18587""
","""event"",""trial"",""time""
""focus"",""5"",""36939""
","""event"",""trial"",""time""
""fullscreenenter"",""0"",""1482""
","""event"",""trial"",""time""
""fullscreenexit"",""4"",""17021""
","310.80000001192093","","","","","","","","49","1,1,0","6","blank","267","null","0.13823824259600623","0.32146603121297007","0.7473436492399742","1","","","","","","","","",""
"","html-keyboard-response","94","311143","0.0-56.0-1.0","""event"",""trial"",""time""
""fullscreenenter"",""0"",""1482""
""fullscreenexit"",""4"",""17021""
""blur"",""4"",""18587""
""focus"",""5"",""36939""
","""event"",""trial"",""time""
""blur"",""4"",""18587""
","""event"",""trial"",""time""
""focus"",""5"",""36939""
","""event"",""trial"",""time""
""fullscreenenter"",""0"",""1482""
","""event"",""trial"",""time""
""fullscreenexit"",""4"",""17021""
","null","<p></p>","null","","","","","","","","","","","","","","","","","","","","","","","",""
"","do_trial","95","313858","0.0-57.0-0.0","""event"",""trial"",""time""
""fullscreenenter"",""0"",""1482""
""fullscreenexit"",""4"",""17021""
""blur"",""4"",""18587""
""focus"",""5"",""36939""
","""event"",""trial"",""time""
""blur"",""4"",""18587""
","""event"",""trial"",""time""
""focus"",""5"",""36939""
","""event"",""trial"",""time""
""fullscreenenter"",""0"",""1482""
","""event"",""trial"",""time""
""fullscreenexit"",""4"",""17021""
","150.29999999701977","","","","","","","","49","0,0,1","6","blank","268","null","0.18789037594848046","0.17246249518316212","0.6948589905836837","0","","","","","","","","",""
"","html-keyboard-response","96","314860","0.0-57.0-1.0","""event"",""trial"",""time""
""fullscreenenter"",""0"",""1482""
""fullscreenexit"",""4"",""17021""
""blur"",""4"",""18587""
""focus"",""5"",""36939""
","""event"",""trial"",""time""
""blur"",""4"",""18587""
","""event"",""trial"",""time""
""focus"",""5"",""36939""
","""event"",""trial"",""time""
""fullscreenenter"",""0"",""1482""
","""event"",""trial"",""time""
""fullscreenexit"",""4"",""17021""
","null","<p></p>","null","","","","","","","","","","","","","","","","","","","","","","","",""
"","break","97","319306","0.0-58.0-0.0","""event"",""trial"",""time""
""fullscreenenter"",""0"",""1482""
""fullscreenexit"",""4"",""17021""
""blur"",""4"",""18587""
""focus"",""5"",""36939""
","""event"",""trial"",""time""
""blur"",""4"",""18587""
","""event"",""trial"",""time""
""focus"",""5"",""36939""
","""event"",""trial"",""time""
""fullscreenenter"",""0"",""1482""
","""event"",""trial"",""time""
""fullscreenexit"",""4"",""17021""
","4443.600000008941","<div class='center'><p>Time to take a quick break! You have 2 minutes to rest, but you can move on sooner if you'd like.</p><p> Press the <b>space bar</b> to continue.</p></div>","32","","","","","","","","","","","","","","","","","","","","","","","",""
"","do_trial","98","322658","0.0-58.0-1.0","""event"",""trial"",""time""
""fullscreenenter"",""0"",""1482""
""fullscreenexit"",""4"",""17021""
""blur"",""4"",""18587""
""focus"",""5"",""36939""
","""event"",""trial"",""time""
""blur"",""4"",""18587""
","""event"",""trial"",""time""
""focus"",""5"",""36939""
","""event"",""trial"",""time""
""fullscreenenter"",""0"",""1482""
","""event"",""trial"",""time""
""fullscreenexit"",""4"",""17021""
","788.2000000029802","","","","","","","","50","0,0,1","6","blank","269","null","0.2880726953640367","0.14565360683358325","0.5841866131996801","0","","","","","","","","",""
"","html-keyboard-response","99","323661","0.0-58.0-2.0","""event"",""trial"",""time""
""fullscreenenter"",""0"",""1482""
""fullscreenexit"",""4"",""17021""
""blur"",""4"",""18587""
""focus"",""5"",""36939""
","""event"",""trial"",""time""
""blur"",""4"",""18587""
","""event"",""trial"",""time""
""focus"",""5"",""36939""
","""event"",""trial"",""time""
""fullscreenenter"",""0"",""1482""
","""event"",""trial"",""time""
""fullscreenexit"",""4"",""17021""
","null","<p></p>","null","","","","","","","","","","","","","","","","","","","","","","","",""
"","do_recog","100","326660","0.0-59.0-0.0","""event"",""trial"",""time""
""fullscreenenter"",""0"",""1482""
""fullscreenexit"",""4"",""17021""
""blur"",""4"",""18587""
""focus"",""5"",""36939""
","""event"",""trial"",""time""
""blur"",""4"",""18587""
","""event"",""trial"",""time""
""focus"",""5"",""36939""
","""event"",""trial"",""time""
""fullscreenenter"",""0"",""1482""
","""event"",""trial"",""time""
""fullscreenexit"",""4"",""17021""
","1490.5999999940395","","","","","","","","56","","","","270","probe-157","","","","","1","[object Object]","117","2","0","","","",""
"","html-keyboard-response","101","327662","0.0-59.0-1.0","""event"",""trial"",""time""
""fullscreenenter"",""0"",""1482""
""fullscreenexit"",""4"",""17021""
""blur"",""4"",""18587""
""focus"",""5"",""36939""
","""event"",""trial"",""time""
""blur"",""4"",""18587""
","""event"",""trial"",""time""
""focus"",""5"",""36939""
","""event"",""trial"",""time""
""fullscreenenter"",""0"",""1482""
","""event"",""trial"",""time""
""fullscreenexit"",""4"",""17021""
","null","<p></p>","null","","","","","","","","","","","","","","","","","","","","","","","",""
"","do_trial","102","330495","0.0-60.0-0.0","""event"",""trial"",""time""
""fullscreenenter"",""0"",""1482""
""fullscreenexit"",""4"",""17021""
""blur"",""4"",""18587""
""focus"",""5"",""36939""
","""event"",""trial"",""time""
""blur"",""4"",""18587""
","""event"",""trial"",""time""
""focus"",""5"",""36939""
","""event"",""trial"",""time""
""fullscreenenter"",""0"",""1482""
","""event"",""trial"",""time""
""fullscreenexit"",""4"",""17021""
","268.8999999910593","","","","","","","","51","0,0,0","6","blank","271","null","0.14537751355390965","0.2945654992074033","0.687928031400541","0","","","","","","","","",""
"","html-keyboard-response","103","331498","0.0-60.0-1.0","""event"",""trial"",""time""
""fullscreenenter"",""0"",""1482""
""fullscreenexit"",""4"",""17021""
""blur"",""4"",""18587""
""focus"",""5"",""36939""
","""event"",""trial"",""time""
""blur"",""4"",""18587""
","""event"",""trial"",""time""
""focus"",""5"",""36939""
","""event"",""trial"",""time""
""fullscreenenter"",""0"",""1482""
","""event"",""trial"",""time""
""fullscreenexit"",""4"",""17021""
","null","<p></p>","null","","","","","","","","","","","","","","","","","","","","","","","",""
"","do_trial","104","334911","0.0-61.0-0.0","""event"",""trial"",""time""
""fullscreenenter"",""0"",""1482""
""fullscreenexit"",""4"",""17021""
""blur"",""4"",""18587""
""focus"",""5"",""36939""
","""event"",""trial"",""time""
""blur"",""4"",""18587""
","""event"",""trial"",""time""
""focus"",""5"",""36939""
","""event"",""trial"",""time""
""fullscreenenter"",""0"",""1482""
","""event"",""trial"",""time""
""fullscreenexit"",""4"",""17021""
","847.0999999940395","","","","","","","","49","1,0,1","6","blank","272","null","0.2988227627788693","0.3555366793952705","0.6668298113356644","1","","","","","","","","",""
"","html-keyboard-response","105","335913","0.0-61.0-1.0","""event"",""trial"",""time""
""fullscreenenter"",""0"",""1482""
""fullscreenexit"",""4"",""17021""
""blur"",""4"",""18587""
""focus"",""5"",""36939""
","""event"",""trial"",""time""
""blur"",""4"",""18587""
","""event"",""trial"",""time""
""focus"",""5"",""36939""
","""event"",""trial"",""time""
""fullscreenenter"",""0"",""1482""
","""event"",""trial"",""time""
""fullscreenexit"",""4"",""17021""
","null","<p></p>","null","","","","","","","","","","","","","","","","","","","","","","","",""
"","do_recog","106","338370","0.0-62.0-0.0","""event"",""trial"",""time""
""fullscreenenter"",""0"",""1482""
""fullscreenexit"",""4"",""17021""
""blur"",""4"",""18587""
""focus"",""5"",""36939""
","""event"",""trial"",""time""
""blur"",""4"",""18587""
","""event"",""trial"",""time""
""focus"",""5"",""36939""
","""event"",""trial"",""time""
""fullscreenenter"",""0"",""1482""
","""event"",""trial"",""time""
""fullscreenexit"",""4"",""17021""
","947.4000000059605","","","","","","","","53","","","","273","probe-116","","","","","1","[object Object]","36","0","1","","","",""
"","html-keyboard-response","107","339372","0.0-62.0-1.0","""event"",""trial"",""time""
""fullscreenenter"",""0"",""1482""
""fullscreenexit"",""4"",""17021""
""blur"",""4"",""18587""
""focus"",""5"",""36939""
","""event"",""trial"",""time""
""blur"",""4"",""18587""
","""event"",""trial"",""time""
""focus"",""5"",""36939""
","""event"",""trial"",""time""
""fullscreenenter"",""0"",""1482""
","""event"",""trial"",""time""
""fullscreenexit"",""4"",""17021""
","null","<p></p>","null","","","","","","","","","","","","","","","","","","","","","","","",""
"","do_trial","108","342456","0.0-63.0-0.0","""event"",""trial"",""time""
""fullscreenenter"",""0"",""1482""
""fullscreenexit"",""4"",""17021""
""blur"",""4"",""18587""
""focus"",""5"",""36939""
","""event"",""trial"",""time""
""blur"",""4"",""18587""
","""event"",""trial"",""time""
""focus"",""5"",""36939""
","""event"",""trial"",""time""
""fullscreenenter"",""0"",""1482""
","""event"",""trial"",""time""
""fullscreenexit"",""4"",""17021""
","520.0999999940395","","","","","","","","50","1,0,1","6","blank","274","null","0.2468482885130685","0.4512405992799103","0.7072680858611774","0","","","","","","","","",""
"","html-keyboard-response","109","343458","0.0-63.0-1.0","""event"",""trial"",""time""
""fullscreenenter"",""0"",""1482""
""fullscreenexit"",""4"",""17021""
""blur"",""4"",""18587""
""focus"",""5"",""36939""
","""event"",""trial"",""time""
""blur"",""4"",""18587""
","""event"",""trial"",""time""
""focus"",""5"",""36939""
","""event"",""trial"",""time""
""fullscreenenter"",""0"",""1482""
","""event"",""trial"",""time""
""fullscreenexit"",""4"",""17021""
","null","<p></p>","null","","","","","","","","","","","","","","","","","","","","","","","",""
"","do_trial","110","346329","0.0-64.0-0.0","""event"",""trial"",""time""
""fullscreenenter"",""0"",""1482""
""fullscreenexit"",""4"",""17021""
""blur"",""4"",""18587""
""focus"",""5"",""36939""
","""event"",""trial"",""time""
""blur"",""4"",""18587""
","""event"",""trial"",""time""
""focus"",""5"",""36939""
","""event"",""trial"",""time""
""fullscreenenter"",""0"",""1482""
","""event"",""trial"",""time""
""fullscreenexit"",""4"",""17021""
","306.8999999910593","","","","","","","","49","1,0,0","6","blank","275","null","0.2422561177465401","0.24185646163446956","0.5413186710595889","1","","","","","","","","",""
"","html-keyboard-response","111","347332","0.0-64.0-1.0","""event"",""trial"",""time""
""fullscreenenter"",""0"",""1482""
""fullscreenexit"",""4"",""17021""
""blur"",""4"",""18587""
""focus"",""5"",""36939""
","""event"",""trial"",""time""
""blur"",""4"",""18587""
","""event"",""trial"",""time""
""focus"",""5"",""36939""
","""event"",""trial"",""time""
""fullscreenenter"",""0"",""1482""
","""event"",""trial"",""time""
""fullscreenexit"",""4"",""17021""
","null","<p></p>","null","","","","","","","","","","","","","","","","","","","","","","","",""
"","do_trial","112","349908","0.0-65.0-0.0","""event"",""trial"",""time""
""fullscreenenter"",""0"",""1482""
""fullscreenexit"",""4"",""17021""
""blur"",""4"",""18587""
""focus"",""5"",""36939""
","""event"",""trial"",""time""
""blur"",""4"",""18587""
","""event"",""trial"",""time""
""focus"",""5"",""36939""
","""event"",""trial"",""time""
""fullscreenenter"",""0"",""1482""
","""event"",""trial"",""time""
""fullscreenexit"",""4"",""17021""
","13","","","","","","","","49","0,0,0","6","blank","276","null","0.161437689873016","0.24179442513992339","0.6253356529163361","0","","","","","","","","",""
"","html-keyboard-response","113","350910","0.0-65.0-1.0","""event"",""trial"",""time""
""fullscreenenter"",""0"",""1482""
""fullscreenexit"",""4"",""17021""
""blur"",""4"",""18587""
""focus"",""5"",""36939""
","""event"",""trial"",""time""
""blur"",""4"",""18587""
","""event"",""trial"",""time""
""focus"",""5"",""36939""
","""event"",""trial"",""time""
""fullscreenenter"",""0"",""1482""
","""event"",""trial"",""time""
""fullscreenexit"",""4"",""17021""
","null","<p></p>","null","","","","","","","","","","","","","","","","","","","","","","","",""
"","do_recog","114","353582","0.0-66.0-0.0","""event"",""trial"",""time""
""fullscreenenter"",""0"",""1482""
""fullscreenexit"",""4"",""17021""
""blur"",""4"",""18587""
""focus"",""5"",""36939""
","""event"",""trial"",""time""
""blur"",""4"",""18587""
","""event"",""trial"",""time""
""focus"",""5"",""36939""
","""event"",""trial"",""time""
""fullscreenenter"",""0"",""1482""
","""event"",""trial"",""time""
""fullscreenexit"",""4"",""17021""
","1161.2000000029802","","","","","","","","54","","","","277","probe-111","","","","","1","[object Object]","115","2","1","","","",""
"","html-keyboard-response","115","354585","0.0-66.0-1.0","""event"",""trial"",""time""
""fullscreenenter"",""0"",""1482""
""fullscreenexit"",""4"",""17021""
""blur"",""4"",""18587""
""focus"",""5"",""36939""
","""event"",""trial"",""time""
""blur"",""4"",""18587""
","""event"",""trial"",""time""
""focus"",""5"",""36939""
","""event"",""trial"",""time""
""fullscreenenter"",""0"",""1482""
","""event"",""trial"",""time""
""fullscreenexit"",""4"",""17021""
","null","<p></p>","null","","","","","","","","","","","","","","","","","","","","","","","",""
"","do_trial","116","357492","0.0-67.0-0.0","""event"",""trial"",""time""
""fullscreenenter"",""0"",""1482""
""fullscreenexit"",""4"",""17021""
""blur"",""4"",""18587""
""focus"",""5"",""36939""
","""event"",""trial"",""time""
""blur"",""4"",""18587""
","""event"",""trial"",""time""
""focus"",""5"",""36939""
","""event"",""trial"",""time""
""fullscreenenter"",""0"",""1482""
","""event"",""trial"",""time""
""fullscreenexit"",""4"",""17021""
","342.70000000298023","","","","","","","","49","0,0,0","6","blank","278","null","0.14367824439870344","0.3206534109146311","0.6456923208568178","0","","","","","","","","",""
"","html-keyboard-response","117","358494","0.0-67.0-1.0","""event"",""trial"",""time""
""fullscreenenter"",""0"",""1482""
""fullscreenexit"",""4"",""17021""
""blur"",""4"",""18587""
""focus"",""5"",""36939""
","""event"",""trial"",""time""
""blur"",""4"",""18587""
","""event"",""trial"",""time""
""focus"",""5"",""36939""
","""event"",""trial"",""time""
""fullscreenenter"",""0"",""1482""
","""event"",""trial"",""time""
""fullscreenexit"",""4"",""17021""
","null","<p></p>","null","","","","","","","","","","","","","","","","","","","","","","","",""
"","do_recog","118","360924","0.0-68.0-0.0","""event"",""trial"",""time""
""fullscreenenter"",""0"",""1482""
""fullscreenexit"",""4"",""17021""
""blur"",""4"",""18587""
""focus"",""5"",""36939""
","""event"",""trial"",""time""
""blur"",""4"",""18587""
","""event"",""trial"",""time""
""focus"",""5"",""36939""
","""event"",""trial"",""time""
""fullscreenenter"",""0"",""1482""
","""event"",""trial"",""time""
""fullscreenexit"",""4"",""17021""
","918.2999999970198","","","","","","","","54","","","","279","probe-217","","","","","1","[object Object]","77","1","1","","","",""
"","html-keyboard-response","119","361927","0.0-68.0-1.0","""event"",""trial"",""time""
""fullscreenenter"",""0"",""1482""
""fullscreenexit"",""4"",""17021""
""blur"",""4"",""18587""
""focus"",""5"",""36939""
","""event"",""trial"",""time""
""blur"",""4"",""18587""
","""event"",""trial"",""time""
""focus"",""5"",""36939""
","""event"",""trial"",""time""
""fullscreenenter"",""0"",""1482""
","""event"",""trial"",""time""
""fullscreenexit"",""4"",""17021""
","null","<p></p>","null","","","","","","","","","","","","","","","","","","","","","","","",""
"","do_trial","120","364748","0.0-69.0-0.0","""event"",""trial"",""time""
""fullscreenenter"",""0"",""1482""
""fullscreenexit"",""4"",""17021""
""blur"",""4"",""18587""
""focus"",""5"",""36939""
","""event"",""trial"",""time""
""blur"",""4"",""18587""
","""event"",""trial"",""time""
""focus"",""5"",""36939""
","""event"",""trial"",""time""
""fullscreenenter"",""0"",""1482""
","""event"",""trial"",""time""
""fullscreenexit"",""4"",""17021""
","256.5","","","","","","","","51","0,1,1","6","blank","280","null","0.11296977697248331","0.3416972903699771","0.7177449332094296","1","","","","","","","","",""
"","html-keyboard-response","121","365751","0.0-69.0-1.0","""event"",""trial"",""time""
""fullscreenenter"",""0"",""1482""
""fullscreenexit"",""4"",""17021""
""blur"",""4"",""18587""
""focus"",""5"",""36939""
","""event"",""trial"",""time""
""blur"",""4"",""18587""
","""event"",""trial"",""time""
""focus"",""5"",""36939""
","""event"",""trial"",""time""
""fullscreenenter"",""0"",""1482""
","""event"",""trial"",""time""
""fullscreenexit"",""4"",""17021""
","null","<p></p>","null","","","","","","","","","","","","","","","","","","","","","","","",""
"","do_recog","122","368131","0.0-70.0-0.0","""event"",""trial"",""time""
""fullscreenenter"",""0"",""1482""
""fullscreenexit"",""4"",""17021""
""blur"",""4"",""18587""
""focus"",""5"",""36939""
","""event"",""trial"",""time""
""blur"",""4"",""18587""
","""event"",""trial"",""time""
""focus"",""5"",""36939""
","""event"",""trial"",""time""
""fullscreenenter"",""0"",""1482""
","""event"",""trial"",""time""
""fullscreenexit"",""4"",""17021""
","871.5","","","","","","","","53","","","","281","probe-95","","","","","1","[object Object]","193","4","1","","","",""
"","html-keyboard-response","123","369134","0.0-70.0-1.0","""event"",""trial"",""time""
""fullscreenenter"",""0"",""1482""
""fullscreenexit"",""4"",""17021""
""blur"",""4"",""18587""
""focus"",""5"",""36939""
","""event"",""trial"",""time""
""blur"",""4"",""18587""
","""event"",""trial"",""time""
""focus"",""5"",""36939""
","""event"",""trial"",""time""
""fullscreenenter"",""0"",""1482""
","""event"",""trial"",""time""
""fullscreenexit"",""4"",""17021""
","null","<p></p>","null","","","","","","","","","","","","","","","","","","","","","","","",""
"","do_trial","124","371770","0.0-71.0-0.0","""event"",""trial"",""time""
""fullscreenenter"",""0"",""1482""
""fullscreenexit"",""4"",""17021""
""blur"",""4"",""18587""
""focus"",""5"",""36939""
","""event"",""trial"",""time""
""blur"",""4"",""18587""
","""event"",""trial"",""time""
""focus"",""5"",""36939""
","""event"",""trial"",""time""
""fullscreenenter"",""0"",""1482""
","""event"",""trial"",""time""
""fullscreenexit"",""4"",""17021""
","71.6000000089407","","","","","","","","50","0,0,1","6","blank","282","null","0.08623197103062774","0.3322165436229665","0.7344851154803956","0","","","","","","","","",""
"","html-keyboard-response","125","372772","0.0-71.0-1.0","""event"",""trial"",""time""
""fullscreenenter"",""0"",""1482""
""fullscreenexit"",""4"",""17021""
""blur"",""4"",""18587""
""focus"",""5"",""36939""
","""event"",""trial"",""time""
""blur"",""4"",""18587""
","""event"",""trial"",""time""
""focus"",""5"",""36939""
","""event"",""trial"",""time""
""fullscreenenter"",""0"",""1482""
","""event"",""trial"",""time""
""fullscreenexit"",""4"",""17021""
","null","<p></p>","null","","","","","","","","","","","","","","","","","","","","","","","",""
"","do_trial","126","375365","0.0-72.0-0.0","""event"",""trial"",""time""
""fullscreenenter"",""0"",""1482""
""fullscreenexit"",""4"",""17021""
""blur"",""4"",""18587""
""focus"",""5"",""36939""
","""event"",""trial"",""time""
""blur"",""4"",""18587""
","""event"",""trial"",""time""
""focus"",""5"",""36939""
","""event"",""trial"",""time""
""fullscreenenter"",""0"",""1482""
","""event"",""trial"",""time""
""fullscreenexit"",""4"",""17021""
","28.400000005960464","","","","","","","","49","0,0,0","6","blank","283","null","0.15781778274709837","0.2653958415961115","0.5322346061992953","0","","","","","","","","",""
"","html-keyboard-response","127","376367","0.0-72.0-1.0","""event"",""trial"",""time""
""fullscreenenter"",""0"",""1482""
""fullscreenexit"",""4"",""17021""
""blur"",""4"",""18587""
""focus"",""5"",""36939""
","""event"",""trial"",""time""
""blur"",""4"",""18587""
","""event"",""trial"",""time""
""focus"",""5"",""36939""
","""event"",""trial"",""time""
""fullscreenenter"",""0"",""1482""
","""event"",""trial"",""time""
""fullscreenexit"",""4"",""17021""
","null","<p></p>","null","","","","","","","","","","","","","","","","","","","","","","","",""
"","do_trial","128","378998","0.0-73.0-0.0","""event"",""trial"",""time""
""fullscreenenter"",""0"",""1482""
""fullscreenexit"",""4"",""17021""
""blur"",""4"",""18587""
""focus"",""5"",""36939""
","""event"",""trial"",""time""
""blur"",""4"",""18587""
","""event"",""trial"",""time""
""focus"",""5"",""36939""
","""event"",""trial"",""time""
""fullscreenenter"",""0"",""1482""
","""event"",""trial"",""time""
""fullscreenexit"",""4"",""17021""
","64","","","","","","","","51","0,0,1","6","blank","284","null","0.07965204869340724","0.4173799093543829","0.6314421671183221","1","","","","","","","","",""
"","html-keyboard-response","129","380001","0.0-73.0-1.0","""event"",""trial"",""time""
""fullscreenenter"",""0"",""1482""
""fullscreenexit"",""4"",""17021""
""blur"",""4"",""18587""
""focus"",""5"",""36939""
","""event"",""trial"",""time""
""blur"",""4"",""18587""
","""event"",""trial"",""time""
""focus"",""5"",""36939""
","""event"",""trial"",""time""
""fullscreenenter"",""0"",""1482""
","""event"",""trial"",""time""
""fullscreenexit"",""4"",""17021""
","null","<p></p>","null","","","","","","","","","","","","","","","","","","","","","","","",""
"","do_trial","130","382903","0.0-74.0-0.0","""event"",""trial"",""time""
""fullscreenenter"",""0"",""1482""
""fullscreenexit"",""4"",""17021""
""blur"",""4"",""18587""
""focus"",""5"",""36939""
","""event"",""trial"",""time""
""blur"",""4"",""18587""
","""event"",""trial"",""time""
""focus"",""5"",""36939""
","""event"",""trial"",""time""
""fullscreenenter"",""0"",""1482""
","""event"",""trial"",""time""
""fullscreenexit"",""4"",""17021""
","337.40000000596046","","","","","","","","51","0,0,1","6","blank","285","null","0.10872369590147861","0.27157990564024065","0.6320665565041874","1","","","","","","","","",""
"","html-keyboard-response","131","383905","0.0-74.0-1.0","""event"",""trial"",""time""
""fullscreenenter"",""0"",""1482""
""fullscreenexit"",""4"",""17021""
""blur"",""4"",""18587""
""focus"",""5"",""36939""
","""event"",""trial"",""time""
""blur"",""4"",""18587""
","""event"",""trial"",""time""
""focus"",""5"",""36939""
","""event"",""trial"",""time""
""fullscreenenter"",""0"",""1482""
","""event"",""trial"",""time""
""fullscreenexit"",""4"",""17021""
","null","<p></p>","null","","","","","","","","","","","","","","","","","","","","","","","",""
"","do_trial","132","386788","0.0-75.0-0.0","""event"",""trial"",""time""
""fullscreenenter"",""0"",""1482""
""fullscreenexit"",""4"",""17021""
""blur"",""4"",""18587""
""focus"",""5"",""36939""
","""event"",""trial"",""time""
""blur"",""4"",""18587""
","""event"",""trial"",""time""
""focus"",""5"",""36939""
","""event"",""trial"",""time""
""fullscreenenter"",""0"",""1482""
","""event"",""trial"",""time""
""fullscreenexit"",""4"",""17021""
","319.19999998807907","","","","","","","","51","0,0,1","6","blank","286","null","0.15295548645063714","0.2783660791310082","0.5958994367118166","1","","","","","","","","",""
"","html-keyboard-response","133","387790","0.0-75.0-1.0","""event"",""trial"",""time""
""fullscreenenter"",""0"",""1482""
""fullscreenexit"",""4"",""17021""
""blur"",""4"",""18587""
""focus"",""5"",""36939""
","""event"",""trial"",""time""
""blur"",""4"",""18587""
","""event"",""trial"",""time""
""focus"",""5"",""36939""
","""event"",""trial"",""time""
""fullscreenenter"",""0"",""1482""
","""event"",""trial"",""time""
""fullscreenexit"",""4"",""17021""
","null","<p></p>","null","","","","","","","","","","","","","","","","","","","","","","","",""
"","do_trial","134","390749","0.0-76.0-0.0","""event"",""trial"",""time""
""fullscreenenter"",""0"",""1482""
""fullscreenexit"",""4"",""17021""
""blur"",""4"",""18587""
""focus"",""5"",""36939""
","""event"",""trial"",""time""
""blur"",""4"",""18587""
","""event"",""trial"",""time""
""focus"",""5"",""36939""
","""event"",""trial"",""time""
""fullscreenenter"",""0"",""1482""
","""event"",""trial"",""time""
""fullscreenexit"",""4"",""17021""
","394.29999999701977","","","","","","","","51","0,0,1","6","blank","287","null","0.24753805745318438","0.2637439114181169","0.7327130645727853","1","","","","","","","","",""
"","html-keyboard-response","135","391751","0.0-76.0-1.0","""event"",""trial"",""time""
""fullscreenenter"",""0"",""1482""
""fullscreenexit"",""4"",""17021""
""blur"",""4"",""18587""
""focus"",""5"",""36939""
","""event"",""trial"",""time""
""blur"",""4"",""18587""
","""event"",""trial"",""time""
""focus"",""5"",""36939""
","""event"",""trial"",""time""
""fullscreenenter"",""0"",""1482""
","""event"",""trial"",""time""
""fullscreenexit"",""4"",""17021""
","null","<p></p>","null","","","","","","","","","","","","","","","","","","","","","","","",""
"","do_recog","136","394043","0.0-77.0-0.0","""event"",""trial"",""time""
""fullscreenenter"",""0"",""1482""
""fullscreenexit"",""4"",""17021""
""blur"",""4"",""18587""
""focus"",""5"",""36939""
","""event"",""trial"",""time""
""blur"",""4"",""18587""
","""event"",""trial"",""time""
""focus"",""5"",""36939""
","""event"",""trial"",""time""
""fullscreenenter"",""0"",""1482""
","""event"",""trial"",""time""
""fullscreenexit"",""4"",""17021""
","782","","","","","","","","54","","","","288","probe-203","","","","","1","[object Object]","118","2","1","","","",""
"","html-keyboard-response","137","395046","0.0-77.0-1.0","""event"",""trial"",""time""
""fullscreenenter"",""0"",""1482""
""fullscreenexit"",""4"",""17021""
""blur"",""4"",""18587""
""focus"",""5"",""36939""
","""event"",""trial"",""time""
""blur"",""4"",""18587""
","""event"",""trial"",""time""
""focus"",""5"",""36939""
","""event"",""trial"",""time""
""fullscreenenter"",""0"",""1482""
","""event"",""trial"",""time""
""fullscreenexit"",""4"",""17021""
","null","<p></p>","null","","","","","","","","","","","","","","","","","","","","","","","",""
"","do_trial","138","397610","0.0-78.0-0.0","""event"",""trial"",""time""
""fullscreenenter"",""0"",""1482""
""fullscreenexit"",""4"",""17021""
""blur"",""4"",""18587""
""focus"",""5"",""36939""
","""event"",""trial"",""time""
""blur"",""4"",""18587""
","""event"",""trial"",""time""
""focus"",""5"",""36939""
","""event"",""trial"",""time""
""fullscreenenter"",""0"",""1482""
","""event"",""trial"",""time""
""fullscreenexit"",""4"",""17021""
","0.29999999701976776","","","","","","","","51","0,0,1","6","blank","289","null","0.1879685940815589","0.19208258069511136","0.8367414829089446","1","","","","","","","","",""
"","html-keyboard-response","139","398612","0.0-78.0-1.0","""event"",""trial"",""time""
""fullscreenenter"",""0"",""1482""
""fullscreenexit"",""4"",""17021""
""blur"",""4"",""18587""
""focus"",""5"",""36939""
","""event"",""trial"",""time""
""blur"",""4"",""18587""
","""event"",""trial"",""time""
""focus"",""5"",""36939""
","""event"",""trial"",""time""
""fullscreenenter"",""0"",""1482""
","""event"",""trial"",""time""
""fullscreenexit"",""4"",""17021""
","null","<p></p>","null","","","","","","","","","","","","","","","","","","","","","","","",""
"","do_recog","140","401019","0.0-79.0-0.0","""event"",""trial"",""time""
""fullscreenenter"",""0"",""1482""
""fullscreenexit"",""4"",""17021""
""blur"",""4"",""18587""
""focus"",""5"",""36939""
","""event"",""trial"",""time""
""blur"",""4"",""18587""
","""event"",""trial"",""time""
""focus"",""5"",""36939""
","""event"",""trial"",""time""
""fullscreenenter"",""0"",""1482""
","""event"",""trial"",""time""
""fullscreenexit"",""4"",""17021""
","897.5","","","","","","","","55","","","","290","probe-143","","","","","1","[object Object]","72","1","0","","","",""
"","html-keyboard-response","141","402021","0.0-79.0-1.0","""event"",""trial"",""time""
""fullscreenenter"",""0"",""1482""
""fullscreenexit"",""4"",""17021""
""blur"",""4"",""18587""
""focus"",""5"",""36939""
","""event"",""trial"",""time""
""blur"",""4"",""18587""
","""event"",""trial"",""time""
""focus"",""5"",""36939""
","""event"",""trial"",""time""
""fullscreenenter"",""0"",""1482""
","""event"",""trial"",""time""
""fullscreenexit"",""4"",""17021""
","null","<p></p>","null","","","","","","","","","","","","","","","","","","","","","","","",""
"","do_trial","142","404600","0.0-80.0-0.0","""event"",""trial"",""time""
""fullscreenenter"",""0"",""1482""
""fullscreenexit"",""4"",""17021""
""blur"",""4"",""18587""
""focus"",""5"",""36939""
","""event"",""trial"",""time""
""blur"",""4"",""18587""
","""event"",""trial"",""time""
""focus"",""5"",""36939""
","""event"",""trial"",""time""
""fullscreenenter"",""0"",""1482""
","""event"",""trial"",""time""
""fullscreenexit"",""4"",""17021""
","12.5","","","","","","","","51","0,0,1","6","blank","291","null","0.1312412559081059","0.1903476386864338","0.6327733348323866","1","","","","","","","","",""
"","html-keyboard-response","143","405603","0.0-80.0-1.0","""event"",""trial"",""time""
""fullscreenenter"",""0"",""1482""
""fullscreenexit"",""4"",""17021""
""blur"",""4"",""18587""
""focus"",""5"",""36939""
","""event"",""trial"",""time""
""blur"",""4"",""18587""
","""event"",""trial"",""time""
""focus"",""5"",""36939""
","""event"",""trial"",""time""
""fullscreenenter"",""0"",""1482""
","""event"",""trial"",""time""
""fullscreenexit"",""4"",""17021""
","null","<p></p>","null","","","","","","","","","","","","","","","","","","","","","","","",""
"","do_recog","144","407802","0.0-81.0-0.0","""event"",""trial"",""time""
""fullscreenenter"",""0"",""1482""
""fullscreenexit"",""4"",""17021""
""blur"",""4"",""18587""
""focus"",""5"",""36939""
","""event"",""trial"",""time""
""blur"",""4"",""18587""
","""event"",""trial"",""time""
""focus"",""5"",""36939""
","""event"",""trial"",""time""
""fullscreenenter"",""0"",""1482""
","""event"",""trial"",""time""
""fullscreenexit"",""4"",""17021""
","691","","","","","","","","54","","","","292","probe-112","","","","","1","[object Object]","190","4","1","","","",""
"","html-keyboard-response","145","408804","0.0-81.0-1.0","""event"",""trial"",""time""
""fullscreenenter"",""0"",""1482""
""fullscreenexit"",""4"",""17021""
""blur"",""4"",""18587""
""focus"",""5"",""36939""
","""event"",""trial"",""time""
""blur"",""4"",""18587""
","""event"",""trial"",""time""
""focus"",""5"",""36939""
","""event"",""trial"",""time""
""fullscreenenter"",""0"",""1482""
","""event"",""trial"",""time""
""fullscreenexit"",""4"",""17021""
","null","<p></p>","null","","","","","","","","","","","","","","","","","","","","","","","",""
"","do_trial","146","411369","0.0-82.0-0.0","""event"",""trial"",""time""
""fullscreenenter"",""0"",""1482""
""fullscreenexit"",""4"",""17021""
""blur"",""4"",""18587""
""focus"",""5"",""36939""
","""event"",""trial"",""time""
""blur"",""4"",""18587""
","""event"",""trial"",""time""
""focus"",""5"",""36939""
","""event"",""trial"",""time""
""fullscreenenter"",""0"",""1482""
","""event"",""trial"",""time""
""fullscreenexit"",""4"",""17021""
","0.5","","","","","","","","51","0,0,0","6","blank","293","null","0.10345174472606689","0.41556406517265787","0.6938334922561876","0","","","","","","","","",""
"","html-keyboard-response","147","412372","0.0-82.0-1.0","""event"",""trial"",""time""
""fullscreenenter"",""0"",""1482""
""fullscreenexit"",""4"",""17021""
""blur"",""4"",""18587""
""focus"",""5"",""36939""
","""event"",""trial"",""time""
""blur"",""4"",""18587""
","""event"",""trial"",""time""
""focus"",""5"",""36939""
","""event"",""trial"",""time""
""fullscreenenter"",""0"",""1482""
","""event"",""trial"",""time""
""fullscreenexit"",""4"",""17021""
","null","<p></p>","null","","","","","","","","","","","","","","","","","","","","","","","",""
"","do_trial","148","415224","0.0-83.0-0.0","""event"",""trial"",""time""
""fullscreenenter"",""0"",""1482""
""fullscreenexit"",""4"",""17021""
""blur"",""4"",""18587""
""focus"",""5"",""36939""
","""event"",""trial"",""time""
""blur"",""4"",""18587""
","""event"",""trial"",""time""
""focus"",""5"",""36939""
","""event"",""trial"",""time""
""fullscreenenter"",""0"",""1482""
","""event"",""trial"",""time""
""fullscreenexit"",""4"",""17021""
","286.09999999403954","","","","","","","","49","0,0,0","6","blank","294","null","0.13261289033695392","0.32683523435725936","0.5944090596240664","0","","","","","","","","",""
"","html-keyboard-response","149","416226","0.0-83.0-1.0","""event"",""trial"",""time""
""fullscreenenter"",""0"",""1482""
""fullscreenexit"",""4"",""17021""
""blur"",""4"",""18587""
""focus"",""5"",""36939""
","""event"",""trial"",""time""
""blur"",""4"",""18587""
","""event"",""trial"",""time""
""focus"",""5"",""36939""
","""event"",""trial"",""time""
""fullscreenenter"",""0"",""1482""
","""event"",""trial"",""time""
""fullscreenexit"",""4"",""17021""
","null","<p></p>","null","","","","","","","","","","","","","","","","","","","","","","","",""
"","do_trial","150","418850","0.0-84.0-0.0","""event"",""trial"",""time""
""fullscreenenter"",""0"",""1482""
""fullscreenexit"",""4"",""17021""
""blur"",""4"",""18587""
""focus"",""5"",""36939""
","""event"",""trial"",""time""
""blur"",""4"",""18587""
","""event"",""trial"",""time""
""focus"",""5"",""36939""
","""event"",""trial"",""time""
""fullscreenenter"",""0"",""1482""
","""event"",""trial"",""time""
""fullscreenexit"",""4"",""17021""
","59.1000000089407","","","","","","","","50","0,0,1","6","blank","295","null","0.2653430544195489","0.2587260936019478","0.5913960204587972","0","","","","","","","","",""
"","html-keyboard-response","151","419852","0.0-84.0-1.0","""event"",""trial"",""time""
""fullscreenenter"",""0"",""1482""
""fullscreenexit"",""4"",""17021""
""blur"",""4"",""18587""
""focus"",""5"",""36939""
","""event"",""trial"",""time""
""blur"",""4"",""18587""
","""event"",""trial"",""time""
""focus"",""5"",""36939""
","""event"",""trial"",""time""
""fullscreenenter"",""0"",""1482""
","""event"",""trial"",""time""
""fullscreenexit"",""4"",""17021""
","null","<p></p>","null","","","","","","","","","","","","","","","","","","","","","","","",""
"","do_trial","152","422725","0.0-85.0-0.0","""event"",""trial"",""time""
""fullscreenenter"",""0"",""1482""
""fullscreenexit"",""4"",""17021""
""blur"",""4"",""18587""
""focus"",""5"",""36939""
","""event"",""trial"",""time""
""blur"",""4"",""18587""
","""event"",""trial"",""time""
""focus"",""5"",""36939""
","""event"",""trial"",""time""
""fullscreenenter"",""0"",""1482""
","""event"",""trial"",""time""
""fullscreenexit"",""4"",""17021""
","307.6000000089407","","","","","","","","49","0,0,1","6","blank","296","null","0.3237608882430383","0.2286437027279575","0.7538278203217814","0","","","","","","","","",""
"","html-keyboard-response","153","423727","0.0-85.0-1.0","""event"",""trial"",""time""
""fullscreenenter"",""0"",""1482""
""fullscreenexit"",""4"",""17021""
""blur"",""4"",""18587""
""focus"",""5"",""36939""
","""event"",""trial"",""time""
""blur"",""4"",""18587""
","""event"",""trial"",""time""
""focus"",""5"",""36939""
","""event"",""trial"",""time""
""fullscreenenter"",""0"",""1482""
","""event"",""trial"",""time""
""fullscreenexit"",""4"",""17021""
","null","<p></p>","null","","","","","","","","","","","","","","","","","","","","","","","",""
"","do_trial","154","426626","0.0-86.0-0.0","""event"",""trial"",""time""
""fullscreenenter"",""0"",""1482""
""fullscreenexit"",""4"",""17021""
""blur"",""4"",""18587""
""focus"",""5"",""36939""
","""event"",""trial"",""time""
""blur"",""4"",""18587""
","""event"",""trial"",""time""
""focus"",""5"",""36939""
","""event"",""trial"",""time""
""fullscreenenter"",""0"",""1482""
","""event"",""trial"",""time""
""fullscreenexit"",""4"",""17021""
","333.3999999910593","","","","","","","","51","1,0,0","6","blank","297","null","0.3400638651332327","0.3570980064089556","0.541909221221975","0","","","","","","","","",""
"","html-keyboard-response","155","427629","0.0-86.0-1.0","""event"",""trial"",""time""
""fullscreenenter"",""0"",""1482""
""fullscreenexit"",""4"",""17021""
""blur"",""4"",""18587""
""focus"",""5"",""36939""
","""event"",""trial"",""time""
""blur"",""4"",""18587""
","""event"",""trial"",""time""
""focus"",""5"",""36939""
","""event"",""trial"",""time""
""fullscreenenter"",""0"",""1482""
","""event"",""trial"",""time""
""fullscreenexit"",""4"",""17021""
","null","<p></p>","null","","","","","","","","","","","","","","","","","","","","","","","",""
"","do_recog","156","430174","0.0-87.0-0.0","""event"",""trial"",""time""
""fullscreenenter"",""0"",""1482""
""fullscreenexit"",""4"",""17021""
""blur"",""4"",""18587""
""focus"",""5"",""36939""
","""event"",""trial"",""time""
""blur"",""4"",""18587""
","""event"",""trial"",""time""
""focus"",""5"",""36939""
","""event"",""trial"",""time""
""fullscreenenter"",""0"",""1482""
","""event"",""trial"",""time""
""fullscreenexit"",""4"",""17021""
","1036.2000000029802","","","","","","","","53","","","","298","probe-72","","","","","1","[object Object]","198","4","1","","","",""
"","html-keyboard-response","157","431177","0.0-87.0-1.0","""event"",""trial"",""time""
""fullscreenenter"",""0"",""1482""
""fullscreenexit"",""4"",""17021""
""blur"",""4"",""18587""
""focus"",""5"",""36939""
","""event"",""trial"",""time""
""blur"",""4"",""18587""
","""event"",""trial"",""time""
""focus"",""5"",""36939""
","""event"",""trial"",""time""
""fullscreenenter"",""0"",""1482""
","""event"",""trial"",""time""
""fullscreenexit"",""4"",""17021""
