success,trial_type,trial_index,time_elapsed,internal_node_id,rt,stimulus,subject_id,key_press,response,choice_outcomes,context_n,context_img_id,trial_n,probe_img_id,pR_red,pR_white,pR_black,outcome,is_valid,image_to_show,probed_trial,probed_context,correct,context_id
TRUE,fullscreen,0,5143,0.0-0.0,,,,,,,,,,,,,,,,,,,,
,pavlovia,1,5145,0.0-1.0,,,,,,,,,,,,,,,,,,,,
,html-keyboard-response,2,53204,0.0-2.0,48059.2,"<div class='center'><p>Like yesterday,as the head captain of the ship, you have one important things to do: </p><b><p> Pick the pirate who you think will be most successful at robbing the next ship.</p></b><p>This is important in determining how much bonus money you’ll win.</p><br><p>The game will start by showing you the pirates. First pick a pirate using the <b> 1, 2, 3 </b> buttons on your keyboard. </p><p> Press <b>'1'</b> to choose red beard, <b>'2'</b> to choose white beard, and <b>'3'</b> to choose black beard</p><p> You only have 3 seconds to pick a pirate, so please make a choice quickly! If you are too slow, you’ll have to wait a bit during the time out.</p><p> Don’t feel rushed, but please do try to make a choice every time.</p><p>How good a pirate is at robbing a ship will change depending on the place they are in and how good the defenses are of the ship.</p><p><b>[Press the space bar to begin the practice game]</b></p></div>",61077d33fa52e0e5aed87ae4,32,,,,,,,,,,,,,,,,
,html-keyboard-response,3,70472,0.0-3.0,17273.4,"<div class='center'><p>You’ve arrived at the final island of your journey! Unfortunately, it’s very foggy out, so you won’t be able to see it in the distance like the previous islands you've visited.</p><p>You’ll still be deciding which pirate you want to rob a ship like before. However, because of the fog, you also won’t be able to see the ship.</p><p>This means you do not have to remember the ships you rob on this island.</p><p><b>[Press the space bar to continue]</b></p></div>",,32,,,,,,,,,,,,,,,,
,html-keyboard-response,4,82210,0.0-4.0,11737.5,"<div class='center'><p> Sometimes you’ll be shown a ship, and you will be asked if you saw this ship on a past island.</p><p> Here is an example of what you will see.</p><p><b>[Press the space bar to continue]</b></p><p><img src='run_exp/static/images/tutorial/example_recog_trial.png' height='500'></p></div>",,32,,,,,,,,,,,,,,,,
,html-keyboard-response,5,90237,0.0-5.0,8026.9,"<div class='center'><p> You will press the 5, 6, 7, 8 buttons on your keyboard to respond.</p><p>If you are very sure saw the ship, press <b>5</b> on your keyboard.</p><p> If you think you  saw it before but are not sure, then press <b>6</b>.</p><p> If you think you have not seen it before but are not sure, then press <b>7</b>.</p><p> If you are sure you did not see the ship before, then press <b>8</b>.</p><p><b>[Press the space bar to continue]</b></p><p><img src='run_exp/static/images/tutorial/example_recog_trial.png' height='500'></p></div>",,32,,,,,,,,,,,,,,,,
,html-keyboard-response,6,100072,0.0-6.0,9833.7,"<div class='center'><p> If you remember correctly, then you’ll get a gold coin like this: </p><p><img src='run_exp/static/images/tutorial/reward_small.png' height='200'></p><p>If you do not remember correctly, then you'll see a red x like this: </p><p><img src='run_exp/static/images/tutorial/reward_no.png' height='200'></p><p>Importantly, when you are shown a ship, take the time to remind yourself which island you saw it on. This will help you in the next part of the study.</p><p><b>[Press the space bar to continue]</b></p></div>",,32,,,,,,,,,,,,,,,,
,html-keyboard-response,7,113210,0.0-7.0,13137.1,"<div class='center'><p>Let's go over the important points again. Your job is to: </p><p>1. Pick the pirate who is best at robbing ships and will bring you back gold coins. </p><p>2. Correctly remember whether or not you saw a ship before. If you did see the ship before, remind yourself on which island you saw the ship. </p><p><b>[Press the space bar to begin the next part of the study]</b></p></div>",,32,,,,,,,,,,,,,,,,
,do_welcome,8,114735,0.0-8.0,null,,,,null,,,,,,,,,,,,,,,
,do_trial,9,118524,0.0-9.0-0.0,1256.8,,,,49,"1,0,0",6,blank,230,null,0.325811545,0.55260655,0.138801354,1,,,,,,
,html-keyboard-response,10,119534,0.0-9.0-1.0,null,<p></p>,,null,,,,,,,,,,,,,,,,
,do_trial,11,122885,0.0-10.0-0.0,818.5,,,,50,"1,1,0",6,blank,231,null,0.454622393,0.61081119,0.119447841,1,,,,,,
,html-keyboard-response,12,123904,0.0-10.0-1.0,null,<p></p>,,null,,,,,,,,,,,,,,,,
,do_trial,13,126844,0.0-11.0-0.0,411.7,,,,51,"0,1,0",6,blank,232,null,0.516259723,0.530525171,0.184477589,0,,,,,,
,html-keyboard-response,14,127855,0.0-11.0-1.0,null,<p></p>,,null,,,,,,,,,,,,,,,,
,do_trial,15,130721,0.0-12.0-0.0,332.6,,,,49,"0,0,0",6,blank,233,null,0.559435358,0.443845342,0.070904393,0,,,,,,
,html-keyboard-response,16,131741,0.0-12.0-1.0,null,<p></p>,,null,,,,,,,,,,,,,,,,
,do_trial,17,134571,0.0-13.0-0.0,303.4,,,,50,"1,0,0",6,blank,234,null,0.559470389,0.450250887,0.110846339,0,,,,,,
,html-keyboard-response,18,135581,0.0-13.0-1.0,null,<p></p>,,null,,,,,,,,,,,,,,,,
,do_trial,19,138340,0.0-14.0-0.0,225.3,,,,51,"0,1,0",6,blank,235,null,0.358500496,0.521861651,0.150436223,0,,,,,,
,html-keyboard-response,20,139360,0.0-14.0-1.0,null,<p></p>,,null,,,,,,,,,,,,,,,,
,do_trial,21,142131,0.0-15.0-0.0,243.8,,,,49,"1,0,0",6,blank,236,null,0.417048272,0.543105362,0.101866823,1,,,,,,
,html-keyboard-response,22,143136,0.0-15.0-1.0,null,<p></p>,,null,,,,,,,,,,,,,,,,
,do_trial,23,146141,0.0-16.0-0.0,481.4,,,,50,"1,1,0",6,blank,237,null,0.468598886,0.394964762,0.097838592,1,,,,,,
,html-keyboard-response,24,147161,0.0-16.0-1.0,null,<p></p>,,null,,,,,,,,,,,,,,,,
,do_trial,25,149911,0.0-17.0-0.0,211.2,,,,49,"0,1,0",6,blank,238,null,0.358398423,0.493683377,0.06211039,0,,,,,,
,html-keyboard-response,26,150930,0.0-17.0-1.0,null,<p></p>,,null,,,,,,,,,,,,,,,,
,do_trial,27,153671,0.0-18.0-0.0,209.2,,,,50,"0,1,0",6,blank,239,null,0.359621103,0.622298332,0.14447059,1,,,,,,
,html-keyboard-response,28,154691,0.0-18.0-1.0,null,<p></p>,,null,,,,,,,,,,,,,,,,
,do_trial,29,157460,0.0-19.0-0.0,239.3,,,,50,"1,0,1",6,blank,240,null,0.316484824,0.513667366,0.095001983,0,,,,,,
,html-keyboard-response,30,158471,0.0-19.0-1.0,null,<p></p>,,null,,,,,,,,,,,,,,,,
,do_recog,31,164501,0.0-20.0-0.0,null,,,,null,,,,241,probe-62,,,,,1,[object Object],83,2,0,
,html-keyboard-response,32,165521,0.0-20.0-1.0,null,<p></p>,,null,,,,,,,,,,,,,,,,
,do_trial,33,168720,0.0-21.0-0.0,671.7,,,,50,"0,1,0",6,blank,242,null,0.279182565,0.533482629,0.086460817,1,,,,,,
,html-keyboard-response,34,169731,0.0-21.0-1.0,null,<p></p>,,null,,,,,,,,,,,,,,,,
,do_trial,35,172721,0.0-22.0-0.0,459.4,,,,50,"0,1,0",6,blank,243,null,0.179418831,0.375606852,0.415480958,1,,,,,,
,html-keyboard-response,36,173741,0.0-22.0-1.0,null,<p></p>,,null,,,,,,,,,,,,,,,,
,do_trial,37,176631,0.0-23.0-0.0,352.9,,,,50,"1,0,0",6,blank,244,null,0.183762412,0.206197956,0.511029104,0,,,,,,
,html-keyboard-response,38,177651,0.0-23.0-1.0,null,<p></p>,,null,,,,,,,,,,,,,,,,
,do_trial,39,180660,0.0-24.0-0.0,482.6,,,,50,"0,0,1",6,blank,245,null,0.268685361,0.19963726,0.412635876,0,,,,,,
,html-keyboard-response,40,181671,0.0-24.0-1.0,null,<p></p>,,null,,,,,,,,,,,,,,,,
,do_recog,41,184701,0.0-25.0-0.0,1526.8,,,,55,,,,246,probe-47,,,,,1,[object Object],162,4,0,
,html-keyboard-response,42,185710,0.0-25.0-1.0,null,<p></p>,,null,,,,,,,,,,,,,,,,
,do_trial,43,189070,0.0-26.0-0.0,839.7,,,,50,"0,1,1",6,blank,247,null,0.309972557,0.308484992,0.597811297,1,,,,,,
,html-keyboard-response,44,190091,0.0-26.0-1.0,null,<p></p>,,null,,,,,,,,,,,,,,,,
,do_recog,45,192950,0.0-27.0-0.0,1355.6,,,,55,,,,248,probe-100,,,,,1,[object Object],89,2,0,
,html-keyboard-response,46,193970,0.0-27.0-1.0,null,<p></p>,,null,,,,,,,,,,,,,,,,
,do_trial,47,196900,0.0-28.0-0.0,401.9,,,,50,"0,0,0",6,blank,249,null,0.370953296,0.220191081,0.73283479,0,,,,,,
,html-keyboard-response,48,197910,0.0-28.0-1.0,null,<p></p>,,null,,,,,,,,,,,,,,,,
,do_recog,49,200741,0.0-29.0-0.0,1320.1,,,,55,,,,250,probe-225,,,,,1,[object Object],206,5,0,
,html-keyboard-response,50,201760,0.0-29.0-1.0,null,<p></p>,,null,,,,,,,,,,,,,,,,
,do_trial,51,204780,0.0-30.0-0.0,497.9,,,,50,"0,1,1",6,blank,251,null,0.321986905,0.068806468,0.711369127,1,,,,,,
,html-keyboard-response,52,205800,0.0-30.0-1.0,null,<p></p>,,null,,,,,,,,,,,,,,,,
,do_trial,53,208791,0.0-31.0-0.0,465.5,,,,50,"0,0,1",6,blank,252,null,0.356376024,0.150720238,0.668743114,0,,,,,,
,html-keyboard-response,54,209810,0.0-31.0-1.0,null,<p></p>,,null,,,,,,,,,,,,,,,,
,do_trial,55,212820,0.0-32.0-0.0,489.8,,,,50,"0,0,0",6,blank,253,null,0.278547504,0.132095881,0.568741449,0,,,,,,
,html-keyboard-response,56,213840,0.0-32.0-1.0,null,<p></p>,,null,,,,,,,,,,,,,,,,
,do_recog,57,217011,0.0-33.0-0.0,1661.4,,,,54,,,,254,probe-91,,,,,1,[object Object],201,5,1,
,html-keyboard-response,58,218031,0.0-33.0-1.0,null,<p></p>,,null,,,,,,,,,,,,,,,,
,do_trial,59,220871,0.0-34.0-0.0,305.2,,,,49,"0,0,0",6,blank,255,null,0.170427517,0.186666015,0.588120742,0,,,,,,
,html-keyboard-response,60,221890,0.0-34.0-1.0,null,<p></p>,,null,,,,,,,,,,,,,,,,
,do_trial,61,224851,0.0-35.0-0.0,421,,,,49,"0,0,0",6,blank,256,null,0.159137502,0.22548219,0.466536615,0,,,,,,
,html-keyboard-response,62,225862,0.0-35.0-1.0,null,<p></p>,,null,,,,,,,,,,,,,,,,
,do_trial,63,228821,0.0-36.0-0.0,436.8,,,,49,"0,0,0",6,blank,257,null,0.191326394,0.238683798,0.512806106,0,,,,,,
,html-keyboard-response,64,229831,0.0-36.0-1.0,null,<p></p>,,null,,,,,,,,,,,,,,,,
,do_trial,65,232710,0.0-37.0-0.0,342.8,,,,49,"0,1,1",6,blank,258,null,0.243807151,0.285229492,0.435739776,0,,,,,,
,html-keyboard-response,66,233730,0.0-37.0-1.0,null,<p></p>,,null,,,,,,,,,,,,,,,,
,do_trial,67,236640,0.0-38.0-0.0,381.7,,,,49,"0,1,0",6,blank,259,null,0.115442182,0.171321827,0.458699372,0,,,,,,
,html-keyboard-response,68,237661,0.0-38.0-1.0,null,<p></p>,,null,,,,,,,,,,,,,,,,
,do_trial,69,240530,0.0-39.0-0.0,345.6,,,,50,"0,1,0",6,blank,260,null,0.126946855,0.066466795,0.630187776,1,,,,,,
,html-keyboard-response,70,241551,0.0-39.0-1.0,null,<p></p>,,null,,,,,,,,,,,,,,,,
,do_recog,71,244361,0.0-40.0-0.0,1299.1,,,,53,,,,261,probe-230,,,,,1,[object Object],43,1,1,
,html-keyboard-response,72,245380,0.0-40.0-1.0,null,<p></p>,,null,,,,,,,,,,,,,,,,
,do_trial,73,248461,0.0-41.0-0.0,547,,,,51,"0,0,1",6,blank,262,null,0.2690469,0.079827936,0.527541203,1,,,,,,
,html-keyboard-response,74,249480,0.0-41.0-1.0,null,<p></p>,,null,,,,,,,,,,,,,,,,
,do_trial,75,252451,0.0-42.0-0.0,448,,,,50,"1,0,0",6,blank,263,null,0.286645179,0.115477234,0.587738688,0,,,,,,
,html-keyboard-response,76,253471,0.0-42.0-1.0,null,<p></p>,,null,,,,,,,,,,,,,,,,
,do_trial,77,256230,0.0-43.0-0.0,229.5,,,,51,"1,0,1",6,blank,264,null,0.208048832,0.085581927,0.587168935,1,,,,,,
,html-keyboard-response,78,257250,0.0-43.0-1.0,null,<p></p>,,null,,,,,,,,,,,,,,,,
,do_trial,79,260251,0.0-44.0-0.0,469.4,,,,51,"1,1,0",6,blank,265,null,0.313817792,0.148310764,0.679749391,0,,,,,,
,html-keyboard-response,80,261261,0.0-44.0-1.0,null,<p></p>,,null,,,,,,,,,,,,,,,,
,do_recog,81,264161,0.0-45.0-0.0,1383.4,,,,56,,,,266,probe-215,,,,,1,[object Object],202,5,0,
,html-keyboard-response,82,265181,0.0-45.0-1.0,null,<p></p>,,null,,,,,,,,,,,,,,,,
,do_trial,83,268541,0.0-46.0-0.0,828.3,,,,51,"1,0,1",6,blank,267,null,0.34099079,0.176664866,0.731065071,1,,,,,,
,html-keyboard-response,84,269551,0.0-46.0-1.0,null,<p></p>,,null,,,,,,,,,,,,,,,,
,do_trial,85,272731,0.0-47.0-0.0,650.8,,,,50,"0,0,1",6,blank,268,null,0.205360378,0.110264911,0.637554337,0,,,,,,
,html-keyboard-response,86,273750,0.0-47.0-1.0,null,<p></p>,,null,,,,,,,,,,,,,,,,
,do_recog,87,277011,0.0-48.0-0.0,1740.2,,,,53,,,,269,probe-26,,,,,1,[object Object],126,3,1,
,html-keyboard-response,88,278031,0.0-48.0-1.0,null,<p></p>,,null,,,,,,,,,,,,,,,,
,do_trial,89,281570,0.0-49.0-0.0,1012.6,,,,50,"0,0,1",6,blank,270,null,0.269390357,0.09137106,0.543751581,0,,,,,,
,html-keyboard-response,90,282591,0.0-49.0-1.0,null,<p></p>,,null,,,,,,,,,,,,,,,,
,do_trial,91,285771,0.0-50.0-0.0,645.1,,,,51,"0,0,0",6,blank,271,null,0.346419504,0.21537569,0.542176735,0,,,,,,
,html-keyboard-response,92,286791,0.0-50.0-1.0,null,<p></p>,,null,,,,,,,,,,,,,,,,
,do_recog,93,289281,0.0-51.0-0.0,973.2,,,,53,,,,272,probe-29,,,,,1,[object Object],47,1,1,
,html-keyboard-response,94,290301,0.0-51.0-1.0,null,<p></p>,,null,,,,,,,,,,,,,,,,
,do_trial,95,293281,0.0-52.0-0.0,450.8,,,,50,"1,0,1",6,blank,273,null,0.352766163,0.141187176,0.525831435,0,,,,,,
,html-keyboard-response,96,294291,0.0-52.0-1.0,null,<p></p>,,null,,,,,,,,,,,,,,,,
,do_recog,97,296911,0.0-53.0-0.0,1102.8,,,,53,,,,274,probe-200,,,,,1,[object Object],123,3,1,
,html-keyboard-response,98,297931,0.0-53.0-1.0,null,<p></p>,,null,,,,,,,,,,,,,,,,
,do_trial,99,301101,0.0-54.0-0.0,649.6,,,,50,"0,0,1",6,blank,275,null,0.395069881,0.174438674,0.453496923,0,,,,,,
,html-keyboard-response,100,302120,0.0-54.0-1.0,null,<p></p>,,null,,,,,,,,,,,,,,,,
,do_trial,101,305090,0.0-55.0-0.0,443.3,,,,51,"0,1,1",6,blank,276,null,0.370982486,0.123074523,0.445797845,1,,,,,,
,html-keyboard-response,102,306111,0.0-55.0-1.0,null,<p></p>,,null,,,,,,,,,,,,,,,,
,do_trial,103,309111,0.0-56.0-0.0,474.3,,,,51,"0,0,0",6,blank,277,null,0.220421157,0.251555248,0.499184002,0,,,,,,
,html-keyboard-response,104,310131,0.0-56.0-1.0,null,<p></p>,,null,,,,,,,,,,,,,,,,
,do_trial,105,313281,0.0-57.0-0.0,613.8,,,,51,"0,0,0",6,blank,278,null,0.196805768,0.203793375,0.493383409,0,,,,,,
,html-keyboard-response,106,314301,0.0-57.0-1.0,null,<p></p>,,null,,,,,,,,,,,,,,,,
,do_trial,107,317511,0.0-58.0-0.0,685,,,,50,"0,0,1",6,blank,279,null,0.19223723,0.074273877,0.669800283,0,,,,,,
,html-keyboard-response,108,318521,0.0-58.0-1.0,null,<p></p>,,null,,,,,,,,,,,,,,,,
,do_recog,109,321211,0.0-59.0-0.0,1180.5,,,,53,,,,280,probe-03,,,,,1,[object Object],161,4,1,
,html-keyboard-response,110,322221,0.0-59.0-1.0,null,<p></p>,,null,,,,,,,,,,,,,,,,
,do_trial,111,325320,0.0-60.0-0.0,561.5,,,,49,"0,0,1",6,blank,281,null,0.130830365,0.112357811,0.805499188,0,,,,,,
,html-keyboard-response,112,326331,0.0-60.0-1.0,null,<p></p>,,null,,,,,,,,,,,,,,,,
,do_trial,113,329120,0.0-61.0-0.0,264.7,,,,50,"1,1,1",6,blank,282,null,0.218982543,0.201552428,0.675047427,1,,,,,,
,html-keyboard-response,114,330129,0.0-61.0-1.0,null,<p></p>,,null,,,,,,,,,,,,,,,,
,do_trial,115,333141,0.0-62.0-0.0,479.2,,,,51,"0,0,1",6,blank,283,null,0.19336632,0.245104426,0.775529326,1,,,,,,
,html-keyboard-response,116,334151,0.0-62.0-1.0,null,<p></p>,,null,,,,,,,,,,,,,,,,
,do_recog,117,336671,0.0-63.0-0.0,1001.6,,,,53,,,,284,probe-175,,,,,1,[object Object],128,3,1,
,html-keyboard-response,118,337681,0.0-63.0-1.0,null,<p></p>,,null,,,,,,,,,,,,,,,,
,do_trial,119,341071,0.0-64.0-0.0,850.9,,,,50,"0,0,1",6,blank,285,null,0.306699568,0.123630244,0.682264052,0,,,,,,
,html-keyboard-response,120,342091,0.0-64.0-1.0,null,<p></p>,,null,,,,,,,,,,,,,,,,
,do_trial,121,345090,0.0-65.0-0.0,466.9,,,,50,"1,0,1",6,blank,286,null,0.340557667,0.066611999,0.546333772,0,,,,,,
,html-keyboard-response,122,346111,0.0-65.0-1.0,null,<p></p>,,null,,,,,,,,,,,,,,,,
,do_trial,123,348930,0.0-66.0-0.0,297.6,,,,51,"0,0,1",6,blank,287,null,0.267051757,0.052880023,0.633332573,1,,,,,,
,html-keyboard-response,124,349951,0.0-66.0-1.0,null,<p></p>,,null,,,,,,,,,,,,,,,,
,do_trial,125,352840,0.0-67.0-0.0,350.7,,,,51,"1,0,1",6,blank,288,null,0.298637153,0.090879645,0.587865805,1,,,,,,
,html-keyboard-response,126,353861,0.0-67.0-1.0,null,<p></p>,,null,,,,,,,,,,,,,,,,
,do_recog,127,356401,0.0-68.0-0.0,1023.4,,,,53,,,,289,probe-05,,,,,1,[object Object],167,4,1,
,html-keyboard-response,128,357421,0.0-68.0-1.0,null,<p></p>,,null,,,,,,,,,,,,,,,,
,do_trial,129,360670,0.0-69.0-0.0,711.7,,,,51,"0,0,1",6,blank,290,null,0.282276291,0.123953304,0.658641188,1,,,,,,
,html-keyboard-response,130,361690,0.0-69.0-1.0,null,<p></p>,,null,,,,,,,,,,,,,,,,
,do_trial,131,365001,0.0-70.0-0.0,785.5,,,,51,"0,0,1",6,blank,291,null,0.21381042,0.108599975,0.674980084,1,,,,,,
,html-keyboard-response,132,366021,0.0-70.0-1.0,null,<p></p>,,null,,,,,,,,,,,,,,,,
,do_recog,133,368541,0.0-71.0-0.0,1007.3,,,,53,,,,292,probe-179,,,,,1,[object Object],122,3,1,
,html-keyboard-response,134,369561,0.0-71.0-1.0,null,<p></p>,,null,,,,,,,,,,,,,,,,
,do_trial,135,373270,0.0-72.0-0.0,1177.7,,,,51,"0,0,0",6,blank,293,null,0.103484746,0.142477752,0.676293818,0,,,,,,
,html-keyboard-response,136,374281,0.0-72.0-1.0,null,<p></p>,,null,,,,,,,,,,,,,,,,
,do_trial,137,377230,0.0-73.0-0.0,430.3,,,,51,"0,0,1",6,blank,294,null,0.12671194,0.061261818,0.615617152,1,,,,,,
,html-keyboard-response,138,378251,0.0-73.0-1.0,null,<p></p>,,null,,,,,,,,,,,,,,,,
,do_trial,139,381289,0.0-74.0-0.0,514.5,,,,50,"0,0,0",6,blank,295,null,0.083423268,0.128998343,0.629936782,0,,,,,,
,html-keyboard-response,140,382291,0.0-74.0-1.0,null,<p></p>,,null,,,,,,,,,,,,,,,,
,do_trial,141,385091,0.0-75.0-0.0,273.4,,,,51,"0,1,1",6,blank,296,null,0.275848829,0.419580908,0.488189591,1,,,,,,
,html-keyboard-response,142,386100,0.0-75.0-1.0,null,<p></p>,,null,,,,,,,,,,,,,,,,
,do_trial,143,388941,0.0-76.0-0.0,315.5,,,,51,"1,0,1",6,blank,297,null,0.402514203,0.283142863,0.324070254,1,,,,,,
,html-keyboard-response,144,389951,0.0-76.0-1.0,null,<p></p>,,null,,,,,,,,,,,,,,,,
,do_recog,145,392276,0.0-77.0-0.0,821,,,,53,,,,298,probe-190,,,,,1,[object Object],164,4,1,
,html-keyboard-response,146,393279,0.0-77.0-1.0,null,<p></p>,,null,,,,,,,,,,,,,,,,
,do_trial,147,396477,0.0-78.0-0.0,671.3,,,,51,"0,0,1",6,blank,299,null,0.4704198,0.340810932,0.186998397,1,,,,,,
,html-keyboard-response,148,397481,0.0-78.0-1.0,null,<p></p>,,null,,,,,,,,,,,,,,,,
,do_recog,149,399911,0.0-79.0-0.0,913.5,,,,53,,,,300,probe-189,,,,,1,[object Object],120,3,1,
,html-keyboard-response,150,400931,0.0-79.0-1.0,null,<p></p>,,null,,,,,,,,,,,,,,,,
,do_trial,151,404071,0.0-80.0-0.0,620.5,,,,51,"1,0,0",6,blank,301,null,0.606924222,0.265844318,0.097550579,0,,,,,,
,html-keyboard-response,152,405080,0.0-80.0-1.0,null,<p></p>,,null,,,,,,,,,,,,,,,,
,do_recog,153,407491,0.0-81.0-0.0,889.8,,,,53,,,,302,probe-50,,,,,1,[object Object],88,2,1,
,html-keyboard-response,154,408501,0.0-81.0-1.0,null,<p></p>,,null,,,,,,,,,,,,,,,,
,do_trial,155,411771,0.0-82.0-0.0,742.7,,,,49,"1,0,0",6,blank,303,null,0.573044661,0.331527845,0.063831766,1,,,,,,
,html-keyboard-response,156,412781,0.0-82.0-1.0,null,<p></p>,,null,,,,,,,,,,,,,,,,
,do_trial,157,415851,0.0-83.0-0.0,533,,,,49,"1,0,0",6,blank,304,null,0.586115727,0.332107644,0.087515774,1,,,,,,
,html-keyboard-response,158,416861,0.0-83.0-1.0,null,<p></p>,,null,,,,,,,,,,,,,,,,
,do_trial,159,419921,0.0-84.0-0.0,531.6,,,,49,"1,0,0",6,blank,305,null,0.736311505,0.348356504,0.086293677,1,,,,,,
,html-keyboard-response,160,420931,0.0-84.0-1.0,null,<p></p>,,null,,,,,,,,,,,,,,,,
,do_recog,161,423411,0.0-85.0-0.0,977.1,,,,53,,,,306,probe-165,,,,,1,[object Object],87,2,1,
,html-keyboard-response,162,424431,0.0-85.0-1.0,null,<p></p>,,null,,,,,,,,,,,,,,,,
,do_trial,163,427541,0.0-86.0-0.0,591.5,,,,49,"0,0,0",6,blank,307,null,0.591472395,0.424801599,0.182592659,0,,,,,,
,html-keyboard-response,164,428560,0.0-86.0-1.0,null,<p></p>,,null,,,,,,,,,,,,,,,,
,do_trial,165,431631,0.0-87.0-0.0,539.3,,,,49,"0,1,0",6,blank,308,null,0.537418346,0.52729185,0.062257598,0,,,,,,
,html-keyboard-response,166,432650,0.0-87.0-1.0,null,<p></p>,,null,,,,,,,,,,,,,,,,
,do_trial,167,435520,0.0-88.0-0.0,337.4,,,,50,"1,1,0",6,blank,309,null,0.657737395,0.553300741,0.159237403,1,,,,,,
,html-keyboard-response,168,436540,0.0-88.0-1.0,null,<p></p>,,null,,,,,,,,,,,,,,,,
,do_trial,169,439521,0.0-89.0-0.0,454.8,,,,50,"0,0,0",6,blank,310,null,0.587514715,0.450603535,0.14563093,0,,,,,,
,html-keyboard-response,170,440541,0.0-89.0-1.0,null,<p></p>,,null,,,,,,,,,,,,,,,,
,do_recog,171,443170,0.0-90.0-0.0,1107.8,,,,53,,,,311,probe-81,,,,,1,[object Object],42,1,1,
,html-keyboard-response,172,444180,0.0-90.0-1.0,null,<p></p>,,null,,,,,,,,,,,,,,,,
,do_trial,173,447330,0.0-91.0-0.0,622.9,,,,51,"1,1,0",6,blank,312,null,0.660201346,0.358011518,0.193785761,0,,,,,,
,html-keyboard-response,174,448340,0.0-91.0-1.0,null,<p></p>,,null,,,,,,,,,,,,,,,,
,do_trial,175,451361,0.0-92.0-0.0,491.1,,,,49,"1,1,0",6,blank,313,null,0.598219776,0.320979489,0.085377699,1,,,,,,
,html-keyboard-response,176,452381,0.0-92.0-1.0,null,<p></p>,,null,,,,,,,,,,,,,,,,
,do_recog,177,455421,0.0-93.0-0.0,1534,,,,53,,,,314,probe-198,,,,,1,[object Object],49,1,1,
,html-keyboard-response,178,456440,0.0-93.0-1.0,null,<p></p>,,null,,,,,,,,,,,,,,,,
,do_trial,179,459870,0.0-94.0-0.0,896.9,,,,50,"1,0,0",6,blank,315,null,0.556975467,0.377380806,0.139459638,0,,,,,,
,html-keyboard-response,180,460891,0.0-94.0-1.0,null,<p></p>,,null,,,,,,,,,,,,,,,,
,do_recog,181,463570,0.0-95.0-0.0,1175.6,,,,53,,,,316,probe-12,,,,,1,[object Object],84,2,1,
,html-keyboard-response,182,464581,0.0-95.0-1.0,null,<p></p>,,null,,,,,,,,,,,,,,,,
,do_trial,183,467601,0.0-96.0-0.0,499.6,,,,49,"1,1,0",6,blank,317,null,0.706250577,0.548455,0.226179683,1,,,,,,
,html-keyboard-response,184,468611,0.0-96.0-1.0,null,<p></p>,,null,,,,,,,,,,,,,,,,
,do_trial,185,471511,0.0-97.0-0.0,371,,,,49,"1,0,0",6,blank,318,null,0.627339837,0.387712481,0.084487126,1,,,,,,
,html-keyboard-response,186,472520,0.0-97.0-1.0,null,<p></p>,,null,,,,,,,,,,,,,,,,
,do_recog,187,475541,0.0-98.0-0.0,1501.3,,,,53,,,,319,probe-39,,,,,1,[object Object],160,4,1,
,html-keyboard-response,188,476560,0.0-98.0-1.0,null,<p></p>,,null,,,,,,,,,,,,,,,,
,do_trial,189,479371,0.0-99.0-0.0,287.8,,,,49,"1,1,0",6,blank,320,null,0.448564886,0.296031387,0.218584822,1,,,,,,
,html-keyboard-response,190,480376,0.0-99.0-1.0,null,<p></p>,,null,,,,,,,,,,,,,,,,
,do_trial,191,483471,0.0-100.0-0.0,573.8,,,,49,"1,0,0",6,blank,321,null,0.456323016,0.261337258,0.193520921,1,,,,,,
,html-keyboard-response,192,484490,0.0-100.0-1.0,null,<p></p>,,null,,,,,,,,,,,,,,,,
,do_trial,193,487541,0.0-101.0-0.0,521.1,,,,49,"1,1,0",6,blank,322,null,0.561437179,0.30108019,0.136315012,1,,,,,,
,html-keyboard-response,194,488547,0.0-101.0-1.0,null,<p></p>,,null,,,,,,,,,,,,,,,,
,do_trial,195,491490,0.0-102.0-0.0,416.7,,,,49,"0,1,0",6,blank,323,null,0.56876786,0.252564573,0.121943202,0,,,,,,
,html-keyboard-response,196,492501,0.0-102.0-1.0,null,<p></p>,,null,,,,,,,,,,,,,,,,
,do_trial,197,495441,0.0-103.0-0.0,408.9,,,,49,"0,1,0",6,blank,324,null,0.470227925,0.214430907,0.057625724,0,,,,,,
,html-keyboard-response,198,496451,0.0-103.0-1.0,null,<p></p>,,null,,,,,,,,,,,,,,,,
,do_recog,199,499321,0.0-104.0-0.0,1361.2,,,,53,,,,325,probe-211,,,,,1,[object Object],205,5,1,
,html-keyboard-response,200,500341,0.0-104.0-1.0,null,<p></p>,,null,,,,,,,,,,,,,,,,
,do_trial,201,503591,0.0-105.0-0.0,721.1,,,,50,"1,0,0",6,blank,326,null,0.572829268,0.380032225,0.200740161,0,,,,,,
,html-keyboard-response,202,504611,0.0-105.0-1.0,null,<p></p>,,null,,,,,,,,,,,,,,,,
,do_trial,203,507650,0.0-106.0-0.0,509,,,,50,"0,1,0",6,blank,327,null,0.610625124,0.371095429,0.210520082,1,,,,,,
,html-keyboard-response,204,508671,0.0-106.0-1.0,null,<p></p>,,null,,,,,,,,,,,,,,,,
,do_trial,205,511511,0.0-107.0-0.0,317.1,,,,51,"1,0,0",6,blank,328,null,0.544327962,0.315796656,0.111148081,0,,,,,,
,html-keyboard-response,206,512521,0.0-107.0-1.0,null,<p></p>,,null,,,,,,,,,,,,,,,,
,do_trial,207,515520,0.0-108.0-0.0,471.1,,,,51,"1,0,0",6,blank,329,null,0.506306702,0.23455523,0.204205358,0,,,,,,
,html-keyboard-response,208,516531,0.0-108.0-1.0,null,<p></p>,,null,,,,,,,,,,,,,,,,
,do_trial,209,519411,0.0-109.0-0.0,343,,,,49,"1,0,0",6,blank,330,null,0.592624432,0.353829314,0.225443188,1,,,,,,
,html-keyboard-response,210,520421,0.0-109.0-1.0,null,<p></p>,,null,,,,,,,,,,,,,,,,
,do_trial,211,523371,0.0-110.0-0.0,416.9,,,,50,"1,0,1",6,blank,331,null,0.692986169,0.361011753,0.1279145,0,,,,,,
,html-keyboard-response,212,524381,0.0-110.0-1.0,null,<p></p>,,null,,,,,,,,,,,,,,,,
,do_trial,213,527230,0.0-111.0-0.0,318.5,,,,49,"0,0,0",6,blank,332,null,0.727848225,0.38306015,0.068883364,0,,,,,,
,html-keyboard-response,214,528241,0.0-111.0-1.0,null,<p></p>,,null,,,,,,,,,,,,,,,,
,do_recog,215,531321,0.0-112.0-0.0,1573.3,,,,53,,,,333,probe-92,,,,,1,[object Object],166,4,1,
,html-keyboard-response,216,532330,0.0-112.0-1.0,null,<p></p>,,null,,,,,,,,,,,,,,,,
,do_trial,217,535620,0.0-113.0-0.0,767.8,,,,49,"0,1,0",6,blank,334,null,0.475389813,0.410663446,0.086058652,0,,,,,,
,html-keyboard-response,218,536641,0.0-113.0-1.0,null,<p></p>,,null,,,,,,,,,,,,,,,,
,do_recog,219,539471,0.0-114.0-0.0,1325.6,,,,53,,,,335,probe-182,,,,,1,[object Object],209,5,1,
,html-keyboard-response,220,540491,0.0-114.0-1.0,null,<p></p>,,null,,,,,,,,,,,,,,,,
,do_trial,221,543901,0.0-115.0-0.0,884.9,,,,49,"0,0,0",6,blank,336,null,0.342555514,0.445662952,0.098206633,0,,,,,,
,html-keyboard-response,222,544911,0.0-115.0-1.0,null,<p></p>,,null,,,,,,,,,,,,,,,,
,do_trial,223,547901,0.0-116.0-0.0,459.1,,,,49,"0,1,0",6,blank,337,null,0.315061544,0.318801136,0.078226077,0,,,,,,
,html-keyboard-response,224,548911,0.0-116.0-1.0,null,<p></p>,,null,,,,,,,,,,,,,,,,
,do_recog,225,551571,0.0-117.0-0.0,1138.1,,,,53,,,,338,probe-203,,,,,1,[object Object],207,5,1,
,html-keyboard-response,226,552581,0.0-117.0-1.0,null,<p></p>,,null,,,,,,,,,,,,,,,,
,do_trial,227,555850,0.0-118.0-0.0,743,,,,49,"0,0,0",6,blank,339,null,0.401989202,0.340262495,0.085698107,0,,,,,,
,html-keyboard-response,228,556871,0.0-118.0-1.0,null,<p></p>,,null,,,,,,,,,,,,,,,,
,do_recog,229,559581,0.0-119.0-0.0,1199.1,,,,53,,,,340,probe-76,,,,,1,[object Object],125,3,1,
,html-keyboard-response,230,560591,0.0-119.0-1.0,null,<p></p>,,null,,,,,,,,,,,,,,,,
,do_trial,231,563701,0.0-120.0-0.0,571.9,,,,49,"1,1,0",6,blank,341,null,0.555864004,0.297068757,0.203226784,1,,,,,,
,html-keyboard-response,232,564716,0.0-120.0-1.0,null,<p></p>,,null,,,,,,,,,,,,,,,,
,do_trial,233,568091,0.0-121.0-0.0,838.6,,,,49,"0,0,0",6,blank,342,null,0.628759785,0.342211245,0.085741774,0,,,,,,
,html-keyboard-response,234,569111,0.0-121.0-1.0,null,<p></p>,,null,,,,,,,,,,,,,,,,
,do_trial,235,572171,0.0-122.0-0.0,533.5,,,,49,"1,0,0",6,blank,343,null,0.752541514,0.372196304,0.073189867,1,,,,,,
,html-keyboard-response,236,573191,0.0-122.0-1.0,null,<p></p>,,null,,,,,,,,,,,,,,,,
,do_recog,237,576131,0.0-123.0-0.0,1431.3,,,,53,,,,344,probe-68,,,,,1,[object Object],45,1,1,
,html-keyboard-response,238,577151,0.0-123.0-1.0,null,<p></p>,,null,,,,,,,,,,,,,,,,
,do_trial,239,580331,0.0-124.0-0.0,657.1,,,,49,"1,0,0",6,blank,345,null,0.702407866,0.404407975,0.167455672,1,,,,,,
,html-keyboard-response,240,581350,0.0-124.0-1.0,null,<p></p>,,null,,,,,,,,,,,,,,,,
,do_recog,241,584361,0.0-125.0-0.0,1500,,,,53,,,,346,probe-53,,,,,1,[object Object],124,3,1,
,html-keyboard-response,242,585371,0.0-125.0-1.0,null,<p></p>,,null,,,,,,,,,,,,,,,,
,do_trial,243,588691,0.0-126.0-0.0,793.2,,,,49,"0,0,0",6,blank,347,null,0.685567482,0.191154931,0.050036689,0,,,,,,
,html-keyboard-response,244,589710,0.0-126.0-1.0,null,<p></p>,,null,,,,,,,,,,,,,,,,
,do_trial,245,592661,0.0-127.0-0.0,425.4,,,,50,"0,0,0",6,blank,348,null,0.613784337,0.147344024,0.065953754,0,,,,,,
,html-keyboard-response,246,593681,0.0-127.0-1.0,null,<p></p>,,null,,,,,,,,,,,,,,,,
,do_trial,247,596601,0.0-128.0-0.0,391.4,,,,51,"1,0,0",6,blank,349,null,0.557678141,0.060954439,0.134773659,0,,,,,,
,html-keyboard-response,248,597621,0.0-128.0-1.0,null,<p></p>,,null,,,,,,,,,,,,,,,,
,do_trial,249,601051,0.0-129.0-0.0,901.3,,,,49,"1,1,0",6,blank,350,null,0.581486271,0.076445092,0.102468911,1,,,,,,
,html-keyboard-response,250,602066,0.0-129.0-1.0,null,<p></p>,,null,,,,,,,,,,,,,,,,
,do_trial,251,605021,0.0-130.0-0.0,428.4,,,,49,"1,0,0",6,blank,351,null,0.425843668,0.255653028,0.299835704,1,,,,,,
,html-keyboard-response,252,606041,0.0-130.0-1.0,null,<p></p>,,null,,,,,,,,,,,,,,,,
,do_trial,253,609101,0.0-131.0-0.0,533.5,,,,49,"0,1,0",6,blank,352,null,0.36992549,0.311496969,0.337173945,0,,,,,,
,html-keyboard-response,254,610111,0.0-131.0-1.0,null,<p></p>,,null,,,,,,,,,,,,,,,,
,do_recog,255,612831,0.0-132.0-0.0,1207.6,,,,53,,,,353,probe-28,,,,,1,[object Object],168,4,1,
,html-keyboard-response,256,613851,0.0-132.0-1.0,null,<p></p>,,null,,,,,,,,,,,,,,,,
,do_trial,257,616711,0.0-133.0-0.0,335.3,,,,50,"1,0,0",6,blank,354,null,0.289249528,0.247664133,0.49885589,0,,,,,,
,html-keyboard-response,258,617730,0.0-133.0-1.0,null,<p></p>,,null,,,,,,,,,,,,,,,,
,do_trial,259,620901,0.0-134.0-0.0,639,,,,50,"0,0,0",6,blank,355,null,0.197633974,0.255474774,0.492556146,0,,,,,,
,html-keyboard-response,260,621911,0.0-134.0-1.0,null,<p></p>,,null,,,,,,,,,,,,,,,,
,do_trial,261,624821,0.0-135.0-0.0,378.9,,,,49,"0,1,1",6,blank,356,null,0.099008557,0.361398007,0.594514361,0,,,,,,
,html-keyboard-response,262,625841,0.0-135.0-1.0,null,<p></p>,,null,,,,,,,,,,,,,,,,
,do_trial,263,628891,0.0-136.0-0.0,521.3,,,,49,"0,1,0",6,blank,357,null,0.159728954,0.338734893,0.557174814,0,,,,,,
,html-keyboard-response,264,629901,0.0-136.0-1.0,null,<p></p>,,null,,,,,,,,,,,,,,,,
,do_trial,265,632951,0.0-137.0-0.0,529.5,,,,49,"0,0,1",6,blank,358,null,0.192890268,0.199130567,0.663478172,0,,,,,,
,html-keyboard-response,266,633961,0.0-137.0-1.0,null,<p></p>,,null,,,,,,,,,,,,,,,,
,do_recog,267,636691,0.0-138.0-0.0,1224.2,,,,53,,,,359,probe-64,,,,,1,[object Object],44,1,1,
,html-keyboard-response,268,637711,0.0-138.0-1.0,null,<p></p>,,null,,,,,,,,,,,,,,,,
,do_trial,269,640871,0.0-139.0-0.0,635.4,,,,50,"1,0,1",6,blank,360,null,0.115677211,0.175048097,0.621804115,0,,,,,,
,html-keyboard-response,270,641881,0.0-139.0-1.0,null,<p></p>,,null,,,,,,,,,,,,,,,,
,do_trial,271,644911,0.0-140.0-0.0,501.4,,,,51,"1,0,1",6,blank,361,null,0.211102366,0.280881581,0.530833698,1,,,,,,
,html-keyboard-response,272,645931,0.0-140.0-1.0,null,<p></p>,,null,,,,,,,,,,,,,,,,
,do_trial,273,648931,0.0-141.0-0.0,468.8,,,,51,"0,0,1",6,blank,362,null,0.075720116,0.340258059,0.510712623,1,,,,,,
,html-keyboard-response,274,649941,0.0-141.0-1.0,null,<p></p>,,null,,,,,,,,,,,,,,,,
,do_trial,275,652891,0.0-142.0-0.0,415,,,,51,"1,0,1",6,blank,363,null,0.08395277,0.324323571,0.533658153,1,,,,,,
,html-keyboard-response,276,653901,0.0-142.0-1.0,null,<p></p>,,null,,,,,,,,,,,,,,,,
,do_trial,277,656921,0.0-143.0-0.0,493.3,,,,51,"0,1,1",6,blank,364,null,0.070029629,0.250232608,0.464688858,1,,,,,,
,html-keyboard-response,278,657931,0.0-143.0-1.0,null,<p></p>,,null,,,,,,,,,,,,,,,,
,do_recog,279,660671,0.0-144.0-0.0,1227.5,,,,53,,,,365,probe-187,,,,,1,[object Object],80,2,1,
,html-keyboard-response,280,661691,0.0-144.0-1.0,null,<p></p>,,null,,,,,,,,,,,,,,,,
,do_trial,281,665401,0.0-145.0-0.0,1183.4,,,,51,"0,1,1",6,blank,366,null,0.057563542,0.218543032,0.507107834,1,,,,,,
,html-keyboard-response,282,666418,0.0-145.0-1.0,null,<p></p>,,null,,,,,,,,,,,,,,,,
,do_trial,283,669461,0.0-146.0-0.0,514.7,,,,51,"0,1,0",6,blank,367,null,0.091807711,0.13655306,0.481574394,0,,,,,,
,html-keyboard-response,284,670481,0.0-146.0-1.0,null,<p></p>,,null,,,,,,,,,,,,,,,,
,do_recog,285,673151,0.0-147.0-0.0,1167.4,,,,53,,,,368,probe-160,,,,,1,[object Object],200,5,1,
,html-keyboard-response,286,674171,0.0-147.0-1.0,null,<p></p>,,null,,,,,,,,,,,,,,,,
,do_trial,287,678071,0.0-148.0-0.0,1374.9,,,,50,"0,0,0",6,blank,369,null,0.114265195,0.15383107,0.638998959,0,,,,,,
,html-keyboard-response,288,679080,0.0-148.0-1.0,null,<p></p>,,null,,,,,,,,,,,,,,,,
,do_trial,289,682641,0.0-149.0-0.0,1035.3,,,,49,"0,0,1",6,blank,370,null,0.133703186,0.305640948,0.638431021,0,,,,,,
,html-keyboard-response,290,683660,0.0-149.0-1.0,null,<p></p>,,null,,,,,,,,,,,,,,,,
,do_trial,291,687150,0.0-150.0-0.0,964.1,,,,49,"0,0,0",6,blank,371,null,0.072282522,0.281800783,0.597313031,0,,,,,,
,html-keyboard-response,292,688160,0.0-150.0-1.0,null,<p></p>,,null,,,,,,,,,,,,,,,,
,do_trial,293,691201,0.0-151.0-0.0,519.7,,,,50,"0,0,1",6,blank,372,null,0.093166579,0.262940076,0.592072382,0,,,,,,
,html-keyboard-response,294,692210,0.0-151.0-1.0,null,<p></p>,,null,,,,,,,,,,,,,,,,
,do_recog,295,695721,0.0-152.0-0.0,2001.8,,,,53,,,,373,probe-01,,,,,1,[object Object],46,1,1,
,html-keyboard-response,296,696730,0.0-152.0-1.0,null,<p></p>,,null,,,,,,,,,,,,,,,,
,do_trial,297,699711,0.0-153.0-0.0,442.8,,,,51,"0,0,1",6,blank,374,null,0.062766726,0.232610151,0.591786262,1,,,,,,
,html-keyboard-response,298,700730,0.0-153.0-1.0,null,<p></p>,,null,,,,,,,,,,,,,,,,
,do_trial,299,703790,0.0-154.0-0.0,537.5,,,,51,"0,0,0",6,blank,375,null,0.139201426,0.280618058,0.706325052,0,,,,,,
,html-keyboard-response,300,704801,0.0-154.0-1.0,null,<p></p>,,null,,,,,,,,,,,,,,,,
,do_trial,301,707731,0.0-155.0-0.0,401.4,,,,51,"0,1,1",6,blank,376,null,0.0639,0.283956485,0.645818826,1,,,,,,
,html-keyboard-response,302,708740,0.0-155.0-1.0,null,<p></p>,,null,,,,,,,,,,,,,,,,
,do_trial,303,711701,0.0-156.0-0.0,425.1,,,,51,"0,0,1",6,blank,377,null,0.148899926,0.237337122,0.525564212,1,,,,,,
,html-keyboard-response,304,712706,0.0-156.0-1.0,null,<p></p>,,null,,,,,,,,,,,,,,,,
,do_recog,305,715791,0.0-157.0-0.0,1563.5,,,,53,,,,378,probe-51,,,,,1,[object Object],48,1,1,
,html-keyboard-response,306,716810,0.0-157.0-1.0,null,<p></p>,,null,,,,,,,,,,,,,,,,
,do_trial,307,720590,0.0-158.0-0.0,1249,,,,51,"0,0,0",6,blank,379,null,0.181853632,0.215960935,0.419660882,0,,,,,,
,html-keyboard-response,308,721600,0.0-158.0-1.0,null,<p></p>,,null,,,,,,,,,,,,,,,,
,do_recog,309,724390,0.0-159.0-0.0,1269.5,,,,53,,,,380,probe-138,,,,,1,[object Object],208,5,1,
,html-keyboard-response,310,725410,0.0-159.0-1.0,null,<p></p>,,null,,,,,,,,,,,,,,,,
,do_trial,311,728690,0.0-160.0-0.0,758.7,,,,51,"0,0,0",6,blank,381,null,0.229250971,0.289441872,0.44118235,0,,,,,,
,html-keyboard-response,312,729711,0.0-160.0-1.0,null,<p></p>,,null,,,,,,,,,,,,,,,,
,do_recog,313,732491,0.0-161.0-0.0,1271.7,,,,53,,,,382,probe-116,,,,,1,[object Object],129,3,1,
,html-keyboard-response,314,733501,0.0-161.0-1.0,null,<p></p>,,null,,,,,,,,,,,,,,,,
,do_trial,315,737091,0.0-162.0-0.0,1067.6,,,,51,"1,0,0",6,blank,383,null,0.093737677,0.277698112,0.516945378,0,,,,,,
,html-keyboard-response,316,738111,0.0-162.0-1.0,null,<p></p>,,null,,,,,,,,,,,,,,,,
,do_trial,317,741251,0.0-163.0-0.0,613.1,,,,51,"0,0,1",6,blank,384,null,0.161511096,0.402915323,0.648049252,1,,,,,,
,html-keyboard-response,318,742260,0.0-163.0-1.0,null,<p></p>,,null,,,,,,,,,,,,,,,,
,do_trial,319,745861,0.0-164.0-0.0,1080.4,,,,51,"0,1,0",6,blank,385,null,0.356124317,0.325127837,0.603082629,0,,,,,,
,html-keyboard-response,320,746881,0.0-164.0-1.0,null,<p></p>,,null,,,,,,,,,,,,,,,,
,do_recog,321,749731,0.0-165.0-0.0,1345.8,,,,53,,,,386,probe-74,,,,,1,[object Object],204,5,1,
,html-keyboard-response,322,750751,0.0-165.0-1.0,null,<p></p>,,null,,,,,,,,,,,,,,,,
,do_trial,323,754421,0.0-166.0-0.0,1133.8,,,,51,"0,1,1",6,blank,387,null,0.179401771,0.501590012,0.680489105,1,,,,,,
,html-keyboard-response,324,755431,0.0-166.0-1.0,null,<p></p>,,null,,,,,,,,,,,,,,,,
,do_trial,325,758321,0.0-167.0-0.0,366.3,,,,51,"1,1,1",6,blank,388,null,0.189973355,0.425911817,0.687990831,1,,,,,,
,html-keyboard-response,326,759341,0.0-167.0-1.0,null,<p></p>,,null,,,,,,,,,,,,,,,,
,do_trial,327,762291,0.0-168.0-0.0,414.9,,,,51,"0,0,1",6,blank,389,null,0.1415834,0.356080605,0.662736014,1,,,,,,
,html-keyboard-response,328,763310,0.0-168.0-1.0,null,<p></p>,,null,,,,,,,,,,,,,,,,
,do_trial,329,766111,0.0-169.0-0.0,271.6,,,,51,"0,0,0",6,blank,390,null,0.151270163,0.227440467,0.757906567,0,,,,,,
,html-keyboard-response,330,767131,0.0-169.0-1.0,null,<p></p>,,null,,,,,,,,,,,,,,,,
,do_trial,331,770441,0.0-170.0-0.0,780.7,,,,51,"0,0,1",6,blank,391,null,0.134882993,0.400095069,0.744685659,1,,,,,,
,html-keyboard-response,332,771452,0.0-170.0-1.0,null,<p></p>,,null,,,,,,,,,,,,,,,,
,do_recog,333,774771,0.0-171.0-0.0,1798.8,,,,53,,,,392,probe-110,,,,,1,[object Object],81,2,1,
,html-keyboard-response,334,775791,0.0-171.0-1.0,null,<p></p>,,null,,,,,,,,,,,,,,,,
,do_trial,335,779171,0.0-172.0-0.0,846.7,,,,51,"0,0,1",6,blank,393,null,0.125147108,0.267309456,0.736823345,1,,,,,,
,html-keyboard-response,336,780181,0.0-172.0-1.0,null,<p></p>,,null,,,,,,,,,,,,,,,,
,do_trial,337,783640,0.0-173.0-0.0,923.3,,,,51,"0,0,1",6,blank,394,null,0.124640636,0.297642478,0.645196835,1,,,,,,
,html-keyboard-response,338,784661,0.0-173.0-1.0,null,<p></p>,,null,,,,,,,,,,,,,,,,
,do_recog,339,787781,0.0-174.0-0.0,1616.8,,,,53,,,,395,probe-43,,,,,1,[object Object],203,5,1,
,html-keyboard-response,340,788801,0.0-174.0-1.0,null,<p></p>,,null,,,,,,,,,,,,,,,,
,do_trial,341,791801,0.0-175.0-0.0,467.1,,,,51,"0,1,1",6,blank,396,null,0.178790973,0.271956083,0.619171959,1,,,,,,
,html-keyboard-response,342,792821,0.0-175.0-1.0,null,<p></p>,,null,,,,,,,,,,,,,,,,
,do_trial,343,795671,0.0-176.0-0.0,328.9,,,,51,"0,0,1",6,blank,397,null,0.080651817,0.294804291,0.711845042,1,,,,,,
,html-keyboard-response,344,796681,0.0-176.0-1.0,null,<p></p>,,null,,,,,,,,,,,,,,,,
,do_trial,345,799521,0.0-177.0-0.0,309.9,,,,51,"0,0,0",6,blank,398,null,0.05863738,0.253359146,0.76218625,0,,,,,,
,html-keyboard-response,346,800541,0.0-177.0-1.0,null,<p></p>,,null,,,,,,,,,,,,,,,,
,do_trial,347,803461,0.0-178.0-0.0,380.6,,,,51,"1,1,0",6,blank,399,null,0.096581449,0.341377489,0.688185677,0,,,,,,
,html-keyboard-response,348,804480,0.0-178.0-1.0,null,<p></p>,,null,,,,,,,,,,,,,,,,
,do_trial,349,807400,0.0-179.0-0.0,380.9,,,,51,"0,0,1",6,blank,400,null,0.060909491,0.276224838,0.850643713,1,,,,,,
,html-keyboard-response,350,808421,0.0-179.0-1.0,null,<p></p>,,null,,,,,,,,,,,,,,,,
,do_trial,351,811251,0.0-180.0-0.0,308.7,,,,51,"0,0,0",6,blank,401,null,0.130516276,0.191529327,0.871320868,0,,,,,,
,html-keyboard-response,352,812271,0.0-180.0-1.0,null,<p></p>,,null,,,,,,,,,,,,,,,,
,do_recog,353,814951,0.0-181.0-0.0,1163.7,,,,53,,,,402,probe-119,,,,,1,[object Object],121,3,1,
,html-keyboard-response,354,815971,0.0-181.0-1.0,null,<p></p>,,null,,,,,,,,,,,,,,,,
,do_trial,355,819101,0.0-182.0-0.0,586.9,,,,51,"0,1,0",6,blank,403,null,0.154901826,0.436871894,0.620757921,0,,,,,,
,html-keyboard-response,356,820111,0.0-182.0-1.0,null,<p></p>,,null,,,,,,,,,,,,,,,,
,do_recog,357,822991,0.0-183.0-0.0,1369,,,,53,,,,404,probe-226,,,,,1,[object Object],165,4,1,
,html-keyboard-response,358,824001,0.0-183.0-1.0,null,<p></p>,,null,,,,,,,,,,,,,,,,
,do_trial,359,826961,0.0-184.0-0.0,422.6,,,,51,"0,1,1",6,blank,405,null,0.054754924,0.397861171,0.528963302,1,,,,,,
,html-keyboard-response,360,827971,0.0-184.0-1.0,null,<p></p>,,null,,,,,,,,,,,,,,,,
,do_trial,361,830921,0.0-185.0-0.0,415.7,,,,51,"0,0,0",6,blank,406,null,0.06650172,0.383459695,0.319886202,0,,,,,,
,html-keyboard-response,362,831941,0.0-185.0-1.0,null,<p></p>,,null,,,,,,,,,,,,,,,,
,do_trial,363,834840,0.0-186.0-0.0,371.5,,,,51,"0,0,0",6,blank,407,null,0.105683119,0.582906352,0.386654206,0,,,,,,
,html-keyboard-response,364,835861,0.0-186.0-1.0,null,<p></p>,,null,,,,,,,,,,,,,,,,
,do_trial,365,838921,0.0-187.0-0.0,536.8,,,,51,"0,0,0",6,blank,408,null,0.055158667,0.589559446,0.209363708,0,,,,,,
,html-keyboard-response,366,839941,0.0-187.0-1.0,null,<p></p>,,null,,,,,,,,,,,,,,,,
,do_recog,367,842771,0.0-188.0-0.0,1314.9,,,,53,,,,409,probe-38,,,,,1,[object Object],85,2,1,
,html-keyboard-response,368,843781,0.0-188.0-1.0,null,<p></p>,,null,,,,,,,,,,,,,,,,
,do_trial,369,847100,0.0-189.0-0.0,792.8,,,,50,"0,1,0",6,blank,410,null,0.120976633,0.56666123,0.112950154,1,,,,,,
,html-keyboard-response,370,848121,0.0-189.0-1.0,null,<p></p>,,null,,,,,,,,,,,,,,,,
,do_recog,371,851261,0.0-190.0-0.0,1620.6,,,,53,,,,411,probe-60,,,,,1,[object Object],41,1,1,
,html-keyboard-response,372,852270,0.0-190.0-1.0,null,<p></p>,,null,,,,,,,,,,,,,,,,
,do_trial,373,855261,0.0-191.0-0.0,457.4,,,,50,"0,1,0",6,blank,412,null,0.070544901,0.491544862,0.145432808,1,,,,,,
,html-keyboard-response,374,856270,0.0-191.0-1.0,null,<p></p>,,null,,,,,,,,,,,,,,,,
,do_recog,375,859651,0.0-192.0-0.0,1861.3,,,,53,,,,413,probe-58,,,,,1,[object Object],40,1,1,
,html-keyboard-response,376,860661,0.0-192.0-1.0,null,<p></p>,,null,,,,,,,,,,,,,,,,
,do_trial,377,863691,0.0-193.0-0.0,500.3,,,,50,"0,0,0",6,blank,414,null,0.13209974,0.547829791,0.222019536,0,,,,,,
,html-keyboard-response,378,864711,0.0-193.0-1.0,null,<p></p>,,null,,,,,,,,,,,,,,,,
,do_recog,379,867641,0.0-194.0-0.0,1425,,,,53,,,,415,probe-216,,,,,1,[object Object],169,4,1,
,html-keyboard-response,380,868651,0.0-194.0-1.0,null,<p></p>,,null,,,,,,,,,,,,,,,,
,do_trial,381,871881,0.0-195.0-0.0,693.7,,,,50,"0,0,0",6,blank,416,null,0.067215865,0.589806622,0.269445508,0,,,,,,
,html-keyboard-response,382,872901,0.0-195.0-1.0,null,<p></p>,,null,,,,,,,,,,,,,,,,
,do_trial,383,876581,0.0-196.0-0.0,1161.2,,,,50,"0,1,0",6,blank,417,null,0.086552968,0.522042163,0.383175408,1,,,,,,
,html-keyboard-response,384,877601,0.0-196.0-1.0,null,<p></p>,,null,,,,,,,,,,,,,,,,
,do_trial,385,880741,0.0-197.0-0.0,603.2,,,,50,"1,1,0",6,blank,418,null,0.205095685,0.509067267,0.268383323,1,,,,,,
,html-keyboard-response,386,881760,0.0-197.0-1.0,null,<p></p>,,null,,,,,,,,,,,,,,,,
,do_trial,387,884911,0.0-198.0-0.0,611.6,,,,50,"1,1,0",6,blank,419,null,0.114964541,0.519232633,0.346715404,1,,,,,,
,html-keyboard-response,388,885931,0.0-198.0-1.0,null,<p></p>,,null,,,,,,,,,,,,,,,,
,do_trial,389,889001,0.0-199.0-0.0,531.6,,,,50,"0,0,0",6,blank,420,null,0.121122957,0.441778958,0.177793183,0,,,,,,
,html-keyboard-response,390,890021,0.0-199.0-1.0,null,<p></p>,,null,,,,,,,,,,,,,,,,
,do_recog,391,893471,0.0-200.0-0.0,1945.1,,,,53,,,,421,probe-125,,,,,1,[object Object],163,4,1,
,html-keyboard-response,392,894491,0.0-200.0-1.0,null,<p></p>,,null,,,,,,,,,,,,,,,,
,do_trial,393,898031,0.0-201.0-0.0,1017,,,,50,"0,1,0",6,blank,422,null,0.11807737,0.445462182,0.264908289,1,,,,,,
,html-keyboard-response,394,899041,0.0-201.0-1.0,null,<p></p>,,null,,,,,,,,,,,,,,,,
,do_trial,395,902880,0.0-202.0-0.0,1301.1,,,,50,"0,1,0",6,blank,423,null,0.063801484,0.497033443,0.145031053,1,,,,,,
,html-keyboard-response,396,903891,0.0-202.0-1.0,null,<p></p>,,null,,,,,,,,,,,,,,,,
,do_trial,397,906921,0.0-203.0-0.0,497.4,,,,50,"0,1,1",6,blank,424,null,0.157168881,0.560347045,0.230337385,1,,,,,,
,html-keyboard-response,398,907931,0.0-203.0-1.0,null,<p></p>,,null,,,,,,,,,,,,,,,,
,do_trial,399,911251,0.0-204.0-0.0,787.4,,,,50,"1,1,1",6,blank,425,null,0.19981939,0.649760851,0.331441602,1,,,,,,
,html-keyboard-response,400,912271,0.0-204.0-1.0,null,<p></p>,,null,,,,,,,,,,,,,,,,
,do_trial,401,915140,0.0-205.0-0.0,341,,,,50,"0,0,0",6,blank,426,null,0.150241448,0.528077341,0.339262486,0,,,,,,
,html-keyboard-response,402,916161,0.0-205.0-1.0,null,<p></p>,,null,,,,,,,,,,,,,,,,
,do_recog,403,919301,0.0-206.0-0.0,1633.3,,,,53,,,,427,probe-118,,,,,1,[object Object],86,2,1,
,html-keyboard-response,404,920321,0.0-206.0-1.0,null,<p></p>,,null,,,,,,,,,,,,,,,,
,do_trial,405,923431,0.0-207.0-0.0,576.7,,,,50,"0,1,1",6,blank,428,null,0.122931602,0.496411569,0.405278779,1,,,,,,
,html-keyboard-response,406,924451,0.0-207.0-1.0,null,<p></p>,,null,,,,,,,,,,,,,,,,
,do_trial,407,927601,0.0-208.0-0.0,629.5,,,,50,"0,0,0",6,blank,429,null,0.078714476,0.63703738,0.481357714,0,,,,,,
,html-keyboard-response,408,928620,0.0-208.0-1.0,null,<p></p>,,null,,,,,,,,,,,,,,,,
,do_trial,409,931691,0.0-209.0-0.0,549.2,,,,50,"0,0,0",6,blank,430,null,0.136541037,0.650667328,0.385521162,0,,,,,,
,html-keyboard-response,410,932700,0.0-209.0-1.0,null,<p></p>,,null,,,,,,,,,,,,,,,,
,do_trial,411,935701,0.0-210.0-0.0,469.9,,,,50,"0,1,1",6,blank,431,null,0.091505637,0.612640834,0.446193251,1,,,,,,
,html-keyboard-response,412,936721,0.0-210.0-1.0,null,<p></p>,,null,,,,,,,,,,,,,,,,
,do_recog,413,939831,0.0-211.0-0.0,1593.4,,,,53,,,,432,probe-148,,,,,1,[object Object],127,3,1,
,html-keyboard-response,414,940850,0.0-211.0-1.0,null,<p></p>,,null,,,,,,,,,,,,,,,,
,do_trial,415,945140,0.0-212.0-0.0,1765.2,,,,49,"0,1,1",6,blank,433,null,0.066336243,0.690835683,0.459356321,0,,,,,,
,html-keyboard-response,416,946161,0.0-212.0-1.0,null,<p></p>,,null,,,,,,,,,,,,,,,,
,do_trial,417,949190,0.0-213.0-0.0,491.6,,,,49,"0,1,0",6,blank,434,null,0.058137392,0.541271253,0.364486221,0,,,,,,
,html-keyboard-response,418,950200,0.0-213.0-1.0,null,<p></p>,,null,,,,,,,,,,,,,,,,
,do_recog,419,953371,0.0-214.0-0.0,1651.7,,,,53,,,,435,probe-249,,,,,0,[object Object],null,null,0,
,html-keyboard-response,420,954381,0.0-214.0-1.0,null,<p></p>,,null,,,,,,,,,,,,,,,,
,do_trial,421,957361,0.0-215.0-0.0,456.8,,,,49,"0,1,1",6,blank,436,null,0.122953296,0.570936426,0.274495709,0,,,,,,
,html-keyboard-response,422,958381,0.0-215.0-1.0,null,<p></p>,,null,,,,,,,,,,,,,,,,
,do_trial,423,961301,0.0-216.0-0.0,385.9,,,,49,"0,0,0",6,blank,437,null,0.114253299,0.601640984,0.249912208,0,,,,,,
,html-keyboard-response,424,962316,0.0-216.0-1.0,null,<p></p>,,null,,,,,,,,,,,,,,,,
,do_recog,425,965251,0.0-217.0-0.0,1426.5,,,,53,,,,438,probe-236,,,,,0,[object Object],null,null,0,
,html-keyboard-response,426,966261,0.0-217.0-1.0,null,<p></p>,,null,,,,,,,,,,,,,,,,
,do_trial,427,969911,0.0-218.0-0.0,1111.3,,,,49,"0,1,0",6,blank,439,null,0.098187772,0.640182624,0.109334482,0,,,,,,
,html-keyboard-response,428,970920,0.0-218.0-1.0,null,<p></p>,,null,,,,,,,,,,,,,,,,
,do_trial,429,974061,0.0-219.0-0.0,619.6,,,,49,"0,1,0",6,blank,440,null,0.104777561,0.649036942,0.344448366,0,,,,,,
,html-keyboard-response,430,975071,0.0-219.0-1.0,null,<p></p>,,null,,,,,,,,,,,,,,,,
,do_trial,431,977991,0.0-220.0-0.0,401.4,,,,50,"0,1,1",6,blank,441,null,0.129616919,0.58479545,0.365890888,1,,,,,,
,html-keyboard-response,432,979011,0.0-220.0-1.0,null,<p></p>,,null,,,,,,,,,,,,,,,,
,do_trial,433,982021,0.0-221.0-0.0,471.3,,,,50,"0,0,0",6,blank,442,null,0.083467892,0.516845432,0.351040001,0,,,,,,
,html-keyboard-response,434,983030,0.0-221.0-1.0,null,<p></p>,,null,,,,,,,,,,,,,,,,
,do_trial,435,985961,0.0-222.0-0.0,393.8,,,,50,"0,1,0",6,blank,443,null,0.108677767,0.621756675,0.323104747,1,,,,,,
,html-keyboard-response,436,986980,0.0-222.0-1.0,null,<p></p>,,null,,,,,,,,,,,,,,,,
,do_trial,437,989820,0.0-223.0-0.0,317,,,,50,"0,1,0",6,blank,444,null,0.226285725,0.565978592,0.317491173,1,,,,,,
,html-keyboard-response,438,990841,0.0-223.0-1.0,null,<p></p>,,null,,,,,,,,,,,,,,,,
,do_recog,439,994271,0.0-224.0-0.0,1926,,,,54,,,,445,probe-235,,,,,0,[object Object],null,null,0,
,html-keyboard-response,440,995281,0.0-224.0-1.0,null,<p></p>,,null,,,,,,,,,,,,,,,,
,do_trial,441,999021,0.0-225.0-0.0,1207.7,,,,51,"0,1,0",6,blank,446,null,0.121154965,0.676053731,0.281790613,0,,,,,,
,html-keyboard-response,442,1000031,0.0-225.0-1.0,null,<p></p>,,null,,,,,,,,,,,,,,,,
,do_trial,443,1002891,0.0-226.0-0.0,332.5,,,,50,"0,0,0",6,blank,447,null,0.061176517,0.726839076,0.232027065,0,,,,,,
,html-keyboard-response,444,1003911,0.0-226.0-1.0,null,<p></p>,,null,,,,,,,,,,,,,,,,
,do_trial,445,1006891,0.0-227.0-0.0,443.2,,,,50,"0,0,1",6,blank,448,null,0.128899729,0.83212136,0.31051892,0,,,,,,
,html-keyboard-response,446,1007901,0.0-227.0-1.0,null,<p></p>,,null,,,,,,,,,,,,,,,,
,do_trial,447,1010870,0.0-228.0-0.0,437.4,,,,50,"0,1,0",6,blank,449,null,0.197823533,0.87651184,0.284577112,1,,,,,,
,html-keyboard-response,448,1011891,0.0-228.0-1.0,null,<p></p>,,null,,,,,,,,,,,,,,,,
,do_trial,449,1014871,0.0-229.0-0.0,449.6,,,,50,"0,0,0",6,blank,450,null,0.160411886,0.874957623,0.215912492,0,,,,,,
,html-keyboard-response,450,1015880,0.0-229.0-1.0,null,<p></p>,,null,,,,,,,,,,,,,,,,
,do_recog,451,1019631,0.0-230.0-0.0,2235.8,,,,56,,,,451,probe-243,,,,,0,[object Object],null,null,1,
,html-keyboard-response,452,1020651,0.0-230.0-1.0,null,<p></p>,,null,,,,,,,,,,,,,,,,
,do_trial,453,1024011,0.0-231.0-0.0,822.4,,,,50,"1,1,1",6,blank,452,null,0.118213197,0.848821747,0.219632959,1,,,,,,
,html-keyboard-response,454,1025021,0.0-231.0-1.0,null,<p></p>,,null,,,,,,,,,,,,,,,,
,do_trial,455,1029011,0.0-232.0-0.0,1461.4,,,,50,"0,1,0",6,blank,453,null,0.084857141,0.755327069,0.080006882,1,,,,,,
,html-keyboard-response,456,1030020,0.0-232.0-1.0,null,<p></p>,,null,,,,,,,,,,,,,,,,
,do_trial,457,1033051,0.0-233.0-0.0,505.4,,,,50,"0,0,0",6,blank,454,null,0.07671451,0.702860003,0.120069558,0,,,,,,
,html-keyboard-response,458,1034071,0.0-233.0-1.0,null,<p></p>,,null,,,,,,,,,,,,,,,,
,do_trial,459,1036991,0.0-234.0-0.0,393.4,,,,50,"0,1,1",6,blank,455,null,0.080770707,0.48672301,0.452154537,1,,,,,,
,html-keyboard-response,460,1038011,0.0-234.0-1.0,null,<p></p>,,null,,,,,,,,,,,,,,,,
,do_recog,461,1041181,0.0-235.0-0.0,1652.8,,,,56,,,,456,probe-232,,,,,0,[object Object],null,null,1,
,html-keyboard-response,462,1042201,0.0-235.0-1.0,null,<p></p>,,null,,,,,,,,,,,,,,,,
,do_trial,463,1045391,0.0-236.0-0.0,651.6,,,,50,"0,0,0",6,blank,457,null,0.167404191,0.337327453,0.409502709,0,,,,,,
,html-keyboard-response,464,1046411,0.0-236.0-1.0,null,<p></p>,,null,,,,,,,,,,,,,,,,
,do_trial,465,1049471,0.0-237.0-0.0,527.7,,,,51,"1,0,0",6,blank,458,null,0.183561251,0.325890221,0.332630467,0,,,,,,
,html-keyboard-response,466,1050480,0.0-237.0-1.0,null,<p></p>,,null,,,,,,,,,,,,,,,,
,do_trial,467,1055100,0.0-238.0-0.0,2092.9,,,,51,"0,1,0",6,blank,459,null,0.26369718,0.213271067,0.393862147,0,,,,,,
,html-keyboard-response,468,1056121,0.0-238.0-1.0,null,<p></p>,,null,,,,,,,,,,,,,,,,
,do_trial,469,1059351,0.0-239.0-0.0,707.4,,,,50,"1,0,0",6,blank,460,null,0.226421765,0.111012965,0.477748106,0,,,,,,
,html-keyboard-response,470,1060361,0.0-239.0-1.0,null,<p></p>,,null,,,,,,,,,,,,,,,,
,do_recog,471,1064701,0.0-240.0-0.0,2830.2,,,,56,,,,461,probe-244,,,,,0,[object Object],null,null,1,
,html-keyboard-response,472,1065721,0.0-240.0-1.0,null,<p></p>,,null,,,,,,,,,,,,,,,,
,do_trial,473,1069581,0.0-241.0-0.0,1330.6,,,,50,"0,0,1",6,blank,462,null,0.324420005,0.056611503,0.550075773,0,,,,,,
,html-keyboard-response,474,1070601,0.0-241.0-1.0,null,<p></p>,,null,,,,,,,,,,,,,,,,
,do_trial,475,1073831,0.0-242.0-0.0,693.9,,,,49,"0,0,1",6,blank,463,null,0.295354608,0.136841394,0.567288392,0,,,,,,
,html-keyboard-response,476,1074840,0.0-242.0-1.0,null,<p></p>,,null,,,,,,,,,,,,,,,,
,do_trial,477,1078801,0.0-243.0-0.0,1422.2,,,,49,"0,0,0",6,blank,464,null,0.278495085,0.129008411,0.524523254,0,,,,,,
,html-keyboard-response,478,1079821,0.0-243.0-1.0,null,<p></p>,,null,,,,,,,,,,,,,,,,
,do_recog,479,1083780,0.0-244.0-0.0,2455.4,,,,53,,,,465,probe-238,,,,,0,[object Object],null,null,0,
,html-keyboard-response,480,1084801,0.0-244.0-1.0,null,<p></p>,,null,,,,,,,,,,,,,,,,
,do_trial,481,1087681,0.0-245.0-0.0,343.4,,,,50,"0,0,1",6,blank,466,null,0.356346736,0.168327952,0.627135493,0,,,,,,
,html-keyboard-response,482,1088701,0.0-245.0-1.0,null,<p></p>,,null,,,,,,,,,,,,,,,,
,do_recog,483,1092351,0.0-246.0-0.0,2147.2,,,,55,,,,467,probe-250,,,,,0,[object Object],null,null,1,
,html-keyboard-response,484,1093361,0.0-246.0-1.0,null,<p></p>,,null,,,,,,,,,,,,,,,,
,do_trial,485,1096310,0.0-247.0-0.0,411.9,,,,50,"0,0,1",6,blank,468,null,0.353849403,0.067965122,0.592326705,0,,,,,,
,html-keyboard-response,486,1097321,0.0-247.0-1.0,null,<p></p>,,null,,,,,,,,,,,,,,,,
,do_trial,487,1100421,0.0-248.0-0.0,577.7,,,,51,"1,0,1",6,blank,469,null,0.371932104,0.16300938,0.570198978,1,,,,,,
,html-keyboard-response,488,1101431,0.0-248.0-1.0,null,<p></p>,,null,,,,,,,,,,,,,,,,
,do_recog,489,1105031,0.0-249.0-0.0,2092.7,,,,56,,,,470,probe-237,,,,,0,[object Object],null,null,1,
,html-keyboard-response,490,1106051,0.0-249.0-1.0,null,<p></p>,,null,,,,,,,,,,,,,,,,
,do_trial,491,1109061,0.0-250.0-0.0,480.6,,,,51,"1,0,1",6,blank,471,null,0.538612964,0.059486091,0.518207168,1,,,,,,
,html-keyboard-response,492,1110081,0.0-250.0-1.0,null,<p></p>,,null,,,,,,,,,,,,,,,,
,do_trial,493,1113711,0.0-251.0-0.0,1097.1,,,,51,"0,0,1",6,blank,472,null,0.423576136,0.125874222,0.637694325,1,,,,,,
,html-keyboard-response,494,1114720,0.0-251.0-1.0,null,<p></p>,,null,,,,,,,,,,,,,,,,
,do_trial,495,1117581,0.0-252.0-0.0,337.8,,,,51,"1,0,1",6,blank,473,null,0.394400343,0.151832194,0.616413655,1,,,,,,
,html-keyboard-response,496,1118601,0.0-252.0-1.0,null,<p></p>,,null,,,,,,,,,,,,,,,,
,do_trial,497,1121671,0.0-253.0-0.0,535.4,,,,51,"0,0,1",6,blank,474,null,0.497895488,0.063755544,0.602986971,1,,,,,,
,html-keyboard-response,498,1122691,0.0-253.0-1.0,null,<p></p>,,null,,,,,,,,,,,,,,,,
,do_recog,499,1126471,0.0-254.0-0.0,2277.2,,,,53,,,,475,probe-246,,,,,0,[object Object],null,null,0,
,html-keyboard-response,500,1127491,0.0-254.0-1.0,null,<p></p>,,null,,,,,,,,,,,,,,,,
,do_trial,501,1130461,0.0-255.0-0.0,449.6,,,,51,"1,0,1",6,blank,476,null,0.477474704,0.10744598,0.667441945,1,,,,,,
,html-keyboard-response,502,1131481,0.0-255.0-1.0,null,<p></p>,,null,,,,,,,,,,,,,,,,
,do_trial,503,1134801,0.0-256.0-0.0,791.6,,,,51,"1,0,1",6,blank,477,null,0.531143751,0.160523103,0.558158421,1,,,,,,
,html-keyboard-response,504,1135811,0.0-256.0-1.0,null,<p></p>,,null,,,,,,,,,,,,,,,,
,do_trial,505,1138741,0.0-257.0-0.0,402.2,,,,51,"0,0,0",6,blank,478,null,0.462857652,0.076593806,0.523764144,0,,,,,,
,html-keyboard-response,506,1139761,0.0-257.0-1.0,null,<p></p>,,null,,,,,,,,,,,,,,,,
,do_recog,507,1142971,0.0-258.0-0.0,1703.2,,,,56,,,,479,probe-253,,,,,0,[object Object],null,null,1,
,html-keyboard-response,508,1143991,0.0-258.0-1.0,null,<p></p>,,null,,,,,,,,,,,,,,,,
,do_pick_best_pirate,509,1148441,0.0-259.0-0.0,3428.9,,,,49,,,,,,,,,,,,,,,
,do_pick_best_pirate,510,1151251,0.0-260.0-0.0,1806.5,,,,49,,,,,,,,,,,,,,,
,do_pick_best_pirate,511,1154561,0.0-261.0-0.0,2299.5,,,,50,,,,,,,,,,,,,,,
,do_pick_best_pirate,512,1158911,0.0-262.0-0.0,3327.7,,,,51,,,,,,,,,,,,,,,
,do_pick_best_pirate,513,1163670,0.0-263.0-0.0,3755.7,,,,51,,,,,,,,,,,,,,,
,do_pick_best_pirate,514,1167230,0.0-264.0-0.0,2539.3,,,,49,,,,,,,,,,,,,,,
,html-keyboard-response,515,1175594,0.0-265.0-0.0,8363.1,<p>You are all done with the experiment!</p><p> You made $15 plus $3 in bonus payment!</p><p>Thank you for participating. You will recieve your payment within 3 days.<p><b>[Press the space bar to end the experiment]</b></p></div>,,32,,,,,,,,,,,,,,,,