"success","trial_type","trial_index","time_elapsed","internal_node_id","rt","stimulus","key_press","subject_id","participant_id","age","gender","prompt","response","choice_outcomes","context_n","context_img_id","trial_n","probe_img_id","pR_red","pR_white","pR_black","outcome","is_valid","image_to_show","probed_trial","probed_context","correct","probe","probed_trial_n","probed_context_n"
"true","fullscreen","0","5309","0.0-0.0","","","","","","","","","","","","","","","","","","","","","","","","","",""
"","pavlovia","1","5317","0.0-1.0","","","","","","","","","","","","","","","","","","","","","","","","","",""
"","welc_back","2","18075","0.0-2.0","null","run_exp/static/audio/clip_29_welcome_back.m4a","null","177","208","8","Male","<div class='center'><p>Welcome to day 2!</p><p> Yesterday, you were the head captain of a pirate ship. You and your fellow pirates robbed ships for their gold and traveled to six different islands .</p></div>","","","","","","","","","","","","","","","","","",""
"","html-keyboard-response","3","20807","0.0-3.0","2729.6999999284744","<div class='center'><p>Welcome to day 2!</p><p> Yesterday, you were the head captain of a pirate ship. You and your fellow pirates robbed ships for their gold and traveled to six different islands .</p><p><b>[Press the space bar to continue]</b></p></div>","32","","","","","","","","","","","","","","","","","","","","","","",""
"","day_1_summary_goal","4","40836","0.0-4.0","null","run_exp/static/audio/clip_30_goal_of_game.m4a","null","","","","","<div class='center'><p>Today, like yesterday, you get to pick which pirate you want to rob the next ship.</p><p>If the pirate is successful in robbing a ship, you get gold coins that look like this: </p><p><img src='run_exp/static/images/tutorial/reward.png' height='150'></p><p> If they were not successful in robbing the ship, then you will get no gold coins and you'll see a big red x like this: </p><p><img src='run_exp/static/images/tutorial/reward_no.png' height='150'></p></div>","","","","","","","","","","","","","","","","","",""
"","html-keyboard-response","5","42651","0.0-5.0","1813","<div class='center'><p>Today, like yesterday, you get to pick which pirate you want to rob the next ship.</p><p>If the pirate is successful in robbing a ship, you get gold coins that look like this: </p><p><img src='run_exp/static/images/tutorial/reward.png' height='150'></p><p> If they were not successful in robbing the ship, then you will get no gold coins and you'll see a big red x like this: </p><p><img src='run_exp/static/images/tutorial/reward_no.png' height='150'></p><p><b>[Press the space bar to continue]</b></p></div>","32","","","","","","","","","","","","","","","","","","","","","","",""
"","day_1_summary_pick","6","60504","0.0-6.0","null","run_exp/static/audio/clip_31_how_to_pick_a_pirate.m4a","null","","","","","<div class='center'><p>Also, just like yesterday, you will use the 1,2,3 keys on your keyboard to pick a pirate. Press '1' to choose red beard, '2' to choose white beard, and '3' to choose black beard . You only have 3 seconds to pick a pirate, so please make a choice quickly!</p></div>","","","","","","","","","","","","","","","","","",""
"","html-keyboard-response","7","61861","0.0-7.0","1355.2000000476837","<div class='center'><p>Also, just like yesterday, you will use the 1,2,3 keys on your keyboard to pick a pirate. Press '1' to choose red beard, '2' to choose white beard, and '3' to choose black beard . You only have 3 seconds to pick a pirate, so please make a choice quickly!</p><p><b>[Press the space bar to continue]</b></p></div>","32","","","","","","","","","","","","","","","","","","","","","","",""
"","test_phase_begin","8","95212","0.0-8.0","null","run_exp/static/audio/clip_32_final_place.m4a","null","","","","","<div class='center'><p>You’ve arrived at the final island of your journey! Unfortunately, it’s very foggy out, so you won’t be able to see it in the distance like the other islands you've visited.</p><p>You’ll still be deciding which pirate you want to rob a ship like before. However, because of the fog, you also won’t be able to see the ship.</p><p>This means you do not have to remember the ships you rob on this island.</p><p>Unlike yesterday, you won't be visiting multiple islands today. You will stay on this island for the entire game. This game will last ~30 minutes.</p></div>","","","","","","","","","","","","","","","","","",""
"","html-keyboard-response","9","96817","0.0-9.0","1603","<div class='center'><p>You’ve arrived at the final island of your journey! Unfortunately, it’s very foggy out, so you won’t be able to see it in the distance like the other islands you've visited.</p><p>You’ll still be deciding which pirate you want to rob a ship like before. However, because of the fog, you also won’t be able to see the ship.</p><p>This means you do not have to remember the ships you rob on this island.</p><p>Unlike yesterday, you won't be visiting multiple islands today. You will stay on this island for the entire game. This game will last ~30 minutes.</p><p><b>[Press the space bar to continue]</b></p></div>","32","","","","","","","","","","","","","","","","","","","","","","",""
"","explain_probe_1","10","106284","0.0-10.0","null","run_exp/static/audio/clip_33_recognition_1.m4a","null","","","","","<div class='center'><p> Sometimes you’ll be shown a ship, and you will be asked if you saw this ship on a past island.</p><p> Here is an example of what you will see.</p><p><img src='run_exp/static/images/tutorial/example_recog_trial.png' height='500'></p></div>","","","","","","","","","","","","","","","","","",""
"","html-keyboard-response","11","108022","0.0-11.0","1735.8999999761581","<div class='center'><p> Sometimes you’ll be shown a ship, and you will be asked if you saw this ship on a past island.</p><p> Here is an example of what you will see.</p><p><img src='run_exp/static/images/tutorial/example_recog_trial.png' height='500'></p><p><b>[Press the space bar to continue]</b></p></div>","32","","","","","","","","","","","","","","","","","","","","","","",""
"","explain_probe_2","12","134912","0.0-12.0","null","run_exp/static/audio/clip_34_recognition_2.m4a","null","","","","","<div class='center'><p> You will press the 5, 6, 7, 8 keys on your keyboard to respond.</p><p>If you are very sure saw the ship, press <b>5</b> on your keyboard.</p><p> If you think you  saw it before but are not sure, then press <b>6</b>.</p><p> If you think you have <b>not</b> seen it before but are not sure, then press <b>7</b>.</p><p> If you are sure you did <b>not</b> see the ship before, then press <b>8</b>.</p><p><img src='run_exp/static/images/tutorial/example_recog_trial.png' height='500'></p></div>","","","","","","","","","","","","","","","","","",""
"","html-keyboard-response","13","137949","0.0-13.0","3035.0999999046326","<div class='center'><p> You will press the 5, 6, 7, 8 keys on your keyboard to respond.</p><p>If you are very sure saw the ship, press <b>5</b> on your keyboard.</p><p> If you think you  saw it before but are not sure, then press <b>6</b>.</p><p> If you think you have <b>not</b> seen it before but are not sure, then press <b>7</b>.</p><p> If you are sure you did <b>not</b> see the ship before, then press <b>8</b>.</p><p><img src='run_exp/static/images/tutorial/example_recog_trial.png' height='500'></p><p><b>[Press the space bar to continue]</b></p></div>","32","","","","","","","","","","","","","","","","","","","","","","",""
"","explain_outcome","14","159552","0.0-14.0","null","run_exp/static/audio/clip_35_recognition_3.m4a","null","","","","","<div class='center'><p> If you remember correctly, then you’ll get a gold coin like this: </p><p><img src='run_exp/static/images/tutorial/reward_small.png' height='200'></p><p>If you do not remember correctly, then you'll see a red x like this: </p><p><img src='run_exp/static/images/tutorial/reward_no.png' height='200'></p><p>Importantly, when you are shown a ship, take the time to remind yourself which island you saw it on. This will help you in the next part of the study.</p></div>","","","","","","","","","","","","","","","","","",""
"","html-keyboard-response","15","160858","0.0-15.0","1304.3999999761581","<div class='center'><p> If you remember correctly, then you’ll get a gold coin like this: </p><p><img src='run_exp/static/images/tutorial/reward_small.png' height='200'></p><p>If you do not remember correctly, then you'll see a red x like this: </p><p><img src='run_exp/static/images/tutorial/reward_no.png' height='200'></p><p>Importantly, when you are shown a ship, take the time to remind yourself which island you saw it on. This will help you in the next part of the study.</p><p><b>[Press the space bar to continue]</b></p></div>","32","","","","","","","","","","","","","","","","","","","","","","",""
"","begin_test_phase","16","185407","0.0-16.0","null","run_exp/static/audio/clip_36_begin_final.m4a","null","","","","","<div class='center'><p>Let's go over the important points again. Your job is to: </p><p>1. Pick the pirate who is best at robbing ships and will bring you back gold coins. </p><p>2. Correctly remember whether or not you saw a ship before. If you did see the ship before, remind yourself on which island you saw the ship. </p></div>","","","","","","","","","","","","","","","","","",""
"","html-keyboard-response","17","185976","0.0-17.0","493.39999997615814","<div class='center'><p>Let's go over the important points again. Your job is to: </p><p>1. Pick the pirate who is best at robbing ships and will bring you back gold coins. </p><p>2. Correctly remember whether or not you saw a ship before. If you did see the ship before, remind yourself on which island you saw the ship. </p><p><b>[Press the space bar to continue]</b></p></div>","32","","","","","","","","","","","","","","","","","","","","","","",""
"","do_welcome","18","189988","0.0-18.0","null","","","","","","","","null","","","","","","","","","","","","","","","","",""
"","do_trial","19","195143","0.0-19.0-0.0","2591.100000023842","","","","","","","","50","1,1,1","6","blank","230","null","0.4384062434984724","0.7444603890059449","0.13969492548838391","1","","","","","","","",""
"","html-keyboard-response","20","196148","0.0-19.0-1.0","null","<p></p>","null","","","","","","","","","","","","","","","","","","","","","","",""
"","do_trial","21","199163","0.0-20.0-0.0","450","","","","","","","","50","0,1,0","6","blank","231","null","0.3731583708212626","0.7908892213155267","0.11888032786962999","1","","","","","","","",""
"","html-keyboard-response","22","200167","0.0-20.0-1.0","null","<p></p>","null","","","","","","","","","","","","","","","","","","","","","","",""
"","do_trial","23","203062","0.0-21.0-0.0","334.10000002384186","","","","","","","","50","0,1,0","6","blank","232","null","0.291707825401527","0.7303479844362846","0.06324509038017488","1","","","","","","","",""
"","html-keyboard-response","24","204065","0.0-21.0-1.0","null","<p></p>","null","","","","","","","","","","","","","","","","","","","","","","",""
"","do_trial","25","207618","0.0-22.0-0.0","993.1000000238419","","","","","","","","50","1,1,0","6","blank","233","null","0.3538545435714101","0.5856865879389314","0.09761903802758055","1","","","","","","","",""
"","html-keyboard-response","26","208623","0.0-22.0-1.0","null","<p></p>","null","","","","","","","","","","","","","","","","","","","","","","",""
"","do_trial","27","211547","0.0-23.0-0.0","363.2000000476837","","","","","","","","50","1,1,1","6","blank","234","null","0.2892705467849958","0.6717330982502171","0.16496077346109794","1","","","","","","","",""
"","html-keyboard-response","28","212552","0.0-23.0-1.0","null","<p></p>","null","","","","","","","","","","","","","","","","","","","","","","",""
"","do_trial","29","215488","0.0-24.0-0.0","374","","","","","","","","50","1,0,0","6","blank","235","null","0.3244386138053132","0.6544805396376697","0.11687032371894861","0","","","","","","","",""
"","html-keyboard-response","30","216495","0.0-24.0-1.0","null","<p></p>","null","","","","","","","","","","","","","","","","","","","","","","",""
"","do_trial","31","219505","0.0-25.0-0.0","447.5","","","","","","","","49","1,1,0","6","blank","236","null","0.36881759252072555","0.5831212214170646","0.17196483703608975","1","","","","","","","",""
"","html-keyboard-response","32","220509","0.0-25.0-1.0","null","<p></p>","null","","","","","","","","","","","","","","","","","","","","","","",""
"","do_trial","33","224073","0.0-26.0-0.0","1003.1000000238419","","","","","","","","49","0,1,0","6","blank","237","null","0.3095788043160907","0.5648536030103363","0.17562493863611586","0","","","","","","","",""
"","html-keyboard-response","34","225076","0.0-26.0-1.0","null","<p></p>","null","","","","","","","","","","","","","","","","","","","","","","",""
"","do_trial","35","228433","0.0-27.0-0.0","790.2999999523163","","","","","","","","49","0,1,1","6","blank","238","null","0.11832382502455875","0.5572116736264784","0.14248375099771576","0","","","","","","","",""
"","html-keyboard-response","36","229437","0.0-27.0-1.0","null","<p></p>","null","","","","","","","","","","","","","","","","","","","","","","",""
"","do_trial","37","232326","0.0-28.0-0.0","323.8000000715256","","","","","","","","51","0,1,0","6","blank","239","null","0.18089074296154983","0.6618948979523357","0.11202277817188648","0","","","","","","","",""
"","html-keyboard-response","38","233329","0.0-28.0-1.0","null","<p></p>","null","","","","","","","","","","","","","","","","","","","","","","",""
"","do_trial","39","236320","0.0-29.0-0.0","429.60000002384186","","","","","","","","50","1,0,0","6","blank","240","null","0.26085665833770444","0.5721245099940474","0.0791593016607282","0","","","","","","","",""
"","html-keyboard-response","40","237325","0.0-29.0-1.0","null","<p></p>","null","","","","","","","","","","","","","","","","","","","","","","",""
"","do_trial","41","240480","0.0-30.0-0.0","591.1000000238419","","","","","","","","50","0,1,0","6","blank","241","null","0.3298943697692184","0.6689536598063248","0.1315860400386903","1","","","","","","","",""
"","html-keyboard-response","42","241482","0.0-30.0-1.0","null","<p></p>","null","","","","","","","","","","","","","","","","","","","","","","",""
"","do_trial","43","244179","0.0-31.0-0.0","135.69999992847443","","","","","","","","50","0,1,0","6","blank","242","null","0.4722583472248343","0.47363526465631745","0.10946064795620532","1","","","","","","","",""
"","html-keyboard-response","44","245184","0.0-31.0-1.0","null","<p></p>","null","","","","","","","","","","","","","","","","","","","","","","",""
"","do_trial","45","248124","0.0-32.0-0.0","372.89999997615814","","","","","","","","50","0,0,0","6","blank","243","null","0.4645261553088191","0.38405953235501594","0.11082631069057441","0","","","","","","","",""
"","html-keyboard-response","46","249126","0.0-32.0-1.0","null","<p></p>","null","","","","","","","","","","","","","","","","","","","","","","",""
"","do_trial","47","251932","0.0-33.0-0.0","246.90000009536743","","","","","","","","50","0,1,0","6","blank","244","null","0.6055707254176202","0.44136786345663204","0.09521515393945575","1","","","","","","","",""
"","html-keyboard-response","48","252935","0.0-33.0-1.0","null","<p></p>","null","","","","","","","","","","","","","","","","","","","","","","",""
"","do_recog","49","258946","0.0-34.0-0.0","null","","","","","","","","null","","","","245","probe-103","","","","","1","[object Object]","80","2","0","","",""
"","html-keyboard-response","50","259951","0.0-34.0-1.0","null","<p></p>","null","","","","","","","","","","","","","","","","","","","","","","",""
"","do_trial","51","264059","0.0-35.0-0.0","1546.5","","","","","","","","50","1,1,0","6","blank","246","null","0.6012410924355606","0.4154724822126002","0.09458654496207677","1","","","","","","","",""
"","html-keyboard-response","52","265062","0.0-35.0-1.0","null","<p></p>","null","","","","","","","","","","","","","","","","","","","","","","",""
"","do_trial","53","268803","0.0-36.0-0.0","1173.6999999284744","","","","","","","","50","1,0,0","6","blank","247","null","0.5003203857541714","0.4312000507247998","0.10715526648165064","0","","","","","","","",""
"","html-keyboard-response","54","269808","0.0-36.0-1.0","null","<p></p>","null","","","","","","","","","","","","","","","","","","","","","","",""
"","do_trial","55","273725","0.0-37.0-0.0","1357.7000000476837","","","","","","","","50","1,1,1","6","blank","248","null","0.5924028320650464","0.3864756744265774","0.06463459734603913","1","","","","","","","",""
"","html-keyboard-response","56","274728","0.0-37.0-1.0","null","<p></p>","null","","","","","","","","","","","","","","","","","","","","","","",""
"","do_recog","57","280737","0.0-38.0-0.0","null","","","","","","","","null","","","","249","probe-236","","","","","0","[object Object]","null","null","0","","",""
"","html-keyboard-response","58","281740","0.0-38.0-1.0","null","<p></p>","null","","","","","","","","","","","","","","","","","","","","","","",""
"","do_trial","59","286287","0.0-39.0-0.0","1982","","","","","","","","49","1,1,1","6","blank","250","null","0.710974338284468","0.31824284381105844","0.0692474769083571","1","","","","","","","",""
"","html-keyboard-response","60","287291","0.0-39.0-1.0","null","<p></p>","null","","","","","","","","","","","","","","","","","","","","","","",""
"","do_trial","61","290254","0.0-40.0-0.0","403","","","","","","","","50","0,0,0","6","blank","251","null","0.6492243369804921","0.2169179071664895","0.1795505301016606","0","","","","","","","",""
"","html-keyboard-response","62","291256","0.0-40.0-1.0","null","<p></p>","null","","","","","","","","","","","","","","","","","","","","","","",""
"","do_trial","63","293822","0.0-41.0-0.0","0.10000002384185791","","","","","","","","49","1,0,0","6","blank","252","null","0.7081439706895821","0.3017400632349392","0.1902415922580717","1","","","","","","","",""
"","html-keyboard-response","64","294823","0.0-41.0-1.0","null","<p></p>","null","","","","","","","","","","","","","","","","","","","","","","",""
"","do_trial","65","297405","0.0-42.0-0.0","46.5","","","","","","","","49","1,1,0","6","blank","253","null","0.5015190891684344","0.3689289116410789","0.1363166415750495","1","","","","","","","",""
"","html-keyboard-response","66","298408","0.0-42.0-1.0","null","<p></p>","null","","","","","","","","","","","","","","","","","","","","","","",""
"","do_recog","67","304421","0.0-43.0-0.0","null","","","","","","","","null","","","","254","probe-221","","","","","1","[object Object]","163","4","0","","",""
"","html-keyboard-response","68","305427","0.0-43.0-1.0","null","<p></p>","null","","","","","","","","","","","","","","","","","","","","","","",""
"","do_trial","69","309435","0.0-44.0-0.0","1446.3000000715256","","","","","","","","49","1,0,0","6","blank","255","null","0.5997463786480135","0.3365929370720724","0.06830140370379979","1","","","","","","","",""
"","html-keyboard-response","70","310438","0.0-44.0-1.0","null","<p></p>","null","","","","","","","","","","","","","","","","","","","","","","",""
"","do_trial","71","313350","0.0-45.0-0.0","350","","","","","","","","49","1,0,0","6","blank","256","null","0.6685295693409203","0.4509807911381101","0.07147355390336119","1","","","","","","","",""
"","html-keyboard-response","72","314354","0.0-45.0-1.0","null","<p></p>","null","","","","","","","","","","","","","","","","","","","","","","",""
"","do_trial","73","317907","0.0-46.0-0.0","993","","","","","","","","50","0,0,0","6","blank","257","null","0.8082904681238049","0.27070876624775225","0.1481151122852488","0","","","","","","","",""
"","html-keyboard-response","74","318911","0.0-46.0-1.0","null","<p></p>","null","","","","","","","","","","","","","","","","","","","","","","",""
"","do_trial","75","321798","0.0-47.0-0.0","322.60000002384186","","","","","","","","49","1,1,0","6","blank","258","null","0.7216998399578709","0.33305612723809797","0.1676218351784031","1","","","","","","","",""
"","html-keyboard-response","76","322801","0.0-47.0-1.0","null","<p></p>","null","","","","","","","","","","","","","","","","","","","","","","",""
"","do_trial","77","325740","0.0-48.0-0.0","378.60000002384186","","","","","","","","49","0,0,0","6","blank","259","null","0.5934780377726255","0.272395598295021","0.21717911361613967","0","","","","","","","",""
"","html-keyboard-response","78","326742","0.0-48.0-1.0","null","<p></p>","null","","","","","","","","","","","","","","","","","","","","","","",""
"","do_recog","79","330893","0.0-49.0-0.0","2637.100000023842","","","","","","","","53","","","","260","probe-99","","","","","1","[object Object]","85","2","1","","",""
"","html-keyboard-response","80","331897","0.0-49.0-1.0","null","<p></p>","null","","","","","","","","","","","","","","","","","","","","","","",""
"","do_trial","81","335513","0.0-50.0-0.0","1054.3999999761581","","","","","","","","49","0,0,0","6","blank","261","null","0.6124375989049109","0.42385035260890236","0.12854811347240075","0","","","","","","","",""
"","html-keyboard-response","82","336518","0.0-50.0-1.0","null","<p></p>","null","","","","","","","","","","","","","","","","","","","","","","",""
"","do_recog","83","340592","0.0-51.0-0.0","2563","","","","","","","","53","","","","262","probe-224","","","","","1","[object Object]","42","1","1","","",""
"","html-keyboard-response","84","341594","0.0-51.0-1.0","null","<p></p>","null","","","","","","","","","","","","","","","","","","","","","","",""
"","do_trial","85","345442","0.0-52.0-0.0","1288","","","","","","","","50","1,0,0","6","blank","263","null","0.5987050374577264","0.4817549743784503","0.16886715957490694","0","","","","","","","",""
"","html-keyboard-response","86","346445","0.0-52.0-1.0","null","<p></p>","null","","","","","","","","","","","","","","","","","","","","","","",""
"","do_trial","87","349108","0.0-53.0-0.0","100.70000004768372","","","","","","","","51","1,0,1","6","blank","264","null","0.6413992550043248","0.4464434396768525","0.2394735973859401","1","","","","","","","",""
"","html-keyboard-response","88","350111","0.0-53.0-1.0","null","<p></p>","null","","","","","","","","","","","","","","","","","","","","","","",""
"","do_trial","89","353160","0.0-54.0-0.0","491","","","","","","","","49","1,0,1","6","blank","265","null","0.6930894856097177","0.2716076746485381","0.27246302743761674","1","","","","","","","",""
"","html-keyboard-response","90","354165","0.0-54.0-1.0","null","<p></p>","null","","","","","","","","","","","","","","","","","","","","","","",""
"","do_trial","91","357321","0.0-55.0-0.0","595","","","","","","","","49","1,0,0","6","blank","266","null","0.5669359016161755","0.25429151868114164","0.13422984425726886","1","","","","","","","",""
"","html-keyboard-response","92","358324","0.0-55.0-1.0","null","<p></p>","null","","","","","","","","","","","","","","","","","","","","","","",""
"","do_recog","93","364339","0.0-56.0-0.0","null","","","","","","","","null","","","","267","probe-112","","","","","1","[object Object]","87","2","0","","",""
"","html-keyboard-response","94","365342","0.0-56.0-1.0","null","<p></p>","null","","","","","","","","","","","","","","","","","","","","","","",""
"","do_trial","95","371405","0.0-57.0-0.0","null","","","","","","","","null","1,0,0","6","blank","268","null","0.4750880655643057","0.33287419608044877","0.12968324120314073","","","","","","","","",""
"","html-keyboard-response","96","372408","0.0-57.0-1.0","null","<p></p>","null","","","","","","","","","","","","","","","","","","","","","","",""
"","break","97","375967","0.0-57.0-2.0","3557.7000000476837","<div class='center'><p>Time to take a quick break! You have 2 minutes to rest, but you can move on sooner if you'd like.</p><p> Press the <b>space bar</b> to continue.</p></div>","32","","","","","","","","","","","","","","","","","","","","","","",""
"","do_trial","98","379445","0.0-57.0-3.0","919.1999999284744","","","","","","","","49","0,0,0","6","blank","269","null","0.48092445841586434","0.29586385950936217","0.1834035708736075","0","","","","","","","",""
"","html-keyboard-response","99","380450","0.0-57.0-4.0","null","<p></p>","null","","","","","","","","","","","","","","","","","","","","","","",""
"","do_recog","100","384342","0.0-58.0-0.0","2383.2999999523163","","","","","","","","53","","","","270","probe-200","","","","","1","[object Object]","128","3","1","","",""
"","html-keyboard-response","101","385347","0.0-58.0-1.0","null","<p></p>","null","","","","","","","","","","","","","","","","","","","","","","",""
"","do_trial","102","390003","0.0-59.0-0.0","2093.0999999046326","","","","","","","","51","1,0,1","6","blank","271","null","0.44114563194174444","0.4076808763714872","0.23119887148546603","1","","","","","","","",""
"","html-keyboard-response","103","391011","0.0-59.0-1.0","null","<p></p>","null","","","","","","","","","","","","","","","","","","","","","","",""
"","do_recog","104","394763","0.0-60.0-0.0","2241.1999999284744","","","","","","","","54","","","","272","probe-41","","","","","1","[object Object]","88","2","1","","",""
"","html-keyboard-response","105","395768","0.0-60.0-1.0","null","<p></p>","null","","","","","","","","","","","","","","","","","","","","","","",""
"","do_trial","106","401106","0.0-61.0-0.0","2775.399999976158","","","","","","","","50","1,0,1","6","blank","273","null","0.5051024392065124","0.28891094262031736","0.23937715180343516","0","","","","","","","",""
"","html-keyboard-response","107","402108","0.0-61.0-1.0","null","<p></p>","null","","","","","","","","","","","","","","","","","","","","","","",""
"","do_trial","108","405099","0.0-62.0-0.0","428.10000002384186","","","","","","","","49","0,0,0","6","blank","274","null","0.5530104992017983","0.28983175344982587","0.1070669879889781","0","","","","","","","",""
"","html-keyboard-response","109","406102","0.0-62.0-1.0","null","<p></p>","null","","","","","","","","","","","","","","","","","","","","","","",""
"","do_trial","110","408869","0.0-63.0-0.0","203.29999995231628","","","","","","","","51","1,0,1","6","blank","275","null","0.5627845301013337","0.4310430418200488","0.17249908224743934","1","","","","","","","",""
"","html-keyboard-response","111","409872","0.0-63.0-1.0","null","<p></p>","null","","","","","","","","","","","","","","","","","","","","","","",""
"","do_trial","112","412795","0.0-64.0-0.0","355","","","","","","","","51","1,0,0","6","blank","276","null","0.49636628463339505","0.3193495405868728","0.14557191324025298","0","","","","","","","",""
"","html-keyboard-response","113","413799","0.0-64.0-1.0","null","<p></p>","null","","","","","","","","","","","","","","","","","","","","","","",""
"","do_recog","114","417614","0.0-65.0-0.0","2304.7999999523163","","","","","","","","53","","","","277","probe-164","","","","","1","[object Object]","160","4","1","","",""
"","html-keyboard-response","115","418618","0.0-65.0-1.0","null","<p></p>","null","","","","","","","","","","","","","","","","","","","","","","",""
"","do_trial","116","421590","0.0-66.0-0.0","410.09999990463257","","","","","","","","50","0,0,0","6","blank","278","null","0.43066146502084446","0.16647082524695386","0.06799401337418896","0","","","","","","","",""
"","html-keyboard-response","117","422597","0.0-66.0-1.0","null","<p></p>","null","","","","","","","","","","","","","","","","","","","","","","",""
"","do_trial","118","425459","0.0-67.0-0.0","302","","","","","","","","50","1,0,0","6","blank","279","null","0.5336228871658918","0.2376377646050702","0.0795634608311944","0","","","","","","","",""
"","html-keyboard-response","119","426462","0.0-67.0-1.0","null","<p></p>","null","","","","","","","","","","","","","","","","","","","","","","",""
"","do_trial","120","429157","0.0-68.0-0.0","133.70000004768372","","","","","","","","51","1,0,0","6","blank","280","null","0.49508775980789965","0.19030104221008337","0.09979780123969706","0","","","","","","","",""
"","html-keyboard-response","121","430162","0.0-68.0-1.0","null","<p></p>","null","","","","","","","","","","","","","","","","","","","","","","",""
"","do_trial","122","432911","0.0-69.0-0.0","189.20000004768372","","","","","","","","49","0,0,0","6","blank","281","null","0.5584991504902236","0.17557704085900377","0.14626156498136755","0","","","","","","","",""
"","html-keyboard-response","123","433914","0.0-69.0-1.0","null","<p></p>","null","","","","","","","","","","","","","","","","","","","","","","",""
"","do_recog","124","437517","0.0-70.0-0.0","2089.399999976158","","","","","","","","53","","","","282","probe-42","","","","","1","[object Object]","125","3","1","","",""
"","html-keyboard-response","125","438519","0.0-70.0-1.0","null","<p></p>","null","","","","","","","","","","","","","","","","","","","","","","",""
"","do_trial","126","441306","0.0-71.0-0.0","223.5","","","","","","","","50","0,0,0","6","blank","283","null","0.6455526020947427","0.3398748213438699","0.1889255200167579","0","","","","","","","",""
"","html-keyboard-response","127","442310","0.0-71.0-1.0","null","<p></p>","null","","","","","","","","","","","","","","","","","","","","","","",""
"","do_trial","128","444909","0.0-72.0-0.0","34.39999997615814","","","","","","","","50","1,0,0","6","blank","284","null","0.676970599997839","0.3101885268348812","0.14279400354981037","0","","","","","","","",""
"","html-keyboard-response","129","445914","0.0-72.0-1.0","null","<p></p>","null","","","","","","","","","","","","","","","","","","","","","","",""
"","do_recog","130","449045","0.0-73.0-0.0","1620.1999999284744","","","","","","","","53","","","","285","probe-161","","","","","1","[object Object]","168","4","1","","",""
"","html-keyboard-response","131","450048","0.0-73.0-1.0","null","<p></p>","null","","","","","","","","","","","","","","","","","","","","","","",""
"","do_trial","132","453589","0.0-74.0-0.0","979.8999999761581","","","","","","","","50","0,0,0","6","blank","286","null","0.5491768336674577","0.3124234592889312","0.1693458548440869","0","","","","","","","",""
"","html-keyboard-response","133","454592","0.0-74.0-1.0","null","<p></p>","null","","","","","","","","","","","","","","","","","","","","","","",""
"","do_trial","134","457291","0.0-75.0-0.0","139.5","","","","","","","","49","0,0,0","6","blank","287","null","0.6585025603967591","0.29418542920396334","0.27499386792792596","0","","","","","","","",""
"","html-keyboard-response","135","458294","0.0-75.0-1.0","null","<p></p>","null","","","","","","","","","","","","","","","","","","","","","","",""
"","do_recog","136","461554","0.0-76.0-0.0","1751.4000000953674","","","","","","","","53","","","","288","probe-11","","","","","1","[object Object]","129","3","1","","",""
"","html-keyboard-response","137","462557","0.0-76.0-1.0","null","<p></p>","null","","","","","","","","","","","","","","","","","","","","","","",""
"","do_trial","138","465531","0.0-77.0-0.0","412.60000002384186","","","","","","","","50","1,1,0","6","blank","289","null","0.6050214668148789","0.34341571193507375","0.2884838075900939","1","","","","","","","",""
"","html-keyboard-response","139","466533","0.0-77.0-1.0","null","<p></p>","null","","","","","","","","","","","","","","","","","","","","","","",""
"","do_recog","140","469910","0.0-78.0-0.0","1867.5999999046326","","","","","","","","53","","","","290","probe-186","","","","","1","[object Object]","207","5","1","","",""
"","html-keyboard-response","141","470913","0.0-78.0-1.0","null","<p></p>","null","","","","","","","","","","","","","","","","","","","","","","",""
"","do_trial","142","473526","0.0-79.0-0.0","54.10000002384186","","","","","","","","49","0,0,0","6","blank","291","null","0.6073049449751257","0.23531183474011763","0.2721315274637955","0","","","","","","","",""
"","html-keyboard-response","143","474529","0.0-79.0-1.0","null","<p></p>","null","","","","","","","","","","","","","","","","","","","","","","",""
"","do_trial","144","477616","0.0-80.0-0.0","525.1000000238419","","","","","","","","49","0,0,1","6","blank","292","null","0.6622921541346405","0.17805117269851564","0.3405868279744397","0","","","","","","","",""
"","html-keyboard-response","145","478618","0.0-80.0-1.0","null","<p></p>","null","","","","","","","","","","","","","","","","","","","","","","",""
"","do_trial","146","481187","0.0-81.0-0.0","0.19999992847442627","","","","","","","","50","1,0,1","6","blank","293","null","0.6107877557469459","0.05191449794194153","0.31310441951743834","0","","","","","","","",""
"","html-keyboard-response","147","482194","0.0-81.0-1.0","null","<p></p>","null","","","","","","","","","","","","","","","","","","","","","","",""
"","do_trial","148","484904","0.0-82.0-0.0","148.80000007152557","","","","","","","","51","0,0,0","6","blank","294","null","0.6248139875986329","0.08695352994055393","0.4718666971179636","0","","","","","","","",""
"","html-keyboard-response","149","485907","0.0-82.0-1.0","null","<p></p>","null","","","","","","","","","","","","","","","","","","","","","","",""
"","do_trial","150","488500","0.0-83.0-0.0","32.799999952316284","","","","","","","","50","0,0,1","6","blank","295","null","0.33198752806780646","0.06401315742356349","0.50509109948152","0","","","","","","","",""
"","html-keyboard-response","151","489505","0.0-83.0-1.0","null","<p></p>","null","","","","","","","","","","","","","","","","","","","","","","",""
"","do_trial","152","492159","0.0-84.0-0.0","92.39999997615814","","","","","","","","50","0,0,1","6","blank","296","null","0.12484556863834001","0.13958411115019534","0.5073637237645828","0","","","","","","","",""
"","html-keyboard-response","153","493163","0.0-84.0-1.0","null","<p></p>","null","","","","","","","","","","","","","","","","","","","","","","",""
"","do_recog","154","499176","0.0-85.0-0.0","null","","","","","","","","null","","","","297","probe-56","","","","","1","[object Object]","46","1","0","","",""
"","html-keyboard-response","155","500183","0.0-85.0-1.0","null","<p></p>","null","","","","","","","","","","","","","","","","","","","","","","",""
"","do_trial","156","502961","0.0-86.0-0.0","215.40000009536743","","","","","","","","51","0,0,0","6","blank","298","null","0.10754381806266711","0.2961197171071152","0.5824163113937024","0","","","","","","","",""
"","html-keyboard-response","157","503967","0.0-86.0-1.0","null","<p></p>","null","","","","","","","","","","","","","","","","","","","","","","",""
"","do_trial","158","506570","0.0-87.0-0.0","41.199999928474426","","","","","","","","50","0,0,1","6","blank","299","null","0.22384188547498987","0.16511963410624186","0.5860367901605048","0","","","","","","","",""
"","html-keyboard-response","159","507573","0.0-87.0-1.0","null","<p></p>","null","","","","","","","","","","","","","","","","","","","","","","",""
"","do_trial","160","510953","0.0-88.0-0.0","823","","","","","","","","50","0,0,1","6","blank","300","null","0.20975621597482103","0.12546764012469452","0.6222942303942783","0","","","","","","","",""
"","html-keyboard-response","161","511956","0.0-88.0-1.0","null","<p></p>","null","","","","","","","","","","","","","","","","","","","","","","",""
"","do_trial","162","514700","0.0-89.0-0.0","183","","","","","","","","49","0,0,1","6","blank","301","null","0.14689714796506514","0.10748250948785593","0.5081471484398705","0","","","","","","","",""
"","html-keyboard-response","163","515703","0.0-89.0-1.0","null","<p></p>","null","","","","","","","","","","","","","","","","","","","","","","",""
"","do_recog","164","519523","0.0-90.0-0.0","2310.899999976158","","","","","","","","53","","","","302","probe-48","","","","","1","[object Object]","43","1","1","","",""
"","html-keyboard-response","165","520525","0.0-90.0-1.0","null","<p></p>","null","","","","","","","","","","","","","","","","","","","","","","",""
"","do_trial","166","523225","0.0-91.0-0.0","137.20000004768372","","","","","","","","51","0,0,1","6","blank","303","null","0.11132253393454385","0.07113119085788851","0.3829757651063286","1","","","","","","","",""
"","html-keyboard-response","167","524227","0.0-91.0-1.0","null","<p></p>","null","","","","","","","","","","","","","","","","","","","","","","",""
"","do_trial","168","527296","0.0-92.0-0.0","506.8000000715256","","","","","","","","51","0,0,0","6","blank","304","null","0.23581181877560384","0.09499686729823503","0.46668106648650914","0","","","","","","","",""
"","html-keyboard-response","169","528300","0.0-92.0-1.0","null","<p></p>","null","","","","","","","","","","","","","","","","","","","","","","",""
"","do_trial","170","531282","0.0-93.0-0.0","422.10000002384186","","","","","","","","50","0,0,0","6","blank","305","null","0.15896019654439209","0.25656788626553256","0.4120204165394359","0","","","","","","","",""
"","html-keyboard-response","171","532285","0.0-93.0-1.0","null","<p></p>","null","","","","","","","","","","","","","","","","","","","","","","",""
"","do_trial","172","535093","0.0-94.0-0.0","245.69999992847443","","","","","","","","50","1,1,0","6","blank","306","null","0.24207284011873265","0.40750119438766136","0.5885094839100624","1","","","","","","","",""
"","html-keyboard-response","173","536096","0.0-94.0-1.0","null","<p></p>","null","","","","","","","","","","","","","","","","","","","","","","",""
"","do_recog","174","540507","0.0-95.0-0.0","2900.5999999046326","","","","","","","","53","","","","307","probe-62","","","","","1","[object Object]","166","4","1","","",""
"","html-keyboard-response","175","541513","0.0-95.0-1.0","null","<p></p>","null","","","","","","","","","","","","","","","","","","","","","","",""
"","do_trial","176","544697","0.0-96.0-0.0","620.5","","","","","","","","51","0,0,0","6","blank","308","null","0.2821915502905332","0.5493759090305428","0.6360579677919734","0","","","","","","","",""
"","html-keyboard-response","177","545699","0.0-96.0-1.0","null","<p></p>","null","","","","","","","","","","","","","","","","","","","","","","",""
"","break","178","639249","0.0-96.0-2.0","93552.70000004768","<div class='center'><p>Time to take a quick break! You have 2 minutes to rest, but you can move on sooner if you'd like.</p><p> Press the <b>space bar</b> to continue.</p></div>","32","","","","","","","","","","","","","","","","","","","","","","",""
"","do_trial","179","643190","0.0-96.0-3.0","1376","","","","","","","","49","0,0,1","6","blank","309","null","0.17172357047179776","0.37979997359137385","0.5636142912611685","0","","","","","","","",""
"","html-keyboard-response","180","644193","0.0-96.0-4.0","null","<p></p>","null","","","","","","","","","","","","","","","","","","","","","","",""
"","do_trial","181","650258","0.0-97.0-0.0","null","","","","","","","","null","0,0,1","6","blank","310","null","0.10261737572586871","0.4358398233650393","0.6118808089120977","","","","","","","","",""
"","html-keyboard-response","182","651264","0.0-97.0-1.0","null","<p></p>","null","","","","","","","","","","","","","","","","","","","","","","",""
"","do_recog","183","657275","0.0-98.0-0.0","null","","","","","","","","null","","","","311","probe-68","","","","","1","[object Object]","202","5","0","","",""
"","html-keyboard-response","184","658277","0.0-98.0-1.0","null","<p></p>","null","","","","","","","","","","","","","","","","","","","","","","",""
"","do_trial","185","662306","0.0-99.0-0.0","1467.1000000238419","","","","","","","","50","0,0,1","6","blank","312","null","0.21924581249055813","0.28121743570248703","0.667077904489026","0","","","","","","","",""
"","html-keyboard-response","186","663309","0.0-99.0-1.0","null","<p></p>","null","","","","","","","","","","","","","","","","","","","","","","",""
"","do_recog","187","667363","0.0-100.0-0.0","2544.4000000953674","","","","","","","","53","","","","313","probe-96","","","","","1","[object Object]","206","5","1","","",""
"","html-keyboard-response","188","668365","0.0-100.0-1.0","null","<p></p>","null","","","","","","","","","","","","","","","","","","","","","","",""
"","do_trial","189","672614","0.0-101.0-0.0","1689.8000000715256","","","","","","","","51","0,0,1","6","blank","314","null","0.24063963664081406","0.25432744765633647","0.8203661840144371","1","","","","","","","",""
"","html-keyboard-response","190","673617","0.0-101.0-1.0","null","<p></p>","null","","","","","","","","","","","","","","","","","","","","","","",""
"","do_recog","191","677640","0.0-102.0-0.0","2513.899999976158","","","","","","","","53","","","","315","probe-91","","","","","1","[object Object]","48","1","1","","",""
"","html-keyboard-response","192","678644","0.0-102.0-1.0","null","<p></p>","null","","","","","","","","","","","","","","","","","","","","","","",""
"","do_trial","193","682793","0.0-103.0-0.0","1587.8000000715256","","","","","","","","50","1,0,1","6","blank","316","null","0.31684054849469184","0.28623920278447507","0.7221506353380527","0","","","","","","","",""
"","html-keyboard-response","194","683795","0.0-103.0-1.0","null","<p></p>","null","","","","","","","","","","","","","","","","","","","","","","",""
"","do_trial","195","687540","0.0-104.0-0.0","1170.3999999761581","","","","","","","","49","0,0,1","6","blank","317","null","0.17371840785260406","0.3216618916186072","0.7437249910074799","0","","","","","","","",""
"","html-keyboard-response","196","688542","0.0-104.0-1.0","null","<p></p>","null","","","","","","","","","","","","","","","","","","","","","","",""
"","do_trial","197","692197","0.0-105.0-0.0","1093.1000000238419","","","","","","","","51","0,1,1","6","blank","318","null","0.1828583748020207","0.36618069943991904","0.8107808369441925","1","","","","","","","",""
"","html-keyboard-response","198","693201","0.0-105.0-1.0","null","<p></p>","null","","","","","","","","","","","","","","","","","","","","","","",""
"","do_trial","199","696594","0.0-106.0-0.0","830.9000000953674","","","","","","","","50","0,0,1","6","blank","319","null","0.1686711787733531","0.2783969077842338","0.9454103338246961","0","","","","","","","",""
"","html-keyboard-response","200","697596","0.0-106.0-1.0","null","<p></p>","null","","","","","","","","","","","","","","","","","","","","","","",""
"","do_trial","201","700531","0.0-107.0-0.0","372.1999999284744","","","","","","","","51","0,0,1","6","blank","320","null","0.08272056993806987","0.23863237914315721","0.8521165971391327","1","","","","","","","",""
"","html-keyboard-response","202","701534","0.0-107.0-1.0","null","<p></p>","null","","","","","","","","","","","","","","","","","","","","","","",""
"","do_trial","203","704648","0.0-108.0-0.0","552.5","","","","","","","","51","0,0,1","6","blank","321","null","0.10274042763950128","0.24608262306206682","0.7690155681594455","1","","","","","","","",""
"","html-keyboard-response","204","705650","0.0-108.0-1.0","null","<p></p>","null","","","","","","","","","","","","","","","","","","","","","","",""
"","do_recog","205","711659","0.0-109.0-0.0","null","","","","","","","","null","","","","322","probe-116","","","","","1","[object Object]","205","5","0","","",""
"","html-keyboard-response","206","712661","0.0-109.0-1.0","null","<p></p>","null","","","","","","","","","","","","","","","","","","","","","","",""
"","do_trial","207","716936","0.0-110.0-0.0","1715.2000000476837","","","","","","","","51","0,0,1","6","blank","323","null","0.10242034834340973","0.10180999658486392","0.7084267798370872","1","","","","","","","",""
"","html-keyboard-response","208","717942","0.0-110.0-1.0","null","<p></p>","null","","","","","","","","","","","","","","","","","","","","","","",""
"","do_trial","209","724006","0.0-111.0-0.0","null","","","","","","","","null","1,0,1","6","blank","324","null","0.17166842309613992","0.20602466523274743","0.7555222880662518","","","","","","","","",""
"","html-keyboard-response","210","725008","0.0-111.0-1.0","null","<p></p>","null","","","","","","","","","","","","","","","","","","","","","","",""
"","do_trial","211","728451","0.0-112.0-0.0","878.1000000238419","","","","","","","","50","0,0,1","6","blank","325","null","0.23461563259236562","0.22973480909426902","0.5682345479527868","0","","","","","","","",""
"","html-keyboard-response","212","729454","0.0-112.0-1.0","null","<p></p>","null","","","","","","","","","","","","","","","","","","","","","","",""
"","do_recog","213","733283","0.0-113.0-0.0","2320","","","","","","","","53","","","","326","probe-81","","","","","1","[object Object]","164","4","1","","",""
"","html-keyboard-response","214","734288","0.0-113.0-1.0","null","<p></p>","null","","","","","","","","","","","","","","","","","","","","","","",""
"","do_trial","215","738714","0.0-114.0-0.0","1862.2999999523163","","","","","","","","51","0,0,0","6","blank","327","null","0.2107911177635017","0.15776112105230053","0.398505977283793","0","","","","","","","",""
"","html-keyboard-response","216","739716","0.0-114.0-1.0","null","<p></p>","null","","","","","","","","","","","","","","","","","","","","","","",""
"","do_trial","217","742783","0.0-115.0-0.0","505.89999997615814","","","","","","","","51","0,0,0","6","blank","328","null","0.07255796807686524","0.26674533309871956","0.3889183657175314","0","","","","","","","",""
"","html-keyboard-response","218","743787","0.0-115.0-1.0","null","<p></p>","null","","","","","","","","","","","","","","","","","","","","","","",""
"","do_trial","219","746728","0.0-116.0-0.0","381.3000000715256","","","","","","","","50","0,0,1","6","blank","329","null","0.06985486319027771","0.2761571752680545","0.5030561867901948","0","","","","","","","",""
"","html-keyboard-response","220","747731","0.0-116.0-1.0","null","<p></p>","null","","","","","","","","","","","","","","","","","","","","","","",""
"","do_recog","221","753743","0.0-117.0-0.0","null","","","","","","","","null","","","","330","probe-144","","","","","1","[object Object]","44","1","0","","",""
"","html-keyboard-response","222","754747","0.0-117.0-1.0","null","<p></p>","null","","","","","","","","","","","","","","","","","","","","","","",""
"","do_trial","223","758518","0.0-118.0-0.0","1208.6999999284744","","","","","","","","50","0,0,1","6","blank","331","null","0.09281069531999232","0.24840355393443753","0.5378819549820915","0","","","","","","","",""
"","html-keyboard-response","224","759524","0.0-118.0-1.0","null","<p></p>","null","","","","","","","","","","","","","","","","","","","","","","",""
"","do_trial","225","765599","0.0-119.0-0.0","null","","","","","","","","null","0,0,1","6","blank","332","null","0.10269671951235791","0.3039003650084486","0.6523158322669952","","","","","","","","",""
"","html-keyboard-response","226","766603","0.0-119.0-1.0","null","<p></p>","null","","","","","","","","","","","","","","","","","","","","","","",""
"","do_trial","227","769730","0.0-120.0-0.0","564.1000000238419","","","","","","","","51","0,0,0","6","blank","333","null","0.20467987374561275","0.32685212441343126","0.7276151344432294","0","","","","","","","",""
"","html-keyboard-response","228","770733","0.0-120.0-1.0","null","<p></p>","null","","","","","","","","","","","","","","","","","","","","","","",""
"","do_recog","229","774589","0.0-121.0-0.0","2346.9000000953674","","","","","","","","53","","","","334","probe-173","","","","","1","[object Object]","41","1","1","","",""
"","html-keyboard-response","230","775592","0.0-121.0-1.0","null","<p></p>","null","","","","","","","","","","","","","","","","","","","","","","",""
"","do_trial","231","779826","0.0-122.0-0.0","1672.5","","","","","","","","49","0,1,1","6","blank","335","null","0.17357767477815375","0.22592118351284893","0.7132104912408955","0","","","","","","","",""
"","html-keyboard-response","232","780835","0.0-122.0-1.0","null","<p></p>","null","","","","","","","","","","","","","","","","","","","","","","",""
"","do_recog","233","785000","0.0-123.0-0.0","2652.2000000476837","","","","","","","","53","","","","336","probe-27","","","","","1","[object Object]","203","5","1","","",""
"","html-keyboard-response","234","786003","0.0-123.0-1.0","null","<p></p>","null","","","","","","","","","","","","","","","","","","","","","","",""
"","do_trial","235","791391","0.0-124.0-0.0","2827.7999999523163","","","","","","","","51","0,0,0","6","blank","337","null","0.12410308453862294","0.25737064657602016","0.7011987259891058","0","","","","","","","",""
"","html-keyboard-response","236","792394","0.0-124.0-1.0","null","<p></p>","null","","","","","","","","","","","","","","","","","","","","","","",""
"","do_trial","237","795844","0.0-125.0-0.0","886.2999999523163","","","","","","","","50","0,0,0","6","blank","338","null","0.06997180799273363","0.37668648808238153","0.684285358494634","0","","","","","","","",""
"","html-keyboard-response","238","796847","0.0-125.0-1.0","null","<p></p>","null","","","","","","","","","","","","","","","","","","","","","","",""
"","do_trial","239","800353","0.0-126.0-0.0","938.7999999523163","","","","","","","","49","1,0,1","6","blank","339","null","0.0942455151893115","0.3561580255667211","0.7760773674562687","1","","","","","","","",""
"","html-keyboard-response","240","801356","0.0-126.0-1.0","null","<p></p>","null","","","","","","","","","","","","","","","","","","","","","","",""
"","do_trial","241","803922","0.0-127.0-0.0","0.20000004768371582","","","","","","","","49","1,0,1","6","blank","340","null","0.1910960844923204","0.4522122227912037","0.7821154128274646","1","","","","","","","",""
"","html-keyboard-response","242","804927","0.0-127.0-1.0","null","<p></p>","null","","","","","","","","","","","","","","","","","","","","","","",""
"","do_trial","243","807489","0.0-128.0-0.0","0.19999992847442627","","","","","","","","49","0,1,1","6","blank","341","null","0.2831472563561965","0.427713453392609","0.6183586064422295","0","","","","","","","",""
"","html-keyboard-response","244","808491","0.0-128.0-1.0","null","<p></p>","null","","","","","","","","","","","","","","","","","","","","","","",""
"","do_trial","245","811153","0.0-129.0-0.0","95.89999997615814","","","","","","","","49","1,0,0","6","blank","342","null","0.20396789938384416","0.30499109993533313","0.5272601627164051","1","","","","","","","",""
"","html-keyboard-response","246","812156","0.0-129.0-1.0","null","<p></p>","null","","","","","","","","","","","","","","","","","","","","","","",""
"","do_recog","247","815719","0.0-130.0-0.0","2052.600000023842","","","","","","","","53","","","","343","probe-160","","","","","1","[object Object]","208","5","1","","",""
"","html-keyboard-response","248","816721","0.0-130.0-1.0","null","<p></p>","null","","","","","","","","","","","","","","","","","","","","","","",""
"","do_trial","249","819467","0.0-131.0-0.0","183.79999995231628","","","","","","","","49","1,1,1","6","blank","344","null","0.2899391864517149","0.4117745119116302","0.5418378283158911","1","","","","","","","",""
"","html-keyboard-response","250","820471","0.0-131.0-1.0","null","<p></p>","null","","","","","","","","","","","","","","","","","","","","","","",""
"","do_trial","251","823033","0.0-132.0-0.0","0.19999992847442627","","","","","","","","49","0,0,1","6","blank","345","null","0.3046763565571212","0.37767995570301494","0.5198525727727649","0","","","","","","","",""
"","html-keyboard-response","252","824036","0.0-132.0-1.0","null","<p></p>","null","","","","","","","","","","","","","","","","","","","","","","",""
"","do_trial","253","826617","0.0-133.0-0.0","21.200000047683716","","","","","","","","49","0,1,1","6","blank","346","null","0.40093737605575613","0.4495277790520234","0.417397036137609","0","","","","","","","",""
"","html-keyboard-response","254","827621","0.0-133.0-1.0","null","<p></p>","null","","","","","","","","","","","","","","","","","","","","","","",""
"","do_trial","255","830269","0.0-134.0-0.0","86.90000009536743","","","","","","","","50","0,0,1","6","blank","347","null","0.381940921947008","0.5578621213256792","0.3005564470370924","0","","","","","","","",""
"","html-keyboard-response","256","831272","0.0-134.0-1.0","null","<p></p>","null","","","","","","","","","","","","","","","","","","","","","","",""
"","do_trial","257","833844","0.0-135.0-0.0","0.19999992847442627","","","","","","","","49","0,1,0","6","blank","348","null","0.26859783104717866","0.6395732233712801","0.27019448680896935","0","","","","","","","",""
"","html-keyboard-response","258","834850","0.0-135.0-1.0","null","<p></p>","null","","","","","","","","","","","","","","","","","","","","","","",""
"","break","259","838881","0.0-135.0-2.0","4029.7999999523163","<div class='center'><p>Time to take a quick break! You have 2 minutes to rest, but you can move on sooner if you'd like.</p><p> Press the <b>space bar</b> to continue.</p></div>","32","","","","","","","","","","","","","","","","","","","","","","",""
"","do_trial","260","842936","0.0-135.0-3.0","1496.2999999523163","","","","","","","","49","0,0,0","6","blank","349","null","0.2683951007992738","0.5756097306898927","0.17948882532238872","0","","","","","","","",""
"","html-keyboard-response","261","843940","0.0-135.0-4.0","null","<p></p>","null","","","","","","","","","","","","","","","","","","","","","","",""
"","do_trial","262","847542","0.0-136.0-0.0","1039.0999999046326","","","","","","","","51","1,1,1","6","blank","350","null","0.3453951612034696","0.6210653759792973","0.2567608138367974","1","","","","","","","",""
"","html-keyboard-response","263","848548","0.0-136.0-1.0","null","<p></p>","null","","","","","","","","","","","","","","","","","","","","","","",""
"","do_trial","264","851117","0.0-137.0-0.0","0.10000002384185791","","","","","","","","50","0,1,0","6","blank","351","null","0.24993237636147","0.6062735675148612","0.12774620244563345","1","","","","","","","",""
"","html-keyboard-response","265","852120","0.0-137.0-1.0","null","<p></p>","null","","","","","","","","","","","","","","","","","","","","","","",""
"","do_recog","266","855857","0.0-138.0-0.0","2227.899999976158","","","","","","","","53","","","","352","probe-77","","","","","1","[object Object]","83","2","1","","",""
"","html-keyboard-response","267","856859","0.0-138.0-1.0","null","<p></p>","null","","","","","","","","","","","","","","","","","","","","","","",""
"","do_trial","268","859661","0.0-139.0-0.0","239.19999992847443","","","","","","","","50","0,0,0","6","blank","353","null","0.307633371123176","0.6999572770012471","0.07771343685639982","0","","","","","","","",""
"","html-keyboard-response","269","860666","0.0-139.0-1.0","null","<p></p>","null","","","","","","","","","","","","","","","","","","","","","","",""
"","do_recog","270","863974","0.0-140.0-0.0","1798.3999999761581","","","","","","","","53","","","","354","probe-88","","","","","1","[object Object]","40","1","1","","",""
"","html-keyboard-response","271","864978","0.0-140.0-1.0","null","<p></p>","null","","","","","","","","","","","","","","","","","","","","","","",""
"","do_trial","272","867542","0.0-141.0-0.0","0.2999999523162842","","","","","","","","49","0,0,1","6","blank","355","null","0.36602198616208387","0.6802495893723186","0.28845472160480934","0","","","","","","","",""
"","html-keyboard-response","273","868546","0.0-141.0-1.0","null","<p></p>","null","","","","","","","","","","","","","","","","","","","","","","",""
"","do_trial","274","871316","0.0-142.0-0.0","211.59999990463257","","","","","","","","51","1,0,0","6","blank","356","null","0.36926230278908456","0.6187631243930284","0.21408967384313995","0","","","","","","","",""
"","html-keyboard-response","275","872319","0.0-142.0-1.0","null","<p></p>","null","","","","","","","","","","","","","","","","","","","","","","",""
"","do_trial","276","875066","0.0-143.0-0.0","180.70000004768372","","","","","","","","50","0,0,0","6","blank","357","null","0.3264265055193855","0.716224484159022","0.26665572156941125","0","","","","","","","",""
"","html-keyboard-response","277","876068","0.0-143.0-1.0","null","<p></p>","null","","","","","","","","","","","","","","","","","","","","","","",""
"","do_trial","278","878669","0.0-144.0-0.0","38.800000071525574","","","","","","","","51","0,0,0","6","blank","358","null","0.31467488844893315","0.449222861002727","0.13902575184000265","0","","","","","","","",""
"","html-keyboard-response","279","879672","0.0-144.0-1.0","null","<p></p>","null","","","","","","","","","","","","","","","","","","","","","","",""
"","do_trial","280","882691","0.0-145.0-0.0","458.2999999523163","","","","","","","","51","0,1,0","6","blank","359","null","0.4150598746237105","0.39652517744207283","0.18237026040385992","0","","","","","","","",""
"","html-keyboard-response","281","883696","0.0-145.0-1.0","null","<p></p>","null","","","","","","","","","","","","","","","","","","","","","","",""
"","do_trial","282","886689","0.0-146.0-0.0","431.39999997615814","","","","","","","","49","1,1,0","6","blank","360","null","0.3623363082871218","0.5639812307110033","0.08936351954665099","1","","","","","","","",""
"","html-keyboard-response","283","887696","0.0-146.0-1.0","null","<p></p>","null","","","","","","","","","","","","","","","","","","","","","","",""
"","do_recog","284","891856","0.0-147.0-0.0","2650.399999976158","","","","","","","","55","","","","361","probe-120","","","","","1","[object Object]","201","5","0","","",""
"","html-keyboard-response","285","892861","0.0-147.0-1.0","null","<p></p>","null","","","","","","","","","","","","","","","","","","","","","","",""
"","do_trial","286","896820","0.0-148.0-0.0","1396.2000000476837","","","","","","","","50","1,0,0","6","blank","362","null","0.36406534195501133","0.5580702159435376","0.17553987140423505","0","","","","","","","",""
"","html-keyboard-response","287","897825","0.0-148.0-1.0","null","<p></p>","null","","","","","","","","","","","","","","","","","","","","","","",""
"","do_recog","288","901141","0.0-149.0-0.0","1804.5","","","","","","","","53","","","","363","probe-208","","","","","1","[object Object]","47","1","1","","",""
"","html-keyboard-response","289","902144","0.0-149.0-1.0","null","<p></p>","null","","","","","","","","","","","","","","","","","","","","","","",""
"","do_trial","290","905411","0.0-150.0-0.0","705.1000000238419","","","","","","","","50","0,1,0","6","blank","364","null","0.4135987880744715","0.7347769597411972","0.1683882360053294","1","","","","","","","",""
"","html-keyboard-response","291","906417","0.0-150.0-1.0","null","<p></p>","null","","","","","","","","","","","","","","","","","","","","","","",""
"","do_recog","292","909639","0.0-151.0-0.0","1708.9000000953674","","","","","","","","53","","","","365","probe-47","","","","","1","[object Object]","167","4","1","","",""
"","html-keyboard-response","293","910642","0.0-151.0-1.0","null","<p></p>","null","","","","","","","","","","","","","","","","","","","","","","",""
"","do_trial","294","913453","0.0-152.0-0.0","250.70000004768372","","","","","","","","50","0,1,0","6","blank","366","null","0.5403047279392047","0.5497856514801923","0.15586574826614852","1","","","","","","","",""
"","html-keyboard-response","295","914456","0.0-152.0-1.0","null","<p></p>","null","","","","","","","","","","","","","","","","","","","","","","",""
"","do_recog","296","917973","0.0-153.0-0.0","2007.8999999761581","","","","","","","","53","","","","367","probe-94","","","","","1","[object Object]","120","3","1","","",""
"","html-keyboard-response","297","918975","0.0-153.0-1.0","null","<p></p>","null","","","","","","","","","","","","","","","","","","","","","","",""
"","do_trial","298","921638","0.0-154.0-0.0","100.20000004768372","","","","","","","","50","0,1,1","6","blank","368","null","0.5242314281229801","0.5362631582606902","0.06621137903104925","1","","","","","","","",""
"","html-keyboard-response","299","922641","0.0-154.0-1.0","null","<p></p>","null","","","","","","","","","","","","","","","","","","","","","","",""
"","do_trial","300","925204","0.0-155.0-0.0","0.10000002384185791","","","","","","","","50","1,1,0","6","blank","369","null","0.44982868526747316","0.5867163202404805","0.13259803260398279","1","","","","","","","",""
"","html-keyboard-response","301","926207","0.0-155.0-1.0","null","<p></p>","null","","","","","","","","","","","","","","","","","","","","","","",""
"","do_trial","302","929282","0.0-156.0-0.0","514.8999999761581","","","","","","","","50","0,1,0","6","blank","370","null","0.28439867838122085","0.6671622175614691","0.08761251227849179","1","","","","","","","",""
"","html-keyboard-response","303","930286","0.0-156.0-1.0","null","<p></p>","null","","","","","","","","","","","","","","","","","","","","","","",""
"","do_trial","304","933104","0.0-157.0-0.0","254.5","","","","","","","","50","1,1,0","6","blank","371","null","0.23884065218007827","0.6134759406939809","0.08581620681930041","1","","","","","","","",""
"","html-keyboard-response","305","934109","0.0-157.0-1.0","null","<p></p>","null","","","","","","","","","","","","","","","","","","","","","","",""
"","do_trial","306","936671","0.0-158.0-0.0","0.30000007152557373","","","","","","","","50","0,1,0","6","blank","372","null","0.23876664793820976","0.6959195510935758","0.10308327117955512","1","","","","","","","",""
"","html-keyboard-response","307","937674","0.0-158.0-1.0","null","<p></p>","null","","","","","","","","","","","","","","","","","","","","","","",""
"","do_recog","308","940210","0.0-159.0-0.0","1028.3999999761581","","","","","","","","53","","","","373","probe-130","","","","","1","[object Object]","162","4","1","","",""
"","html-keyboard-response","309","941213","0.0-159.0-1.0","null","<p></p>","null","","","","","","","","","","","","","","","","","","","","","","",""
"","do_trial","310","944339","0.0-160.0-0.0","566.6000000238419","","","","","","","","50","0,1,0","6","blank","374","null","0.21762079898004477","0.6163306552750727","0.0979752881340607","1","","","","","","","",""
"","html-keyboard-response","311","945341","0.0-160.0-1.0","null","<p></p>","null","","","","","","","","","","","","","","","","","","","","","","",""
"","do_recog","312","947896","0.0-161.0-0.0","1043.7000000476837","","","","","","","","53","","","","375","probe-35","","","","","1","[object Object]","89","2","1","","",""
"","html-keyboard-response","313","948898","0.0-161.0-1.0","null","<p></p>","null","","","","","","","","","","","","","","","","","","","","","","",""
"","do_trial","314","951904","0.0-162.0-0.0","444.5","","","","","","","","50","1,0,0","6","blank","376","null","0.20367775091204052","0.7111112322467829","0.06647805637443846","0","","","","","","","",""
"","html-keyboard-response","315","952909","0.0-162.0-1.0","null","<p></p>","null","","","","","","","","","","","","","","","","","","","","","","",""
"","do_trial","316","955886","0.0-163.0-0.0","414.59999990463257","","","","","","","","49","1,1,0","6","blank","377","null","0.22753172617251527","0.6370857446531951","0.12637755842175413","1","","","","","","","",""
"","html-keyboard-response","317","956891","0.0-163.0-1.0","null","<p></p>","null","","","","","","","","","","","","","","","","","","","","","","",""
"","do_trial","318","959818","0.0-164.0-0.0","365.7000000476837","","","","","","","","49","0,1,0","6","blank","378","null","0.17004800052781577","0.7369533479853592","0.05053368977537821","0","","","","","","","",""
"","html-keyboard-response","319","960825","0.0-164.0-1.0","null","<p></p>","null","","","","","","","","","","","","","","","","","","","","","","",""
"","do_recog","320","963786","0.0-165.0-0.0","1450.7999999523163","","","","","","","","53","","","","379","probe-175","","","","","1","[object Object]","122","3","1","","",""
"","html-keyboard-response","321","964788","0.0-165.0-1.0","null","<p></p>","null","","","","","","","","","","","","","","","","","","","","","","",""
"","do_trial","322","967630","0.0-166.0-0.0","281.6999999284744","","","","","","","","51","1,1,0","6","blank","380","null","0.38941918457787644","0.7742406593694244","0.13468847928382474","0","","","","","","","",""
"","html-keyboard-response","323","968635","0.0-166.0-1.0","null","<p></p>","null","","","","","","","","","","","","","","","","","","","","","","",""
"","do_trial","324","971985","0.0-167.0-0.0","770.7999999523163","","","","","","","","50","1,1,1","6","blank","381","null","0.3674127200339094","0.7444756743110239","0.13260650154270923","1","","","","","","","",""
"","html-keyboard-response","325","972991","0.0-167.0-1.0","null","<p></p>","null","","","","","","","","","","","","","","","","","","","","","","",""
"","do_trial","326","975908","0.0-168.0-0.0","353.39999997615814","","","","","","","","50","1,1,0","6","blank","382","null","0.21982753692652843","0.48935639902904166","0.1407137316235816","1","","","","","","","",""
"","html-keyboard-response","327","976911","0.0-168.0-1.0","null","<p></p>","null","","","","","","","","","","","","","","","","","","","","","","",""
"","do_trial","328","980132","0.0-169.0-0.0","659.8999999761581","","","","","","","","50","0,1,0","6","blank","383","null","0.29823762235674517","0.45405615367677066","0.21381833218744334","1","","","","","","","",""
"","html-keyboard-response","329","981138","0.0-169.0-1.0","null","<p></p>","null","","","","","","","","","","","","","","","","","","","","","","",""
"","do_recog","330","984294","0.0-170.0-0.0","1642.7000000476837","","","","","","","","53","","","","384","probe-111","","","","","1","[object Object]","161","4","1","","",""
"","html-keyboard-response","331","985297","0.0-170.0-1.0","null","<p></p>","null","","","","","","","","","","","","","","","","","","","","","","",""
"","do_trial","332","988440","0.0-171.0-0.0","582.8000000715256","","","","","","","","50","0,1,0","6","blank","385","null","0.31027695052985277","0.4855227769786653","0.22485839166174593","1","","","","","","","",""
"","html-keyboard-response","333","989443","0.0-171.0-1.0","null","<p></p>","null","","","","","","","","","","","","","","","","","","","","","","",""
"","do_recog","334","991061","0.0-172.0-0.0","108.5","","","","","","","","53","","","","386","probe-212","","","","","1","[object Object]","204","5","1","","",""
"","html-keyboard-response","335","992063","0.0-172.0-1.0","null","<p></p>","null","","","","","","","","","","","","","","","","","","","","","","",""
"","do_trial","336","995230","0.0-173.0-0.0","607","","","","","","","","50","0,1,0","6","blank","387","null","0.2707688394491528","0.49285490561628587","0.29005478628862874","1","","","","","","","",""
"","html-keyboard-response","337","996234","0.0-173.0-1.0","null","<p></p>","null","","","","","","","","","","","","","","","","","","","","","","",""
"","do_trial","338","998798","0.0-174.0-0.0","2","","","","","","","","50","0,0,1","6","blank","388","null","0.28635027303835886","0.4934222954747061","0.3272999385485001","0","","","","","","","",""
"","html-keyboard-response","339","999802","0.0-174.0-1.0","null","<p></p>","null","","","","","","","","","","","","","","","","","","","","","","",""
"","break","340","1001666","0.0-174.0-2.0","1862.1999999284744","<div class='center'><p>Time to take a quick break! You have 2 minutes to rest, but you can move on sooner if you'd like.</p><p> Press the <b>space bar</b> to continue.</p></div>","32","","","","","","","","","","","","","","","","","","","","","","",""
"","do_trial","341","1005391","0.0-174.0-3.0","1164.6000000238419","","","","","","","","50","0,1,1","6","blank","389","null","0.5042213344791912","0.5596060522387324","0.32697310521866013","1","","","","","","","",""
"","html-keyboard-response","342","1006397","0.0-174.0-4.0","null","<p></p>","null","","","","","","","","","","","","","","","","","","","","","","",""
"","do_recog","343","1008036","0.0-175.0-0.0","130.20000004768372","","","","","","","","53","","","","390","probe-163","","","","","1","[object Object]","165","4","1","","",""
"","html-keyboard-response","344","1009041","0.0-175.0-1.0","null","<p></p>","null","","","","","","","","","","","","","","","","","","","","","","",""
"","do_trial","345","1011934","0.0-176.0-0.0","331.60000002384186","","","","","","","","50","0,0,1","6","blank","391","null","0.23651427882099174","0.6638406220242911","0.23997438816944106","0","","","","","","","",""
"","html-keyboard-response","346","1012936","0.0-176.0-1.0","null","<p></p>","null","","","","","","","","","","","","","","","","","","","","","","",""
"","do_trial","347","1015835","0.0-177.0-0.0","338.5","","","","","","","","50","1,1,1","6","blank","392","null","0.3167639596291377","0.7348870723068106","0.10477740636756937","1","","","","","","","",""
"","html-keyboard-response","348","1016838","0.0-177.0-1.0","null","<p></p>","null","","","","","","","","","","","","","","","","","","","","","","",""
"","do_trial","349","1019567","0.0-178.0-0.0","167","","","","","","","","50","0,1,0","6","blank","393","null","0.3262672923821041","0.6111406662611618","0.06210911739015619","1","","","","","","","",""
"","html-keyboard-response","350","1020572","0.0-178.0-1.0","null","<p></p>","null","","","","","","","","","","","","","","","","","","","","","","",""
"","do_trial","351","1023135","0.0-179.0-0.0","0.3999999761581421","","","","","","","","50","1,0,0","6","blank","394","null","0.3469662854731446","0.7060480390427519","0.07850622202876742","0","","","","","","","",""
"","html-keyboard-response","352","1024139","0.0-179.0-1.0","null","<p></p>","null","","","","","","","","","","","","","","","","","","","","","","",""
"","do_recog","353","1025895","0.0-180.0-0.0","246.5","","","","","","","","53","","","","395","probe-165","","","","","1","[object Object]","126","3","1","","",""
"","html-keyboard-response","354","1026898","0.0-180.0-1.0","null","<p></p>","null","","","","","","","","","","","","","","","","","","","","","","",""
"","do_trial","355","1030136","0.0-181.0-0.0","678.5","","","","","","","","50","0,1,0","6","blank","396","null","0.22910295261494884","0.5340349561244871","0.17573738692160298","1","","","","","","","",""
"","html-keyboard-response","356","1031142","0.0-181.0-1.0","null","<p></p>","null","","","","","","","","","","","","","","","","","","","","","","",""
"","do_trial","357","1034254","0.0-182.0-0.0","551","","","","","","","","50","0,0,0","6","blank","397","null","0.13324525495603623","0.5126381092735374","0.16537058285705267","0","","","","","","","",""
"","html-keyboard-response","358","1035258","0.0-182.0-1.0","null","<p></p>","null","","","","","","","","","","","","","","","","","","","","","","",""
"","do_trial","359","1037830","0.0-183.0-0.0","11.5","","","","","","","","50","0,1,0","6","blank","398","null","0.16063070767051577","0.4704278536808242","0.09852253321766088","1","","","","","","","",""
"","html-keyboard-response","360","1038833","0.0-183.0-1.0","null","<p></p>","null","","","","","","","","","","","","","","","","","","","","","","",""
"","do_recog","361","1040379","0.0-184.0-0.0","36.39999997615814","","","","","","","","53","","","","399","probe-185","","","","","1","[object Object]","45","1","1","","",""
"","html-keyboard-response","362","1041381","0.0-184.0-1.0","null","<p></p>","null","","","","","","","","","","","","","","","","","","","","","","",""
"","do_trial","363","1044018","0.0-185.0-0.0","79.39999997615814","","","","","","","","50","0,0,0","6","blank","400","null","0.18338100743862445","0.29413832005109414","0.14248433855867798","0","","","","","","","",""
"","html-keyboard-response","364","1045021","0.0-185.0-1.0","null","<p></p>","null","","","","","","","","","","","","","","","","","","","","","","",""
"","do_trial","365","1047651","0.0-186.0-0.0","65.5","","","","","","","","50","0,0,0","6","blank","401","null","0.3310517151079951","0.25263144239766017","0.10689862413777589","0","","","","","","","",""
"","html-keyboard-response","366","1048656","0.0-186.0-1.0","null","<p></p>","null","","","","","","","","","","","","","","","","","","","","","","",""
"","do_trial","367","1051250","0.0-187.0-0.0","32.40000009536743","","","","","","","","50","0,0,0","6","blank","402","null","0.48116673984372116","0.33632155380589385","0.2769810573691148","0","","","","","","","",""
"","html-keyboard-response","368","1052253","0.0-187.0-1.0","null","<p></p>","null","","","","","","","","","","","","","","","","","","","","","","",""
"","do_trial","369","1054850","0.0-188.0-0.0","35","","","","","","","","49","0,0,0","6","blank","403","null","0.43658174617587114","0.3945440561604226","0.368513507316586","0","","","","","","","",""
"","html-keyboard-response","370","1055851","0.0-188.0-1.0","null","<p></p>","null","","","","","","","","","","","","","","","","","","","","","","",""
"","do_recog","371","1057657","0.0-189.0-0.0","297.10000002384186","","","","","","","","53","","","","404","probe-228","","","","","1","[object Object]","84","2","1","","",""
"","html-keyboard-response","372","1058660","0.0-189.0-1.0","null","<p></p>","null","","","","","","","","","","","","","","","","","","","","","","",""
"","do_trial","373","1061343","0.0-190.0-0.0","122.30000007152557","","","","","","","","51","0,0,0","6","blank","405","null","0.5262262459692677","0.33736081858670164","0.38947663316911757","0","","","","","","","",""
"","html-keyboard-response","374","1062345","0.0-190.0-1.0","null","<p></p>","null","","","","","","","","","","","","","","","","","","","","","","",""
"","do_trial","375","1065015","0.0-191.0-0.0","103.79999995231628","","","","","","","","50","1,0,0","6","blank","406","null","0.5805110781999939","0.21400084736478187","0.3525716283280007","0","","","","","","","",""
"","html-keyboard-response","376","1066017","0.0-191.0-1.0","null","<p></p>","null","","","","","","","","","","","","","","","","","","","","","","",""
"","do_trial","377","1068910","0.0-192.0-0.0","309.89999997615814","","","","","","","","50","1,0,0","6","blank","407","null","0.4992903644081831","0.06845033850437826","0.4487674110206493","0","","","","","","","",""
"","html-keyboard-response","378","1069915","0.0-192.0-1.0","null","<p></p>","null","","","","","","","","","","","","","","","","","","","","","","",""
"","do_trial","379","1072463","0.0-193.0-0.0","0.10000002384185791","","","","","","","","50","1,0,0","6","blank","408","null","0.541692950757632","0.14242172555884114","0.4119536531843436","0","","","","","","","",""
"","html-keyboard-response","380","1073465","0.0-193.0-1.0","null","<p></p>","null","","","","","","","","","","","","","","","","","","","","","","",""
"","do_trial","381","1076032","0.0-194.0-0.0","0.19999992847442627","","","","","","","","51","1,1,0","6","blank","409","null","0.5311381229467107","0.22991518352455426","0.4248846531509916","0","","","","","","","",""
"","html-keyboard-response","382","1077034","0.0-194.0-1.0","null","<p></p>","null","","","","","","","","","","","","","","","","","","","","","","",""
"","do_recog","383","1078740","0.0-195.0-0.0","197.60000002384186","","","","","","","","53","","","","410","probe-202","","","","","1","[object Object]","127","3","1","","",""
"","html-keyboard-response","384","1079742","0.0-195.0-1.0","null","<p></p>","null","","","","","","","","","","","","","","","","","","","","","","",""
"","do_trial","385","1082473","0.0-196.0-0.0","164.60000002384186","","","","","","","","50","1,0,1","6","blank","411","null","0.7372869564709129","0.19851974698727382","0.3176930300013234","0","","","","","","","",""
"","html-keyboard-response","386","1083478","0.0-196.0-1.0","null","<p></p>","null","","","","","","","","","","","","","","","","","","","","","","",""
"","do_trial","387","1086157","0.0-197.0-0.0","111.59999990463257","","","","","","","","49","1,0,0","6","blank","412","null","0.6962375118155945","0.06524358971734469","0.4028064883825988","1","","","","","","","",""
"","html-keyboard-response","388","1087159","0.0-197.0-1.0","null","<p></p>","null","","","","","","","","","","","","","","","","","","","","","","",""
"","do_trial","389","1089947","0.0-198.0-0.0","217","","","","","","","","49","0,0,0","6","blank","413","null","0.4354033304990434","0.12436927155253727","0.30456487968175244","0","","","","","","","",""
"","html-keyboard-response","390","1090949","0.0-198.0-1.0","null","<p></p>","null","","","","","","","","","","","","","","","","","","","","","","",""
"","do_trial","391","1094267","0.0-199.0-0.0","750.7999999523163","","","","","","","","49","1,0,0","6","blank","414","null","0.4115011298261048","0.2068349989648755","0.32640440137360266","1","","","","","","","",""
"","html-keyboard-response","392","1095270","0.0-199.0-1.0","null","<p></p>","null","","","","","","","","","","","","","","","","","","","","","","",""
"","do_trial","393","1097868","0.0-200.0-0.0","35.200000047683716","","","","","","","","49","1,0,0","6","blank","415","null","0.6696781112305064","0.1579682001289441","0.09015495382310697","1","","","","","","","",""
"","html-keyboard-response","394","1098877","0.0-200.0-1.0","null","<p></p>","null","","","","","","","","","","","","","","","","","","","","","","",""
"","do_trial","395","1101699","0.0-201.0-0.0","254","","","","","","","","49","0,0,0","6","blank","416","null","0.7114856554841233","0.054571713774346886","0.1781248656692932","0","","","","","","","",""
"","html-keyboard-response","396","1102703","0.0-201.0-1.0","null","<p></p>","null","","","","","","","","","","","","","","","","","","","","","","",""
"","do_recog","397","1104376","0.0-202.0-0.0","164.20000004768372","","","","","","","","53","","","","417","probe-214","","","","","1","[object Object]","49","1","1","","",""
"","html-keyboard-response","398","1105378","0.0-202.0-1.0","null","<p></p>","null","","","","","","","","","","","","","","","","","","","","","","",""
"","do_trial","399","1108121","0.0-203.0-0.0","177","","","","","","","","49","1,0,1","6","blank","418","null","0.6968537898754784","0.08841316960566242","0.22921314748366015","1","","","","","","","",""
"","html-keyboard-response","400","1109123","0.0-203.0-1.0","null","<p></p>","null","","","","","","","","","","","","","","","","","","","","","","",""
"","do_trial","401","1113611","0.0-204.0-0.0","1919.6999999284744","","","","","","","","49","1,0,1","6","blank","419","null","0.6052302639652312","0.07585762442101486","0.2826899647087467","1","","","","","","","",""
"","html-keyboard-response","402","1114613","0.0-204.0-1.0","null","<p></p>","null","","","","","","","","","","","","","","","","","","","","","","",""
"","do_trial","403","1117525","0.0-205.0-0.0","350.60000002384186","","","","","","","","49","0,0,0","6","blank","420","null","0.6466492461400323","0.16124357969974365","0.09802909505504229","0","","","","","","","",""
"","html-keyboard-response","404","1118527","0.0-205.0-1.0","null","<p></p>","null","","","","","","","","","","","","","","","","","","","","","","",""
"","do_trial","405","1121369","0.0-206.0-0.0","274","","","","","","","","49","1,1,1","6","blank","421","null","0.5327725730410946","0.11182425184316923","0.16762864516103093","1","","","","","","","",""
"","html-keyboard-response","406","1122371","0.0-206.0-1.0","null","<p></p>","null","","","","","","","","","","","","","","","","","","","","","","",""
"","do_recog","407","1124064","0.0-207.0-0.0","184.89999997615814","","","","","","","","53","","","","422","probe-52","","","","","1","[object Object]","82","2","1","","",""
"","html-keyboard-response","408","1125066","0.0-207.0-1.0","null","<p></p>","null","","","","","","","","","","","","","","","","","","","","","","",""
"","do_trial","409","1129265","0.0-208.0-0.0","1640","","","","","","","","49","1,1,1","6","blank","423","null","0.5840356228350636","0.26525486267443865","0.249438298371138","1","","","","","","","",""
"","html-keyboard-response","410","1130269","0.0-208.0-1.0","null","<p></p>","null","","","","","","","","","","","","","","","","","","","","","","",""
"","do_recog","411","1131875","0.0-209.0-0.0","94.10000002384186","","","","","","","","53","","","","424","probe-190","","","","","1","[object Object]","124","3","1","","",""
"","html-keyboard-response","412","1132878","0.0-209.0-1.0","null","<p></p>","null","","","","","","","","","","","","","","","","","","","","","","",""
"","do_trial","413","1135661","0.0-210.0-0.0","223.80000007152557","","","","","","","","49","1,0,0","6","blank","425","null","0.5308356163619026","0.22944896860971867","0.23286408820284688","1","","","","","","","",""
"","html-keyboard-response","414","1136665","0.0-210.0-1.0","null","<p></p>","null","","","","","","","","","","","","","","","","","","","","","","",""
"","do_trial","415","1139430","0.0-211.0-0.0","227.30000007152557","","","","","","","","49","0,0,1","6","blank","426","null","0.5307191836285252","0.14482267132800503","0.2786674496925795","0","","","","","","","",""
"","html-keyboard-response","416","1140432","0.0-211.0-1.0","null","<p></p>","null","","","","","","","","","","","","","","","","","","","","","","",""
"","do_trial","417","1143054","0.0-212.0-0.0","87.39999997615814","","","","","","","","49","0,0,1","6","blank","427","null","0.36457679349626687","0.1766121610085153","0.38324573718766913","0","","","","","","","",""
"","html-keyboard-response","418","1144058","0.0-212.0-1.0","null","<p></p>","null","","","","","","","","","","","","","","","","","","","","","","",""
"","break","419","1145222","0.0-213.0-0.0","1163","<div class='center'><p>Time to take a quick break! You have 2 minutes to rest, but you can move on sooner if you'd like.</p><p> Press the <b>space bar</b> to continue.</p></div>","32","","","","","","","","","","","","","","","","","","","","","","",""
"","do_recog","420","1147168","0.0-213.0-1.0","438.89999997615814","","","","","","","","53","","","","428","probe-46","","","","","1","[object Object]","86","2","1","","",""
"","html-keyboard-response","421","1148170","0.0-213.0-2.0","null","<p></p>","null","","","","","","","","","","","","","","","","","","","","","","",""
"","do_trial","422","1150988","0.0-214.0-0.0","258.5","","","","","","","","49","1,0,0","6","blank","429","null","0.5265413756125277","0.09101886662183009","0.3077208652795206","1","","","","","","","",""
"","html-keyboard-response","423","1151994","0.0-214.0-1.0","null","<p></p>","null","","","","","","","","","","","","","","","","","","","","","","",""
"","do_recog","424","1153739","0.0-215.0-0.0","234.19999992847443","","","","","","","","53","","","","430","probe-171","","","","","1","[object Object]","81","2","1","","",""
"","html-keyboard-response","425","1154742","0.0-215.0-1.0","null","<p></p>","null","","","","","","","","","","","","","","","","","","","","","","",""
"","do_trial","426","1157674","0.0-216.0-0.0","368.7999999523163","","","","","","","","49","0,0,0","6","blank","431","null","0.5981023216408973","0.05577471337909218","0.27620653856980254","0","","","","","","","",""
"","html-keyboard-response","427","1158676","0.0-216.0-1.0","null","<p></p>","null","","","","","","","","","","","","","","","","","","","","","","",""
"","do_trial","428","1161324","0.0-217.0-0.0","75.5","","","","","","","","49","0,0,0","6","blank","432","null","0.5994318536523926","0.057824166548708186","0.27059295914124504","0","","","","","","","",""
"","html-keyboard-response","429","1162330","0.0-217.0-1.0","null","<p></p>","null","","","","","","","","","","","","","","","","","","","","","","",""
"","do_trial","430","1165068","0.0-218.0-0.0","174.60000002384186","","","","","","","","49","1,1,0","6","blank","433","null","0.7577977367524196","0.29262036287759835","0.25532998450609307","1","","","","","","","",""
"","html-keyboard-response","431","1166071","0.0-218.0-1.0","null","<p></p>","null","","","","","","","","","","","","","","","","","","","","","","",""
"","do_trial","432","1169956","0.0-219.0-0.0","1321.2999999523163","","","","","","","","49","1,0,0","6","blank","434","null","0.7525283349130122","0.14162472731550796","0.1941897402174517","1","","","","","","","",""
"","html-keyboard-response","433","1170960","0.0-219.0-1.0","null","<p></p>","null","","","","","","","","","","","","","","","","","","","","","","",""
"","do_recog","434","1173202","0.0-220.0-0.0","731.6999999284744","","","","","","","","53","","","","435","probe-222","","","","","1","[object Object]","200","5","1","","",""
"","html-keyboard-response","435","1174204","0.0-220.0-1.0","null","<p></p>","null","","","","","","","","","","","","","","","","","","","","","","",""
"","do_trial","436","1178818","0.0-221.0-0.0","2046.7000000476837","","","","","","","","49","1,0,1","6","blank","436","null","0.7937483704208915","0.24241200002165322","0.16677333285022655","1","","","","","","","",""
"","html-keyboard-response","437","1179825","0.0-221.0-1.0","null","<p></p>","null","","","","","","","","","","","","","","","","","","","","","","",""
"","do_trial","438","1183852","0.0-222.0-0.0","1459","","","","","","","","49","1,0,1","6","blank","437","null","0.8097830176966098","0.15326179041600246","0.10397731488125656","1","","","","","","","",""
"","html-keyboard-response","439","1184857","0.0-222.0-1.0","null","<p></p>","null","","","","","","","","","","","","","","","","","","","","","","",""
"","do_trial","440","1187796","0.0-223.0-0.0","379.09999990463257","","","","","","","","49","1,1,1","6","blank","438","null","0.7459172981641514","0.20640523882738912","0.43172588315848487","1","","","","","","","",""
"","html-keyboard-response","441","1188801","0.0-223.0-1.0","null","<p></p>","null","","","","","","","","","","","","","","","","","","","","","","",""
"","do_recog","442","1190651","0.0-224.0-0.0","339.39999997615814","","","","","","","","53","","","","439","probe-95","","","","","1","[object Object]","209","5","1","","",""
"","html-keyboard-response","443","1191655","0.0-224.0-1.0","null","<p></p>","null","","","","","","","","","","","","","","","","","","","","","","",""
"","do_trial","444","1194760","0.0-225.0-0.0","540.7999999523163","","","","","","","","49","0,0,0","6","blank","440","null","0.5718208150251182","0.13891946564931465","0.3236317350936113","0","","","","","","","",""
"","html-keyboard-response","445","1195769","0.0-225.0-1.0","null","<p></p>","null","","","","","","","","","","","","","","","","","","","","","","",""
"","do_trial","446","1198677","0.0-226.0-0.0","346.8000000715256","","","","","","","","49","1,0,0","6","blank","441","null","0.47467420026895","0.10507157460034612","0.33993803239647086","1","","","","","","","",""
"","html-keyboard-response","447","1199682","0.0-226.0-1.0","null","<p></p>","null","","","","","","","","","","","","","","","","","","","","","","",""
"","do_trial","448","1202726","0.0-227.0-0.0","481.10000002384186","","","","","","","","49","0,0,0","6","blank","442","null","0.5686962020467188","0.06816736799854833","0.27044582566868886","0","","","","","","","",""
"","html-keyboard-response","449","1203733","0.0-227.0-1.0","null","<p></p>","null","","","","","","","","","","","","","","","","","","","","","","",""
"","do_trial","450","1206627","0.0-228.0-0.0","318.89999997615814","","","","","","","","49","1,0,0","6","blank","443","null","0.4760799821437184","0.16266770277538206","0.3145646939326907","1","","","","","","","",""
"","html-keyboard-response","451","1207631","0.0-228.0-1.0","null","<p></p>","null","","","","","","","","","","","","","","","","","","","","","","",""
"","do_trial","452","1210230","0.0-229.0-0.0","38.89999997615814","","","","","","","","49","0,0,1","6","blank","444","null","0.48163614185662496","0.06238781277266091","0.3366220675292732","0","","","","","","","",""
"","html-keyboard-response","453","1211234","0.0-229.0-1.0","null","<p></p>","null","","","","","","","","","","","","","","","","","","","","","","",""
"","do_recog","454","1213646","0.0-230.0-0.0","901.1999999284744","","","","","","","","53","","","","445","probe-159","","","","","1","[object Object]","121","3","1","","",""
"","html-keyboard-response","455","1214651","0.0-230.0-1.0","null","<p></p>","null","","","","","","","","","","","","","","","","","","","","","","",""
"","do_trial","456","1217275","0.0-231.0-0.0","60.5","","","","","","","","49","1,1,1","6","blank","446","null","0.5973172032081487","0.14778325412233084","0.17533229923834123","1","","","","","","","",""
"","html-keyboard-response","457","1218281","0.0-231.0-1.0","null","<p></p>","null","","","","","","","","","","","","","","","","","","","","","","",""
"","do_trial","458","1221443","0.0-232.0-0.0","600.1999999284744","","","","","","","","49","1,1,0","6","blank","447","null","0.6005744798147592","0.21028621838424008","0.27046113228685204","1","","","","","","","",""
"","html-keyboard-response","459","1222450","0.0-232.0-1.0","null","<p></p>","null","","","","","","","","","","","","","","","","","","","","","","",""
"","do_recog","460","1224722","0.0-233.0-0.0","762.2000000476837","","","","","","","","53","","","","448","probe-232","","","","","0","[object Object]","null","null","0","","",""
"","html-keyboard-response","461","1225726","0.0-233.0-1.0","null","<p></p>","null","","","","","","","","","","","","","","","","","","","","","","",""
"","do_trial","462","1228449","0.0-234.0-0.0","159.89999997615814","","","","","","","","49","0,0,0","6","blank","449","null","0.6797762854481961","0.17993047695427394","0.11581315962358722","0","","","","","","","",""
"","html-keyboard-response","463","1229451","0.0-234.0-1.0","null","<p></p>","null","","","","","","","","","","","","","","","","","","","","","","",""
"","do_recog","464","1232357","0.0-235.0-0.0","1394.3000000715256","","","","","","","","53","","","","450","probe-233","","","","","0","[object Object]","null","null","0","","",""
"","html-keyboard-response","465","1233359","0.0-235.0-1.0","null","<p></p>","null","","","","","","","","","","","","","","","","","","","","","","",""
"","do_trial","466","1237275","0.0-236.0-0.0","1351.8999999761581","","","","","","","","49","1,0,0","6","blank","451","null","0.6676674847580794","0.13168788020753855","0.11823032952339374","1","","","","","","","",""
"","html-keyboard-response","467","1238281","0.0-236.0-1.0","null","<p></p>","null","","","","","","","","","","","","","","","","","","","","","","",""
"","do_recog","468","1240993","0.0-237.0-0.0","1202.9000000953674","","","","","","","","56","","","","452","probe-250","","","","","0","[object Object]","null","null","1","","",""
"","html-keyboard-response","469","1241996","0.0-237.0-1.0","null","<p></p>","null","","","","","","","","","","","","","","","","","","","","","","",""
"","do_trial","470","1244560","0.0-238.0-0.0","0.7999999523162842","","","","","","","","49","0,0,0","6","blank","453","null","0.7141474510081963","0.26952393457661655","0.18762901138184035","0","","","","","","","",""
"","html-keyboard-response","471","1245563","0.0-238.0-1.0","null","<p></p>","null","","","","","","","","","","","","","","","","","","","","","","",""
"","do_trial","472","1248325","0.0-239.0-0.0","201.40000009536743","","","","","","","","49","1,0,0","6","blank","454","null","0.4559542090046178","0.18830056335584935","0.4407719005168289","1","","","","","","","",""
"","html-keyboard-response","473","1249327","0.0-239.0-1.0","null","<p></p>","null","","","","","","","","","","","","","","","","","","","","","","",""
"","do_trial","474","1251992","0.0-240.0-0.0","103.59999990463257","","","","","","","","49","0,0,0","6","blank","455","null","0.3603335587440726","0.2861668318438485","0.6025191084505032","0","","","","","","","",""
"","html-keyboard-response","475","1252995","0.0-240.0-1.0","null","<p></p>","null","","","","","","","","","","","","","","","","","","","","","","",""
"","do_trial","476","1255663","0.0-241.0-0.0","102","","","","","","","","49","0,0,0","6","blank","456","null","0.19086495223989516","0.25230071450956953","0.5795597415500232","0","","","","","","","",""
"","html-keyboard-response","477","1256665","0.0-241.0-1.0","null","<p></p>","null","","","","","","","","","","","","","","","","","","","","","","",""
"","do_trial","478","1259236","0.0-242.0-0.0","0.6000000238418579","","","","","","","","49","0,0,1","6","blank","457","null","0.1520169115273717","0.2715779026182375","0.5953742957171834","0","","","","","","","",""
"","html-keyboard-response","479","1260240","0.0-242.0-1.0","null","<p></p>","null","","","","","","","","","","","","","","","","","","","","","","",""
"","do_trial","480","1262982","0.0-243.0-0.0","173.69999992847443","","","","","","","","49","0,0,1","6","blank","458","null","0.19531477820587417","0.32246950646662514","0.6493499621339868","0","","","","","","","",""
"","html-keyboard-response","481","1263984","0.0-243.0-1.0","null","<p></p>","null","","","","","","","","","","","","","","","","","","","","","","",""
"","do_recog","482","1265632","0.0-244.0-0.0","141.09999990463257","","","","","","","","56","","","","459","probe-245","","","","","0","[object Object]","null","null","1","","",""
"","html-keyboard-response","483","1266635","0.0-244.0-1.0","null","<p></p>","null","","","","","","","","","","","","","","","","","","","","","","",""
"","do_trial","484","1269246","0.0-245.0-0.0","50.89999997615814","","","","","","","","49","0,0,1","6","blank","460","null","0.061284617065800066","0.27351397146424317","0.6321244538752153","0","","","","","","","",""
"","html-keyboard-response","485","1270250","0.0-245.0-1.0","null","<p></p>","null","","","","","","","","","","","","","","","","","","","","","","",""
"","do_trial","486","1272874","0.0-246.0-0.0","64.59999990463257","","","","","","","","49","1,1,0","6","blank","461","null","0.14933445971172998","0.4090788362916719","0.47986986047853886","1","","","","","","","",""
"","html-keyboard-response","487","1273877","0.0-246.0-1.0","null","<p></p>","null","","","","","","","","","","","","","","","","","","","","","","",""
"","do_recog","488","1275529","0.0-247.0-0.0","136.60000002384186","","","","","","","","56","","","","462","probe-247","","","","","0","[object Object]","null","null","1","","",""
"","html-keyboard-response","489","1276533","0.0-247.0-1.0","null","<p></p>","null","","","","","","","","","","","","","","","","","","","","","","",""
"","do_trial","490","1279103","0.0-248.0-0.0","0.30000007152557373","","","","","","","","49","0,0,1","6","blank","463","null","0.0790607953851403","0.4095409420992287","0.463681245490203","0","","","","","","","",""
"","html-keyboard-response","491","1280106","0.0-248.0-1.0","null","<p></p>","null","","","","","","","","","","","","","","","","","","","","","","",""
"","do_trial","492","1282961","0.0-249.0-0.0","295.10000002384186","","","","","","","","49","1,1,0","6","blank","464","null","0.13981893399430884","0.4406640858410004","0.47571779513070966","1","","","","","","","",""
"","html-keyboard-response","493","1283963","0.0-249.0-1.0","null","<p></p>","null","","","","","","","","","","","","","","","","","","","","","","",""
"","do_trial","494","1286531","0.0-250.0-0.0","0.20000004768371582","","","","","","","","49","0,0,1","6","blank","465","null","0.11081637079871139","0.35413695352033153","0.5497525062967981","0","","","","","","","",""
"","html-keyboard-response","495","1287535","0.0-250.0-1.0","null","<p></p>","null","","","","","","","","","","","","","","","","","","","","","","",""
"","do_trial","496","1290111","0.0-251.0-0.0","7.599999904632568","","","","","","","","49","0,0,1","6","blank","466","null","0.12250986306819948","0.3306833988991451","0.4522312601028889","0","","","","","","","",""
"","html-keyboard-response","497","1291114","0.0-251.0-1.0","null","<p></p>","null","","","","","","","","","","","","","","","","","","","","","","",""
"","break","498","1294253","0.0-252.0-0.0","3137.4000000953674","<div class='center'><p>Time to take a quick break! You have 2 minutes to rest, but you can move on sooner if you'd like.</p><p> Press the <b>space bar</b> to continue.</p></div>","32","","","","","","","","","","","","","","","","","","","","","","",""
"","do_recog","499","1296223","0.0-252.0-1.0","462.2000000476837","","","","","","","","56","","","","467","probe-248","","","","","0","[object Object]","null","null","1","","",""
"","html-keyboard-response","500","1297226","0.0-252.0-2.0","null","<p></p>","null","","","","","","","","","","","","","","","","","","","","","","",""
"","do_trial","501","1300106","0.0-253.0-0.0","318.2000000476837","","","","","","","","49","0,0,1","6","blank","468","null","0.07611675436491527","0.355737996844365","0.5036731749903562","0","","","","","","","",""
"","html-keyboard-response","502","1301111","0.0-253.0-1.0","null","<p></p>","null","","","","","","","","","","","","","","","","","","","","","","",""
"","do_recog","503","1302888","0.0-254.0-0.0","267.7999999523163","","","","","","","","56","","","","469","probe-234","","","","","0","[object Object]","null","null","1","","",""
"","html-keyboard-response","504","1303895","0.0-254.0-1.0","null","<p></p>","null","","","","","","","","","","","","","","","","","","","","","","",""
"","do_trial","505","1306641","0.0-255.0-0.0","179.5","","","","","","","","49","1,0,1","6","blank","470","null","0.21448114543054636","0.3411824413670605","0.4137767564858681","1","","","","","","","",""
"","html-keyboard-response","506","1307646","0.0-255.0-1.0","null","<p></p>","null","","","","","","","","","","","","","","","","","","","","","","",""
"","do_recog","507","1309242","0.0-256.0-0.0","85.89999997615814","","","","","","","","56","","","","471","probe-242","","","","","0","[object Object]","null","null","1","","",""
"","html-keyboard-response","508","1310246","0.0-256.0-1.0","null","<p></p>","null","","","","","","","","","","","","","","","","","","","","","","",""
"","do_trial","509","1312818","0.0-257.0-0.0","7","","","","","","","","49","0,0,0","6","blank","472","null","0.33784622328660596","0.27851700946428987","0.43923775461476666","0","","","","","","","",""
"","html-keyboard-response","510","1313821","0.0-257.0-1.0","null","<p></p>","null","","","","","","","","","","","","","","","","","","","","","","",""
"","do_recog","511","1315529","0.0-258.0-0.0","195","","","","","","","","56","","","","473","probe-251","","","","","0","[object Object]","null","null","1","","",""
"","html-keyboard-response","512","1316531","0.0-258.0-1.0","null","<p></p>","null","","","","","","","","","","","","","","","","","","","","","","",""
"","do_trial","513","1319092","0.0-259.0-0.0","0.20000004768371582","","","","","","","","49","1,0,0","6","blank","474","null","0.3348694901046731","0.37593280039782356","0.5593241183811628","1","","","","","","","",""
"","html-keyboard-response","514","1320095","0.0-259.0-1.0","null","<p></p>","null","","","","","","","","","","","","","","","","","","","","","","",""
"","do_trial","515","1322705","0.0-260.0-0.0","47.39999997615814","","","","","","","","49","0,1,1","6","blank","475","null","0.2724684992100301","0.3473743709737962","0.6284107313886279","0","","","","","","","",""
"","html-keyboard-response","516","1323708","0.0-260.0-1.0","null","<p></p>","null","","","","","","","","","","","","","","","","","","","","","","",""
