"success","trial_type","trial_index","time_elapsed","internal_node_id","interactions","blur_events","focus_events","fullscreenenter_events","fullscreenexit_events","rt","stimulus","key_press","subject_id","participant_id","age","gender","prompt","response","choice_outcomes","context_n","context_img_id","trial_n","probe_img_id","pR_red","pR_white","pR_black","outcome","is_valid","image_to_show","probed_trial","probed_context","correct","probe","probed_trial_n","probed_context_n","context_im"
"true","fullscreen","0","4258","0.0-0.0","""event"",""trial"",""time""
""fullscreenenter"",""0"",""3293""
","
","
","""event"",""trial"",""time""
""fullscreenenter"",""0"",""3293""
","
","","","","","","","","","","","","","","","","","","","","","","","","","","",""
"","pavlovia","1","4266","0.0-1.0","""event"",""trial"",""time""
""fullscreenenter"",""0"",""3293""
","
","
","""event"",""trial"",""time""
""fullscreenenter"",""0"",""3293""
","
","","","","","","","","","","","","","","","","","","","","","","","","","","",""
"","welc_back","2","14118","0.0-2.0","""event"",""trial"",""time""
""fullscreenenter"",""0"",""3293""
","
","
","""event"",""trial"",""time""
""fullscreenenter"",""0"",""3293""
","
","null","run_exp/static/audio/clip_29_welcome_back.m4a","null","409","220","19","Female","<div class='center'><p>Welcome to day 2!</p><p> Yesterday, you were the head captain of a pirate ship. You asked your fellow pirates to rob other ships of their gold across six different islands.</p></div>","","","","","","","","","","","","","","","","","","",""
"","html-keyboard-response","3","17045","0.0-3.0","""event"",""trial"",""time""
""fullscreenenter"",""0"",""3293""
","
","
","""event"",""trial"",""time""
""fullscreenenter"",""0"",""3293""
","
","2924.5","<div class='center'><p>Welcome to day 2!</p><p> Yesterday, you were the head captain of a pirate ship. You asked your fellow pirates to rob other ships of their gold across six different islands.</p><p><b>[Press the space bar to continue]</b></p></div>","32","","","","","","","","","","","","","","","","","","","","","","","",""
"","day_1_summary_goal","4","34317","0.0-4.0","""event"",""trial"",""time""
""fullscreenenter"",""0"",""3293""
","
","
","""event"",""trial"",""time""
""fullscreenenter"",""0"",""3293""
","
","null","run_exp/static/audio/clip_30_goal_of_game.m4a","null","","","","","<div class='center'><p>Today, like yesterday, you get to pick which pirate you want to rob the next ship.</p><p>If the pirate is successful in robbing a ship, you get gold coins that look like this: </p><p><img src='run_exp/static/images/tutorial/reward.png' height='150'></p><p> If they were not successful in robbing the ship, then you will get no gold coins and you'll see a big red x like this: </p><p><img src='run_exp/static/images/tutorial/reward_no.png' height='150'></p></div>","","","","","","","","","","","","","","","","","","",""
"","html-keyboard-response","5","37318","0.0-5.0","""event"",""trial"",""time""
""fullscreenenter"",""0"",""3293""
","
","
","""event"",""trial"",""time""
""fullscreenenter"",""0"",""3293""
","
","2999.1999999999825","<div class='center'><p>Today, like yesterday, you get to pick which pirate you want to rob the next ship.</p><p>If the pirate is successful in robbing a ship, you get gold coins that look like this: </p><p><img src='run_exp/static/images/tutorial/reward.png' height='150'></p><p> If they were not successful in robbing the ship, then you will get no gold coins and you'll see a big red x like this: </p><p><img src='run_exp/static/images/tutorial/reward_no.png' height='150'></p><p><b>[Press the space bar to continue]</b></p></div>","32","","","","","","","","","","","","","","","","","","","","","","","",""
"","day_1_summary_pick","6","52037","0.0-6.0","""event"",""trial"",""time""
""fullscreenenter"",""0"",""3293""
","
","
","""event"",""trial"",""time""
""fullscreenenter"",""0"",""3293""
","
","null","run_exp/static/audio/clip_31_how_to_pick_a_pirate.m4a","null","","","","","<div class='center'><p>Also, just like yesterday, you will use the 1,2,3 keys on your keyboard to pick a pirate. Press '1' to choose red beard, '2' to choose white beard, and '3' to choose black beard . You only have 3 seconds to pick a pirate, so please make a choice quickly!</p></div>","","","","","","","","","","","","","","","","","","",""
"","html-keyboard-response","7","61118","0.0-7.0","""event"",""trial"",""time""
""fullscreenenter"",""0"",""3293""
","
","
","""event"",""trial"",""time""
""fullscreenenter"",""0"",""3293""
","
","9079.399999999965","<div class='center'><p>Also, just like yesterday, you will use the 1,2,3 keys on your keyboard to pick a pirate. Press '1' to choose red beard, '2' to choose white beard, and '3' to choose black beard . You only have 3 seconds to pick a pirate, so please make a choice quickly!</p><p><b>[Press the space bar to continue]</b></p></div>","32","","","","","","","","","","","","","","","","","","","","","","","",""
"","test_phase_begin","8","91516","0.0-8.0","""event"",""trial"",""time""
""fullscreenenter"",""0"",""3293""
","
","
","""event"",""trial"",""time""
""fullscreenenter"",""0"",""3293""
","
","null","run_exp/static/audio/clip_32_final_place.m4a","null","","","","","<div class='center'><p>You’ve arrived at the final island of your journey! Unfortunately, it’s very foggy out, so you won’t be able to see it in the distance like the other islands you've visited.</p><p>You’ll still be deciding which pirate you want to rob a ship like before. However, because of the fog, you also won’t be able to see the ship.</p><p>This means you do not have to remember the ships you rob on this island.</p><p>Unlike yesterday, you won't be visiting multiple islands today. You will stay on this island for the entire game. This game will last ~30 minutes.</p></div>","","","","","","","","","","","","","","","","","","",""
"","html-keyboard-response","9","95188","0.0-9.0","""event"",""trial"",""time""
""fullscreenenter"",""0"",""3293""
","
","
","""event"",""trial"",""time""
""fullscreenenter"",""0"",""3293""
","
","3670.2000000000116","<div class='center'><p>You’ve arrived at the final island of your journey! Unfortunately, it’s very foggy out, so you won’t be able to see it in the distance like the other islands you've visited.</p><p>You’ll still be deciding which pirate you want to rob a ship like before. However, because of the fog, you also won’t be able to see the ship.</p><p>This means you do not have to remember the ships you rob on this island.</p><p>Unlike yesterday, you won't be visiting multiple islands today. You will stay on this island for the entire game. This game will last ~30 minutes.</p><p><b>[Press the space bar to continue]</b></p></div>","32","","","","","","","","","","","","","","","","","","","","","","","",""
"","explain_probe_1","10","102897","0.0-10.0","""event"",""trial"",""time""
""fullscreenenter"",""0"",""3293""
","
","
","""event"",""trial"",""time""
""fullscreenenter"",""0"",""3293""
","
","null","run_exp/static/audio/clip_33_recognition_1.m4a","null","","","","","<div class='center'><p> Sometimes you’ll be shown a ship, and you will be asked if you saw this ship on a past island.</p><p> Here is an example of what you will see.</p><p><img src='run_exp/static/images/tutorial/example_recog_trial.png' height='500'></p></div>","","","","","","","","","","","","","","","","","","",""
"","html-keyboard-response","11","104568","0.0-11.0","""event"",""trial"",""time""
""fullscreenenter"",""0"",""3293""
","
","
","""event"",""trial"",""time""
""fullscreenenter"",""0"",""3293""
","
","1669.7000000000116","<div class='center'><p> Sometimes you’ll be shown a ship, and you will be asked if you saw this ship on a past island.</p><p> Here is an example of what you will see.</p><p><img src='run_exp/static/images/tutorial/example_recog_trial.png' height='500'></p><p><b>[Press the space bar to continue]</b></p></div>","32","","","","","","","","","","","","","","","","","","","","","","","",""
"","explain_probe_2","12","126316","0.0-12.0","""event"",""trial"",""time""
""fullscreenenter"",""0"",""3293""
","
","
","""event"",""trial"",""time""
""fullscreenenter"",""0"",""3293""
","
","null","run_exp/static/audio/clip_34_recognition_2.m4a","null","","","","","<div class='center'><p> You will press the 5, 6, 7, 8 keys on your keyboard to respond.</p><p>If you are sure you saw the ship, press <b>5</b> on your keyboard.</p><p> If you think you saw it before but aren't sure, then press <b>6</b>.</p><p> If you think you have <b>not</b> seen it before but aren't sure, then press <b>7</b>.</p><p> If you are sure you did <b>not</b> see the ship before, then press <b>8</b>.</p><p><img src='run_exp/static/images/tutorial/example_recog_trial.png' height='500'></p></div>","","","","","","","","","","","","","","","","","","",""
"","html-keyboard-response","13","128456","0.0-13.0","""event"",""trial"",""time""
""fullscreenenter"",""0"",""3293""
","
","
","""event"",""trial"",""time""
""fullscreenenter"",""0"",""3293""
","
","2137.9000000000233","<div class='center'><p> You will press the 5, 6, 7, 8 keys on your keyboard to respond.</p><p>If you are sure you saw the ship, press <b>5</b> on your keyboard.</p><p> If you think you saw it before but aren't sure, then press <b>6</b>.</p><p> If you think you have <b>not</b> seen it before but aren't sure, then press <b>7</b>.</p><p> If you are sure you did <b>not</b> see the ship before, then press <b>8</b>.</p><p><img src='run_exp/static/images/tutorial/example_recog_trial.png' height='500'></p><p><b>[Press the space bar to continue]</b></p></div>","32","","","","","","","","","","","","","","","","","","","","","","","",""
"","explain_outcome","14","145656","0.0-14.0","""event"",""trial"",""time""
""fullscreenenter"",""0"",""3293""
","
","
","""event"",""trial"",""time""
""fullscreenenter"",""0"",""3293""
","
","null","run_exp/static/audio/clip_35_recognition_3.m4a","null","","","","","<div class='center'><p> If you remember correctly, then you’ll get a gold coin like this: </p><p><img src='run_exp/static/images/tutorial/reward_small.png' height='200'></p><p>If you do not remember correctly, then you'll see a red x like this: </p><p><img src='run_exp/static/images/tutorial/reward_no.png' height='200'></p><p>Importantly, when you are shown a ship, take the time to remind yourself which island you saw it on. This will help you in the next part of the study.</p></div>","","","","","","","","","","","","","","","","","","",""
"","html-keyboard-response","15","146444","0.0-15.0","""event"",""trial"",""time""
""fullscreenenter"",""0"",""3293""
","
","
","""event"",""trial"",""time""
""fullscreenenter"",""0"",""3293""
","
","785.2999999999884","<div class='center'><p> If you remember correctly, then you’ll get a gold coin like this: </p><p><img src='run_exp/static/images/tutorial/reward_small.png' height='200'></p><p>If you do not remember correctly, then you'll see a red x like this: </p><p><img src='run_exp/static/images/tutorial/reward_no.png' height='200'></p><p>Importantly, when you are shown a ship, take the time to remind yourself which island you saw it on. This will help you in the next part of the study.</p><p><b>[Press the space bar to continue]</b></p></div>","32","","","","","","","","","","","","","","","","","","","","","","","",""
"","begin_test_phase","16","162256","0.0-16.0","""event"",""trial"",""time""
""fullscreenenter"",""0"",""3293""
","
","
","""event"",""trial"",""time""
""fullscreenenter"",""0"",""3293""
","
","null","run_exp/static/audio/clip_36_begin_final.m4a","null","","","","","<div class='center'><p>Let's go over the important points again. Your job is to: </p><p>1. Pick the pirate who is best at robbing ships and will bring you back gold coins. </p><p>2. Correctly remember whether or not you saw a ship before. If you did see the ship before, remind yourself on which island you saw it. </p></div>","","","","","","","","","","","","","","","","","","",""
"","html-keyboard-response","17","163051","0.0-17.0","""event"",""trial"",""time""
""fullscreenenter"",""0"",""3293""
","
","
","""event"",""trial"",""time""
""fullscreenenter"",""0"",""3293""
","
","747.6000000000349","<div class='center'><p>Let's go over the important points again. Your job is to: </p><p>1. Pick the pirate who is best at robbing ships and will bring you back gold coins. </p><p>2. Correctly remember whether or not you saw a ship before. If you did see the ship before, remind yourself on which island you saw it. </p><p><b>[Press the space bar to continue]</b></p></div>","32","","","","","","","","","","","","","","","","","","","","","","","",""
"","do_welcome","18","167086","0.0-18.0","""event"",""trial"",""time""
""fullscreenenter"",""0"",""3293""
","
","
","""event"",""trial"",""time""
""fullscreenenter"",""0"",""3293""
","
","null","","","","","","","","null","","","","","","","","","","","","","","","","","",""
"","do_trial","19","172116","0.0-19.0-0.0","""event"",""trial"",""time""
""fullscreenenter"",""0"",""3293""
","
","
","""event"",""trial"",""time""
""fullscreenenter"",""0"",""3293""
","
","2421.4000000000233","","","","","","","","49","0,0,0","6","blank","230","null","0.19454485772392796","0.05289038600570004","0.630500485329185","0","","","","","","","","",""
"","html-keyboard-response","20","173126","0.0-19.0-1.0","""event"",""trial"",""time""
""fullscreenenter"",""0"",""3293""
","
","
","""event"",""trial"",""time""
""fullscreenenter"",""0"",""3293""
","
","null","<p></p>","null","","","","","","","","","","","","","","","","","","","","","","","",""
"","do_trial","21","176265","0.0-20.0-0.0","""event"",""trial"",""time""
""fullscreenenter"",""0"",""3293""
","
","
","""event"",""trial"",""time""
""fullscreenenter"",""0"",""3293""
","
","506.79999999998836","","","","","","","","50","0,0,0","6","blank","231","null","0.3399931927373131","0.11972825291950176","0.6180047151152368","0","","","","","","","","",""
"","html-keyboard-response","22","177279","0.0-20.0-1.0","""event"",""trial"",""time""
""fullscreenenter"",""0"",""3293""
","
","
","""event"",""trial"",""time""
""fullscreenenter"",""0"",""3293""
","
","null","<p></p>","null","","","","","","","","","","","","","","","","","","","","","","","",""
"","do_trial","23","179972","0.0-21.0-0.0","""event"",""trial"",""time""
""fullscreenenter"",""0"",""3293""
","
","
","""event"",""trial"",""time""
""fullscreenenter"",""0"",""3293""
","
","64.29999999998836","","","","","","","","51","0,0,0","6","blank","232","null","0.1632324038881759","0.0697841755996902","0.4345562628928407","0","","","","","","","","",""
"","html-keyboard-response","24","180977","0.0-21.0-1.0","""event"",""trial"",""time""
""fullscreenenter"",""0"",""3293""
","
","
","""event"",""trial"",""time""
""fullscreenenter"",""0"",""3293""
","
","null","<p></p>","null","","","","","","","","","","","","","","","","","","","","","","","",""
"","do_trial","25","183811","0.0-22.0-0.0","""event"",""trial"",""time""
""fullscreenenter"",""0"",""3293""
","
","
","""event"",""trial"",""time""
""fullscreenenter"",""0"",""3293""
","
","206.69999999995343","","","","","","","","49","0,0,1","6","blank","233","null","0.2288228461997519","0.07690693674789889","0.40164584880671456","0","","","","","","","","",""
"","html-keyboard-response","26","184819","0.0-22.0-1.0","""event"",""trial"",""time""
""fullscreenenter"",""0"",""3293""
","
","
","""event"",""trial"",""time""
""fullscreenenter"",""0"",""3293""
","
","null","<p></p>","null","","","","","","","","","","","","","","","","","","","","","","","",""
"","do_trial","27","187468","0.0-23.0-0.0","""event"",""trial"",""time""
""fullscreenenter"",""0"",""3293""
","
","
","""event"",""trial"",""time""
""fullscreenenter"",""0"",""3293""
","
","18.20000000001164","","","","","","","","50","0,0,1","6","blank","234","null","0.29982733912995124","0.14702503928648852","0.48144548786001945","0","","","","","","","","",""
"","html-keyboard-response","28","188478","0.0-23.0-1.0","""event"",""trial"",""time""
""fullscreenenter"",""0"",""3293""
","
","
","""event"",""trial"",""time""
""fullscreenenter"",""0"",""3293""
","
","null","<p></p>","null","","","","","","","","","","","","","","","","","","","","","","","",""
"","do_trial","29","191038","0.0-24.0-0.0","""event"",""trial"",""time""
""fullscreenenter"",""0"",""3293""
","
","
","""event"",""trial"",""time""
""fullscreenenter"",""0"",""3293""
","
","5.2000000000116415","","","","","","","","51","0,0,1","6","blank","235","null","0.26555548976270105","0.06161372323602691","0.4352842176666568","1","","","","","","","","",""
"","html-keyboard-response","30","192044","0.0-24.0-1.0","""event"",""trial"",""time""
""fullscreenenter"",""0"",""3293""
","
","
","""event"",""trial"",""time""
""fullscreenenter"",""0"",""3293""
","
","null","<p></p>","null","","","","","","","","","","","","","","","","","","","","","","","",""
"","do_trial","31","194892","0.0-25.0-0.0","""event"",""trial"",""time""
""fullscreenenter"",""0"",""3293""
","
","
","""event"",""trial"",""time""
""fullscreenenter"",""0"",""3293""
","
","217.90000000002328","","","","","","","","49","0,0,0","6","blank","236","null","0.2802390507874301","0.13720415642916264","0.3547333703195421","0","","","","","","","","",""
"","html-keyboard-response","32","195899","0.0-25.0-1.0","""event"",""trial"",""time""
""fullscreenenter"",""0"",""3293""
","
","
","""event"",""trial"",""time""
""fullscreenenter"",""0"",""3293""
","
","null","<p></p>","null","","","","","","","","","","","","","","","","","","","","","","","",""
"","do_trial","33","198576","0.0-26.0-0.0","""event"",""trial"",""time""
""fullscreenenter"",""0"",""3293""
","
","
","""event"",""trial"",""time""
""fullscreenenter"",""0"",""3293""
","
","39.899999999965075","","","","","","","","50","1,0,0","6","blank","237","null","0.3022781244920421","0.13482230451238153","0.36617207535095225","0","","","","","","","","",""
"","html-keyboard-response","34","199588","0.0-26.0-1.0","""event"",""trial"",""time""
""fullscreenenter"",""0"",""3293""
","
","
","""event"",""trial"",""time""
""fullscreenenter"",""0"",""3293""
","
","null","<p></p>","null","","","","","","","","","","","","","","","","","","","","","","","",""
"","do_trial","35","202463","0.0-27.0-0.0","""event"",""trial"",""time""
""fullscreenenter"",""0"",""3293""
","
","
","""event"",""trial"",""time""
""fullscreenenter"",""0"",""3293""
","
","247","","","","","","","","51","1,0,0","6","blank","238","null","0.19408828713211015","0.18896813466699897","0.4254367449483012","0","","","","","","","","",""
"","html-keyboard-response","36","203472","0.0-27.0-1.0","""event"",""trial"",""time""
""fullscreenenter"",""0"",""3293""
","
","
","""event"",""trial"",""time""
""fullscreenenter"",""0"",""3293""
","
","null","<p></p>","null","","","","","","","","","","","","","","","","","","","","","","","",""
"","do_trial","37","206249","0.0-28.0-0.0","""event"",""trial"",""time""
""fullscreenenter"",""0"",""3293""
","
","
","""event"",""trial"",""time""
""fullscreenenter"",""0"",""3293""
","
","223.29999999998836","","","","","","","","49","0,1,0","6","blank","239","null","0.2415341596316065","0.2020192188966765","0.4379877366746813","0","","","","","","","","",""
"","html-keyboard-response","38","207253","0.0-28.0-1.0","""event"",""trial"",""time""
""fullscreenenter"",""0"",""3293""
","
","
","""event"",""trial"",""time""
""fullscreenenter"",""0"",""3293""
","
","null","<p></p>","null","","","","","","","","","","","","","","","","","","","","","","","",""
"","do_trial","39","209872","0.0-29.0-0.0","""event"",""trial"",""time""
""fullscreenenter"",""0"",""3293""
","
","
","""event"",""trial"",""time""
""fullscreenenter"",""0"",""3293""
","
","0.09999999997671694","","","","","","","","50","0,0,0","6","blank","240","null","0.35074749530480537","0.2543412103671355","0.3906695927033813","0","","","","","","","","",""
"","html-keyboard-response","40","210887","0.0-29.0-1.0","""event"",""trial"",""time""
""fullscreenenter"",""0"",""3293""
","
","
","""event"",""trial"",""time""
""fullscreenenter"",""0"",""3293""
","
","null","<p></p>","null","","","","","","","","","","","","","","","","","","","","","","","",""
"","do_recog","41","216913","0.0-30.0-0.0","""event"",""trial"",""time""
""fullscreenenter"",""0"",""3293""
","
","
","""event"",""trial"",""time""
""fullscreenenter"",""0"",""3293""
","
","null","","","","","","","","null","","","","241","probe-217","","","","","1","[object Object]","197","4","0","","","",""
"","html-keyboard-response","42","217924","0.0-30.0-1.0","""event"",""trial"",""time""
""fullscreenenter"",""0"",""3293""
","
","
","""event"",""trial"",""time""
""fullscreenenter"",""0"",""3293""
","
","null","<p></p>","null","","","","","","","","","","","","","","","","","","","","","","","",""
"","do_trial","43","222130","0.0-31.0-0.0","""event"",""trial"",""time""
""fullscreenenter"",""0"",""3293""
","
","
","""event"",""trial"",""time""
""fullscreenenter"",""0"",""3293""
","
","1648.9000000000233","","","","","","","","51","1,1,1","6","blank","242","null","0.44815546294320047","0.12897692090835153","0.2701469532258015","1","","","","","","","","",""
"","html-keyboard-response","44","223140","0.0-31.0-1.0","""event"",""trial"",""time""
""fullscreenenter"",""0"",""3293""
","
","
","""event"",""trial"",""time""
""fullscreenenter"",""0"",""3293""
","
","null","<p></p>","null","","","","","","","","","","","","","","","","","","","","","","","",""
"","do_trial","45","225700","0.0-32.0-0.0","""event"",""trial"",""time""
""fullscreenenter"",""0"",""3293""
","
","
","""event"",""trial"",""time""
""fullscreenenter"",""0"",""3293""
","
","0","","","","","","","","49","1,1,0","6","blank","243","null","0.43052136167159555","0.17639069854518094","0.2579069239501345","1","","","","","","","","",""
"","html-keyboard-response","46","226706","0.0-32.0-1.0","""event"",""trial"",""time""
""fullscreenenter"",""0"",""3293""
","
","
","""event"",""trial"",""time""
""fullscreenenter"",""0"",""3293""
","
","null","<p></p>","null","","","","","","","","","","","","","","","","","","","","","","","",""
"","do_recog","47","230386","0.0-33.0-0.0","""event"",""trial"",""time""
""fullscreenenter"",""0"",""3293""
","
","
","""event"",""trial"",""time""
""fullscreenenter"",""0"",""3293""
","
","2155.600000000035","","","","","","","","53","","","","244","probe-147","","","","","1","[object Object]","34","0","1","","","",""
"","html-keyboard-response","48","231392","0.0-33.0-1.0","""event"",""trial"",""time""
""fullscreenenter"",""0"",""3293""
","
","
","""event"",""trial"",""time""
""fullscreenenter"",""0"",""3293""
","
","null","<p></p>","null","","","","","","","","","","","","","","","","","","","","","","","",""
"","do_trial","49","234716","0.0-34.0-0.0","""event"",""trial"",""time""
""fullscreenenter"",""0"",""3293""
","
","
","""event"",""trial"",""time""
""fullscreenenter"",""0"",""3293""
","
","753.0999999999767","","","","","","","","49","0,1,1","6","blank","245","null","0.3428411826141016","0.05451079117477182","0.35136683376369804","0","","","","","","","","",""
"","html-keyboard-response","50","235737","0.0-34.0-1.0","""event"",""trial"",""time""
""fullscreenenter"",""0"",""3293""
","
","
","""event"",""trial"",""time""
""fullscreenenter"",""0"",""3293""
","
","null","<p></p>","null","","","","","","","","","","","","","","","","","","","","","","","",""
"","do_recog","51","239139","0.0-35.0-0.0","""event"",""trial"",""time""
""fullscreenenter"",""0"",""3293""
","
","
","""event"",""trial"",""time""
""fullscreenenter"",""0"",""3293""
","
","1888.2000000000116","","","","","","","","56","","","","246","probe-51","","","","","1","[object Object]","31","0","0","","","",""
"","html-keyboard-response","52","240151","0.0-35.0-1.0","""event"",""trial"",""time""
""fullscreenenter"",""0"",""3293""
","
","
","""event"",""trial"",""time""
""fullscreenenter"",""0"",""3293""
","
","null","<p></p>","null","","","","","","","","","","","","","","","","","","","","","","","",""
"","do_trial","53","243801","0.0-36.0-0.0","""event"",""trial"",""time""
""fullscreenenter"",""0"",""3293""
","
","
","""event"",""trial"",""time""
""fullscreenenter"",""0"",""3293""
","
","1090.600000000035","","","","","","","","50","0,0,0","6","blank","247","null","0.6032769445074608","0.2985602459258099","0.1532210670381281","0","","","","","","","","",""
"","html-keyboard-response","54","244819","0.0-36.0-1.0","""event"",""trial"",""time""
""fullscreenenter"",""0"",""3293""
","
","
","""event"",""trial"",""time""
""fullscreenenter"",""0"",""3293""
","
","null","<p></p>","null","","","","","","","","","","","","","","","","","","","","","","","",""
"","do_trial","55","247669","0.0-37.0-0.0","""event"",""trial"",""time""
""fullscreenenter"",""0"",""3293""
","
","
","""event"",""trial"",""time""
""fullscreenenter"",""0"",""3293""
","
","288.1000000000349","","","","","","","","51","0,0,1","6","blank","248","null","0.6328092908164784","0.2569544701423787","0.1603297945689053","1","","","","","","","","",""
"","html-keyboard-response","56","248689","0.0-37.0-1.0","""event"",""trial"",""time""
""fullscreenenter"",""0"",""3293""
","
","
","""event"",""trial"",""time""
""fullscreenenter"",""0"",""3293""
","
","null","<p></p>","null","","","","","","","","","","","","","","","","","","","","","","","",""
"","do_trial","57","251251","0.0-38.0-0.0","""event"",""trial"",""time""
""fullscreenenter"",""0"",""3293""
","
","
","""event"",""trial"",""time""
""fullscreenenter"",""0"",""3293""
","
","0.09999999997671694","","","","","","","","51","1,0,0","6","blank","249","null","0.64248897820183","0.2861370335773598","0.19517855165459252","0","","","","","","","","",""
"","html-keyboard-response","58","252256","0.0-38.0-1.0","""event"",""trial"",""time""
""fullscreenenter"",""0"",""3293""
","
","
","""event"",""trial"",""time""
""fullscreenenter"",""0"",""3293""
","
","null","<p></p>","null","","","","","","","","","","","","","","","","","","","","","","","",""
"","do_trial","59","254995","0.0-39.0-0.0","""event"",""trial"",""time""
""fullscreenenter"",""0"",""3293""
","
","
","""event"",""trial"",""time""
""fullscreenenter"",""0"",""3293""
","
","114.60000000003492","","","","","","","","51","1,1,0","6","blank","250","null","0.6126352498285924","0.4123874671683227","0.1600816878688059","0","","","","","","","","",""
"","html-keyboard-response","60","256002","0.0-39.0-1.0","""event"",""trial"",""time""
""fullscreenenter"",""0"",""3293""
","
","
","""event"",""trial"",""time""
""fullscreenenter"",""0"",""3293""
","
","null","<p></p>","null","","","","","","","","","","","","","","","","","","","","","","","",""
"","do_trial","61","258643","0.0-40.0-0.0","""event"",""trial"",""time""
""fullscreenenter"",""0"",""3293""
","
","
","""event"",""trial"",""time""
""fullscreenenter"",""0"",""3293""
","
","0.09999999997671694","","","","","","","","49","0,0,0","6","blank","251","null","0.5041052817640538","0.26040492664328746","0.18503846123197928","0","","","","","","","","",""
"","html-keyboard-response","62","259648","0.0-40.0-1.0","""event"",""trial"",""time""
""fullscreenenter"",""0"",""3293""
","
","
","""event"",""trial"",""time""
""fullscreenenter"",""0"",""3293""
","
","null","<p></p>","null","","","","","","","","","","","","","","","","","","","","","","","",""
"","do_recog","63","263032","0.0-41.0-0.0","""event"",""trial"",""time""
""fullscreenenter"",""0"",""3293""
","
","
","""event"",""trial"",""time""
""fullscreenenter"",""0"",""3293""
","
","1862.2999999999884","","","","","","","","56","","","","252","probe-254","","","","","0","[object Object]","null","null","1","","","",""
"","html-keyboard-response","64","264037","0.0-41.0-1.0","""event"",""trial"",""time""
""fullscreenenter"",""0"",""3293""
","
","
","""event"",""trial"",""time""
""fullscreenenter"",""0"",""3293""
","
","null","<p></p>","null","","","","","","","","","","","","","","","","","","","","","","","",""
"","do_trial","65","266945","0.0-42.0-0.0","""event"",""trial"",""time""
""fullscreenenter"",""0"",""3293""
","
","
","""event"",""trial"",""time""
""fullscreenenter"",""0"",""3293""
","
","352.79999999998836","","","","","","","","51","1,0,0","6","blank","253","null","0.5789526404624125","0.2117437808113584","0.18841585973514974","0","","","","","","","","",""
"","html-keyboard-response","66","267964","0.0-42.0-1.0","""event"",""trial"",""time""
""fullscreenenter"",""0"",""3293""
","
","
","""event"",""trial"",""time""
""fullscreenenter"",""0"",""3293""
","
","null","<p></p>","null","","","","","","","","","","","","","","","","","","","","","","","",""
"","do_trial","67","270782","0.0-43.0-0.0","""event"",""trial"",""time""
""fullscreenenter"",""0"",""3293""
","
","
","""event"",""trial"",""time""
""fullscreenenter"",""0"",""3293""
","
","171.90000000002328","","","","","","","","50","1,1,0","6","blank","254","null","0.6206741349019954","0.3132180112249772","0.2682832350700656","1","","","","","","","","",""
"","html-keyboard-response","68","271796","0.0-43.0-1.0","""event"",""trial"",""time""
""fullscreenenter"",""0"",""3293""
","
","
","""event"",""trial"",""time""
""fullscreenenter"",""0"",""3293""
","
","null","<p></p>","null","","","","","","","","","","","","","","","","","","","","","","","",""
"","do_trial","69","274402","0.0-44.0-0.0","""event"",""trial"",""time""
""fullscreenenter"",""0"",""3293""
","
","
","""event"",""trial"",""time""
""fullscreenenter"",""0"",""3293""
","
","37.29999999998836","","","","","","","","49","0,0,1","6","blank","255","null","0.7481771790164036","0.3309080983685174","0.2624356587954435","0","","","","","","","","",""
"","html-keyboard-response","70","275414","0.0-44.0-1.0","""event"",""trial"",""time""
""fullscreenenter"",""0"",""3293""
","
","
","""event"",""trial"",""time""
""fullscreenenter"",""0"",""3293""
","
","null","<p></p>","null","","","","","","","","","","","","","","","","","","","","","","","",""
"","do_trial","71","278350","0.0-45.0-0.0","""event"",""trial"",""time""
""fullscreenenter"",""0"",""3293""
","
","
","""event"",""trial"",""time""
""fullscreenenter"",""0"",""3293""
","
","304.20000000001164","","","","","","","","51","1,0,0","6","blank","256","null","0.6641540576989516","0.41615510178750464","0.2259357962961127","0","","","","","","","","",""
"","html-keyboard-response","72","279355","0.0-45.0-1.0","""event"",""trial"",""time""
""fullscreenenter"",""0"",""3293""
","
","
","""event"",""trial"",""time""
""fullscreenenter"",""0"",""3293""
","
","null","<p></p>","null","","","","","","","","","","","","","","","","","","","","","","","",""
"","do_trial","73","281989","0.0-46.0-0.0","""event"",""trial"",""time""
""fullscreenenter"",""0"",""3293""
","
","
","""event"",""trial"",""time""
""fullscreenenter"",""0"",""3293""
","
","0.1000000000349246","","","","","","","","50","1,0,0","6","blank","257","null","0.6781998477809004","0.41799584661342903","0.1624710143516505","0","","","","","","","","",""
"","html-keyboard-response","74","283008","0.0-46.0-1.0","""event"",""trial"",""time""
""fullscreenenter"",""0"",""3293""
","
","
","""event"",""trial"",""time""
""fullscreenenter"",""0"",""3293""
","
","null","<p></p>","null","","","","","","","","","","","","","","","","","","","","","","","",""
"","do_recog","75","286536","0.0-47.0-0.0","""event"",""trial"",""time""
""fullscreenenter"",""0"",""3293""
","
","
","""event"",""trial"",""time""
""fullscreenenter"",""0"",""3293""
","
","2005.100000000035","","","","","","","","55","","","","258","probe-05","","","","","1","[object Object]","119","2","0","","","",""
"","html-keyboard-response","76","287539","0.0-47.0-1.0","""event"",""trial"",""time""
""fullscreenenter"",""0"",""3293""
","
","
","""event"",""trial"",""time""
""fullscreenenter"",""0"",""3293""
","
","null","<p></p>","null","","","","","","","","","","","","","","","","","","","","","","","",""
"","do_trial","77","290805","0.0-48.0-0.0","""event"",""trial"",""time""
""fullscreenenter"",""0"",""3293""
","
","
","""event"",""trial"",""time""
""fullscreenenter"",""0"",""3293""
","
","708","","","","","","","","49","1,1,0","6","blank","259","null","0.620706523522864","0.4469193105394076","0.14511364496842513","1","","","","","","","","",""
"","html-keyboard-response","78","291810","0.0-48.0-1.0","""event"",""trial"",""time""
""fullscreenenter"",""0"",""3293""
","
","
","""event"",""trial"",""time""
""fullscreenenter"",""0"",""3293""
","
","null","<p></p>","null","","","","","","","","","","","","","","","","","","","","","","","",""
"","do_recog","79","294987","0.0-49.0-0.0","""event"",""trial"",""time""
""fullscreenenter"",""0"",""3293""
","
","
","""event"",""trial"",""time""
""fullscreenenter"",""0"",""3293""
","
","1652.6999999999534","","","","","","","","53","","","","260","probe-174","","","","","1","[object Object]","71","1","1","","","",""
"","html-keyboard-response","80","295995","0.0-49.0-1.0","""event"",""trial"",""time""
""fullscreenenter"",""0"",""3293""
","
","
","""event"",""trial"",""time""
""fullscreenenter"",""0"",""3293""
","
","null","<p></p>","null","","","","","","","","","","","","","","","","","","","","","","","",""
"","do_trial","81","298984","0.0-50.0-0.0","""event"",""trial"",""time""
""fullscreenenter"",""0"",""3293""
","
","
","""event"",""trial"",""time""
""fullscreenenter"",""0"",""3293""
","
","430.1000000000349","","","","","","","","51","0,1,0","6","blank","261","null","0.6234481835581844","0.18178553036220405","0.06999273942406785","0","","","","","","","","",""
"","html-keyboard-response","82","299994","0.0-50.0-1.0","""event"",""trial"",""time""
""fullscreenenter"",""0"",""3293""
","
","
","""event"",""trial"",""time""
""fullscreenenter"",""0"",""3293""
","
","null","<p></p>","null","","","","","","","","","","","","","","","","","","","","","","","",""
"","do_trial","83","302677","0.0-51.0-0.0","""event"",""trial"",""time""
""fullscreenenter"",""0"",""3293""
","
","
","""event"",""trial"",""time""
""fullscreenenter"",""0"",""3293""
","
","99.79999999998836","","","","","","","","50","0,1,0","6","blank","262","null","0.5614731145206989","0.2180171552588863","0.05254865479504126","1","","","","","","","","",""
"","html-keyboard-response","84","303685","0.0-51.0-1.0","""event"",""trial"",""time""
""fullscreenenter"",""0"",""3293""
","
","
","""event"",""trial"",""time""
""fullscreenenter"",""0"",""3293""
","
","null","<p></p>","null","","","","","","","","","","","","","","","","","","","","","","","",""
"","do_trial","85","306386","0.0-52.0-0.0","""event"",""trial"",""time""
""fullscreenenter"",""0"",""3293""
","
","
","""event"",""trial"",""time""
""fullscreenenter"",""0"",""3293""
","
","125.59999999997672","","","","","","","","49","1,0,1","6","blank","263","null","0.46941124677676355","0.3789781894182835","0.0690513460776425","1","","","","","","","","",""
"","html-keyboard-response","86","307406","0.0-52.0-1.0","""event"",""trial"",""time""
""fullscreenenter"",""0"",""3293""
","
","
","""event"",""trial"",""time""
""fullscreenenter"",""0"",""3293""
","
","null","<p></p>","null","","","","","","","","","","","","","","","","","","","","","","","",""
"","do_trial","87","310635","0.0-53.0-0.0","""event"",""trial"",""time""
""fullscreenenter"",""0"",""3293""
","
","
","""event"",""trial"",""time""
""fullscreenenter"",""0"",""3293""
","
","637.2999999999884","","","","","","","","51","1,1,0","6","blank","264","null","0.45810235401768595","0.4217367003010898","0.12914720964133164","0","","","","","","","","",""
"","html-keyboard-response","88","311653","0.0-53.0-1.0","""event"",""trial"",""time""
""fullscreenenter"",""0"",""3293""
","
","
","""event"",""trial"",""time""
""fullscreenenter"",""0"",""3293""
","
","null","<p></p>","null","","","","","","","","","","","","","","","","","","","","","","","",""
"","do_trial","89","314316","0.0-54.0-0.0","""event"",""trial"",""time""
""fullscreenenter"",""0"",""3293""
","
","
","""event"",""trial"",""time""
""fullscreenenter"",""0"",""3293""
","
","79","","","","","","","","49","1,0,0","6","blank","265","null","0.4378502433612513","0.3247942588034673","0.13113937427387817","1","","","","","","","","",""
"","html-keyboard-response","90","315325","0.0-54.0-1.0","""event"",""trial"",""time""
""fullscreenenter"",""0"",""3293""
","
","
","""event"",""trial"",""time""
""fullscreenenter"",""0"",""3293""
","
","null","<p></p>","null","","","","","","","","","","","","","","","","","","","","","","","",""
"","do_recog","91","318879","0.0-55.0-0.0","""event"",""trial"",""time""
""fullscreenenter"",""0"",""3293""
","
","
","""event"",""trial"",""time""
""fullscreenenter"",""0"",""3293""
","
","2035.5","","","","","","","","55","","","","266","probe-236","","","","","0","[object Object]","null","null","1","","","",""
"","html-keyboard-response","92","319891","0.0-55.0-1.0","""event"",""trial"",""time""
""fullscreenenter"",""0"",""3293""
","
","
","""event"",""trial"",""time""
""fullscreenenter"",""0"",""3293""
","
","null","<p></p>","null","","","","","","","","","","","","","","","","","","","","","","","",""
"","do_trial","93","322891","0.0-56.0-0.0","""event"",""trial"",""time""
""fullscreenenter"",""0"",""3293""
","
","
","""event"",""trial"",""time""
""fullscreenenter"",""0"",""3293""
","
","414.0999999999767","","","","","","","","51","0,0,0","6","blank","267","null","0.6691219436047581","0.20717022375310165","0.09282141254701658","0","","","","","","","","",""
"","html-keyboard-response","94","323896","0.0-56.0-1.0","""event"",""trial"",""time""
""fullscreenenter"",""0"",""3293""
","
","
","""event"",""trial"",""time""
""fullscreenenter"",""0"",""3293""
","
","null","<p></p>","null","","","","","","","","","","","","","","","","","","","","","","","",""
"","do_trial","95","326875","0.0-57.0-0.0","""event"",""trial"",""time""
""fullscreenenter"",""0"",""3293""
","
","
","""event"",""trial"",""time""
""fullscreenenter"",""0"",""3293""
","
","389","","","","","","","","49","1,0,0","6","blank","268","null","0.5695797989094856","0.3497840232901583","0.17475535006051793","1","","","","","","","","",""
"","html-keyboard-response","96","327879","0.0-57.0-1.0","""event"",""trial"",""time""
""fullscreenenter"",""0"",""3293""
","
","
","""event"",""trial"",""time""
""fullscreenenter"",""0"",""3293""
","
","null","<p></p>","null","","","","","","","","","","","","","","","","","","","","","","","",""
"","break","97","329894","0.0-58.0-0.0","""event"",""trial"",""time""
""fullscreenenter"",""0"",""3293""
","
","
","""event"",""trial"",""time""
""fullscreenenter"",""0"",""3293""
","
","2014.4000000000233","<div class='center'><p>Time to take a quick break! You have 2 minutes to rest, but you can move on sooner if you'd like.</p><p> Press the <b>space bar</b> to continue.</p></div>","32","","","","","","","","","","","","","","","","","","","","","","","",""
"","do_trial","98","333513","0.0-58.0-1.0","""event"",""trial"",""time""
""fullscreenenter"",""0"",""3293""
","
","
","""event"",""trial"",""time""
""fullscreenenter"",""0"",""3293""
","
","987.0999999999767","","","","","","","","49","1,1,0","6","blank","269","null","0.7466776268483639","0.31635322902094787","0.10196836746180943","1","","","","","","","","",""
"","html-keyboard-response","99","334533","0.0-58.0-2.0","""event"",""trial"",""time""
""fullscreenenter"",""0"",""3293""
","
","
","""event"",""trial"",""time""
""fullscreenenter"",""0"",""3293""
","
","null","<p></p>","null","","","","","","","","","","","","","","","","","","","","","","","",""
"","do_trial","100","337614","0.0-59.0-0.0","""event"",""trial"",""time""
""fullscreenenter"",""0"",""3293""
","
","
","""event"",""trial"",""time""
""fullscreenenter"",""0"",""3293""
","
","522.0999999999767","","","","","","","","49","1,1,0","6","blank","270","null","0.7540215345005216","0.3260702883486629","0.08316373921545638","1","","","","","","","","",""
"","html-keyboard-response","101","338618","0.0-59.0-1.0","""event"",""trial"",""time""
""fullscreenenter"",""0"",""3293""
","
","
","""event"",""trial"",""time""
""fullscreenenter"",""0"",""3293""
","
","null","<p></p>","null","","","","","","","","","","","","","","","","","","","","","","","",""
"","do_recog","102","341913","0.0-60.0-0.0","""event"",""trial"",""time""
""fullscreenenter"",""0"",""3293""
","
","
","""event"",""trial"",""time""
""fullscreenenter"",""0"",""3293""
","
","1781.8000000000466","","","","","","","","56","","","","271","probe-233","","","","","0","[object Object]","null","null","1","","","",""
"","html-keyboard-response","103","342925","0.0-60.0-1.0","""event"",""trial"",""time""
""fullscreenenter"",""0"",""3293""
","
","
","""event"",""trial"",""time""
""fullscreenenter"",""0"",""3293""
","
","null","<p></p>","null","","","","","","","","","","","","","","","","","","","","","","","",""
"","do_trial","104","346038","0.0-61.0-0.0","""event"",""trial"",""time""
""fullscreenenter"",""0"",""3293""
","
","
","""event"",""trial"",""time""
""fullscreenenter"",""0"",""3293""
","
","481.5","","","","","","","","49","1,0,0","6","blank","272","null","0.590911207819663","0.42665044182300044","0.08870510344541586","1","","","","","","","","",""
"","html-keyboard-response","105","347042","0.0-61.0-1.0","""event"",""trial"",""time""
""fullscreenenter"",""0"",""3293""
","
","
","""event"",""trial"",""time""
""fullscreenenter"",""0"",""3293""
","
","null","<p></p>","null","","","","","","","","","","","","","","","","","","","","","","","",""
"","do_trial","106","350020","0.0-62.0-0.0","""event"",""trial"",""time""
""fullscreenenter"",""0"",""3293""
","
","
","""event"",""trial"",""time""
""fullscreenenter"",""0"",""3293""
","
","418.30000000004657","","","","","","","","49","0,0,0","6","blank","273","null","0.6897327639815837","0.4739358133857073","0.06768521049154085","0","","","","","","","","",""
"","html-keyboard-response","107","351039","0.0-62.0-1.0","""event"",""trial"",""time""
""fullscreenenter"",""0"",""3293""
","
","
","""event"",""trial"",""time""
""fullscreenenter"",""0"",""3293""
","
","null","<p></p>","null","","","","","","","","","","","","","","","","","","","","","","","",""
"","do_trial","108","353665","0.0-63.0-0.0","""event"",""trial"",""time""
""fullscreenenter"",""0"",""3293""
","
","
","""event"",""trial"",""time""
""fullscreenenter"",""0"",""3293""
","
","68.69999999995343","","","","","","","","49","0,1,0","6","blank","274","null","0.5883503365773995","0.27357964179809513","0.08254819887109081","0","","","","","","","","",""
"","html-keyboard-response","109","354671","0.0-63.0-1.0","""event"",""trial"",""time""
""fullscreenenter"",""0"",""3293""
","
","
","""event"",""trial"",""time""
""fullscreenenter"",""0"",""3293""
","
","null","<p></p>","null","","","","","","","","","","","","","","","","","","","","","","","",""
"","do_recog","110","358513","0.0-64.0-0.0","""event"",""trial"",""time""
""fullscreenenter"",""0"",""3293""
","
","
","""event"",""trial"",""time""
""fullscreenenter"",""0"",""3293""
","
","2324.899999999907","","","","","","","","54","","","","275","probe-36","","","","","1","[object Object]","158","3","1","","","",""
"","html-keyboard-response","111","359517","0.0-64.0-1.0","""event"",""trial"",""time""
""fullscreenenter"",""0"",""3293""
","
","
","""event"",""trial"",""time""
""fullscreenenter"",""0"",""3293""
","
","null","<p></p>","null","","","","","","","","","","","","","","","","","","","","","","","",""
"","do_trial","112","362547","0.0-65.0-0.0","""event"",""trial"",""time""
""fullscreenenter"",""0"",""3293""
","
","
","""event"",""trial"",""time""
""fullscreenenter"",""0"",""3293""
","
","465","","","","","","","","51","0,1,0","6","blank","276","null","0.5199961507720298","0.38179299628300606","0.09782772786800044","0","","","","","","","","",""
"","html-keyboard-response","113","363558","0.0-65.0-1.0","""event"",""trial"",""time""
""fullscreenenter"",""0"",""3293""
","
","
","""event"",""trial"",""time""
""fullscreenenter"",""0"",""3293""
","
","null","<p></p>","null","","","","","","","","","","","","","","","","","","","","","","","",""
"","do_trial","114","366192","0.0-66.0-0.0","""event"",""trial"",""time""
""fullscreenenter"",""0"",""3293""
","
","
","""event"",""trial"",""time""
""fullscreenenter"",""0"",""3293""
","
","0.2000000000698492","","","","","","","","49","0,0,0","6","blank","277","null","0.44081224843655237","0.3472743113989211","0.1894619431127913","0","","","","","","","","",""
"","html-keyboard-response","115","367204","0.0-66.0-1.0","""event"",""trial"",""time""
""fullscreenenter"",""0"",""3293""
","
","
","""event"",""trial"",""time""
""fullscreenenter"",""0"",""3293""
","
","null","<p></p>","null","","","","","","","","","","","","","","","","","","","","","","","",""
"","do_recog","116","370358","0.0-67.0-0.0","""event"",""trial"",""time""
""fullscreenenter"",""0"",""3293""
","
","
","""event"",""trial"",""time""
""fullscreenenter"",""0"",""3293""
","
","1633.6999999999534","","","","","","","","54","","","","278","probe-126","","","","","1","[object Object]","75","1","1","","","",""
"","html-keyboard-response","117","371370","0.0-67.0-1.0","""event"",""trial"",""time""
""fullscreenenter"",""0"",""3293""
","
","
","""event"",""trial"",""time""
""fullscreenenter"",""0"",""3293""
","
","null","<p></p>","null","","","","","","","","","","","","","","","","","","","","","","","",""
"","do_trial","118","374478","0.0-68.0-0.0","""event"",""trial"",""time""
""fullscreenenter"",""0"",""3293""
","
","
","""event"",""trial"",""time""
""fullscreenenter"",""0"",""3293""
","
","526.2000000000698","","","","","","","","51","0,1,0","6","blank","279","null","0.4909212902552665","0.3115427593256255","0.25065158350231115","0","","","","","","","","",""
"","html-keyboard-response","119","375490","0.0-68.0-1.0","""event"",""trial"",""time""
""fullscreenenter"",""0"",""3293""
","
","
","""event"",""trial"",""time""
""fullscreenenter"",""0"",""3293""
","
","null","<p></p>","null","","","","","","","","","","","","","","","","","","","","","","","",""
"","do_trial","120","378050","0.0-69.0-0.0","""event"",""trial"",""time""
""fullscreenenter"",""0"",""3293""
","
","
","""event"",""trial"",""time""
""fullscreenenter"",""0"",""3293""
","
","0.09999999997671694","","","","","","","","51","1,0,0","6","blank","280","null","0.5006810980953594","0.3007684859873367","0.33811976285032486","0","","","","","","","","",""
"","html-keyboard-response","121","379053","0.0-69.0-1.0","""event"",""trial"",""time""
""fullscreenenter"",""0"",""3293""
","
","
","""event"",""trial"",""time""
""fullscreenenter"",""0"",""3293""
","
","null","<p></p>","null","","","","","","","","","","","","","","","","","","","","","","","",""
"","do_trial","122","381825","0.0-70.0-0.0","""event"",""trial"",""time""
""fullscreenenter"",""0"",""3293""
","
","
","""event"",""trial"",""time""
""fullscreenenter"",""0"",""3293""
","
","193.5","","","","","","","","51","1,0,0","6","blank","281","null","0.4314855604830592","0.26442046272315833","0.06506013336731784","0","","","","","","","","",""
"","html-keyboard-response","123","382845","0.0-70.0-1.0","""event"",""trial"",""time""
""fullscreenenter"",""0"",""3293""
","
","
","""event"",""trial"",""time""
""fullscreenenter"",""0"",""3293""
","
","null","<p></p>","null","","","","","","","","","","","","","","","","","","","","","","","",""
"","do_trial","124","385588","0.0-71.0-0.0","""event"",""trial"",""time""
""fullscreenenter"",""0"",""3293""
","
","
","""event"",""trial"",""time""
""fullscreenenter"",""0"",""3293""
","
","189.69999999995343","","","","","","","","49","1,0,0","6","blank","282","null","0.4920335417492612","0.37888818137815605","0.057664552716085636","1","","","","","","","","",""
"","html-keyboard-response","125","386606","0.0-71.0-1.0","""event"",""trial"",""time""
""fullscreenenter"",""0"",""3293""
","
","
","""event"",""trial"",""time""
""fullscreenenter"",""0"",""3293""
","
","null","<p></p>","null","","","","","","","","","","","","","","","","","","","","","","","",""
"","do_trial","126","389510","0.0-72.0-0.0","""event"",""trial"",""time""
""fullscreenenter"",""0"",""3293""
","
","
","""event"",""trial"",""time""
""fullscreenenter"",""0"",""3293""
","
","333.19999999995343","","","","","","","","49","1,0,0","6","blank","283","null","0.6277557683250129","0.3814792571573949","0.06297979276241755","1","","","","","","","","",""
"","html-keyboard-response","127","390516","0.0-72.0-1.0","""event"",""trial"",""time""
""fullscreenenter"",""0"",""3293""
","
","
","""event"",""trial"",""time""
""fullscreenenter"",""0"",""3293""
","
","null","<p></p>","null","","","","","","","","","","","","","","","","","","","","","","","",""
"","do_trial","128","393339","0.0-73.0-0.0","""event"",""trial"",""time""
""fullscreenenter"",""0"",""3293""
","
","
","""event"",""trial"",""time""
""fullscreenenter"",""0"",""3293""
","
","261.19999999995343","","","","","","","","49","1,0,0","6","blank","284","null","0.691655838014935","0.34262186257203164","0.08525308736208052","1","","","","","","","","",""
"","html-keyboard-response","129","394343","0.0-73.0-1.0","""event"",""trial"",""time""
""fullscreenenter"",""0"",""3293""
","
","
","""event"",""trial"",""time""
""fullscreenenter"",""0"",""3293""
","
","null","<p></p>","null","","","","","","","","","","","","","","","","","","","","","","","",""
"","do_trial","130","396975","0.0-74.0-0.0","""event"",""trial"",""time""
""fullscreenenter"",""0"",""3293""
","
","
","""event"",""trial"",""time""
""fullscreenenter"",""0"",""3293""
","
","0.09999999997671694","","","","","","","","49","1,0,0","6","blank","285","null","0.5965785020396065","0.38431718304085394","0.05079059551715079","1","","","","","","","","",""
"","html-keyboard-response","131","397980","0.0-74.0-1.0","""event"",""trial"",""time""
""fullscreenenter"",""0"",""3293""
","
","
","""event"",""trial"",""time""
""fullscreenenter"",""0"",""3293""
","
","null","<p></p>","null","","","","","","","","","","","","","","","","","","","","","","","",""
"","do_recog","132","401097","0.0-75.0-0.0","""event"",""trial"",""time""
""fullscreenenter"",""0"",""3293""
","
","
","""event"",""trial"",""time""
""fullscreenenter"",""0"",""3293""
","
","1600.0999999999767","","","","","","","","53","","","","286","probe-42","","","","","1","[object Object]","36","0","1","","","",""
"","html-keyboard-response","133","402100","0.0-75.0-1.0","""event"",""trial"",""time""
""fullscreenenter"",""0"",""3293""
","
","
","""event"",""trial"",""time""
""fullscreenenter"",""0"",""3293""
","
","null","<p></p>","null","","","","","","","","","","","","","","","","","","","","","","","",""
"","do_trial","134","405107","0.0-76.0-0.0","""event"",""trial"",""time""
""fullscreenenter"",""0"",""3293""
","
","
","""event"",""trial"",""time""
""fullscreenenter"",""0"",""3293""
","
","373.9000000000233","","","","","","","","49","1,1,0","6","blank","287","null","0.613303431405193","0.28169853583247656","0.056613715246926585","1","","","","","","","","",""
"","html-keyboard-response","135","406112","0.0-76.0-1.0","""event"",""trial"",""time""
""fullscreenenter"",""0"",""3293""
","
","
","""event"",""trial"",""time""
""fullscreenenter"",""0"",""3293""
","
","null","<p></p>","null","","","","","","","","","","","","","","","","","","","","","","","",""
"","do_trial","136","408758","0.0-77.0-0.0","""event"",""trial"",""time""
""fullscreenenter"",""0"",""3293""
","
","
","""event"",""trial"",""time""
""fullscreenenter"",""0"",""3293""
","
","0.09999999997671694","","","","","","","","49","1,1,1","6","blank","288","null","0.7003002347907274","0.15722657359830833","0.1635775754448885","1","","","","","","","","",""
"","html-keyboard-response","137","409764","0.0-77.0-1.0","""event"",""trial"",""time""
""fullscreenenter"",""0"",""3293""
","
","
","""event"",""trial"",""time""
""fullscreenenter"",""0"",""3293""
","
","null","<p></p>","null","","","","","","","","","","","","","","","","","","","","","","","",""
"","do_recog","138","412917","0.0-78.0-0.0","""event"",""trial"",""time""
""fullscreenenter"",""0"",""3293""
","
","
","""event"",""trial"",""time""
""fullscreenenter"",""0"",""3293""
","
","1634.9000000000233","","","","","","","","55","","","","289","probe-167","","","","","1","[object Object]","190","4","0","","","",""
"","html-keyboard-response","139","413927","0.0-78.0-1.0","""event"",""trial"",""time""
""fullscreenenter"",""0"",""3293""
","
","
","""event"",""trial"",""time""
""fullscreenenter"",""0"",""3293""
","
","null","<p></p>","null","","","","","","","","","","","","","","","","","","","","","","","",""
"","do_trial","140","416802","0.0-79.0-0.0","""event"",""trial"",""time""
""fullscreenenter"",""0"",""3293""
","
","
","""event"",""trial"",""time""
""fullscreenenter"",""0"",""3293""
","
","307.0999999999767","","","","","","","","49","1,1,0","6","blank","290","null","0.5551745628744318","0.19716140384140596","0.0943734741445779","1","","","","","","","","",""
"","html-keyboard-response","141","417809","0.0-79.0-1.0","""event"",""trial"",""time""
""fullscreenenter"",""0"",""3293""
","
","
","""event"",""trial"",""time""
""fullscreenenter"",""0"",""3293""
","
","null","<p></p>","null","","","","","","","","","","","","","","","","","","","","","","","",""
"","do_recog","142","420688","0.0-80.0-0.0","""event"",""trial"",""time""
""fullscreenenter"",""0"",""3293""
","
","
","""event"",""trial"",""time""
""fullscreenenter"",""0"",""3293""
","
","1365.2000000000698","","","","","","","","53","","","","291","probe-120","","","","","1","[object Object]","159","3","1","","","",""
"","html-keyboard-response","143","421701","0.0-80.0-1.0","""event"",""trial"",""time""
""fullscreenenter"",""0"",""3293""
","
","
","""event"",""trial"",""time""
""fullscreenenter"",""0"",""3293""
","
","null","<p></p>","null","","","","","","","","","","","","","","","","","","","","","","","",""
"","do_trial","144","424670","0.0-81.0-0.0","""event"",""trial"",""time""
""fullscreenenter"",""0"",""3293""
","
","
","""event"",""trial"",""time""
""fullscreenenter"",""0"",""3293""
","
","405.80000000004657","","","","","","","","49","1,0,0","6","blank","292","null","0.5747294984597028","0.08057306084518222","0.08907330167843627","1","","","","","","","","",""
"","html-keyboard-response","145","425673","0.0-81.0-1.0","""event"",""trial"",""time""
""fullscreenenter"",""0"",""3293""
","
","
","""event"",""trial"",""time""
""fullscreenenter"",""0"",""3293""
","
","null","<p></p>","null","","","","","","","","","","","","","","","","","","","","","","","",""
"","do_recog","146","429673","0.0-82.0-0.0","""event"",""trial"",""time""
""fullscreenenter"",""0"",""3293""
","
","
","""event"",""trial"",""time""
""fullscreenenter"",""0"",""3293""
","
","2472.4000000000233","","","","","","","","55","","","","293","probe-75","","","","","1","[object Object]","195","4","0","","","",""
"","html-keyboard-response","147","430681","0.0-82.0-1.0","""event"",""trial"",""time""
""fullscreenenter"",""0"",""3293""
","
","
","""event"",""trial"",""time""
""fullscreenenter"",""0"",""3293""
","
","null","<p></p>","null","","","","","","","","","","","","","","","","","","","","","","","",""
"","do_trial","148","433659","0.0-83.0-0.0","""event"",""trial"",""time""
""fullscreenenter"",""0"",""3293""
","
","
","""event"",""trial"",""time""
""fullscreenenter"",""0"",""3293""
","
","423.0999999999767","","","","","","","","49","0,0,0","6","blank","294","null","0.5157580288980338","0.12857281096815049","0.08538656785140102","0","","","","","","","","",""
"","html-keyboard-response","149","434669","0.0-83.0-1.0","""event"",""trial"",""time""
""fullscreenenter"",""0"",""3293""
","
","
","""event"",""trial"",""time""
""fullscreenenter"",""0"",""3293""
","
","null","<p></p>","null","","","","","","","","","","","","","","","","","","","","","","","",""
"","do_trial","150","437302","0.0-84.0-0.0","""event"",""trial"",""time""
""fullscreenenter"",""0"",""3293""
","
","
","""event"",""trial"",""time""
""fullscreenenter"",""0"",""3293""
","
","0.8000000000465661","","","","","","","","49","1,1,0","6","blank","295","null","0.44352065524370937","0.08712336040364142","0.0978949891382808","1","","","","","","","","",""
"","html-keyboard-response","151","438316","0.0-84.0-1.0","""event"",""trial"",""time""
""fullscreenenter"",""0"",""3293""
","
","
","""event"",""trial"",""time""
""fullscreenenter"",""0"",""3293""
","
","null","<p></p>","null","","","","","","","","","","","","","","","","","","","","","","","",""
"","do_trial","152","441195","0.0-85.0-0.0","""event"",""trial"",""time""
""fullscreenenter"",""0"",""3293""
","
","
","""event"",""trial"",""time""
""fullscreenenter"",""0"",""3293""
","
","321.29999999993015","","","","","","","","49","1,0,0","6","blank","296","null","0.21475525537024154","0.22092242182660715","0.09197626785286028","1","","","","","","","","",""
"","html-keyboard-response","153","442212","0.0-85.0-1.0","""event"",""trial"",""time""
""fullscreenenter"",""0"",""3293""
","
","
","""event"",""trial"",""time""
""fullscreenenter"",""0"",""3293""
","
","null","<p></p>","null","","","","","","","","","","","","","","","","","","","","","","","",""
"","do_trial","154","445117","0.0-86.0-0.0","""event"",""trial"",""time""
""fullscreenenter"",""0"",""3293""
","
","
","""event"",""trial"",""time""
""fullscreenenter"",""0"",""3293""
","
","284.5999999999767","","","","","","","","49","0,1,0","6","blank","297","null","0.2437450617798628","0.4098236616883893","0.05809314517398548","0","","","","","","","","",""
"","html-keyboard-response","155","446129","0.0-86.0-1.0","""event"",""trial"",""time""
""fullscreenenter"",""0"",""3293""
","
","
","""event"",""trial"",""time""
""fullscreenenter"",""0"",""3293""
","
","null","<p></p>","null","","","","","","","","","","","","","","","","","","","","","","","",""
"","do_trial","156","449054","0.0-87.0-0.0","""event"",""trial"",""time""
""fullscreenenter"",""0"",""3293""
","
","
","""event"",""trial"",""time""
""fullscreenenter"",""0"",""3293""
","
","295.19999999995343","","","","","","","","49","1,0,0","6","blank","298","null","0.2877243705396788","0.4025671653868635","0.07992071598447097","1","","","","","","","","",""
"","html-keyboard-response","157","450065","0.0-87.0-1.0","""event"",""trial"",""time""
""fullscreenenter"",""0"",""3293""
","
","
","""event"",""trial"",""time""
""fullscreenenter"",""0"",""3293""
","
","null","<p></p>","null","","","","","","","","","","","","","","","","","","","","","","","",""
"","do_recog","158","453528","0.0-88.0-0.0","""event"",""trial"",""time""
""fullscreenenter"",""0"",""3293""
","
","
","""event"",""trial"",""time""
""fullscreenenter"",""0"",""3293""
","
","1934.8000000000466","","","","","","","","54","","","","299","probe-138","","","","","1","[object Object]","111","2","1","","","",""
"","html-keyboard-response","159","454531","0.0-88.0-1.0","""event"",""trial"",""time""
""fullscreenenter"",""0"",""3293""
","
","
","""event"",""trial"",""time""
""fullscreenenter"",""0"",""3293""
","
","null","<p></p>","null","","","","","","","","","","","","","","","","","","","","","","","",""
"","do_trial","160","457530","0.0-89.0-0.0","""event"",""trial"",""time""
""fullscreenenter"",""0"",""3293""
","
","
","""event"",""trial"",""time""
""fullscreenenter"",""0"",""3293""
","
","357.30000000004657","","","","","","","","49","0,1,0","6","blank","300","null","0.3291590109390829","0.48037641380503765","0.07465802826578438","0","","","","","","","","",""
"","html-keyboard-response","161","458533","0.0-89.0-1.0","""event"",""trial"",""time""
""fullscreenenter"",""0"",""3293""
","
","
","""event"",""trial"",""time""
""fullscreenenter"",""0"",""3293""
","
","null","<p></p>","null","","","","","","","","","","","","","","","","","","","","","","","",""
"","do_trial","162","461497","0.0-90.0-0.0","""event"",""trial"",""time""
""fullscreenenter"",""0"",""3293""
","
","
","""event"",""trial"",""time""
""fullscreenenter"",""0"",""3293""
","
","332.5999999999767","","","","","","","","49","1,1,0","6","blank","301","null","0.2408688464723339","0.5080183548419503","0.24820505350003239","1","","","","","","","","",""
"","html-keyboard-response","163","462500","0.0-90.0-1.0","""event"",""trial"",""time""
""fullscreenenter"",""0"",""3293""
","
","
","""event"",""trial"",""time""
""fullscreenenter"",""0"",""3293""
","
","null","<p></p>","null","","","","","","","","","","","","","","","","","","","","","","","",""
"","do_recog","164","466034","0.0-91.0-0.0","""event"",""trial"",""time""
""fullscreenenter"",""0"",""3293""
","
","
","""event"",""trial"",""time""
""fullscreenenter"",""0"",""3293""
","
","2021.6000000000931","","","","","","","","55","","","","302","probe-206","","","","","1","[object Object]","199","4","0","","","",""
"","html-keyboard-response","165","467037","0.0-91.0-1.0","""event"",""trial"",""time""
""fullscreenenter"",""0"",""3293""
","
","
","""event"",""trial"",""time""
""fullscreenenter"",""0"",""3293""
","
","null","<p></p>","null","","","","","","","","","","","","","","","","","","","","","","","",""
"","do_trial","166","470248","0.0-92.0-0.0","""event"",""trial"",""time""
""fullscreenenter"",""0"",""3293""
","
","
","""event"",""trial"",""time""
""fullscreenenter"",""0"",""3293""
","
","652.6000000000931","","","","","","","","49","0,0,0","6","blank","303","null","0.15237990643400406","0.5000076496149779","0.30007004258702197","0","","","","","","","","",""
"","html-keyboard-response","167","471254","0.0-92.0-1.0","""event"",""trial"",""time""
""fullscreenenter"",""0"",""3293""
","
","
","""event"",""trial"",""time""
""fullscreenenter"",""0"",""3293""
","
","null","<p></p>","null","","","","","","","","","","","","","","","","","","","","","","","",""
"","do_trial","168","474229","0.0-93.0-0.0","""event"",""trial"",""time""
""fullscreenenter"",""0"",""3293""
","
","
","""event"",""trial"",""time""
""fullscreenenter"",""0"",""3293""
","
","350.4000000000233","","","","","","","","49","0,1,1","6","blank","304","null","0.17284820188850952","0.5358963785005861","0.47317824162091043","0","","","","","","","","",""
"","html-keyboard-response","169","475248","0.0-93.0-1.0","""event"",""trial"",""time""
""fullscreenenter"",""0"",""3293""
","
","
","""event"",""trial"",""time""
""fullscreenenter"",""0"",""3293""
","
","null","<p></p>","null","","","","","","","","","","","","","","","","","","","","","","","",""
"","do_trial","170","478004","0.0-94.0-0.0","""event"",""trial"",""time""
""fullscreenenter"",""0"",""3293""
","
","
","""event"",""trial"",""time""
""fullscreenenter"",""0"",""3293""
","
","118.90000000002328","","","","","","","","49","1,0,1","6","blank","305","null","0.18099132209543253","0.4736711763010241","0.4571898533049636","1","","","","","","","","",""
"","html-keyboard-response","171","479010","0.0-94.0-1.0","""event"",""trial"",""time""
""fullscreenenter"",""0"",""3293""
","
","
","""event"",""trial"",""time""
""fullscreenenter"",""0"",""3293""
","
","null","<p></p>","null","","","","","","","","","","","","","","","","","","","","","","","",""
"","do_trial","172","481642","0.0-95.0-0.0","""event"",""trial"",""time""
""fullscreenenter"",""0"",""3293""
","
","
","""event"",""trial"",""time""
""fullscreenenter"",""0"",""3293""
","
","0","","","","","","","","49","0,1,1","6","blank","306","null","0.27463860771291065","0.42387070579128927","0.3672303333022752","0","","","","","","","","",""
"","html-keyboard-response","173","482646","0.0-95.0-1.0","""event"",""trial"",""time""
""fullscreenenter"",""0"",""3293""
","
","
","""event"",""trial"",""time""
""fullscreenenter"",""0"",""3293""
","
","null","<p></p>","null","","","","","","","","","","","","","","","","","","","","","","","",""
"","do_trial","174","485555","0.0-96.0-0.0","""event"",""trial"",""time""
""fullscreenenter"",""0"",""3293""
","
","
","""event"",""trial"",""time""
""fullscreenenter"",""0"",""3293""
","
","285","","","","","","","","49","0,1,1","6","blank","307","null","0.26758950367338147","0.43478679683315496","0.372401988272159","0","","","","","","","","",""
"","html-keyboard-response","175","486568","0.0-96.0-1.0","""event"",""trial"",""time""
""fullscreenenter"",""0"",""3293""
","
","
","""event"",""trial"",""time""
""fullscreenenter"",""0"",""3293""
","
","null","<p></p>","null","","","","","","","","","","","","","","","","","","","","","","","",""
"","do_trial","176","489301","0.0-97.0-0.0","""event"",""trial"",""time""
""fullscreenenter"",""0"",""3293""
","
","
","""event"",""trial"",""time""
""fullscreenenter"",""0"",""3293""
","
","103.09999999997672","","","","","","","","49","0,1,0","6","blank","308","null","0.1973172752437913","0.6717157874642615","0.21375001145098665","0","","","","","","","","",""
"","html-keyboard-response","177","490320","0.0-97.0-1.0","""event"",""trial"",""time""
""fullscreenenter"",""0"",""3293""
","
","
","""event"",""trial"",""time""
""fullscreenenter"",""0"",""3293""
","
","null","<p></p>","null","","","","","","","","","","","","","","","","","","","","","","","",""
"","break","178","492031","0.0-98.0-0.0","""event"",""trial"",""time""
""fullscreenenter"",""0"",""3293""
","
","
","""event"",""trial"",""time""
""fullscreenenter"",""0"",""3293""
","
","1709.3000000000466","<div class='center'><p>Time to take a quick break! You have 2 minutes to rest, but you can move on sooner if you'd like.</p><p> Press the <b>space bar</b> to continue.</p></div>","32","","","","","","","","","","","","","","","","","","","","","","","",""
"","do_recog","179","495012","0.0-98.0-1.0","""event"",""trial"",""time""
""fullscreenenter"",""0"",""3293""
","
","
","""event"",""trial"",""time""
""fullscreenenter"",""0"",""3293""
","
","1467.5","","","","","","","","53","","","","309","probe-177","","","","","1","[object Object]","35","0","1","","","",""
"","html-keyboard-response","180","496024","0.0-98.0-2.0","""event"",""trial"",""time""
""fullscreenenter"",""0"",""3293""
","
","
","""event"",""trial"",""time""
""fullscreenenter"",""0"",""3293""
","
","null","<p></p>","null","","","","","","","","","","","","","","","","","","","","","","","",""
"","do_trial","181","499251","0.0-99.0-0.0","""event"",""trial"",""time""
""fullscreenenter"",""0"",""3293""
","
","
","""event"",""trial"",""time""
""fullscreenenter"",""0"",""3293""
","
","593.8000000000466","","","","","","","","49","1,1,0","6","blank","310","null","0.24049794138275865","0.6921242210285456","0.14563795489511389","1","","","","","","","","",""
"","html-keyboard-response","182","500253","0.0-99.0-1.0","""event"",""trial"",""time""
""fullscreenenter"",""0"",""3293""
","
","
","""event"",""trial"",""time""
""fullscreenenter"",""0"",""3293""
","
","null","<p></p>","null","","","","","","","","","","","","","","","","","","","","","","","",""
"","do_recog","183","503025","0.0-100.0-0.0","""event"",""trial"",""time""
""fullscreenenter"",""0"",""3293""
","
","
","""event"",""trial"",""time""
""fullscreenenter"",""0"",""3293""
","
","1255.4000000000233","","","","","","","","53","","","","311","probe-121","","","","","1","[object Object]","157","3","1","","","",""
"","html-keyboard-response","184","504028","0.0-100.0-1.0","""event"",""trial"",""time""
""fullscreenenter"",""0"",""3293""
","
","
","""event"",""trial"",""time""
""fullscreenenter"",""0"",""3293""
","
","null","<p></p>","null","","","","","","","","","","","","","","","","","","","","","","","",""
"","do_trial","185","507123","0.0-101.0-0.0","""event"",""trial"",""time""
""fullscreenenter"",""0"",""3293""
","
","
","""event"",""trial"",""time""
""fullscreenenter"",""0"",""3293""
","
","470.39999999990687","","","","","","","","49","0,1,0","6","blank","312","null","0.32683563188011433","0.6725519986038464","0.12958803129283056","0","","","","","","","","",""
"","html-keyboard-response","186","508134","0.0-101.0-1.0","""event"",""trial"",""time""
""fullscreenenter"",""0"",""3293""
","
","
","""event"",""trial"",""time""
""fullscreenenter"",""0"",""3293""
","
","null","<p></p>","null","","","","","","","","","","","","","","","","","","","","","","","",""
"","do_trial","187","510978","0.0-102.0-0.0","""event"",""trial"",""time""
""fullscreenenter"",""0"",""3293""
","
","
","""event"",""trial"",""time""
""fullscreenenter"",""0"",""3293""
","
","217.30000000004657","","","","","","","","49","0,1,0","6","blank","313","null","0.27206700530755673","0.725559252382473","0.12631420905280996","0","","","","","","","","",""
"","html-keyboard-response","188","511982","0.0-102.0-1.0","""event"",""trial"",""time""
""fullscreenenter"",""0"",""3293""
","
","
","""event"",""trial"",""time""
""fullscreenenter"",""0"",""3293""
","
","null","<p></p>","null","","","","","","","","","","","","","","","","","","","","","","","",""
"","do_trial","189","514995","0.0-103.0-0.0","""event"",""trial"",""time""
""fullscreenenter"",""0"",""3293""
","
","
","""event"",""trial"",""time""
""fullscreenenter"",""0"",""3293""
","
","391.10000000009313","","","","","","","","49","1,1,0","6","blank","314","null","0.2727132250404174","0.8019433676933901","0.22388069797450705","1","","","","","","","","",""
"","html-keyboard-response","190","516007","0.0-103.0-1.0","""event"",""trial"",""time""
""fullscreenenter"",""0"",""3293""
","
","
","""event"",""trial"",""time""
""fullscreenenter"",""0"",""3293""
","
","null","<p></p>","null","","","","","","","","","","","","","","","","","","","","","","","",""
"","do_trial","191","518910","0.0-104.0-0.0","""event"",""trial"",""time""
""fullscreenenter"",""0"",""3293""
","
","
","""event"",""trial"",""time""
""fullscreenenter"",""0"",""3293""
","
","277.19999999995343","","","","","","","","49","0,1,1","6","blank","315","null","0.2513956032655781","0.6840962870638461","0.2758039601083898","0","","","","","","","","",""
"","html-keyboard-response","192","519923","0.0-104.0-1.0","""event"",""trial"",""time""
""fullscreenenter"",""0"",""3293""
","
","
","""event"",""trial"",""time""
""fullscreenenter"",""0"",""3293""
","
","null","<p></p>","null","","","","","","","","","","","","","","","","","","","","","","","",""
"","do_recog","193","522869","0.0-105.0-0.0","""event"",""trial"",""time""
""fullscreenenter"",""0"",""3293""
","
","
","""event"",""trial"",""time""
""fullscreenenter"",""0"",""3293""
","
","1426.5","","","","","","","","56","","","","316","probe-182","","","","","1","[object Object]","152","3","0","","","",""
"","html-keyboard-response","194","523874","0.0-105.0-1.0","""event"",""trial"",""time""
""fullscreenenter"",""0"",""3293""
","
","
","""event"",""trial"",""time""
""fullscreenenter"",""0"",""3293""
","
","null","<p></p>","null","","","","","","","","","","","","","","","","","","","","","","","",""
"","do_trial","195","526843","0.0-106.0-0.0","""event"",""trial"",""time""
""fullscreenenter"",""0"",""3293""
","
","
","""event"",""trial"",""time""
""fullscreenenter"",""0"",""3293""
","
","409.30000000004657","","","","","","","","49","1,1,0","6","blank","317","null","0.245034074331765","0.7827491989801381","0.22696644689998477","1","","","","","","","","",""
"","html-keyboard-response","196","527846","0.0-106.0-1.0","""event"",""trial"",""time""
""fullscreenenter"",""0"",""3293""
","
","
","""event"",""trial"",""time""
""fullscreenenter"",""0"",""3293""
","
","null","<p></p>","null","","","","","","","","","","","","","","","","","","","","","","","",""
"","do_trial","197","530741","0.0-107.0-0.0","""event"",""trial"",""time""
""fullscreenenter"",""0"",""3293""
","
","
","""event"",""trial"",""time""
""fullscreenenter"",""0"",""3293""
","
","262.80000000004657","","","","","","","","49","0,1,0","6","blank","318","null","0.25207958619303295","0.7475202597451283","0.3034180186403424","0","","","","","","","","",""
"","html-keyboard-response","198","531754","0.0-107.0-1.0","""event"",""trial"",""time""
""fullscreenenter"",""0"",""3293""
","
","
","""event"",""trial"",""time""
""fullscreenenter"",""0"",""3293""
","
","null","<p></p>","null","","","","","","","","","","","","","","","","","","","","","","","",""
"","do_trial","199","534663","0.0-108.0-0.0","""event"",""trial"",""time""
""fullscreenenter"",""0"",""3293""
","
","
","""event"",""trial"",""time""
""fullscreenenter"",""0"",""3293""
","
","269.0999999998603","","","","","","","","49","0,1,0","6","blank","319","null","0.1145850134295412","0.7338427410603454","0.22563475753242812","0","","","","","","","","",""
"","html-keyboard-response","200","535667","0.0-108.0-1.0","""event"",""trial"",""time""
""fullscreenenter"",""0"",""3293""
","
","
","""event"",""trial"",""time""
""fullscreenenter"",""0"",""3293""
","
","null","<p></p>","null","","","","","","","","","","","","","","","","","","","","","","","",""
"","do_trial","201","538570","0.0-109.0-0.0","""event"",""trial"",""time""
""fullscreenenter"",""0"",""3293""
","
","
","""event"",""trial"",""time""
""fullscreenenter"",""0"",""3293""
","
","260.39999999990687","","","","","","","","49","0,1,0","6","blank","320","null","0.06578255679466297","0.6888792405218942","0.3062982592067338","0","","","","","","","","",""
"","html-keyboard-response","202","539574","0.0-109.0-1.0","""event"",""trial"",""time""
""fullscreenenter"",""0"",""3293""
","
","
","""event"",""trial"",""time""
""fullscreenenter"",""0"",""3293""
","
","null","<p></p>","null","","","","","","","","","","","","","","","","","","","","","","","",""
"","do_trial","203","542500","0.0-110.0-0.0","""event"",""trial"",""time""
""fullscreenenter"",""0"",""3293""
","
","
","""event"",""trial"",""time""
""fullscreenenter"",""0"",""3293""
","
","297","","","","","","","","49","0,1,0","6","blank","321","null","0.060663032295918386","0.7175713724777798","0.39315158933794","0","","","","","","","","",""
"","html-keyboard-response","204","543503","0.0-110.0-1.0","""event"",""trial"",""time""
""fullscreenenter"",""0"",""3293""
","
","
","""event"",""trial"",""time""
""fullscreenenter"",""0"",""3293""
","
","null","<p></p>","null","","","","","","","","","","","","","","","","","","","","","","","",""
"","do_recog","205","546327","0.0-111.0-0.0","""event"",""trial"",""time""
""fullscreenenter"",""0"",""3293""
","
","
","""event"",""trial"",""time""
""fullscreenenter"",""0"",""3293""
","
","1313.8999999999069","","","","","","","","53","","","","322","probe-81","","","","","1","[object Object]","74","1","1","","","",""
"","html-keyboard-response","206","547338","0.0-111.0-1.0","""event"",""trial"",""time""
""fullscreenenter"",""0"",""3293""
","
","
","""event"",""trial"",""time""
""fullscreenenter"",""0"",""3293""
","
","null","<p></p>","null","","","","","","","","","","","","","","","","","","","","","","","",""
"","do_trial","207","550518","0.0-112.0-0.0","""event"",""trial"",""time""
""fullscreenenter"",""0"",""3293""
","
","
","""event"",""trial"",""time""
""fullscreenenter"",""0"",""3293""
","
","538.6000000000931","","","","","","","","49","0,0,0","6","blank","323","null","0.19891856830884924","0.5467507083871405","0.18020421603338052","0","","","","","","","","",""
"","html-keyboard-response","208","551522","0.0-112.0-1.0","""event"",""trial"",""time""
""fullscreenenter"",""0"",""3293""
","
","
","""event"",""trial"",""time""
""fullscreenenter"",""0"",""3293""
","
","null","<p></p>","null","","","","","","","","","","","","","","","","","","","","","","","",""
"","do_trial","209","554498","0.0-113.0-0.0","""event"",""trial"",""time""
""fullscreenenter"",""0"",""3293""
","
","
","""event"",""trial"",""time""
""fullscreenenter"",""0"",""3293""
","
","349","","","","","","","","49","0,1,1","6","blank","324","null","0.20501201472424246","0.6033820594904276","0.3487110343967527","0","","","","","","","","",""
"","html-keyboard-response","210","555503","0.0-113.0-1.0","""event"",""trial"",""time""
""fullscreenenter"",""0"",""3293""
","
","
","""event"",""trial"",""time""
""fullscreenenter"",""0"",""3293""
","
","null","<p></p>","null","","","","","","","","","","","","","","","","","","","","","","","",""
"","do_trial","211","558441","0.0-114.0-0.0","""event"",""trial"",""time""
""fullscreenenter"",""0"",""3293""
","
","
","""event"",""trial"",""time""
""fullscreenenter"",""0"",""3293""
","
","378.60000000009313","","","","","","","","49","1,1,1","6","blank","325","null","0.19528717601947773","0.5853196268272315","0.269742313275582","1","","","","","","","","",""
"","html-keyboard-response","212","559445","0.0-114.0-1.0","""event"",""trial"",""time""
""fullscreenenter"",""0"",""3293""
","
","
","""event"",""trial"",""time""
""fullscreenenter"",""0"",""3293""
","
","null","<p></p>","null","","","","","","","","","","","","","","","","","","","","","","","",""
"","do_trial","213","562560","0.0-115.0-0.0","""event"",""trial"",""time""
""fullscreenenter"",""0"",""3293""
","
","
","""event"",""trial"",""time""
""fullscreenenter"",""0"",""3293""
","
","543.1000000000931","","","","","","","","49","0,1,0","6","blank","326","null","0.14689785047056628","0.7659295316288912","0.24148866553837775","0","","","","","","","","",""
"","html-keyboard-response","214","563564","0.0-115.0-1.0","""event"",""trial"",""time""
""fullscreenenter"",""0"",""3293""
","
","
","""event"",""trial"",""time""
""fullscreenenter"",""0"",""3293""
","
","null","<p></p>","null","","","","","","","","","","","","","","","","","","","","","","","",""
"","do_recog","215","566901","0.0-116.0-0.0","""event"",""trial"",""time""
""fullscreenenter"",""0"",""3293""
","
","
","""event"",""trial"",""time""
""fullscreenenter"",""0"",""3293""
","
","1822.1999999999534","","","","","","","","54","","","","327","probe-18","","","","","1","[object Object]","30","0","1","","","",""
"","html-keyboard-response","216","567905","0.0-116.0-1.0","""event"",""trial"",""time""
""fullscreenenter"",""0"",""3293""
","
","
","""event"",""trial"",""time""
""fullscreenenter"",""0"",""3293""
","
","null","<p></p>","null","","","","","","","","","","","","","","","","","","","","","","","",""
"","do_trial","217","570888","0.0-117.0-0.0","""event"",""trial"",""time""
""fullscreenenter"",""0"",""3293""
","
","
","""event"",""trial"",""time""
""fullscreenenter"",""0"",""3293""
","
","430.69999999995343","","","","","","","","49","0,0,0","6","blank","328","null","0.11924706256155529","0.5637095925743592","0.3184170876886411","0","","","","","","","","",""
"","html-keyboard-response","218","571891","0.0-117.0-1.0","""event"",""trial"",""time""
""fullscreenenter"",""0"",""3293""
","
","
","""event"",""trial"",""time""
""fullscreenenter"",""0"",""3293""
","
","null","<p></p>","null","","","","","","","","","","","","","","","","","","","","","","","",""
"","do_recog","219","574744","0.0-118.0-0.0","""event"",""trial"",""time""
""fullscreenenter"",""0"",""3293""
","
","
","""event"",""trial"",""time""
""fullscreenenter"",""0"",""3293""
","
","1337","","","","","","","","53","","","","329","probe-97","","","","","1","[object Object]","70","1","1","","","",""
"","html-keyboard-response","220","575754","0.0-118.0-1.0","""event"",""trial"",""time""
""fullscreenenter"",""0"",""3293""
","
","
","""event"",""trial"",""time""
""fullscreenenter"",""0"",""3293""
","
","null","<p></p>","null","","","","","","","","","","","","","","","","","","","","","","","",""
"","do_trial","221","578746","0.0-119.0-0.0","""event"",""trial"",""time""
""fullscreenenter"",""0"",""3293""
","
","
","""event"",""trial"",""time""
""fullscreenenter"",""0"",""3293""
","
","356.39999999990687","","","","","","","","49","0,0,1","6","blank","330","null","0.19621052063853725","0.6107746460015622","0.19705625109118408","0","","","","","","","","",""
"","html-keyboard-response","222","579748","0.0-119.0-1.0","""event"",""trial"",""time""
""fullscreenenter"",""0"",""3293""
","
","
","""event"",""trial"",""time""
""fullscreenenter"",""0"",""3293""
","
","null","<p></p>","null","","","","","","","","","","","","","","","","","","","","","","","",""
"","do_trial","223","582629","0.0-120.0-0.0","""event"",""trial"",""time""
""fullscreenenter"",""0"",""3293""
","
","
","""event"",""trial"",""time""
""fullscreenenter"",""0"",""3293""
","
","311.20000000018626","","","","","","","","49","0,1,1","6","blank","331","null","0.2406996099972194","0.5852746127115075","0.21276652923821673","0","","","","","","","","",""
"","html-keyboard-response","224","583634","0.0-120.0-1.0","""event"",""trial"",""time""
""fullscreenenter"",""0"",""3293""
","
","
","""event"",""trial"",""time""
""fullscreenenter"",""0"",""3293""
","
","null","<p></p>","null","","","","","","","","","","","","","","","","","","","","","","","",""
"","do_trial","225","586604","0.0-121.0-0.0","""event"",""trial"",""time""
""fullscreenenter"",""0"",""3293""
","
","
","""event"",""trial"",""time""
""fullscreenenter"",""0"",""3293""
","
","337.80000000004657","","","","","","","","49","1,1,0","6","blank","332","null","0.17318300384305566","0.6226063962320592","0.21075774741809344","1","","","","","","","","",""
"","html-keyboard-response","226","587613","0.0-121.0-1.0","""event"",""trial"",""time""
""fullscreenenter"",""0"",""3293""
","
","
","""event"",""trial"",""time""
""fullscreenenter"",""0"",""3293""
","
","null","<p></p>","null","","","","","","","","","","","","","","","","","","","","","","","",""
"","do_trial","227","590508","0.0-122.0-0.0","""event"",""trial"",""time""
""fullscreenenter"",""0"",""3293""
","
","
","""event"",""trial"",""time""
""fullscreenenter"",""0"",""3293""
","
","321.9000000001397","","","","","","","","49","0,1,0","6","blank","333","null","0.23000533474662965","0.5529952078182983","0.15922693568577423","0","","","","","","","","",""
"","html-keyboard-response","228","591512","0.0-122.0-1.0","""event"",""trial"",""time""
""fullscreenenter"",""0"",""3293""
","
","
","""event"",""trial"",""time""
""fullscreenenter"",""0"",""3293""
","
","null","<p></p>","null","","","","","","","","","","","","","","","","","","","","","","","",""
"","do_trial","229","594414","0.0-123.0-0.0","""event"",""trial"",""time""
""fullscreenenter"",""0"",""3293""
","
","
","""event"",""trial"",""time""
""fullscreenenter"",""0"",""3293""
","
","297.4000000001397","","","","","","","","49","0,1,0","6","blank","334","null","0.11708207170630097","0.6345545038550205","0.32283211194579664","0","","","","","","","","",""
"","html-keyboard-response","230","595418","0.0-123.0-1.0","""event"",""trial"",""time""
""fullscreenenter"",""0"",""3293""
","
","
","""event"",""trial"",""time""
""fullscreenenter"",""0"",""3293""
","
","null","<p></p>","null","","","","","","","","","","","","","","","","","","","","","","","",""
"","do_recog","231","597860","0.0-124.0-0.0","""event"",""trial"",""time""
""fullscreenenter"",""0"",""3293""
","
","
","""event"",""trial"",""time""
""fullscreenenter"",""0"",""3293""
","
","932.5","","","","","","","","53","","","","335","probe-78","","","","","1","[object Object]","154","3","1","","","",""
"","html-keyboard-response","232","598864","0.0-124.0-1.0","""event"",""trial"",""time""
""fullscreenenter"",""0"",""3293""
","
","
","""event"",""trial"",""time""
""fullscreenenter"",""0"",""3293""
","
","null","<p></p>","null","","","","","","","","","","","","","","","","","","","","","","","",""
"","do_trial","233","601942","0.0-125.0-0.0","""event"",""trial"",""time""
""fullscreenenter"",""0"",""3293""
","
","
","""event"",""trial"",""time""
""fullscreenenter"",""0"",""3293""
","
","514.1000000000931","","","","","","","","49","0,0,1","6","blank","336","null","0.1287995277398588","0.6326409336024983","0.4216579952934717","0","","","","","","","","",""
"","html-keyboard-response","234","602945","0.0-125.0-1.0","""event"",""trial"",""time""
""fullscreenenter"",""0"",""3293""
","
","
","""event"",""trial"",""time""
""fullscreenenter"",""0"",""3293""
","
","null","<p></p>","null","","","","","","","","","","","","","","","","","","","","","","","",""
"","do_trial","235","605569","0.0-126.0-0.0","""event"",""trial"",""time""
""fullscreenenter"",""0"",""3293""
","
","
","""event"",""trial"",""time""
""fullscreenenter"",""0"",""3293""
","
","0.09999999986030161","","","","","","","","51","1,1,1","6","blank","337","null","0.31036178723188196","0.5953613089411357","0.36887091681290535","1","","","","","","","","",""
"","html-keyboard-response","236","606574","0.0-126.0-1.0","""event"",""trial"",""time""
""fullscreenenter"",""0"",""3293""
","
","
","""event"",""trial"",""time""
""fullscreenenter"",""0"",""3293""
","
","null","<p></p>","null","","","","","","","","","","","","","","","","","","","","","","","",""
"","do_trial","237","609307","0.0-127.0-0.0","""event"",""trial"",""time""
""fullscreenenter"",""0"",""3293""
","
","
","""event"",""trial"",""time""
""fullscreenenter"",""0"",""3293""
","
","95.69999999995343","","","","","","","","51","0,0,1","6","blank","338","null","0.21952461866512324","0.7027336624748182","0.3610349566188733","1","","","","","","","","",""
"","html-keyboard-response","238","610312","0.0-127.0-1.0","""event"",""trial"",""time""
""fullscreenenter"",""0"",""3293""
","
","
","""event"",""trial"",""time""
""fullscreenenter"",""0"",""3293""
","
","null","<p></p>","null","","","","","","","","","","","","","","","","","","","","","","","",""
"","do_trial","239","612948","0.0-128.0-0.0","""event"",""trial"",""time""
""fullscreenenter"",""0"",""3293""
","
","
","""event"",""trial"",""time""
""fullscreenenter"",""0"",""3293""
","
","0","","","","","","","","51","0,0,0","6","blank","339","null","0.15167377402036647","0.66584889582976","0.3443663577907689","0","","","","","","","","",""
"","html-keyboard-response","240","613953","0.0-128.0-1.0","""event"",""trial"",""time""
""fullscreenenter"",""0"",""3293""
","
","
","""event"",""trial"",""time""
""fullscreenenter"",""0"",""3293""
","
","null","<p></p>","null","","","","","","","","","","","","","","","","","","","","","","","",""
"","do_trial","241","616555","0.0-129.0-0.0","""event"",""trial"",""time""
""fullscreenenter"",""0"",""3293""
","
","
","""event"",""trial"",""time""
""fullscreenenter"",""0"",""3293""
","
","44.5999999998603","","","","","","","","51","0,1,1","6","blank","340","null","0.07802776748532754","0.7113378184206027","0.448589004511547","1","","","","","","","","",""
"","html-keyboard-response","242","617559","0.0-129.0-1.0","""event"",""trial"",""time""
""fullscreenenter"",""0"",""3293""
","
","
","""event"",""trial"",""time""
""fullscreenenter"",""0"",""3293""
","
","null","<p></p>","null","","","","","","","","","","","","","","","","","","","","","","","",""
"","do_trial","243","620315","0.0-130.0-0.0","""event"",""trial"",""time""
""fullscreenenter"",""0"",""3293""
","
","
","""event"",""trial"",""time""
""fullscreenenter"",""0"",""3293""
","
","121.39999999990687","","","","","","","","51","0,1,0","6","blank","341","null","0.1298581466240554","0.7477829505916472","0.35202770040865533","0","","","","","","","","",""
"","html-keyboard-response","244","621333","0.0-130.0-1.0","""event"",""trial"",""time""
""fullscreenenter"",""0"",""3293""
","
","
","""event"",""trial"",""time""
""fullscreenenter"",""0"",""3293""
","
","null","<p></p>","null","","","","","","","","","","","","","","","","","","","","","","","",""
"","do_trial","245","623973","0.0-131.0-0.0","""event"",""trial"",""time""
""fullscreenenter"",""0"",""3293""
","
","
","""event"",""trial"",""time""
""fullscreenenter"",""0"",""3293""
","
","0.10000000009313226","","","","","","","","51","0,1,0","6","blank","342","null","0.058742120037125735","0.7323488287679436","0.3101468710789266","0","","","","","","","","",""
"","html-keyboard-response","246","624990","0.0-131.0-1.0","""event"",""trial"",""time""
""fullscreenenter"",""0"",""3293""
","
","
","""event"",""trial"",""time""
""fullscreenenter"",""0"",""3293""
","
","null","<p></p>","null","","","","","","","","","","","","","","","","","","","","","","","",""
"","do_recog","247","628054","0.0-132.0-0.0","""event"",""trial"",""time""
""fullscreenenter"",""0"",""3293""
","
","
","""event"",""trial"",""time""
""fullscreenenter"",""0"",""3293""
","
","1546.3000000000466","","","","","","","","53","","","","343","probe-131","","","","","1","[object Object]","78","1","1","","","",""
"","html-keyboard-response","248","629065","0.0-132.0-1.0","""event"",""trial"",""time""
""fullscreenenter"",""0"",""3293""
","
","
","""event"",""trial"",""time""
""fullscreenenter"",""0"",""3293""
","
","null","<p></p>","null","","","","","","","","","","","","","","","","","","","","","","","",""
"","do_trial","249","632136","0.0-133.0-0.0","""event"",""trial"",""time""
""fullscreenenter"",""0"",""3293""
","
","
","""event"",""trial"",""time""
""fullscreenenter"",""0"",""3293""
","
","435","","","","","","","","51","1,0,1","6","blank","344","null","0.07910737657239009","0.7600707038936406","0.38130000628669247","1","","","","","","","","",""
"","html-keyboard-response","250","633154","0.0-133.0-1.0","""event"",""trial"",""time""
""fullscreenenter"",""0"",""3293""
","
","
","""event"",""trial"",""time""
""fullscreenenter"",""0"",""3293""
","
","null","<p></p>","null","","","","","","","","","","","","","","","","","","","","","","","",""
"","do_recog","251","636365","0.0-134.0-0.0","""event"",""trial"",""time""
""fullscreenenter"",""0"",""3293""
","
","
","""event"",""trial"",""time""
""fullscreenenter"",""0"",""3293""
","
","1692.3000000000466","","","","","","","","55","","","","345","probe-69","","","","","1","[object Object]","155","3","0","","","",""
"","html-keyboard-response","252","637369","0.0-134.0-1.0","""event"",""trial"",""time""
""fullscreenenter"",""0"",""3293""
","
","
","""event"",""trial"",""time""
""fullscreenenter"",""0"",""3293""
","
","null","<p></p>","null","","","","","","","","","","","","","","","","","","","","","","","",""
"","do_trial","253","640309","0.0-135.0-0.0","""event"",""trial"",""time""
""fullscreenenter"",""0"",""3293""
","
","
","""event"",""trial"",""time""
""fullscreenenter"",""0"",""3293""
","
","377.5999999998603","","","","","","","","51","0,1,0","6","blank","346","null","0.05630301213612566","0.6562550994732513","0.24539656438681068","0","","","","","","","","",""
"","html-keyboard-response","254","641320","0.0-135.0-1.0","""event"",""trial"",""time""
""fullscreenenter"",""0"",""3293""
","
","
","""event"",""trial"",""time""
""fullscreenenter"",""0"",""3293""
","
","null","<p></p>","null","","","","","","","","","","","","","","","","","","","","","","","",""
"","do_recog","255","644743","0.0-136.0-0.0","""event"",""trial"",""time""
""fullscreenenter"",""0"",""3293""
","
","
","""event"",""trial"",""time""
""fullscreenenter"",""0"",""3293""
","
","1903.8000000000466","","","","","","","","56","","","","347","probe-252","","","","","0","[object Object]","null","null","1","","","",""
"","html-keyboard-response","256","645747","0.0-136.0-1.0","""event"",""trial"",""time""
""fullscreenenter"",""0"",""3293""
","
","
","""event"",""trial"",""time""
""fullscreenenter"",""0"",""3293""
","
","null","<p></p>","null","","","","","","","","","","","","","","","","","","","","","","","",""
"","do_trial","257","648733","0.0-137.0-0.0","""event"",""trial"",""time""
""fullscreenenter"",""0"",""3293""
","
","
","""event"",""trial"",""time""
""fullscreenenter"",""0"",""3293""
","
","364.60000000009313","","","","","","","","51","0,1,0","6","blank","348","null","0.18505609676036244","0.4411616835530146","0.23735742206116128","0","","","","","","","","",""
"","html-keyboard-response","258","649748","0.0-137.0-1.0","""event"",""trial"",""time""
""fullscreenenter"",""0"",""3293""
","
","
","""event"",""trial"",""time""
""fullscreenenter"",""0"",""3293""
","
","null","<p></p>","null","","","","","","","","","","","","","","","","","","","","","","","",""
"","break","259","652671","0.0-138.0-0.0","""event"",""trial"",""time""
""fullscreenenter"",""0"",""3293""
","
","
","""event"",""trial"",""time""
""fullscreenenter"",""0"",""3293""
","
","2921.8000000000466","<div class='center'><p>Time to take a quick break! You have 2 minutes to rest, but you can move on sooner if you'd like.</p><p> Press the <b>space bar</b> to continue.</p></div>","32","","","","","","","","","","","","","","","","","","","","","","","",""
"","do_trial","260","656211","0.0-138.0-1.0","""event"",""trial"",""time""
""fullscreenenter"",""0"",""3293""
","
","
","""event"",""trial"",""time""
""fullscreenenter"",""0"",""3293""
","
","987.7999999998137","","","","","","","","49","1,0,1","6","blank","349","null","0.29522529788382607","0.13887257157516802","0.29867718648412594","1","","","","","","","","",""
"","html-keyboard-response","261","657229","0.0-138.0-2.0","""event"",""trial"",""time""
""fullscreenenter"",""0"",""3293""
","
","
","""event"",""trial"",""time""
""fullscreenenter"",""0"",""3293""
","
","null","<p></p>","null","","","","","","","","","","","","","","","","","","","","","","","",""
"","do_trial","262","660007","0.0-139.0-0.0","""event"",""trial"",""time""
""fullscreenenter"",""0"",""3293""
","
","
","""event"",""trial"",""time""
""fullscreenenter"",""0"",""3293""
","
","212.39999999990687","","","","","","","","49","0,0,0","6","blank","350","null","0.29521419886397643","0.23342731261362695","0.29070200659791295","0","","","","","","","","",""
"","html-keyboard-response","263","661026","0.0-139.0-1.0","""event"",""trial"",""time""
""fullscreenenter"",""0"",""3293""
","
","
","""event"",""trial"",""time""
""fullscreenenter"",""0"",""3293""
","
","null","<p></p>","null","","","","","","","","","","","","","","","","","","","","","","","",""
"","do_trial","264","663907","0.0-140.0-0.0","""event"",""trial"",""time""
""fullscreenenter"",""0"",""3293""
","
","
","""event"",""trial"",""time""
""fullscreenenter"",""0"",""3293""
","
","320.5999999998603","","","","","","","","49","1,0,1","6","blank","351","null","0.49926766222475094","0.05298645620867498","0.25578533770000933","1","","","","","","","","",""
"","html-keyboard-response","265","664918","0.0-140.0-1.0","""event"",""trial"",""time""
""fullscreenenter"",""0"",""3293""
","
","
","""event"",""trial"",""time""
""fullscreenenter"",""0"",""3293""
","
","null","<p></p>","null","","","","","","","","","","","","","","","","","","","","","","","",""
"","do_trial","266","667498","0.0-141.0-0.0","""event"",""trial"",""time""
""fullscreenenter"",""0"",""3293""
","
","
","""event"",""trial"",""time""
""fullscreenenter"",""0"",""3293""
","
","18","","","","","","","","49","1,0,1","6","blank","352","null","0.4936772321716664","0.11470988650128401","0.2978579249915319","1","","","","","","","","",""
"","html-keyboard-response","267","668508","0.0-141.0-1.0","""event"",""trial"",""time""
""fullscreenenter"",""0"",""3293""
","
","
","""event"",""trial"",""time""
""fullscreenenter"",""0"",""3293""
","
","null","<p></p>","null","","","","","","","","","","","","","","","","","","","","","","","",""
"","do_trial","268","671454","0.0-142.0-0.0","""event"",""trial"",""time""
""fullscreenenter"",""0"",""3293""
","
","
","""event"",""trial"",""time""
""fullscreenenter"",""0"",""3293""
","
","317.39999999990687","","","","","","","","49","1,1,1","6","blank","353","null","0.636562667456205","0.16179875514923833","0.2171544162166352","1","","","","","","","","",""
"","html-keyboard-response","269","672458","0.0-142.0-1.0","""event"",""trial"",""time""
""fullscreenenter"",""0"",""3293""
","
","
","""event"",""trial"",""time""
""fullscreenenter"",""0"",""3293""
","
","null","<p></p>","null","","","","","","","","","","","","","","","","","","","","","","","",""
"","do_recog","270","675287","0.0-143.0-0.0","""event"",""trial"",""time""
""fullscreenenter"",""0"",""3293""
","
","
","""event"",""trial"",""time""
""fullscreenenter"",""0"",""3293""
","
","1302.8999999999069","","","","","","","","53","","","","354","probe-173","","","","","1","[object Object]","77","1","1","","","",""
"","html-keyboard-response","271","676292","0.0-143.0-1.0","""event"",""trial"",""time""
""fullscreenenter"",""0"",""3293""
","
","
","""event"",""trial"",""time""
""fullscreenenter"",""0"",""3293""
","
","null","<p></p>","null","","","","","","","","","","","","","","","","","","","","","","","",""
"","do_trial","272","679515","0.0-144.0-0.0","""event"",""trial"",""time""
""fullscreenenter"",""0"",""3293""
","
","
","""event"",""trial"",""time""
""fullscreenenter"",""0"",""3293""
","
","595.7000000001863","","","","","","","","49","0,1,0","6","blank","355","null","0.63111957858947","0.17021812279614473","0.38598764310078304","0","","","","","","","","",""
"","html-keyboard-response","273","680519","0.0-144.0-1.0","""event"",""trial"",""time""
""fullscreenenter"",""0"",""3293""
","
","
","""event"",""trial"",""time""
""fullscreenenter"",""0"",""3293""
","
","null","<p></p>","null","","","","","","","","","","","","","","","","","","","","","","","",""
"","do_recog","274","683438","0.0-145.0-0.0","""event"",""trial"",""time""
""fullscreenenter"",""0"",""3293""
","
","
","""event"",""trial"",""time""
""fullscreenenter"",""0"",""3293""
","
","1405.5","","","","","","","","53","","","","356","probe-227","","","","","1","[object Object]","151","3","1","","","",""
"","html-keyboard-response","275","684440","0.0-145.0-1.0","""event"",""trial"",""time""
""fullscreenenter"",""0"",""3293""
","
","
","""event"",""trial"",""time""
""fullscreenenter"",""0"",""3293""
","
","null","<p></p>","null","","","","","","","","","","","","","","","","","","","","","","","",""
"","do_trial","276","687518","0.0-146.0-0.0","""event"",""trial"",""time""
""fullscreenenter"",""0"",""3293""
","
","
","""event"",""trial"",""time""
""fullscreenenter"",""0"",""3293""
","
","422.5","","","","","","","","49","0,0,0","6","blank","357","null","0.5750118760752282","0.09905836353821344","0.449561283230919","0","","","","","","","","",""
