success,trial_type,trial_index,time_elapsed,internal_node_id,rt,stimulus,subject_id,key_press,response,choice_outcomes,context_n,context_img_id,trial_n,probe_img_id,pR_red,pR_white,pR_black,outcome,is_valid,image_to_show,probed_trial,probed_context,correct,context_id
TRUE,fullscreen,0,4797,0.0-0.0,,,,,,,,,,,,,,,,,,,,
,pavlovia,1,4812,0.0-1.0,,,,,,,,,,,,,,,,,,,,
,html-keyboard-response,2,13712,0.0-2.0,8895.4,"<div class='center'><p>Like yesterday,as the head captain of the ship, you have one important things to do: </p><b><p> Pick the pirate who you think will be most successful at robbing the next ship.</p></b><p>This is important in determining how much bonus money you’ll win.</p><br><p>The game will start by showing you the pirates. First pick a pirate using the <b> 1, 2, 3 </b> buttons on your keyboard. </p><p> Press <b>'1'</b> to choose red beard, <b>'2'</b> to choose white beard, and <b>'3'</b> to choose black beard</p><p> You only have 3 seconds to pick a pirate, so please make a choice quickly! If you are too slow, you’ll have to wait a bit during the time out.</p><p> Don’t feel rushed, but please do try to make a choice every time.</p><p>How good a pirate is at robbing a ship will change depending on the place they are in and how good the defenses are of the ship.</p><p><b>[Press the space bar to begin the practice game]</b></p></div>",610019cae69b9ad34c95e3b3,32,,,,,,,,,,,,,,,,
,html-keyboard-response,3,18371,0.0-3.0,4656.9,"<div class='center'><p>You’ve arrived at the final island of your journey! Unfortunately, it’s very foggy out, so you won’t be able to see it in the distance like the previous islands you've visited.</p><p>You’ll still be deciding which pirate you want to rob a ship like before. However, because of the fog, you also won’t be able to see the ship.</p><p>This means you do not have to remember the ships you rob on this island.</p><p><b>[Press the space bar to continue]</b></p></div>",,32,,,,,,,,,,,,,,,,
,html-keyboard-response,4,24295,0.0-4.0,5922.4,"<div class='center'><p> Sometimes you’ll be shown a ship, and you will be asked if you saw this ship on a past island.</p><p> Here is an example of what you will see.</p><p><b>[Press the space bar to continue]</b></p><p><img src='run_exp/static/images/tutorial/example_recog_trial.png' height='500'></p></div>",,32,,,,,,,,,,,,,,,,
,html-keyboard-response,5,28354,0.0-5.0,4056.2,"<div class='center'><p> You will press the 5, 6, 7, 8 buttons on your keyboard to respond.</p><p>If you are very sure saw the ship, press <b>5</b> on your keyboard.</p><p> If you think you  saw it before but are not sure, then press <b>6</b>.</p><p> If you think you have not seen it before but are not sure, then press <b>7</b>.</p><p> If you are sure you did not see the ship before, then press <b>8</b>.</p><p><b>[Press the space bar to continue]</b></p><p><img src='run_exp/static/images/tutorial/example_recog_trial.png' height='500'></p></div>",,32,,,,,,,,,,,,,,,,
,html-keyboard-response,6,30895,0.0-6.0,2537.8,"<div class='center'><p> If you remember correctly, then you’ll get a gold coin like this: </p><p><img src='run_exp/static/images/tutorial/reward_small.png' height='200'></p><p>If you do not remember correctly, then you'll see a red x like this: </p><p><img src='run_exp/static/images/tutorial/reward_no.png' height='200'></p><p>Importantly, when you are shown a ship, take the time to remind yourself which island you saw it on. This will help you in the next part of the study.</p><p><b>[Press the space bar to continue]</b></p></div>",,32,,,,,,,,,,,,,,,,
,html-keyboard-response,7,34304,0.0-7.0,3406.4,"<div class='center'><p>Let's go over the important points again. Your job is to: </p><p>1. Pick the pirate who is best at robbing ships and will bring you back gold coins. </p><p>2. Correctly remember whether or not you saw a ship before. If you did see the ship before, remind yourself on which island you saw the ship. </p><p><b>[Press the space bar to begin the next part of the study]</b></p></div>",,32,,,,,,,,,,,,,,,,
,do_welcome,8,35842,0.0-8.0,null,,,,null,,,,,,,,,,,,,,,
,do_trial,9,39682,0.0-9.0-0.0,1220,,,,49,"1,0,0",6,blank,230,null,0.225273252,0.665027306,0.066761015,1,,,,,,
,html-keyboard-response,10,40696,0.0-9.0-1.0,null,<p></p>,,null,,,,,,,,,,,,,,,,
,do_trial,11,43993,0.0-10.0-0.0,695.3999999,,,,49,"0,1,0",6,blank,231,null,0.281593406,0.59246054,0.098037601,0,,,,,,
,html-keyboard-response,12,45012,0.0-10.0-1.0,null,<p></p>,,null,,,,,,,,,,,,,,,,
,do_trial,13,48020,0.0-11.0-0.0,423.8999999,,,,49,"1,1,0",6,blank,232,null,0.301746119,0.510216343,0.068093898,1,,,,,,
,html-keyboard-response,14,49038,0.0-11.0-1.0,null,<p></p>,,null,,,,,,,,,,,,,,,,
,do_trial,15,52495,0.0-12.0-0.0,843.8000002,,,,51,"0,0,0",6,blank,233,null,0.326918045,0.506536272,0.09825462,0,,,,,,
,html-keyboard-response,16,53502,0.0-12.0-1.0,null,<p></p>,,null,,,,,,,,,,,,,,,,
,do_trial,17,56412,0.0-13.0-0.0,328.5999999,,,,49,"0,0,0",6,blank,234,null,0.312112507,0.5257535,0.167804165,0,,,,,,
,html-keyboard-response,18,57422,0.0-13.0-1.0,null,<p></p>,,null,,,,,,,,,,,,,,,,
,do_trial,19,60378,0.0-14.0-0.0,334.5999999,,,,49,"0,1,0",6,blank,235,null,0.314061839,0.564842376,0.072373594,0,,,,,,
,html-keyboard-response,20,61395,0.0-14.0-1.0,null,<p></p>,,null,,,,,,,,,,,,,,,,
,do_trial,21,64303,0.0-15.0-0.0,309.1000001,,,,49,"0,0,0",6,blank,236,null,0.211283895,0.553925479,0.056692521,0,,,,,,
,html-keyboard-response,22,65321,0.0-15.0-1.0,null,<p></p>,,null,,,,,,,,,,,,,,,,
,do_trial,23,68480,0.0-16.0-0.0,583.3999999,,,,50,"0,0,0",6,blank,237,null,0.309110541,0.671854551,0.175653463,0,,,,,,
,html-keyboard-response,24,69485,0.0-16.0-1.0,null,<p></p>,,null,,,,,,,,,,,,,,,,
,do_trial,25,72387,0.0-17.0-0.0,320,,,,50,"0,1,0",6,blank,238,null,0.235028949,0.652877404,0.152449604,1,,,,,,
,html-keyboard-response,26,73392,0.0-17.0-1.0,null,<p></p>,,null,,,,,,,,,,,,,,,,
,do_trial,27,76267,0.0-18.0-0.0,298.6999998,,,,50,"0,1,0",6,blank,239,null,0.122227433,0.5982856,0.110913458,1,,,,,,
,html-keyboard-response,28,77284,0.0-18.0-1.0,null,<p></p>,,null,,,,,,,,,,,,,,,,
,do_trial,29,80215,0.0-19.0-0.0,327.5999999,,,,50,"0,0,0",6,blank,240,null,0.135253949,0.548912879,0.206256352,0,,,,,,
,html-keyboard-response,30,81218,0.0-19.0-1.0,null,<p></p>,,null,,,,,,,,,,,,,,,,
,do_recog,31,87241,0.0-20.0-0.0,null,,,,null,,,,241,probe-158,,,,,1,[object Object],123,3,0,
,html-keyboard-response,32,88245,0.0-20.0-1.0,null,<p></p>,,null,,,,,,,,,,,,,,,,
,do_trial,33,91974,0.0-21.0-0.0,1128.2,,,,51,"0,1,0",6,blank,242,null,0.270708943,0.477768234,0.188238871,0,,,,,,
,html-keyboard-response,34,92978,0.0-21.0-1.0,null,<p></p>,,null,,,,,,,,,,,,,,,,
,do_trial,35,95900,0.0-22.0-0.0,334.8999999,,,,49,"0,0,0",6,blank,243,null,0.313468892,0.107001691,0.256284277,0,,,,,,
,html-keyboard-response,36,96917,0.0-22.0-1.0,null,<p></p>,,null,,,,,,,,,,,,,,,,
,do_trial,37,99673,0.0-23.0-0.0,170.7,,,,50,"0,0,0",6,blank,244,null,0.222558617,0.264375524,0.347585556,0,,,,,,
,html-keyboard-response,38,100698,0.0-23.0-1.0,null,<p></p>,,null,,,,,,,,,,,,,,,,
,do_trial,39,103653,0.0-24.0-0.0,355.6000001,,,,50,"0,0,0",6,blank,245,null,0.307492381,0.067977753,0.535851911,0,,,,,,
,html-keyboard-response,40,104686,0.0-24.0-1.0,null,<p></p>,,null,,,,,,,,,,,,,,,,
,do_recog,41,109033,0.0-25.0-0.0,2815,,,,54,,,,246,probe-55,,,,,1,[object Object],161,4,1,
,html-keyboard-response,42,110038,0.0-25.0-1.0,null,<p></p>,,null,,,,,,,,,,,,,,,,
,do_trial,43,115106,0.0-26.0-0.0,2494.3,,,,49,"0,1,1",6,blank,247,null,0.247878511,0.084427392,0.597022604,0,,,,,,
,html-keyboard-response,44,116124,0.0-26.0-1.0,null,<p></p>,,null,,,,,,,,,,,,,,,,
,do_trial,45,119970,0.0-27.0-0.0,1272.8,,,,50,"0,0,0",6,blank,248,null,0.340617629,0.052967723,0.681923138,0,,,,,,
,html-keyboard-response,46,120975,0.0-27.0-1.0,null,<p></p>,,null,,,,,,,,,,,,,,,,
,do_trial,47,124424,0.0-28.0-0.0,865.0999999,,,,49,"0,0,1",6,blank,249,null,0.338909444,0.056367859,0.724407387,0,,,,,,
,html-keyboard-response,48,125427,0.0-28.0-1.0,null,<p></p>,,null,,,,,,,,,,,,,,,,
,do_trial,49,129293,0.0-29.0-0.0,1299,,,,50,"1,0,1",6,blank,250,null,0.388371899,0.105490491,0.71267819,0,,,,,,
,html-keyboard-response,50,130298,0.0-29.0-1.0,null,<p></p>,,null,,,,,,,,,,,,,,,,
,do_recog,51,134295,0.0-30.0-0.0,2476.6,,,,53,,,,251,probe-238,,,,,0,[object Object],null,null,0,
,html-keyboard-response,52,135310,0.0-30.0-1.0,null,<p></p>,,null,,,,,,,,,,,,,,,,
,do_trial,53,139071,0.0-31.0-0.0,1162.9,,,,49,"0,0,1",6,blank,252,null,0.157227574,0.065606367,0.703442208,0,,,,,,
,html-keyboard-response,54,140088,0.0-31.0-1.0,null,<p></p>,,null,,,,,,,,,,,,,,,,
,do_recog,55,143480,0.0-32.0-0.0,1870.1,,,,54,,,,253,probe-99,,,,,1,[object Object],200,5,1,
,html-keyboard-response,56,144495,0.0-32.0-1.0,null,<p></p>,,null,,,,,,,,,,,,,,,,
,do_trial,57,148604,0.0-33.0-0.0,1492.9,,,,49,"0,0,0",6,blank,254,null,0.201741574,0.196281006,0.635629959,0,,,,,,
,html-keyboard-response,58,149611,0.0-33.0-1.0,null,<p></p>,,null,,,,,,,,,,,,,,,,
,do_recog,59,153201,0.0-34.0-0.0,2074.4,,,,55,,,,255,probe-104,,,,,1,[object Object],203,5,0,
,html-keyboard-response,60,154215,0.0-34.0-1.0,null,<p></p>,,null,,,,,,,,,,,,,,,,
,do_trial,61,158682,0.0-35.0-0.0,1886.7,,,,49,"0,0,1",6,blank,256,null,0.1100098,0.087887994,0.532244208,0,,,,,,
,html-keyboard-response,62,159686,0.0-35.0-1.0,null,<p></p>,,null,,,,,,,,,,,,,,,,
,do_trial,63,163469,0.0-36.0-0.0,1204,,,,50,"0,0,1",6,blank,257,null,0.202861138,0.102617767,0.484773681,0,,,,,,
,html-keyboard-response,64,164474,0.0-36.0-1.0,null,<p></p>,,null,,,,,,,,,,,,,,,,
,do_trial,65,167264,0.0-37.0-0.0,212.8999999,,,,51,"0,0,0",6,blank,258,null,0.235545322,0.163077387,0.587193337,0,,,,,,
,html-keyboard-response,66,168282,0.0-37.0-1.0,null,<p></p>,,null,,,,,,,,,,,,,,,,
,do_trial,67,171631,0.0-38.0-0.0,770.2,,,,49,"0,0,0",6,blank,259,null,0.330466264,0.222089168,0.646935965,0,,,,,,
,html-keyboard-response,68,172635,0.0-38.0-1.0,null,<p></p>,,null,,,,,,,,,,,,,,,,
,do_trial,69,175912,0.0-39.0-0.0,688.3,,,,49,"0,1,1",6,blank,260,null,0.323919373,0.407388714,0.623119322,0,,,,,,
,html-keyboard-response,70,176934,0.0-39.0-1.0,null,<p></p>,,null,,,,,,,,,,,,,,,,
,do_trial,71,180178,0.0-40.0-0.0,648.5999999,,,,50,"0,0,1",6,blank,261,null,0.302441939,0.357187441,0.685544344,0,,,,,,
,html-keyboard-response,72,181200,0.0-40.0-1.0,null,<p></p>,,null,,,,,,,,,,,,,,,,
,do_recog,73,184554,0.0-41.0-0.0,1832.4,,,,55,,,,262,probe-126,,,,,1,[object Object],126,3,0,
,html-keyboard-response,74,185570,0.0-41.0-1.0,null,<p></p>,,null,,,,,,,,,,,,,,,,
,do_trial,75,190589,0.0-42.0-0.0,2449.6,,,,49,"0,1,0",6,blank,263,null,0.309363168,0.274422179,0.575721358,0,,,,,,
,html-keyboard-response,76,191612,0.0-42.0-1.0,null,<p></p>,,null,,,,,,,,,,,,,,,,
,do_trial,77,195591,0.0-43.0-0.0,1373.3,,,,50,"0,0,0",6,blank,264,null,0.359947196,0.218779428,0.594283874,0,,,,,,
,html-keyboard-response,78,196596,0.0-43.0-1.0,null,<p></p>,,null,,,,,,,,,,,,,,,,
,do_trial,79,200049,0.0-44.0-0.0,863.7,,,,51,"1,0,1",6,blank,265,null,0.262550175,0.097056796,0.549378446,1,,,,,,
,html-keyboard-response,80,201053,0.0-44.0-1.0,null,<p></p>,,null,,,,,,,,,,,,,,,,
,do_trial,81,204566,0.0-45.0-0.0,918.3999999,,,,49,"0,0,1",6,blank,266,null,0.238601983,0.078077456,0.541238652,0,,,,,,
,html-keyboard-response,82,205571,0.0-45.0-1.0,null,<p></p>,,null,,,,,,,,,,,,,,,,
,do_trial,83,210447,0.0-46.0-0.0,2284.3,,,,50,"0,0,1",6,blank,267,null,0.249681776,0.069886991,0.571002489,0,,,,,,
,html-keyboard-response,84,211451,0.0-46.0-1.0,null,<p></p>,,null,,,,,,,,,,,,,,,,
,do_recog,85,217479,0.0-47.0-0.0,null,,,,null,,,,268,probe-102,,,,,1,[object Object],202,5,0,
,html-keyboard-response,86,218494,0.0-47.0-1.0,null,<p></p>,,null,,,,,,,,,,,,,,,,
,do_trial,87,221953,0.0-48.0-0.0,862.6999998,,,,49,"0,0,0",6,blank,269,null,0.357105212,0.066416377,0.497258417,0,,,,,,
,html-keyboard-response,88,222970,0.0-48.0-1.0,null,<p></p>,,null,,,,,,,,,,,,,,,,
,do_trial,89,226198,0.0-49.0-0.0,640.4000001,,,,49,"0,0,1",6,blank,270,null,0.262444552,0.220305142,0.636797346,0,,,,,,
,html-keyboard-response,90,227214,0.0-49.0-1.0,null,<p></p>,,null,,,,,,,,,,,,,,,,
,do_trial,91,230503,0.0-50.0-0.0,700.1999998,,,,51,"0,0,1",6,blank,271,null,0.303527464,0.228087849,0.721207469,1,,,,,,
,html-keyboard-response,92,231508,0.0-50.0-1.0,null,<p></p>,,null,,,,,,,,,,,,,,,,
,do_trial,93,234462,0.0-51.0-0.0,358.1000001,,,,51,"1,0,1",6,blank,272,null,0.408212086,0.166749145,0.752628998,1,,,,,,
,html-keyboard-response,94,235485,0.0-51.0-1.0,null,<p></p>,,null,,,,,,,,,,,,,,,,
,do_trial,95,238327,0.0-52.0-0.0,241.8,,,,51,"0,0,1",6,blank,273,null,0.583765325,0.069023034,0.601722784,1,,,,,,
,html-keyboard-response,96,239332,0.0-52.0-1.0,null,<p></p>,,null,,,,,,,,,,,,,,,,
,do_trial,97,242285,0.0-53.0-0.0,374.3,,,,51,"1,0,1",6,blank,274,null,0.475694779,0.134553845,0.684230135,1,,,,,,
,html-keyboard-response,98,243307,0.0-53.0-1.0,null,<p></p>,,null,,,,,,,,,,,,,,,,
,do_recog,99,247059,0.0-54.0-0.0,2228.1,,,,54,,,,275,probe-64,,,,,1,[object Object],164,4,1,
,html-keyboard-response,100,248075,0.0-54.0-1.0,null,<p></p>,,null,,,,,,,,,,,,,,,,
,do_trial,101,251762,0.0-55.0-0.0,1111.7,,,,51,"1,0,1",6,blank,276,null,0.388139178,0.153245388,0.54321762,1,,,,,,
,html-keyboard-response,102,252775,0.0-55.0-1.0,null,<p></p>,,null,,,,,,,,,,,,,,,,
,do_trial,103,255703,0.0-56.0-0.0,351.5,,,,51,"0,1,0",6,blank,277,null,0.573722944,0.271441966,0.617553127,0,,,,,,
,html-keyboard-response,104,256707,0.0-56.0-1.0,null,<p></p>,,null,,,,,,,,,,,,,,,,
,do_trial,105,259697,0.0-57.0-0.0,390.1999998,,,,51,"0,0,1",6,blank,278,null,0.465269885,0.07462455,0.668824985,1,,,,,,
,html-keyboard-response,106,260701,0.0-57.0-1.0,null,<p></p>,,null,,,,,,,,,,,,,,,,
,do_recog,107,264193,0.0-58.0-0.0,1972.8,,,,54,,,,279,probe-87,,,,,1,[object Object],162,4,1,
,html-keyboard-response,108,265197,0.0-58.0-1.0,null,<p></p>,,null,,,,,,,,,,,,,,,,
,do_trial,109,268896,0.0-59.0-0.0,1110.8,,,,51,"0,0,0",6,blank,280,null,0.300585189,0.117444943,0.761000944,0,,,,,,
,html-keyboard-response,110,269912,0.0-59.0-1.0,null,<p></p>,,null,,,,,,,,,,,,,,,,
,do_trial,111,273258,0.0-60.0-0.0,719,,,,49,"0,0,1",6,blank,281,null,0.299183795,0.058413376,0.601368949,0,,,,,,
,html-keyboard-response,112,274262,0.0-60.0-1.0,null,<p></p>,,null,,,,,,,,,,,,,,,,
,do_trial,113,277090,0.0-61.0-0.0,246.0999999,,,,51,"1,0,0",6,blank,282,null,0.371224092,0.167551202,0.550653957,0,,,,,,
,html-keyboard-response,114,278113,0.0-61.0-1.0,null,<p></p>,,null,,,,,,,,,,,,,,,,
,do_trial,115,281120,0.0-62.0-0.0,413.5999999,,,,50,"0,0,0",6,blank,283,null,0.325325213,0.235326236,0.56126716,0,,,,,,
,html-keyboard-response,116,282136,0.0-62.0-1.0,null,<p></p>,,null,,,,,,,,,,,,,,,,
,do_recog,117,285458,0.0-63.0-0.0,1798.7,,,,54,,,,284,probe-17,,,,,1,[object Object],122,3,1,
,html-keyboard-response,118,286475,0.0-63.0-1.0,null,<p></p>,,null,,,,,,,,,,,,,,,,
,do_trial,119,289991,0.0-64.0-0.0,935.6000001,,,,49,"0,0,1",6,blank,285,null,0.221240871,0.267577521,0.424523896,0,,,,,,
,html-keyboard-response,120,290995,0.0-64.0-1.0,null,<p></p>,,null,,,,,,,,,,,,,,,,
,do_recog,121,294619,0.0-65.0-0.0,2106.6,,,,54,,,,286,probe-141,,,,,1,[object Object],207,5,1,
,html-keyboard-response,122,295622,0.0-65.0-1.0,null,<p></p>,,null,,,,,,,,,,,,,,,,
,do_trial,123,298698,0.0-66.0-0.0,494.7,,,,50,"0,0,1",6,blank,287,null,0.142559335,0.172610141,0.538040551,0,,,,,,
,html-keyboard-response,124,299714,0.0-66.0-1.0,null,<p></p>,,null,,,,,,,,,,,,,,,,
,do_trial,125,303073,0.0-67.0-0.0,757.5,,,,51,"0,0,0",6,blank,288,null,0.297796245,0.067946217,0.608275169,0,,,,,,
,html-keyboard-response,126,304088,0.0-67.0-1.0,null,<p></p>,,null,,,,,,,,,,,,,,,,
,do_trial,127,307159,0.0-68.0-0.0,502.5,,,,49,"0,1,0",6,blank,289,null,0.421661881,0.069667879,0.550429644,0,,,,,,
,html-keyboard-response,128,308182,0.0-68.0-1.0,null,<p></p>,,null,,,,,,,,,,,,,,,,
,do_recog,129,311554,0.0-69.0-0.0,1857.6,,,,54,,,,290,probe-09,,,,,1,[object Object],163,4,1,
,html-keyboard-response,130,312558,0.0-69.0-1.0,null,<p></p>,,null,,,,,,,,,,,,,,,,
,do_trial,131,315936,0.0-70.0-0.0,791.5,,,,51,"0,0,0",6,blank,291,null,0.357210349,0.230482513,0.689247293,0,,,,,,
,html-keyboard-response,132,316949,0.0-70.0-1.0,null,<p></p>,,null,,,,,,,,,,,,,,,,
,do_trial,133,319807,0.0-71.0-0.0,282,,,,51,"1,1,0",6,blank,292,null,0.273786253,0.30031347,0.679969501,0,,,,,,
,html-keyboard-response,134,320824,0.0-71.0-1.0,null,<p></p>,,null,,,,,,,,,,,,,,,,
,do_trial,135,323786,0.0-72.0-0.0,368.9000001,,,,51,"1,1,1",6,blank,293,null,0.271765014,0.390310071,0.789138244,1,,,,,,
,html-keyboard-response,136,324791,0.0-72.0-1.0,null,<p></p>,,null,,,,,,,,,,,,,,,,
,do_trial,137,327720,0.0-73.0-0.0,337.7,,,,51,"0,0,1",6,blank,294,null,0.260380232,0.426308558,0.457702141,1,,,,,,
,html-keyboard-response,138,328742,0.0-73.0-1.0,null,<p></p>,,null,,,,,,,,,,,,,,,,
,do_recog,139,332961,0.0-74.0-0.0,2704.6,,,,55,,,,295,probe-225,,,,,1,[object Object],125,3,0,
,html-keyboard-response,140,333980,0.0-74.0-1.0,null,<p></p>,,null,,,,,,,,,,,,,,,,
,do_trial,141,337348,0.0-75.0-0.0,770.5,,,,51,"0,1,0",6,blank,296,null,0.264713682,0.456601277,0.281089026,0,,,,,,
,html-keyboard-response,142,338364,0.0-75.0-1.0,null,<p></p>,,null,,,,,,,,,,,,,,,,
,do_trial,143,341485,0.0-76.0-0.0,530.8,,,,51,"0,1,0",6,blank,297,null,0.433177935,0.319296596,0.168235941,0,,,,,,
,html-keyboard-response,144,342501,0.0-76.0-1.0,null,<p></p>,,null,,,,,,,,,,,,,,,,
,do_trial,145,345411,0.0-77.0-0.0,318.3,,,,51,"0,0,1",6,blank,298,null,0.641902187,0.240103468,0.236726362,1,,,,,,
,html-keyboard-response,146,346427,0.0-77.0-1.0,null,<p></p>,,null,,,,,,,,,,,,,,,,
,do_trial,147,349321,0.0-78.0-0.0,304.0999999,,,,51,"0,0,0",6,blank,299,null,0.756186287,0.330678692,0.202870529,0,,,,,,
,html-keyboard-response,148,350325,0.0-78.0-1.0,null,<p></p>,,null,,,,,,,,,,,,,,,,
,do_recog,149,354300,0.0-79.0-0.0,2457.8,,,,54,,,,300,probe-163,,,,,1,[object Object],169,4,1,
,html-keyboard-response,150,355316,0.0-79.0-1.0,null,<p></p>,,null,,,,,,,,,,,,,,,,
,do_trial,151,358944,0.0-80.0-0.0,1050,,,,49,"1,0,0",6,blank,301,null,0.854176641,0.251955023,0.120405332,1,,,,,,
,html-keyboard-response,152,359949,0.0-80.0-1.0,null,<p></p>,,null,,,,,,,,,,,,,,,,
,do_trial,153,362961,0.0-81.0-0.0,435.8999999,,,,49,"1,0,0",6,blank,302,null,0.826119721,0.472793674,0.052180654,1,,,,,,
,html-keyboard-response,154,363977,0.0-81.0-1.0,null,<p></p>,,null,,,,,,,,,,,,,,,,
,do_recog,155,367373,0.0-82.0-0.0,1872.8,,,,53,,,,303,probe-151,,,,,1,[object Object],48,1,1,
,html-keyboard-response,156,368377,0.0-82.0-1.0,null,<p></p>,,null,,,,,,,,,,,,,,,,
,do_trial,157,371641,0.0-83.0-0.0,657.7,,,,49,"0,0,0",6,blank,304,null,0.609481036,0.456623409,0.202941602,0,,,,,,
,html-keyboard-response,158,372657,0.0-83.0-1.0,null,<p></p>,,null,,,,,,,,,,,,,,,,
,do_trial,159,375548,0.0-84.0-0.0,315.2,,,,49,"1,0,0",6,blank,305,null,0.716553938,0.36270151,0.329946425,1,,,,,,
,html-keyboard-response,160,376564,0.0-84.0-1.0,null,<p></p>,,null,,,,,,,,,,,,,,,,
,do_recog,161,379967,0.0-85.0-0.0,1886.6,,,,54,,,,306,probe-162,,,,,1,[object Object],45,1,1,
,html-keyboard-response,162,380983,0.0-85.0-1.0,null,<p></p>,,null,,,,,,,,,,,,,,,,
,do_trial,163,384258,0.0-86.0-0.0,687.7,,,,49,"1,1,0",6,blank,307,null,0.658906548,0.323644879,0.268324166,1,,,,,,
,html-keyboard-response,164,385274,0.0-86.0-1.0,null,<p></p>,,null,,,,,,,,,,,,,,,,
,do_trial,165,388435,0.0-87.0-0.0,577.7,,,,49,"1,0,1",6,blank,308,null,0.666259176,0.40852393,0.166326391,1,,,,,,
,html-keyboard-response,166,389439,0.0-87.0-1.0,null,<p></p>,,null,,,,,,,,,,,,,,,,
,do_recog,167,392851,0.0-88.0-0.0,1887.6,,,,54,,,,309,probe-33,,,,,1,[object Object],165,4,1,
,html-keyboard-response,168,393865,0.0-88.0-1.0,null,<p></p>,,null,,,,,,,,,,,,,,,,
,do_trial,169,396963,0.0-89.0-0.0,512.2,,,,49,"1,0,0",6,blank,310,null,0.606555987,0.438392157,0.177397429,1,,,,,,
,html-keyboard-response,170,397968,0.0-89.0-1.0,null,<p></p>,,null,,,,,,,,,,,,,,,,
,do_trial,171,401012,0.0-90.0-0.0,463.6000001,,,,49,"1,0,0",6,blank,311,null,0.55820919,0.453321095,0.124178825,1,,,,,,
,html-keyboard-response,172,402027,0.0-90.0-1.0,null,<p></p>,,null,,,,,,,,,,,,,,,,
,do_trial,173,405051,0.0-91.0-0.0,439.8,,,,49,"0,0,0",6,blank,312,null,0.50565412,0.286243194,0.071732414,0,,,,,,
,html-keyboard-response,174,406066,0.0-91.0-1.0,null,<p></p>,,null,,,,,,,,,,,,,,,,
,do_recog,175,408826,0.0-92.0-0.0,1227.9,,,,54,,,,313,probe-42,,,,,1,[object Object],201,5,1,
,html-keyboard-response,176,409841,0.0-92.0-1.0,null,<p></p>,,null,,,,,,,,,,,,,,,,
,do_trial,177,412797,0.0-93.0-0.0,382.4000001,,,,49,"0,1,0",6,blank,314,null,0.607630024,0.290212224,0.168207049,0,,,,,,
,html-keyboard-response,178,413802,0.0-93.0-1.0,null,<p></p>,,null,,,,,,,,,,,,,,,,
,do_trial,179,416882,0.0-94.0-0.0,492.3,,,,49,"1,0,1",6,blank,315,null,0.693303307,0.406365576,0.291471938,1,,,,,,
,html-keyboard-response,180,417898,0.0-94.0-1.0,null,<p></p>,,null,,,,,,,,,,,,,,,,
,do_trial,181,420980,0.0-95.0-0.0,508.1000001,,,,49,"0,0,0",6,blank,316,null,0.642959181,0.387375172,0.388954588,0,,,,,,
,html-keyboard-response,182,421999,0.0-95.0-1.0,null,<p></p>,,null,,,,,,,,,,,,,,,,
,do_trial,183,425015,0.0-96.0-0.0,432.8,,,,49,"1,1,0",6,blank,317,null,0.668778564,0.221592531,0.19663953,1,,,,,,
,html-keyboard-response,184,426023,0.0-96.0-1.0,null,<p></p>,,null,,,,,,,,,,,,,,,,
,do_trial,185,429166,0.0-97.0-0.0,556.2,,,,49,"1,0,0",6,blank,318,null,0.683747162,0.224887956,0.132027805,1,,,,,,
,html-keyboard-response,186,430171,0.0-97.0-1.0,null,<p></p>,,null,,,,,,,,,,,,,,,,
,do_trial,187,433228,0.0-98.0-0.0,475.6000001,,,,49,"1,0,0",6,blank,319,null,0.652702938,0.172421375,0.16057574,1,,,,,,
,html-keyboard-response,188,434245,0.0-98.0-1.0,null,<p></p>,,null,,,,,,,,,,,,,,,,
,do_recog,189,437456,0.0-99.0-0.0,1696.9,,,,54,,,,320,probe-107,,,,,1,[object Object],89,2,1,
,html-keyboard-response,190,438469,0.0-99.0-1.0,null,<p></p>,,null,,,,,,,,,,,,,,,,
,do_trial,191,441544,0.0-100.0-0.0,494.3000002,,,,49,"1,0,0",6,blank,321,null,0.703371897,0.233188058,0.073536474,1,,,,,,
,html-keyboard-response,192,442561,0.0-100.0-1.0,null,<p></p>,,null,,,,,,,,,,,,,,,,
,do_recog,193,445584,0.0-101.0-0.0,1498.5,,,,54,,,,322,probe-165,,,,,1,[object Object],88,2,1,
,html-keyboard-response,194,446588,0.0-101.0-1.0,null,<p></p>,,null,,,,,,,,,,,,,,,,
,do_trial,195,449616,0.0-102.0-0.0,438.8000002,,,,49,"0,1,1",6,blank,323,null,0.529786202,0.166111831,0.12356603,0,,,,,,
,html-keyboard-response,196,450621,0.0-102.0-1.0,null,<p></p>,,null,,,,,,,,,,,,,,,,
,do_recog,197,454164,0.0-103.0-0.0,2013.2,,,,53,,,,324,probe-149,,,,,1,[object Object],84,2,1,
,html-keyboard-response,198,455179,0.0-103.0-1.0,null,<p></p>,,null,,,,,,,,,,,,,,,,
,do_trial,199,458237,0.0-104.0-0.0,478.1000001,,,,49,"1,0,0",6,blank,325,null,0.518397924,0.114222745,0.136605409,1,,,,,,
,html-keyboard-response,200,459241,0.0-104.0-1.0,null,<p></p>,,null,,,,,,,,,,,,,,,,
,do_trial,201,462604,0.0-105.0-0.0,755.2,,,,49,"0,0,0",6,blank,326,null,0.554687586,0.156362019,0.110400386,0,,,,,,
,html-keyboard-response,202,463621,0.0-105.0-1.0,null,<p></p>,,null,,,,,,,,,,,,,,,,
,do_trial,203,466673,0.0-106.0-0.0,461.0999999,,,,49,"1,0,0",6,blank,327,null,0.518662364,0.192089293,0.059663714,1,,,,,,
,html-keyboard-response,204,467697,0.0-106.0-1.0,null,<p></p>,,null,,,,,,,,,,,,,,,,
,do_trial,205,470856,0.0-107.0-0.0,565.3000002,,,,49,"1,0,0",6,blank,328,null,0.667456873,0.283558728,0.057241865,1,,,,,,
,html-keyboard-response,206,471862,0.0-107.0-1.0,null,<p></p>,,null,,,,,,,,,,,,,,,,
,do_recog,207,475085,0.0-108.0-0.0,1708,,,,54,,,,329,probe-131,,,,,1,[object Object],80,2,1,
,html-keyboard-response,208,476101,0.0-108.0-1.0,null,<p></p>,,null,,,,,,,,,,,,,,,,
,do_trial,209,479155,0.0-109.0-0.0,478.3,,,,49,"1,0,0",6,blank,330,null,0.621543259,0.298931868,0.162218638,1,,,,,,
,html-keyboard-response,210,480171,0.0-109.0-1.0,null,<p></p>,,null,,,,,,,,,,,,,,,,
,do_trial,211,483252,0.0-110.0-0.0,477.3,,,,49,"0,0,1",6,blank,331,null,0.678216324,0.230590984,0.158072404,0,,,,,,
,html-keyboard-response,212,484269,0.0-110.0-1.0,null,<p></p>,,null,,,,,,,,,,,,,,,,
,do_trial,213,487410,0.0-111.0-0.0,552.9000001,,,,49,"1,0,0",6,blank,332,null,0.72301528,0.274775813,0.131862579,1,,,,,,
,html-keyboard-response,214,488418,0.0-111.0-1.0,null,<p></p>,,null,,,,,,,,,,,,,,,,
,do_trial,215,491536,0.0-112.0-0.0,507.5999999,,,,49,"1,0,1",6,blank,333,null,0.603960433,0.255047836,0.25571896,1,,,,,,
,html-keyboard-response,216,492552,0.0-112.0-1.0,null,<p></p>,,null,,,,,,,,,,,,,,,,
,do_trial,217,495559,0.0-113.0-0.0,407.8000002,,,,49,"0,0,0",6,blank,334,null,0.672119118,0.216304117,0.206063433,0,,,,,,
,html-keyboard-response,218,496562,0.0-113.0-1.0,null,<p></p>,,null,,,,,,,,,,,,,,,,
,do_recog,219,500955,0.0-114.0-0.0,2876.6,,,,53,,,,335,probe-138,,,,,1,[object Object],160,4,1,
,html-keyboard-response,220,501970,0.0-114.0-1.0,null,<p></p>,,null,,,,,,,,,,,,,,,,
,do_trial,221,505905,0.0-115.0-0.0,1351.3,,,,49,"1,0,1",6,blank,336,null,0.612008377,0.311982973,0.076841472,1,,,,,,
,html-keyboard-response,222,506910,0.0-115.0-1.0,null,<p></p>,,null,,,,,,,,,,,,,,,,
,do_recog,223,510798,0.0-116.0-0.0,2373.4,,,,54,,,,337,probe-24,,,,,1,[object Object],49,1,1,
,html-keyboard-response,224,511802,0.0-116.0-1.0,null,<p></p>,,null,,,,,,,,,,,,,,,,
,do_trial,225,515314,0.0-117.0-0.0,935.3,,,,49,"1,0,0",6,blank,338,null,0.561773487,0.229836515,0.172306731,1,,,,,,
,html-keyboard-response,226,516319,0.0-117.0-1.0,null,<p></p>,,null,,,,,,,,,,,,,,,,
,do_trial,227,519997,0.0-118.0-0.0,1053.9,,,,49,"1,0,0",6,blank,339,null,0.574388915,0.341015937,0.255212777,1,,,,,,
,html-keyboard-response,228,521013,0.0-118.0-1.0,null,<p></p>,,null,,,,,,,,,,,,,,,,
,do_trial,229,524109,0.0-119.0-0.0,521.8999999,,,,49,"1,0,0",6,blank,340,null,0.541295714,0.433311,0.162085867,1,,,,,,
,html-keyboard-response,230,525113,0.0-119.0-1.0,null,<p></p>,,null,,,,,,,,,,,,,,,,
,do_trial,231,528304,0.0-120.0-0.0,604.1999998,,,,49,"1,0,0",6,blank,341,null,0.54638565,0.54968597,0.090946471,1,,,,,,
,html-keyboard-response,232,529321,0.0-120.0-1.0,null,<p></p>,,null,,,,,,,,,,,,,,,,
,do_trial,233,532226,0.0-121.0-0.0,325.8999999,,,,49,"1,0,0",6,blank,342,null,0.684450495,0.466847674,0.077978802,1,,,,,,
,html-keyboard-response,234,533231,0.0-121.0-1.0,null,<p></p>,,null,,,,,,,,,,,,,,,,
,do_trial,235,536948,0.0-122.0-0.0,1101.2,,,,49,"1,0,0",6,blank,343,null,0.635530832,0.484948186,0.076036866,1,,,,,,
,html-keyboard-response,236,537963,0.0-122.0-1.0,null,<p></p>,,null,,,,,,,,,,,,,,,,
,do_recog,237,541356,0.0-123.0-0.0,1876.9,,,,54,,,,344,probe-73,,,,,1,[object Object],128,3,1,
,html-keyboard-response,238,542371,0.0-123.0-1.0,null,<p></p>,,null,,,,,,,,,,,,,,,,
,do_trial,239,546050,0.0-124.0-0.0,1058.2,,,,49,"1,0,1",6,blank,345,null,0.743068497,0.507406576,0.158023625,1,,,,,,
,html-keyboard-response,240,547067,0.0-124.0-1.0,null,<p></p>,,null,,,,,,,,,,,,,,,,
,do_trial,241,550141,0.0-125.0-0.0,498,,,,49,"0,1,0",6,blank,346,null,0.706306598,0.570335361,0.156287443,0,,,,,,
,html-keyboard-response,242,551157,0.0-125.0-1.0,null,<p></p>,,null,,,,,,,,,,,,,,,,
,do_trial,243,555101,0.0-126.0-0.0,1352.8,,,,49,"0,0,0",6,blank,347,null,0.283512579,0.560166896,0.197581098,0,,,,,,
,html-keyboard-response,244,556105,0.0-126.0-1.0,null,<p></p>,,null,,,,,,,,,,,,,,,,
,do_trial,245,559144,0.0-127.0-0.0,455.9000001,,,,49,"0,1,0",6,blank,348,null,0.245229512,0.558555439,0.264546406,0,,,,,,
,html-keyboard-response,246,560166,0.0-127.0-1.0,null,<p></p>,,null,,,,,,,,,,,,,,,,
,do_trial,247,563390,0.0-128.0-0.0,638,,,,49,"0,1,1",6,blank,349,null,0.058852411,0.494131603,0.456059075,0,,,,,,
,html-keyboard-response,248,564407,0.0-128.0-1.0,null,<p></p>,,null,,,,,,,,,,,,,,,,
,do_trial,249,567660,0.0-129.0-0.0,677,,,,49,"0,0,0",6,blank,350,null,0.067195496,0.465141659,0.518067041,0,,,,,,
,html-keyboard-response,250,568682,0.0-129.0-1.0,null,<p></p>,,null,,,,,,,,,,,,,,,,
,do_recog,251,571870,0.0-130.0-0.0,1674.8,,,,54,,,,351,probe-37,,,,,1,[object Object],205,5,1,
,html-keyboard-response,252,572887,0.0-130.0-1.0,null,<p></p>,,null,,,,,,,,,,,,,,,,
,do_trial,253,576996,0.0-131.0-0.0,1548.8,,,,49,"0,0,0",6,blank,352,null,0.127912497,0.505088802,0.441547479,0,,,,,,
,html-keyboard-response,254,577998,0.0-131.0-1.0,null,<p></p>,,null,,,,,,,,,,,,,,,,
,do_trial,255,581081,0.0-132.0-0.0,517.5999999,,,,49,"0,0,1",6,blank,353,null,0.308007411,0.376598196,0.474251649,0,,,,,,
,html-keyboard-response,256,582096,0.0-132.0-1.0,null,<p></p>,,null,,,,,,,,,,,,,,,,
,do_trial,257,585111,0.0-133.0-0.0,432.2,,,,49,"0,1,1",6,blank,354,null,0.198184276,0.321235355,0.56681908,0,,,,,,
,html-keyboard-response,258,586116,0.0-133.0-1.0,null,<p></p>,,null,,,,,,,,,,,,,,,,
,do_trial,259,589936,0.0-134.0-0.0,1251.5,,,,49,"0,0,1",6,blank,355,null,0.236396282,0.324596137,0.539313352,0,,,,,,
,html-keyboard-response,260,590959,0.0-134.0-1.0,null,<p></p>,,null,,,,,,,,,,,,,,,,
,do_trial,261,594380,0.0-135.0-0.0,826,,,,49,"0,0,0",6,blank,356,null,0.137119457,0.258974174,0.532300653,0,,,,,,
,html-keyboard-response,262,595397,0.0-135.0-1.0,null,<p></p>,,null,,,,,,,,,,,,,,,,
,do_recog,263,598537,0.0-136.0-0.0,1623.8,,,,54,,,,357,probe-228,,,,,1,[object Object],129,3,1,
,html-keyboard-response,264,599541,0.0-136.0-1.0,null,<p></p>,,null,,,,,,,,,,,,,,,,
,do_trial,265,603000,0.0-137.0-0.0,870.8,,,,49,"0,0,0",6,blank,358,null,0.087189644,0.161737263,0.509033069,0,,,,,,
,html-keyboard-response,266,604016,0.0-137.0-1.0,null,<p></p>,,null,,,,,,,,,,,,,,,,
,do_trial,267,607355,0.0-138.0-0.0,749.5,,,,49,"0,0,1",6,blank,359,null,0.061250552,0.272121588,0.678144884,0,,,,,,
,html-keyboard-response,268,608359,0.0-138.0-1.0,null,<p></p>,,null,,,,,,,,,,,,,,,,
,do_trial,269,611383,0.0-139.0-0.0,448.0999999,,,,49,"0,0,1",6,blank,360,null,0.095798511,0.373276337,0.54994455,0,,,,,,
,html-keyboard-response,270,612407,0.0-139.0-1.0,null,<p></p>,,null,,,,,,,,,,,,,,,,
,do_trial,271,615493,0.0-140.0-0.0,481.2,,,,49,"0,0,0",6,blank,361,null,0.110130857,0.354572755,0.685349018,0,,,,,,
,html-keyboard-response,272,616500,0.0-140.0-1.0,null,<p></p>,,null,,,,,,,,,,,,,,,,
,do_trial,273,619659,0.0-141.0-0.0,563.1000001,,,,49,"0,1,0",6,blank,362,null,0.073391926,0.284780962,0.761973787,0,,,,,,
,html-keyboard-response,274,620664,0.0-141.0-1.0,null,<p></p>,,null,,,,,,,,,,,,,,,,
,do_recog,275,623530,0.0-142.0-0.0,1346.1,,,,54,,,,363,probe-170,,,,,1,[object Object],81,2,1,
,html-keyboard-response,276,624546,0.0-142.0-1.0,null,<p></p>,,null,,,,,,,,,,,,,,,,
,do_trial,277,627571,0.0-143.0-0.0,438.3,,,,49,"0,0,0",6,blank,364,null,0.082370138,0.376348091,0.761814399,0,,,,,,
,html-keyboard-response,278,628585,0.0-143.0-1.0,null,<p></p>,,null,,,,,,,,,,,,,,,,
,do_recog,279,631422,0.0-144.0-0.0,1313.8,,,,54,,,,365,probe-16,,,,,1,[object Object],86,2,1,
,html-keyboard-response,280,632444,0.0-144.0-1.0,null,<p></p>,,null,,,,,,,,,,,,,,,,
,do_trial,281,635352,0.0-145.0-0.0,332,,,,49,"0,0,1",6,blank,366,null,0.107948235,0.452333788,0.803074202,0,,,,,,
,html-keyboard-response,282,636367,0.0-145.0-1.0,null,<p></p>,,null,,,,,,,,,,,,,,,,
,do_trial,283,639496,0.0-146.0-0.0,532.5,,,,49,"0,0,0",6,blank,367,null,0.096271591,0.373651875,0.705117518,0,,,,,,
,html-keyboard-response,284,640512,0.0-146.0-1.0,null,<p></p>,,null,,,,,,,,,,,,,,,,
,do_trial,285,643586,0.0-147.0-0.0,481.8999999,,,,49,"0,1,0",6,blank,368,null,0.124386098,0.111639736,0.709278185,0,,,,,,
,html-keyboard-response,286,644590,0.0-147.0-1.0,null,<p></p>,,null,,,,,,,,,,,,,,,,
,do_trial,287,648290,0.0-148.0-0.0,1054.2,,,,49,"0,0,1",6,blank,369,null,0.121438235,0.243763322,0.755099834,0,,,,,,
,html-keyboard-response,288,649307,0.0-148.0-1.0,null,<p></p>,,null,,,,,,,,,,,,,,,,
,do_recog,289,652619,0.0-149.0-0.0,1793.4,,,,54,,,,370,probe-77,,,,,1,[object Object],82,2,1,
,html-keyboard-response,290,653635,0.0-149.0-1.0,null,<p></p>,,null,,,,,,,,,,,,,,,,
,do_trial,291,656630,0.0-150.0-0.0,415.5,,,,51,"0,0,1",6,blank,371,null,0.13173372,0.118933315,0.745161826,1,,,,,,
,html-keyboard-response,292,657647,0.0-150.0-1.0,null,<p></p>,,null,,,,,,,,,,,,,,,,
,do_trial,293,660693,0.0-151.0-0.0,435.5,,,,51,"0,0,1",6,blank,372,null,0.081394174,0.136716776,0.57741545,1,,,,,,
,html-keyboard-response,294,661697,0.0-151.0-1.0,null,<p></p>,,null,,,,,,,,,,,,,,,,
,do_trial,295,664744,0.0-152.0-0.0,435.1000001,,,,51,"0,1,1",6,blank,373,null,0.203210436,0.280326515,0.556620566,1,,,,,,
,html-keyboard-response,296,665760,0.0-152.0-1.0,null,<p></p>,,null,,,,,,,,,,,,,,,,
,do_recog,297,668749,0.0-153.0-0.0,1459.3,,,,54,,,,374,probe-152,,,,,1,[object Object],85,2,1,
,html-keyboard-response,298,669764,0.0-153.0-1.0,null,<p></p>,,null,,,,,,,,,,,,,,,,
,do_trial,299,672888,0.0-154.0-0.0,543.3,,,,51,"0,0,0",6,blank,375,null,0.169473061,0.380694712,0.533840845,0,,,,,,
,html-keyboard-response,300,673894,0.0-154.0-1.0,null,<p></p>,,null,,,,,,,,,,,,,,,,
,do_recog,301,677147,0.0-155.0-0.0,1733.4,,,,54,,,,376,probe-23,,,,,1,[object Object],168,4,1,
,html-keyboard-response,302,678171,0.0-155.0-1.0,null,<p></p>,,null,,,,,,,,,,,,,,,,
,do_trial,303,681322,0.0-156.0-0.0,546.3,,,,51,"0,1,1",6,blank,377,null,0.220101483,0.369048146,0.568652947,1,,,,,,
,html-keyboard-response,304,682336,0.0-156.0-1.0,null,<p></p>,,null,,,,,,,,,,,,,,,,
,do_recog,305,685095,0.0-157.0-0.0,1228.4,,,,54,,,,378,probe-127,,,,,1,[object Object],120,3,1,
,html-keyboard-response,306,686111,0.0-157.0-1.0,null,<p></p>,,null,,,,,,,,,,,,,,,,
,do_trial,307,689138,0.0-158.0-0.0,421.7,,,,51,"0,1,0",6,blank,379,null,0.09853436,0.471550691,0.583423929,0,,,,,,
,html-keyboard-response,308,690152,0.0-158.0-1.0,null,<p></p>,,null,,,,,,,,,,,,,,,,
,do_trial,309,693811,0.0-159.0-0.0,1090.2,,,,51,"0,1,0",6,blank,380,null,0.201530626,0.398358614,0.689371875,0,,,,,,
,html-keyboard-response,310,694828,0.0-159.0-1.0,null,<p></p>,,null,,,,,,,,,,,,,,,,
,do_recog,311,700868,0.0-160.0-0.0,null,,,,null,,,,381,probe-214,,,,,1,[object Object],42,1,0,
,html-keyboard-response,312,701871,0.0-160.0-1.0,null,<p></p>,,null,,,,,,,,,,,,,,,,
,do_trial,313,704947,0.0-161.0-0.0,494.8,,,,51,"0,1,1",6,blank,382,null,0.087106519,0.315850162,0.794161048,1,,,,,,
,html-keyboard-response,314,705963,0.0-161.0-1.0,null,<p></p>,,null,,,,,,,,,,,,,,,,
,do_recog,315,708955,0.0-162.0-0.0,1464.3,,,,54,,,,383,probe-105,,,,,1,[object Object],46,1,1,
,html-keyboard-response,316,709971,0.0-162.0-1.0,null,<p></p>,,null,,,,,,,,,,,,,,,,
,do_trial,317,713981,0.0-163.0-0.0,1430.3,,,,51,"0,0,1",6,blank,384,null,0.20292501,0.065964796,0.750034797,1,,,,,,
,html-keyboard-response,318,714986,0.0-163.0-1.0,null,<p></p>,,null,,,,,,,,,,,,,,,,
,do_recog,319,718494,0.0-164.0-0.0,1988.3,,,,54,,,,385,probe-203,,,,,1,[object Object],124,3,1,
,html-keyboard-response,320,719499,0.0-164.0-1.0,null,<p></p>,,null,,,,,,,,,,,,,,,,
,do_trial,321,723390,0.0-165.0-0.0,1311.6,,,,51,"0,0,0",6,blank,386,null,0.245236899,0.083081369,0.696760228,0,,,,,,
,html-keyboard-response,322,724396,0.0-165.0-1.0,null,<p></p>,,null,,,,,,,,,,,,,,,,
,do_trial,323,728893,0.0-166.0-0.0,1893.7,,,,51,"1,0,1",6,blank,387,null,0.300890358,0.121571178,0.725593765,1,,,,,,
,html-keyboard-response,324,729910,0.0-166.0-1.0,null,<p></p>,,null,,,,,,,,,,,,,,,,
,do_trial,325,735982,0.0-167.0-0.0,null,,,,null,"0,1,1",6,blank,388,null,0.387296751,0.197505218,0.66444257,,,,,,,
,html-keyboard-response,326,737004,0.0-167.0-1.0,null,<p></p>,,null,,,,,,,,,,,,,,,,
,do_trial,327,740112,0.0-168.0-0.0,510,,,,51,"1,0,1",6,blank,389,null,0.187947895,0.288231765,0.679517013,1,,,,,,
,html-keyboard-response,328,741130,0.0-168.0-1.0,null,<p></p>,,null,,,,,,,,,,,,,,,,
,do_recog,329,745415,0.0-169.0-0.0,2749.2,,,,54,,,,390,probe-166,,,,,1,[object Object],204,5,1,
,html-keyboard-response,330,746431,0.0-169.0-1.0,null,<p></p>,,null,,,,,,,,,,,,,,,,
,do_trial,331,751123,0.0-170.0-0.0,2098.4,,,,51,"0,1,0",6,blank,391,null,0.17885641,0.380434752,0.613061669,0,,,,,,
,html-keyboard-response,332,752138,0.0-170.0-1.0,null,<p></p>,,null,,,,,,,,,,,,,,,,
,do_recog,333,758162,0.0-171.0-0.0,null,,,,null,,,,392,probe-70,,,,,1,[object Object],166,4,0,
,html-keyboard-response,334,759177,0.0-171.0-1.0,null,<p></p>,,null,,,,,,,,,,,,,,,,
,do_trial,335,762260,0.0-172.0-0.0,505.4000001,,,,51,"1,0,1",6,blank,393,null,0.195813708,0.280177441,0.659381375,1,,,,,,
,html-keyboard-response,336,763276,0.0-172.0-1.0,null,<p></p>,,null,,,,,,,,,,,,,,,,
,do_recog,337,766167,0.0-173.0-0.0,1363,,,,54,,,,394,probe-61,,,,,1,[object Object],41,1,1,
,html-keyboard-response,338,767183,0.0-173.0-1.0,null,<p></p>,,null,,,,,,,,,,,,,,,,
,do_trial,339,770440,0.0-174.0-0.0,635.3,,,,51,"0,0,0",6,blank,395,null,0.057462098,0.310187731,0.590319872,0,,,,,,
,html-keyboard-response,340,771463,0.0-174.0-1.0,null,<p></p>,,null,,,,,,,,,,,,,,,,
,do_trial,341,774970,0.0-175.0-0.0,909.5999999,,,,51,"0,0,1",6,blank,396,null,0.126410343,0.342861043,0.609742925,1,,,,,,
,html-keyboard-response,342,775986,0.0-175.0-1.0,null,<p></p>,,null,,,,,,,,,,,,,,,,
,do_trial,343,779076,0.0-176.0-0.0,510.3999999,,,,51,"0,0,1",6,blank,397,null,0.153748422,0.408967223,0.662771727,1,,,,,,
,html-keyboard-response,344,780092,0.0-176.0-1.0,null,<p></p>,,null,,,,,,,,,,,,,,,,
,do_trial,345,784063,0.0-177.0-0.0,1388.1,,,,51,"0,0,1",6,blank,398,null,0.205642453,0.449288692,0.5701702,1,,,,,,
,html-keyboard-response,346,785085,0.0-177.0-1.0,null,<p></p>,,null,,,,,,,,,,,,,,,,
,do_trial,347,788808,0.0-178.0-0.0,1133.6,,,,51,"0,0,1",6,blank,399,null,0.261312504,0.552876655,0.374732116,1,,,,,,
,html-keyboard-response,348,789825,0.0-178.0-1.0,null,<p></p>,,null,,,,,,,,,,,,,,,,
,do_trial,349,792972,0.0-179.0-0.0,563.9000001,,,,51,"0,0,0",6,blank,400,null,0.088334749,0.646004277,0.333090435,0,,,,,,
,html-keyboard-response,350,793988,0.0-179.0-1.0,null,<p></p>,,null,,,,,,,,,,,,,,,,
,do_trial,351,797132,0.0-180.0-0.0,558.2,,,,51,"0,1,0",6,blank,401,null,0.097832568,0.489204243,0.258756141,0,,,,,,
,html-keyboard-response,352,798150,0.0-180.0-1.0,null,<p></p>,,null,,,,,,,,,,,,,,,,
,do_recog,353,800994,0.0-181.0-0.0,1322.8,,,,53,,,,402,probe-197,,,,,1,[object Object],44,1,1,
,html-keyboard-response,354,801998,0.0-181.0-1.0,null,<p></p>,,null,,,,,,,,,,,,,,,,
,do_trial,355,806995,0.0-182.0-0.0,2404.4,,,,51,"0,0,0",6,blank,403,null,0.098066401,0.379298375,0.214547396,0,,,,,,
,html-keyboard-response,356,807999,0.0-182.0-1.0,null,<p></p>,,null,,,,,,,,,,,,,,,,
,do_trial,357,811157,0.0-183.0-0.0,563.1999998,,,,51,"0,0,0",6,blank,404,null,0.063494584,0.455169418,0.263236993,0,,,,,,
,html-keyboard-response,358,812172,0.0-183.0-1.0,null,<p></p>,,null,,,,,,,,,,,,,,,,
,do_trial,359,815480,0.0-184.0-0.0,717.7,,,,51,"0,1,0",6,blank,405,null,0.114387874,0.594600478,0.358613266,0,,,,,,
,html-keyboard-response,360,816496,0.0-184.0-1.0,null,<p></p>,,null,,,,,,,,,,,,,,,,
,do_trial,361,819570,0.0-185.0-0.0,470.8000002,,,,51,"0,1,0",6,blank,406,null,0.091809913,0.584576189,0.210733566,0,,,,,,
,html-keyboard-response,362,820601,0.0-185.0-1.0,null,<p></p>,,null,,,,,,,,,,,,,,,,
,do_recog,363,823556,0.0-186.0-0.0,1432.6,,,,53,,,,407,probe-172,,,,,1,[object Object],87,2,1,
,html-keyboard-response,364,824578,0.0-186.0-1.0,null,<p></p>,,null,,,,,,,,,,,,,,,,
,do_trial,365,827635,0.0-187.0-0.0,470.3,,,,51,"0,0,0",6,blank,408,null,0.170269075,0.497890242,0.373103385,0,,,,,,
,html-keyboard-response,366,828639,0.0-187.0-1.0,null,<p></p>,,null,,,,,,,,,,,,,,,,
,do_recog,367,831350,0.0-188.0-0.0,1184.9,,,,54,,,,409,probe-90,,,,,1,[object Object],208,5,1,
,html-keyboard-response,368,832365,0.0-188.0-1.0,null,<p></p>,,null,,,,,,,,,,,,,,,,
,do_trial,369,836826,0.0-189.0-0.0,1839.3,,,,51,"0,0,0",6,blank,410,null,0.128127467,0.453121825,0.255589907,0,,,,,,
,html-keyboard-response,370,837842,0.0-189.0-1.0,null,<p></p>,,null,,,,,,,,,,,,,,,,
,do_trial,371,841467,0.0-190.0-0.0,1024.2,,,,51,"0,1,1",6,blank,411,null,0.121679546,0.386806642,0.343897864,1,,,,,,
,html-keyboard-response,372,842471,0.0-190.0-1.0,null,<p></p>,,null,,,,,,,,,,,,,,,,
,do_trial,373,846831,0.0-191.0-0.0,1783.5,,,,51,"0,1,0",6,blank,412,null,0.129275244,0.475799039,0.204799461,0,,,,,,
,html-keyboard-response,374,847847,0.0-191.0-1.0,null,<p></p>,,null,,,,,,,,,,,,,,,,
,do_trial,375,851371,0.0-192.0-0.0,920.4000001,,,,51,"0,0,0",6,blank,413,null,0.071278911,0.469621835,0.294313201,0,,,,,,
,html-keyboard-response,376,852387,0.0-192.0-1.0,null,<p></p>,,null,,,,,,,,,,,,,,,,
,do_trial,377,855512,0.0-193.0-0.0,533.4000001,,,,51,"0,0,0",6,blank,414,null,0.135706347,0.516229842,0.302760372,0,,,,,,
,html-keyboard-response,378,856517,0.0-193.0-1.0,null,<p></p>,,null,,,,,,,,,,,,,,,,
,do_trial,379,862600,0.0-194.0-0.0,null,,,,null,"0,1,0",6,blank,415,null,0.126481866,0.525657763,0.350874064,,,,,,,
,html-keyboard-response,380,863605,0.0-194.0-1.0,null,<p></p>,,null,,,,,,,,,,,,,,,,
,do_recog,381,869634,0.0-195.0-0.0,null,,,,null,,,,416,probe-46,,,,,1,[object Object],121,3,0,
,html-keyboard-response,382,870640,0.0-195.0-1.0,null,<p></p>,,null,,,,,,,,,,,,,,,,
,do_trial,383,874070,0.0-196.0-0.0,858.8999999,,,,51,"0,1,1",6,blank,417,null,0.053488982,0.534470353,0.364772244,1,,,,,,
,html-keyboard-response,384,875086,0.0-196.0-1.0,null,<p></p>,,null,,,,,,,,,,,,,,,,
,do_trial,385,878250,0.0-197.0-0.0,573.0999999,,,,51,"0,0,0",6,blank,418,null,0.093280729,0.504132678,0.267630036,0,,,,,,
,html-keyboard-response,386,879266,0.0-197.0-1.0,null,<p></p>,,null,,,,,,,,,,,,,,,,
,do_trial,387,882141,0.0-198.0-0.0,298.5999999,,,,49,"0,1,0",6,blank,419,null,0.139659071,0.685701652,0.367008089,0,,,,,,
,html-keyboard-response,388,883158,0.0-198.0-1.0,null,<p></p>,,null,,,,,,,,,,,,,,,,
,do_trial,389,886297,0.0-199.0-0.0,559.5,,,,50,"0,1,0",6,blank,420,null,0.132836048,0.57555478,0.314980822,1,,,,,,
,html-keyboard-response,390,887301,0.0-199.0-1.0,null,<p></p>,,null,,,,,,,,,,,,,,,,
,do_trial,391,890345,0.0-200.0-0.0,466.6000001,,,,50,"0,1,0",6,blank,421,null,0.122429596,0.681465053,0.260878355,1,,,,,,
,html-keyboard-response,392,891360,0.0-200.0-1.0,null,<p></p>,,null,,,,,,,,,,,,,,,,
,do_trial,393,894433,0.0-201.0-0.0,492.0999999,,,,50,"0,1,0",6,blank,422,null,0.112569377,0.637410191,0.124460896,1,,,,,,
,html-keyboard-response,394,895457,0.0-201.0-1.0,null,<p></p>,,null,,,,,,,,,,,,,,,,
,do_recog,395,901476,0.0-202.0-0.0,null,,,,null,,,,423,probe-222,,,,,1,[object Object],127,3,0,
,html-keyboard-response,396,902493,0.0-202.0-1.0,null,<p></p>,,null,,,,,,,,,,,,,,,,
,do_trial,397,906626,0.0-203.0-0.0,1538.9,,,,51,"0,0,0",6,blank,424,null,0.0727067,0.638072127,0.224602272,0,,,,,,
,html-keyboard-response,398,907641,0.0-203.0-1.0,null,<p></p>,,null,,,,,,,,,,,,,,,,
,do_recog,399,910497,0.0-204.0-0.0,1337.3,,,,54,,,,425,probe-54,,,,,1,[object Object],43,1,1,
,html-keyboard-response,400,911512,0.0-204.0-1.0,null,<p></p>,,null,,,,,,,,,,,,,,,,
,do_trial,401,915610,0.0-205.0-0.0,1483.4,,,,51,"0,0,0",6,blank,426,null,0.167617776,0.733625244,0.275381577,0,,,,,,
,html-keyboard-response,402,916625,0.0-205.0-1.0,null,<p></p>,,null,,,,,,,,,,,,,,,,
,do_recog,403,919884,0.0-206.0-0.0,1736,,,,54,,,,427,probe-62,,,,,1,[object Object],47,1,1,
,html-keyboard-response,404,920906,0.0-206.0-1.0,null,<p></p>,,null,,,,,,,,,,,,,,,,
,do_trial,405,924018,0.0-207.0-0.0,536.4000001,,,,51,"1,1,0",6,blank,428,null,0.183285226,0.621953701,0.351316622,0,,,,,,
,html-keyboard-response,406,925033,0.0-207.0-1.0,null,<p></p>,,null,,,,,,,,,,,,,,,,
,do_trial,407,928147,0.0-208.0-0.0,534.3000002,,,,50,"1,1,1",6,blank,429,null,0.223242653,0.568445896,0.289509473,1,,,,,,
,html-keyboard-response,408,929164,0.0-208.0-1.0,null,<p></p>,,null,,,,,,,,,,,,,,,,
,do_trial,409,932809,0.0-209.0-0.0,1058.2,,,,51,"1,0,0",6,blank,430,null,0.190149943,0.585740891,0.303352623,0,,,,,,
,html-keyboard-response,410,933813,0.0-209.0-1.0,null,<p></p>,,null,,,,,,,,,,,,,,,,
,do_trial,411,936905,0.0-210.0-0.0,497.6000001,,,,50,"0,0,0",6,blank,431,null,0.114439755,0.604201948,0.229148485,0,,,,,,
,html-keyboard-response,412,937910,0.0-210.0-1.0,null,<p></p>,,null,,,,,,,,,,,,,,,,
,do_trial,413,941970,0.0-211.0-0.0,1471.4,,,,51,"0,1,1",6,blank,432,null,0.065711615,0.503474016,0.245900088,1,,,,,,
,html-keyboard-response,414,942986,0.0-211.0-1.0,null,<p></p>,,null,,,,,,,,,,,,,,,,
,do_recog,415,946507,0.0-212.0-0.0,1999.4,,,,54,,,,433,probe-20,,,,,1,[object Object],83,2,1,
,html-keyboard-response,416,947522,0.0-212.0-1.0,null,<p></p>,,null,,,,,,,,,,,,,,,,
,do_trial,417,950750,0.0-213.0-0.0,639.3,,,,51,"0,1,0",6,blank,434,null,0.08032352,0.40779848,0.250316323,0,,,,,,
,html-keyboard-response,418,951765,0.0-213.0-1.0,null,<p></p>,,null,,,,,,,,,,,,,,,,
,do_trial,419,955474,0.0-214.0-0.0,1119.1,,,,50,"0,0,0",6,blank,435,null,0.113313397,0.462009683,0.229557489,0,,,,,,
,html-keyboard-response,420,956497,0.0-214.0-1.0,null,<p></p>,,null,,,,,,,,,,,,,,,,
,do_trial,421,959809,0.0-215.0-0.0,720.6999998,,,,51,"0,0,0",6,blank,436,null,0.115304986,0.494113541,0.156321587,0,,,,,,
,html-keyboard-response,422,960822,0.0-215.0-1.0,null,<p></p>,,null,,,,,,,,,,,,,,,,
,do_trial,423,964314,0.0-216.0-0.0,901.3000002,,,,50,"0,1,0",6,blank,437,null,0.163319628,0.456597775,0.163425374,1,,,,,,
,html-keyboard-response,424,965329,0.0-216.0-1.0,null,<p></p>,,null,,,,,,,,,,,,,,,,
,do_trial,425,968472,0.0-217.0-0.0,561.3999999,,,,50,"1,1,1",6,blank,438,null,0.16082783,0.569318216,0.100991403,1,,,,,,
,html-keyboard-response,426,969476,0.0-217.0-1.0,null,<p></p>,,null,,,,,,,,,,,,,,,,
,do_recog,427,972486,0.0-218.0-0.0,1494.4,,,,54,,,,439,probe-254,,,,,0,[object Object],null,null,0,
,html-keyboard-response,428,973490,0.0-218.0-1.0,null,<p></p>,,null,,,,,,,,,,,,,,,,
,do_trial,429,977669,0.0-219.0-0.0,1557.2,,,,50,"0,1,0",6,blank,440,null,0.079523921,0.674442513,0.107436586,1,,,,,,
,html-keyboard-response,430,978685,0.0-219.0-1.0,null,<p></p>,,null,,,,,,,,,,,,,,,,
,do_recog,431,984715,0.0-220.0-0.0,null,,,,null,,,,441,probe-248,,,,,0,[object Object],null,null,0,
,html-keyboard-response,432,985723,0.0-220.0-1.0,null,<p></p>,,null,,,,,,,,,,,,,,,,
,do_trial,433,988886,0.0-221.0-0.0,561.3999999,,,,51,"0,1,0",6,blank,442,null,0.06322812,0.63227872,0.156504397,0,,,,,,
,html-keyboard-response,434,989901,0.0-221.0-1.0,null,<p></p>,,null,,,,,,,,,,,,,,,,
,do_trial,435,993473,0.0-222.0-0.0,986.2,,,,50,"0,1,0",6,blank,443,null,0.101702175,0.659477636,0.318280664,1,,,,,,
,html-keyboard-response,436,994496,0.0-222.0-1.0,null,<p></p>,,null,,,,,,,,,,,,,,,,
,do_recog,437,997469,0.0-223.0-0.0,1453.6,,,,54,,,,444,probe-237,,,,,0,[object Object],null,null,0,
,html-keyboard-response,438,998484,0.0-223.0-1.0,null,<p></p>,,null,,,,,,,,,,,,,,,,
,do_trial,439,1001928,0.0-224.0-0.0,866.1999998,,,,50,"0,1,0",6,blank,445,null,0.125242993,0.743734715,0.280492824,1,,,,,,
,html-keyboard-response,440,1002945,0.0-224.0-1.0,null,<p></p>,,null,,,,,,,,,,,,,,,,
,do_trial,441,1006527,0.0-225.0-0.0,985.7,,,,50,"0,1,0",6,blank,446,null,0.064806773,0.70931495,0.253708305,1,,,,,,
,html-keyboard-response,442,1007543,0.0-225.0-1.0,null,<p></p>,,null,,,,,,,,,,,,,,,,
,do_trial,443,1011265,0.0-226.0-0.0,1141.4,,,,50,"0,1,1",6,blank,447,null,0.132442717,0.660368866,0.445261901,1,,,,,,
,html-keyboard-response,444,1012270,0.0-226.0-1.0,null,<p></p>,,null,,,,,,,,,,,,,,,,
,do_recog,445,1015316,0.0-227.0-0.0,1529.4,,,,54,,,,448,probe-244,,,,,0,[object Object],null,null,0,
,html-keyboard-response,446,1016319,0.0-227.0-1.0,null,<p></p>,,null,,,,,,,,,,,,,,,,
,do_trial,447,1020604,0.0-228.0-0.0,1701.7,,,,50,"0,1,1",6,blank,449,null,0.060177869,0.657704694,0.401732281,1,,,,,,
,html-keyboard-response,448,1021620,0.0-228.0-1.0,null,<p></p>,,null,,,,,,,,,,,,,,,,
,do_trial,449,1024994,0.0-229.0-0.0,790.8,,,,50,"0,0,0",6,blank,450,null,0.1013693,0.65576665,0.410676235,0,,,,,,
,html-keyboard-response,450,1025998,0.0-229.0-1.0,null,<p></p>,,null,,,,,,,,,,,,,,,,
,do_trial,451,1029189,0.0-230.0-0.0,610.4000001,,,,50,"0,1,1",6,blank,451,null,0.14876184,0.736573807,0.353296418,1,,,,,,
,html-keyboard-response,452,1030205,0.0-230.0-1.0,null,<p></p>,,null,,,,,,,,,,,,,,,,
,do_trial,453,1033349,0.0-231.0-0.0,562.7,,,,50,"0,0,0",6,blank,452,null,0.19575503,0.671026062,0.372685615,0,,,,,,
,html-keyboard-response,454,1034366,0.0-231.0-1.0,null,<p></p>,,null,,,,,,,,,,,,,,,,
,do_trial,455,1037864,0.0-232.0-0.0,910.4000001,,,,50,"1,1,0",6,blank,453,null,0.232282597,0.621835754,0.173509454,1,,,,,,
,html-keyboard-response,456,1038867,0.0-232.0-1.0,null,<p></p>,,null,,,,,,,,,,,,,,,,
,do_recog,457,1042090,0.0-233.0-0.0,1699.8,,,,55,,,,454,probe-255,,,,,0,[object Object],null,null,1,
,html-keyboard-response,458,1043094,0.0-233.0-1.0,null,<p></p>,,null,,,,,,,,,,,,,,,,
,do_trial,459,1047809,0.0-234.0-0.0,2129.2,,,,50,"0,0,0",6,blank,455,null,0.279425782,0.451735669,0.098371835,0,,,,,,
,html-keyboard-response,460,1048814,0.0-234.0-1.0,null,<p></p>,,null,,,,,,,,,,,,,,,,
,do_recog,461,1052657,0.0-235.0-0.0,2314.2,,,,54,,,,456,probe-250,,,,,0,[object Object],null,null,0,
,html-keyboard-response,462,1053672,0.0-235.0-1.0,null,<p></p>,,null,,,,,,,,,,,,,,,,
,do_trial,463,1056965,0.0-236.0-0.0,709.9000001,,,,50,"0,0,0",6,blank,457,null,0.369118143,0.380308744,0.072068682,0,,,,,,
,html-keyboard-response,464,1057984,0.0-236.0-1.0,null,<p></p>,,null,,,,,,,,,,,,,,,,
,do_recog,465,1060837,0.0-237.0-0.0,1330.4,,,,54,,,,458,probe-242,,,,,0,[object Object],null,null,0,
,html-keyboard-response,466,1061841,0.0-237.0-1.0,null,<p></p>,,null,,,,,,,,,,,,,,,,
,do_trial,467,1065526,0.0-238.0-0.0,1081.1,,,,50,"1,0,0",6,blank,459,null,0.530619882,0.498005903,0.222815665,0,,,,,,
,html-keyboard-response,468,1066531,0.0-238.0-1.0,null,<p></p>,,null,,,,,,,,,,,,,,,,
,do_trial,469,1070006,0.0-239.0-0.0,893.5,,,,50,"1,1,0",6,blank,460,null,0.573901033,0.387719602,0.065193905,1,,,,,,
,html-keyboard-response,470,1071023,0.0-239.0-1.0,null,<p></p>,,null,,,,,,,,,,,,,,,,
,do_trial,471,1074162,0.0-240.0-0.0,555.3,,,,50,"1,0,0",6,blank,461,null,0.478752256,0.365577603,0.102701615,0,,,,,,
,html-keyboard-response,472,1075166,0.0-240.0-1.0,null,<p></p>,,null,,,,,,,,,,,,,,,,
,do_recog,473,1078272,0.0-241.0-0.0,1588.5,,,,54,,,,462,probe-235,,,,,0,[object Object],null,null,0,
,html-keyboard-response,474,1079277,0.0-241.0-1.0,null,<p></p>,,null,,,,,,,,,,,,,,,,
,do_trial,475,1082852,0.0-242.0-0.0,989.5,,,,49,"0,1,0",6,blank,463,null,0.618372458,0.463020396,0.063171137,0,,,,,,
,html-keyboard-response,476,1083858,0.0-242.0-1.0,null,<p></p>,,null,,,,,,,,,,,,,,,,
,do_recog,477,1087496,0.0-243.0-0.0,2121.4,,,,55,,,,464,probe-252,,,,,0,[object Object],null,null,1,
,html-keyboard-response,478,1088499,0.0-243.0-1.0,null,<p></p>,,null,,,,,,,,,,,,,,,,
,do_trial,479,1092445,0.0-244.0-0.0,1324.1,,,,51,"1,1,0",6,blank,465,null,0.572019066,0.366239696,0.097572497,0,,,,,,
,html-keyboard-response,480,1093469,0.0-244.0-1.0,null,<p></p>,,null,,,,,,,,,,,,,,,,
,do_recog,481,1095949,0.0-245.0-0.0,959.5999999,,,,54,,,,466,probe-251,,,,,0,[object Object],null,null,0,
,html-keyboard-response,482,1096971,0.0-245.0-1.0,null,<p></p>,,null,,,,,,,,,,,,,,,,
,do_trial,483,1100639,0.0-246.0-0.0,1068.4,,,,51,"0,0,0",6,blank,467,null,0.60839869,0.437628217,0.051965427,0,,,,,,
,html-keyboard-response,484,1101655,0.0-246.0-1.0,null,<p></p>,,null,,,,,,,,,,,,,,,,
,do_trial,485,1105248,0.0-247.0-0.0,1015.5,,,,50,"0,1,0",6,blank,468,null,0.587743408,0.417586739,0.211792042,1,,,,,,
,html-keyboard-response,486,1106264,0.0-247.0-1.0,null,<p></p>,,null,,,,,,,,,,,,,,,,
,do_trial,487,1109857,0.0-248.0-0.0,1008.8,,,,50,"1,0,0",6,blank,469,null,0.485187298,0.345766431,0.158789057,0,,,,,,
,html-keyboard-response,488,1110873,0.0-248.0-1.0,null,<p></p>,,null,,,,,,,,,,,,,,,,
,do_trial,489,1114442,0.0-249.0-0.0,999.5,,,,50,"0,0,0",6,blank,470,null,0.431475789,0.115541302,0.091287414,0,,,,,,
,html-keyboard-response,490,1115465,0.0-249.0-1.0,null,<p></p>,,null,,,,,,,,,,,,,,,,
,do_recog,491,1117617,0.0-250.0-0.0,632,,,,55,,,,471,probe-239,,,,,0,[object Object],null,null,1,
,html-keyboard-response,492,1118632,0.0-250.0-1.0,null,<p></p>,,null,,,,,,,,,,,,,,,,
,do_trial,493,1122390,0.0-251.0-0.0,1179.1,,,,51,"0,0,0",6,blank,472,null,0.479044143,0.191638533,0.195721662,0,,,,,,
,html-keyboard-response,494,1123407,0.0-251.0-1.0,null,<p></p>,,null,,,,,,,,,,,,,,,,
,do_trial,495,1126898,0.0-252.0-0.0,895.0999999,,,,50,"1,0,0",6,blank,473,null,0.576449453,0.205974315,0.16652623,0,,,,,,
,html-keyboard-response,496,1127914,0.0-252.0-1.0,null,<p></p>,,null,,,,,,,,,,,,,,,,
,do_trial,497,1131512,0.0-253.0-0.0,1007.2,,,,50,"1,0,0",6,blank,474,null,0.64424384,0.090622321,0.278778608,0,,,,,,
,html-keyboard-response,498,1132528,0.0-253.0-1.0,null,<p></p>,,null,,,,,,,,,,,,,,,,
,do_trial,499,1136046,0.0-254.0-0.0,908.6000001,,,,51,"0,0,0",6,blank,475,null,0.571204138,0.059388313,0.251929133,0,,,,,,
,html-keyboard-response,500,1137052,0.0-254.0-1.0,null,<p></p>,,null,,,,,,,,,,,,,,,,
,do_trial,501,1140527,0.0-255.0-0.0,886.8,,,,49,"1,0,0",6,blank,476,null,0.596219636,0.119215046,0.304801687,1,,,,,,
,html-keyboard-response,502,1141543,0.0-255.0-1.0,null,<p></p>,,null,,,,,,,,,,,,,,,,
,do_recog,503,1143667,0.0-256.0-0.0,602.8,,,,55,,,,477,probe-253,,,,,0,[object Object],null,null,1,
,html-keyboard-response,504,1144682,0.0-256.0-1.0,null,<p></p>,,null,,,,,,,,,,,,,,,,
,do_trial,505,1148127,0.0-257.0-0.0,824.8000002,,,,49,"1,0,0",6,blank,478,null,0.505266568,0.131327552,0.296733665,1,,,,,,
,html-keyboard-response,506,1149149,0.0-257.0-1.0,null,<p></p>,,null,,,,,,,,,,,,,,,,
,do_recog,507,1151438,0.0-258.0-0.0,768.3,,,,55,,,,479,probe-247,,,,,0,[object Object],null,null,1,
,html-keyboard-response,508,1152461,0.0-258.0-1.0,null,<p></p>,,null,,,,,,,,,,,,,,,,
,do_pick_best_pirate,509,1156763,0.0-259.0-0.0,3277.6,,,,49,,,,,,,,,,,,,,,
,do_pick_best_pirate,510,1160425,0.0-260.0-0.0,2643.7,,,,51,,,,,,,,,,,,,,,
,do_pick_best_pirate,511,1164481,0.0-261.0-0.0,3036.6,,,,49,,,,,,,,,,,,,,,
,do_pick_best_pirate,512,1167639,0.0-262.0-0.0,2145.2,,,,50,,,,,,,,,,,,,,,
,do_pick_best_pirate,513,1171986,0.0-263.0-0.0,3326.6,,,,49,,,,,,,,,,,,,,,
,do_pick_best_pirate,514,1176149,0.0-264.0-0.0,3138.3,,,,51,,,,,,,,,,,,,,,
,html-keyboard-response,515,1184218,0.0-265.0-0.0,8066.2,<p>You are all done with the experiment!</p><p> You made $15 plus $2 in bonus payment!</p><p>Thank you for participating. You will recieve your payment within 3 days.<p><b>[Press the space bar to end the experiment]</b></p></div>,,32,,,,,,,,,,,,,,,,