"success","trial_type","trial_index","time_elapsed","internal_node_id","interactions","blur_events","focus_events","fullscreenenter_events","fullscreenexit_events","rt","stimulus","key_press","subject_id","participant_id","age","gender","prompt","response","choice_outcomes","context_n","context_img_id","trial_n","probe_img_id","pR_red","pR_white","pR_black","outcome","is_valid","image_to_show","probed_trial","probed_context","correct","probe","probed_trial_n","probed_context_n","context_im"
"true","fullscreen","0","12069","0.0-0.0","""event"",""trial"",""time""
""fullscreenenter"",""0"",""11089""
","
","
","""event"",""trial"",""time""
""fullscreenenter"",""0"",""11089""
","
","","","","","","","","","","","","","","","","","","","","","","","","","","",""
"","pavlovia","1","12076","0.0-1.0","""event"",""trial"",""time""
""fullscreenenter"",""0"",""11089""
","
","
","""event"",""trial"",""time""
""fullscreenenter"",""0"",""11089""
","
","","","","","","","","","","","","","","","","","","","","","","","","","","",""
"","welc_back","2","22124","0.0-2.0","""event"",""trial"",""time""
""fullscreenenter"",""0"",""11089""
","
","
","""event"",""trial"",""time""
""fullscreenenter"",""0"",""11089""
","
","null","run_exp/static/audio/clip_29_welcome_back.m4a","null","454","759","10","Female","<div class='center'><p>Welcome to day 2!</p><p> Yesterday, you were the head captain of a pirate ship. You asked your fellow pirates to rob other ships of their gold across six different islands.</p></div>","","","","","","","","","","","","","","","","","","",""
"","html-keyboard-response","3","23987","0.0-3.0","""event"",""trial"",""time""
""fullscreenenter"",""0"",""11089""
","
","
","""event"",""trial"",""time""
""fullscreenenter"",""0"",""11089""
","
","1861.2999999970198","<div class='center'><p>Welcome to day 2!</p><p> Yesterday, you were the head captain of a pirate ship. You asked your fellow pirates to rob other ships of their gold across six different islands.</p><p><b>[Press the space bar to continue]</b></p></div>","32","","","","","","","","","","","","","","","","","","","","","","","",""
"","day_1_summary_goal","4","41439","0.0-4.0","""event"",""trial"",""time""
""fullscreenenter"",""0"",""11089""
","
","
","""event"",""trial"",""time""
""fullscreenenter"",""0"",""11089""
","
","null","run_exp/static/audio/clip_30_goal_of_game.m4a","null","","","","","<div class='center'><p>Today, like yesterday, you get to pick which pirate you want to rob the next ship.</p><p>If the pirate is successful in robbing a ship, you get gold coins that look like this: </p><p><img src='run_exp/static/images/tutorial/reward.png' height='150'></p><p> If they were not successful in robbing the ship, then you will get no gold coins and you'll see a big red x like this: </p><p><img src='run_exp/static/images/tutorial/reward_no.png' height='150'></p></div>","","","","","","","","","","","","","","","","","","",""
"","html-keyboard-response","5","41770","0.0-5.0","""event"",""trial"",""time""
""fullscreenenter"",""0"",""11089""
","
","
","""event"",""trial"",""time""
""fullscreenenter"",""0"",""11089""
","
","329.6000000014901","<div class='center'><p>Today, like yesterday, you get to pick which pirate you want to rob the next ship.</p><p>If the pirate is successful in robbing a ship, you get gold coins that look like this: </p><p><img src='run_exp/static/images/tutorial/reward.png' height='150'></p><p> If they were not successful in robbing the ship, then you will get no gold coins and you'll see a big red x like this: </p><p><img src='run_exp/static/images/tutorial/reward_no.png' height='150'></p><p><b>[Press the space bar to continue]</b></p></div>","32","","","","","","","","","","","","","","","","","","","","","","","",""
"","day_1_summary_pick","6","56671","0.0-6.0","""event"",""trial"",""time""
""fullscreenenter"",""0"",""11089""
","
","
","""event"",""trial"",""time""
""fullscreenenter"",""0"",""11089""
","
","null","run_exp/static/audio/clip_31_how_to_pick_a_pirate.m4a","null","","","","","<div class='center'><p>Also, just like yesterday, you will use the 1,2,3 keys on your keyboard to pick a pirate. Press '1' to choose red beard, '2' to choose white beard, and '3' to choose black beard . You only have 3 seconds to pick a pirate, so please make a choice quickly!</p></div>","","","","","","","","","","","","","","","","","","",""
"","html-keyboard-response","7","57750","0.0-7.0","""event"",""trial"",""time""
""fullscreenenter"",""0"",""11089""
","
","
","""event"",""trial"",""time""
""fullscreenenter"",""0"",""11089""
","
","1078","<div class='center'><p>Also, just like yesterday, you will use the 1,2,3 keys on your keyboard to pick a pirate. Press '1' to choose red beard, '2' to choose white beard, and '3' to choose black beard . You only have 3 seconds to pick a pirate, so please make a choice quickly!</p><p><b>[Press the space bar to continue]</b></p></div>","32","","","","","","","","","","","","","","","","","","","","","","","",""
"","test_phase_begin","8","88347","0.0-8.0","""event"",""trial"",""time""
""fullscreenenter"",""0"",""11089""
","
","
","""event"",""trial"",""time""
""fullscreenenter"",""0"",""11089""
","
","null","run_exp/static/audio/clip_32_final_place.m4a","null","","","","","<div class='center'><p>You’ve arrived at the final island of your journey! Unfortunately, it’s very foggy out, so you won’t be able to see it in the distance like the other islands you've visited.</p><p>You’ll still be deciding which pirate you want to rob a ship like before. However, because of the fog, you also won’t be able to see the ship.</p><p>This means you do not have to remember the ships you rob on this island.</p><p>Unlike yesterday, you won't be visiting multiple islands today. You will stay on this island for the entire game. This game will last ~30 minutes.</p></div>","","","","","","","","","","","","","","","","","","",""
"","html-keyboard-response","9","88824","0.0-9.0","""event"",""trial"",""time""
""fullscreenenter"",""0"",""11089""
","
","
","""event"",""trial"",""time""
""fullscreenenter"",""0"",""11089""
","
","475.8999999985099","<div class='center'><p>You’ve arrived at the final island of your journey! Unfortunately, it’s very foggy out, so you won’t be able to see it in the distance like the other islands you've visited.</p><p>You’ll still be deciding which pirate you want to rob a ship like before. However, because of the fog, you also won’t be able to see the ship.</p><p>This means you do not have to remember the ships you rob on this island.</p><p>Unlike yesterday, you won't be visiting multiple islands today. You will stay on this island for the entire game. This game will last ~30 minutes.</p><p><b>[Press the space bar to continue]</b></p></div>","32","","","","","","","","","","","","","","","","","","","","","","","",""
"","explain_probe_1","10","96702","0.0-10.0","""event"",""trial"",""time""
""fullscreenenter"",""0"",""11089""
","
","
","""event"",""trial"",""time""
""fullscreenenter"",""0"",""11089""
","
","null","run_exp/static/audio/clip_33_recognition_1.m4a","null","","","","","<div class='center'><p> Sometimes you’ll be shown a ship, and you will be asked if you saw this ship on a past island.</p><p> Here is an example of what you will see.</p><p><img src='run_exp/static/images/tutorial/example_recog_trial.png' height='500'></p></div>","","","","","","","","","","","","","","","","","","",""
"","html-keyboard-response","11","97706","0.0-11.0","""event"",""trial"",""time""
""fullscreenenter"",""0"",""11089""
","
","
","""event"",""trial"",""time""
""fullscreenenter"",""0"",""11089""
","
","1002.6999999992549","<div class='center'><p> Sometimes you’ll be shown a ship, and you will be asked if you saw this ship on a past island.</p><p> Here is an example of what you will see.</p><p><img src='run_exp/static/images/tutorial/example_recog_trial.png' height='500'></p><p><b>[Press the space bar to continue]</b></p></div>","32","","","","","","","","","","","","","","","","","","","","","","","",""
"","explain_probe_2","12","119550","0.0-12.0","""event"",""trial"",""time""
""fullscreenenter"",""0"",""11089""
","
","
","""event"",""trial"",""time""
""fullscreenenter"",""0"",""11089""
","
","null","run_exp/static/audio/clip_34_recognition_2.m4a","null","","","","","<div class='center'><p> You will press the 5, 6, 7, 8 keys on your keyboard to respond.</p><p>If you are sure you saw the ship, press <b>5</b> on your keyboard.</p><p> If you think you saw it before but aren't sure, then press <b>6</b>.</p><p> If you think you have <b>not</b> seen it before but aren't sure, then press <b>7</b>.</p><p> If you are sure you did <b>not</b> see the ship before, then press <b>8</b>.</p><p><img src='run_exp/static/images/tutorial/example_recog_trial.png' height='500'></p></div>","","","","","","","","","","","","","","","","","","",""
"","html-keyboard-response","13","121279","0.0-13.0","""event"",""trial"",""time""
""fullscreenenter"",""0"",""11089""
","
","
","""event"",""trial"",""time""
""fullscreenenter"",""0"",""11089""
","
","1727.5","<div class='center'><p> You will press the 5, 6, 7, 8 keys on your keyboard to respond.</p><p>If you are sure you saw the ship, press <b>5</b> on your keyboard.</p><p> If you think you saw it before but aren't sure, then press <b>6</b>.</p><p> If you think you have <b>not</b> seen it before but aren't sure, then press <b>7</b>.</p><p> If you are sure you did <b>not</b> see the ship before, then press <b>8</b>.</p><p><img src='run_exp/static/images/tutorial/example_recog_trial.png' height='500'></p><p><b>[Press the space bar to continue]</b></p></div>","32","","","","","","","","","","","","","","","","","","","","","","","",""
"","explain_outcome","14","138684","0.0-14.0","""event"",""trial"",""time""
""fullscreenenter"",""0"",""11089""
","
","
","""event"",""trial"",""time""
""fullscreenenter"",""0"",""11089""
","
","null","run_exp/static/audio/clip_35_recognition_3.m4a","null","","","","","<div class='center'><p> If you remember correctly, then you’ll get a gold coin like this: </p><p><img src='run_exp/static/images/tutorial/reward_small.png' height='200'></p><p>If you do not remember correctly, then you'll see a red x like this: </p><p><img src='run_exp/static/images/tutorial/reward_no.png' height='200'></p><p>Importantly, when you are shown a ship, take the time to remind yourself which island you saw it on. This will help you in the next part of the study.</p></div>","","","","","","","","","","","","","","","","","","",""
"","html-keyboard-response","15","139335","0.0-15.0","""event"",""trial"",""time""
""fullscreenenter"",""0"",""11089""
","
","
","""event"",""trial"",""time""
""fullscreenenter"",""0"",""11089""
","
","647.7999999970198","<div class='center'><p> If you remember correctly, then you’ll get a gold coin like this: </p><p><img src='run_exp/static/images/tutorial/reward_small.png' height='200'></p><p>If you do not remember correctly, then you'll see a red x like this: </p><p><img src='run_exp/static/images/tutorial/reward_no.png' height='200'></p><p>Importantly, when you are shown a ship, take the time to remind yourself which island you saw it on. This will help you in the next part of the study.</p><p><b>[Press the space bar to continue]</b></p></div>","32","","","","","","","","","","","","","","","","","","","","","","","",""
"","begin_test_phase","16","155402","0.0-16.0","""event"",""trial"",""time""
""fullscreenenter"",""0"",""11089""
","
","
","""event"",""trial"",""time""
""fullscreenenter"",""0"",""11089""
","
","null","run_exp/static/audio/clip_36_begin_final.m4a","null","","","","","<div class='center'><p>Let's go over the important points again. Your job is to: </p><p>1. Pick the pirate who is best at robbing ships and will bring you back gold coins. </p><p>2. Correctly remember whether or not you saw a ship before. If you did see the ship before, remind yourself on which island you saw it. </p></div>","","","","","","","","","","","","","","","","","","",""
"","html-keyboard-response","17","155854","0.0-17.0","""event"",""trial"",""time""
""fullscreenenter"",""0"",""11089""
","
","
","""event"",""trial"",""time""
""fullscreenenter"",""0"",""11089""
","
","377.19999999925494","<div class='center'><p>Let's go over the important points again. Your job is to: </p><p>1. Pick the pirate who is best at robbing ships and will bring you back gold coins. </p><p>2. Correctly remember whether or not you saw a ship before. If you did see the ship before, remind yourself on which island you saw it. </p><p><b>[Press the space bar to continue]</b></p></div>","32","","","","","","","","","","","","","","","","","","","","","","","",""
"","do_welcome","18","159862","0.0-18.0","""event"",""trial"",""time""
""fullscreenenter"",""0"",""11089""
","
","
","""event"",""trial"",""time""
""fullscreenenter"",""0"",""11089""
","
","null","","","","","","","","null","","","","","","","","","","","","","","","","","",""
"","do_trial","19","164212","0.0-19.0-0.0","""event"",""trial"",""time""
""fullscreenenter"",""0"",""11089""
","
","
","""event"",""trial"",""time""
""fullscreenenter"",""0"",""11089""
","
","1767.300000000745","","","","","","","","51","0,0,1","6","blank","230","null","0.2232480055517616","0.1562972182202009","0.5441186421922679","1","","","","","","","","",""
"","html-keyboard-response","20","165216","0.0-19.0-1.0","""event"",""trial"",""time""
""fullscreenenter"",""0"",""11089""
","
","
","""event"",""trial"",""time""
""fullscreenenter"",""0"",""11089""
","
","null","<p></p>","null","","","","","","","","","","","","","","","","","","","","","","","",""
"","do_trial","21","169507","0.0-20.0-0.0","""event"",""trial"",""time""
""fullscreenenter"",""0"",""11089""
","
","
","""event"",""trial"",""time""
""fullscreenenter"",""0"",""11089""
","
","1707.2999999970198","","","","","","","","49","0,0,1","6","blank","231","null","0.19878423111893057","0.16285242475922362","0.6066473805806873","0","","","","","","","","",""
"","html-keyboard-response","22","170509","0.0-20.0-1.0","""event"",""trial"",""time""
""fullscreenenter"",""0"",""11089""
","
","
","""event"",""trial"",""time""
""fullscreenenter"",""0"",""11089""
","
","null","<p></p>","null","","","","","","","","","","","","","","","","","","","","","","","",""
"","do_trial","23","173851","0.0-21.0-0.0","""event"",""trial"",""time""
""fullscreenenter"",""0"",""11089""
","
","
","""event"",""trial"",""time""
""fullscreenenter"",""0"",""11089""
","
","757.3999999985099","","","","","","","","49","0,0,1","6","blank","232","null","0.17425971511675187","0.13620618114917804","0.7837269545689749","0","","","","","","","","",""
"","html-keyboard-response","24","174853","0.0-21.0-1.0","""event"",""trial"",""time""
""fullscreenenter"",""0"",""11089""
","
","
","""event"",""trial"",""time""
""fullscreenenter"",""0"",""11089""
","
","null","<p></p>","null","","","","","","","","","","","","","","","","","","","","","","","",""
"","do_trial","25","177939","0.0-22.0-0.0","""event"",""trial"",""time""
""fullscreenenter"",""0"",""11089""
","
","
","""event"",""trial"",""time""
""fullscreenenter"",""0"",""11089""
","
","511.5","","","","","","","","50","0,0,1","6","blank","233","null","0.3076542635427957","0.052643348751583455","0.769848361353246","0","","","","","","","","",""
"","html-keyboard-response","26","178941","0.0-22.0-1.0","""event"",""trial"",""time""
""fullscreenenter"",""0"",""11089""
","
","
","""event"",""trial"",""time""
""fullscreenenter"",""0"",""11089""
","
","null","<p></p>","null","","","","","","","","","","","","","","","","","","","","","","","",""
"","do_trial","27","181998","0.0-23.0-0.0","""event"",""trial"",""time""
""fullscreenenter"",""0"",""11089""
","
","
","""event"",""trial"",""time""
""fullscreenenter"",""0"",""11089""
","
","486.8999999985099","","","","","","","","51","0,0,0","6","blank","234","null","0.28955876356764937","0.05091109970318092","0.6871605465615332","0","","","","","","","","",""
"","html-keyboard-response","28","182999","0.0-23.0-1.0","""event"",""trial"",""time""
""fullscreenenter"",""0"",""11089""
","
","
","""event"",""trial"",""time""
""fullscreenenter"",""0"",""11089""
","
","null","<p></p>","null","","","","","","","","","","","","","","","","","","","","","","","",""
"","do_trial","29","185945","0.0-24.0-0.0","""event"",""trial"",""time""
""fullscreenenter"",""0"",""11089""
","
","
","""event"",""trial"",""time""
""fullscreenenter"",""0"",""11089""
","
","365.4000000022352","","","","","","","","49","0,0,1","6","blank","235","null","0.2939636374882975","0.10879693272446293","0.6902835699552606","0","","","","","","","","",""
"","html-keyboard-response","30","186948","0.0-24.0-1.0","""event"",""trial"",""time""
""fullscreenenter"",""0"",""11089""
","
","
","""event"",""trial"",""time""
""fullscreenenter"",""0"",""11089""
","
","null","<p></p>","null","","","","","","","","","","","","","","","","","","","","","","","",""
"","do_trial","31","190459","0.0-25.0-0.0","""event"",""trial"",""time""
""fullscreenenter"",""0"",""11089""
","
","
","""event"",""trial"",""time""
""fullscreenenter"",""0"",""11089""
","
","934.6000000014901","","","","","","","","49","1,1,0","6","blank","236","null","0.39381454153496803","0.16581080878042415","0.564779838634786","1","","","","","","","","",""
"","html-keyboard-response","32","191461","0.0-25.0-1.0","""event"",""trial"",""time""
""fullscreenenter"",""0"",""11089""
","
","
","""event"",""trial"",""time""
""fullscreenenter"",""0"",""11089""
","
","null","<p></p>","null","","","","","","","","","","","","","","","","","","","","","","","",""
"","do_trial","33","194590","0.0-26.0-0.0","""event"",""trial"",""time""
""fullscreenenter"",""0"",""11089""
","
","
","""event"",""trial"",""time""
""fullscreenenter"",""0"",""11089""
","
","552.0999999977648","","","","","","","","49","0,0,0","6","blank","237","null","0.30513419428210414","0.2102217107049354","0.28584204833761456","0","","","","","","","","",""
"","html-keyboard-response","34","195592","0.0-26.0-1.0","""event"",""trial"",""time""
""fullscreenenter"",""0"",""11089""
","
","
","""event"",""trial"",""time""
""fullscreenenter"",""0"",""11089""
","
","null","<p></p>","null","","","","","","","","","","","","","","","","","","","","","","","",""
"","do_trial","35","198577","0.0-27.0-0.0","""event"",""trial"",""time""
""fullscreenenter"",""0"",""11089""
","
","
","""event"",""trial"",""time""
""fullscreenenter"",""0"",""11089""
","
","422","","","","","","","","49","0,1,0","6","blank","238","null","0.21679474531665271","0.1957745987814354","0.5187987132676665","0","","","","","","","","",""
"","html-keyboard-response","36","199578","0.0-27.0-1.0","""event"",""trial"",""time""
""fullscreenenter"",""0"",""11089""
","
","
","""event"",""trial"",""time""
""fullscreenenter"",""0"",""11089""
","
","null","<p></p>","null","","","","","","","","","","","","","","","","","","","","","","","",""
"","do_trial","37","202456","0.0-28.0-0.0","""event"",""trial"",""time""
""fullscreenenter"",""0"",""11089""
","
","
","""event"",""trial"",""time""
""fullscreenenter"",""0"",""11089""
","
","300","","","","","","","","50","1,0,0","6","blank","239","null","0.29781535270394105","0.13590185144924358","0.5191313385991242","0","","","","","","","","",""
"","html-keyboard-response","38","203458","0.0-28.0-1.0","""event"",""trial"",""time""
""fullscreenenter"",""0"",""11089""
","
","
","""event"",""trial"",""time""
""fullscreenenter"",""0"",""11089""
","
","null","<p></p>","null","","","","","","","","","","","","","","","","","","","","","","","",""
"","do_trial","39","206601","0.0-29.0-0.0","""event"",""trial"",""time""
""fullscreenenter"",""0"",""11089""
","
","
","""event"",""trial"",""time""
""fullscreenenter"",""0"",""11089""
","
","565.8999999985099","","","","","","","","51","0,0,0","6","blank","240","null","0.3564691803796262","0.11025669131604363","0.4557961740538108","0","","","","","","","","",""
"","html-keyboard-response","40","207603","0.0-29.0-1.0","""event"",""trial"",""time""
""fullscreenenter"",""0"",""11089""
","
","
","""event"",""trial"",""time""
""fullscreenenter"",""0"",""11089""
","
","null","<p></p>","null","","","","","","","","","","","","","","","","","","","","","","","",""
"","do_recog","41","213612","0.0-30.0-0.0","""event"",""trial"",""time""
""fullscreenenter"",""0"",""11089""
","
","
","""event"",""trial"",""time""
""fullscreenenter"",""0"",""11089""
","
","null","","","","","","","","null","","","","241","probe-71","","","","","1","[object Object]","79","1","0","","","",""
"","html-keyboard-response","42","214616","0.0-30.0-1.0","""event"",""trial"",""time""
""fullscreenenter"",""0"",""11089""
","
","
","""event"",""trial"",""time""
""fullscreenenter"",""0"",""11089""
","
","null","<p></p>","null","","","","","","","","","","","","","","","","","","","","","","","",""
"","do_trial","43","218405","0.0-31.0-0.0","""event"",""trial"",""time""
""fullscreenenter"",""0"",""11089""
","
","
","""event"",""trial"",""time""
""fullscreenenter"",""0"",""11089""
","
","1211.5","","","","","","","","50","0,0,0","6","blank","242","null","0.2308463780555413","0.07116618454175427","0.5618341607614026","0","","","","","","","","",""
"","html-keyboard-response","44","219407","0.0-31.0-1.0","""event"",""trial"",""time""
""fullscreenenter"",""0"",""11089""
","
","
","""event"",""trial"",""time""
""fullscreenenter"",""0"",""11089""
","
","null","<p></p>","null","","","","","","","","","","","","","","","","","","","","","","","",""
"","do_recog","45","222597","0.0-32.0-0.0","""event"",""trial"",""time""
""fullscreenenter"",""0"",""11089""
","
","
","""event"",""trial"",""time""
""fullscreenenter"",""0"",""11089""
","
","1676.1000000014901","","","","","","","","54","","","","243","probe-249","","","","","0","[object Object]","null","null","0","","","",""
"","html-keyboard-response","46","223599","0.0-32.0-1.0","""event"",""trial"",""time""
""fullscreenenter"",""0"",""11089""
","
","
","""event"",""trial"",""time""
""fullscreenenter"",""0"",""11089""
","
","null","<p></p>","null","","","","","","","","","","","","","","","","","","","","","","","",""
"","do_trial","47","227531","0.0-33.0-0.0","""event"",""trial"",""time""
""fullscreenenter"",""0"",""11089""
","
","
","""event"",""trial"",""time""
""fullscreenenter"",""0"",""11089""
","
","1358.8999999985099","","","","","","","","50","1,0,0","6","blank","244","null","0.4514867671435579","0.12977811690461352","0.4568588024279429","0","","","","","","","","",""
"","html-keyboard-response","48","228532","0.0-33.0-1.0","""event"",""trial"",""time""
""fullscreenenter"",""0"",""11089""
","
","
","""event"",""trial"",""time""
""fullscreenenter"",""0"",""11089""
","
","null","<p></p>","null","","","","","","","","","","","","","","","","","","","","","","","",""
"","do_recog","49","231961","0.0-34.0-0.0","""event"",""trial"",""time""
""fullscreenenter"",""0"",""11089""
","
","
","""event"",""trial"",""time""
""fullscreenenter"",""0"",""11089""
","
","1921.1000000014901","","","","","","","","53","","","","245","probe-95","","","","","1","[object Object]","151","3","1","","","",""
"","html-keyboard-response","50","232963","0.0-34.0-1.0","""event"",""trial"",""time""
""fullscreenenter"",""0"",""11089""
","
","
","""event"",""trial"",""time""
""fullscreenenter"",""0"",""11089""
","
","null","<p></p>","null","","","","","","","","","","","","","","","","","","","","","","","",""
"","do_trial","51","236376","0.0-35.0-0.0","""event"",""trial"",""time""
""fullscreenenter"",""0"",""11089""
","
","
","""event"",""trial"",""time""
""fullscreenenter"",""0"",""11089""
","
","839.5","","","","","","","","49","0,0,0","6","blank","246","null","0.44264539550103565","0.09510745649187317","0.44271991672725797","0","","","","","","","","",""
"","html-keyboard-response","52","237378","0.0-35.0-1.0","""event"",""trial"",""time""
""fullscreenenter"",""0"",""11089""
","
","
","""event"",""trial"",""time""
""fullscreenenter"",""0"",""11089""
","
","null","<p></p>","null","","","","","","","","","","","","","","","","","","","","","","","",""
"","do_recog","53","240668","0.0-36.0-0.0","""event"",""trial"",""time""
""fullscreenenter"",""0"",""11089""
","
","
","""event"",""trial"",""time""
""fullscreenenter"",""0"",""11089""
","
","1781.7999999970198","","","","","","","","56","","","","247","probe-238","","","","","0","[object Object]","null","null","1","","","",""
"","html-keyboard-response","54","241669","0.0-36.0-1.0","""event"",""trial"",""time""
""fullscreenenter"",""0"",""11089""
","
","
","""event"",""trial"",""time""
""fullscreenenter"",""0"",""11089""
","
","null","<p></p>","null","","","","","","","","","","","","","","","","","","","","","","","",""
"","do_trial","55","245920","0.0-37.0-0.0","""event"",""trial"",""time""
""fullscreenenter"",""0"",""11089""
","
","
","""event"",""trial"",""time""
""fullscreenenter"",""0"",""11089""
","
","1677.300000000745","","","","","","","","49","0,0,1","6","blank","248","null","0.5598662564039291","0.11959970739604278","0.43989145437168153","0","","","","","","","","",""
"","html-keyboard-response","56","246921","0.0-37.0-1.0","""event"",""trial"",""time""
""fullscreenenter"",""0"",""11089""
","
","
","""event"",""trial"",""time""
""fullscreenenter"",""0"",""11089""
","
","null","<p></p>","null","","","","","","","","","","","","","","","","","","","","","","","",""
"","do_recog","57","250360","0.0-38.0-0.0","""event"",""trial"",""time""
""fullscreenenter"",""0"",""11089""
","
","
","""event"",""trial"",""time""
""fullscreenenter"",""0"",""11089""
","
","1930.4000000022352","","","","","","","","53","","","","249","probe-29","","","","","1","[object Object]","193","4","1","","","",""
"","html-keyboard-response","58","251361","0.0-38.0-1.0","""event"",""trial"",""time""
""fullscreenenter"",""0"",""11089""
","
","
","""event"",""trial"",""time""
""fullscreenenter"",""0"",""11089""
","
","null","<p></p>","null","","","","","","","","","","","","","","","","","","","","","","","",""
"","do_trial","59","255244","0.0-39.0-0.0","""event"",""trial"",""time""
""fullscreenenter"",""0"",""11089""
","
","
","""event"",""trial"",""time""
""fullscreenenter"",""0"",""11089""
","
","1313.4000000022352","","","","","","","","51","1,0,0","6","blank","250","null","0.5788761350338689","0.11785244736445917","0.48338846331797797","0","","","","","","","","",""
"","html-keyboard-response","60","256245","0.0-39.0-1.0","""event"",""trial"",""time""
""fullscreenenter"",""0"",""11089""
","
","
","""event"",""trial"",""time""
""fullscreenenter"",""0"",""11089""
","
","null","<p></p>","null","","","","","","","","","","","","","","","","","","","","","","","",""
"","do_trial","61","259950","0.0-40.0-0.0","""event"",""trial"",""time""
""fullscreenenter"",""0"",""11089""
","
","
","""event"",""trial"",""time""
""fullscreenenter"",""0"",""11089""
","
","1129.5999999977648","","","","","","","","50","1,0,0","6","blank","251","null","0.5509550941521117","0.15250699416919294","0.5399993825411087","0","","","","","","","","",""
"","html-keyboard-response","62","260952","0.0-40.0-1.0","""event"",""trial"",""time""
""fullscreenenter"",""0"",""11089""
","
","
","""event"",""trial"",""time""
""fullscreenenter"",""0"",""11089""
","
","null","<p></p>","null","","","","","","","","","","","","","","","","","","","","","","","",""
"","do_trial","63","264068","0.0-41.0-0.0","""event"",""trial"",""time""
""fullscreenenter"",""0"",""11089""
","
","
","""event"",""trial"",""time""
""fullscreenenter"",""0"",""11089""
","
","535.3999999985099","","","","","","","","49","0,0,0","6","blank","252","null","0.45721032876962947","0.05689831958034617","0.4118420140076872","0","","","","","","","","",""
"","html-keyboard-response","64","265070","0.0-41.0-1.0","""event"",""trial"",""time""
""fullscreenenter"",""0"",""11089""
","
","
","""event"",""trial"",""time""
""fullscreenenter"",""0"",""11089""
","
","null","<p></p>","null","","","","","","","","","","","","","","","","","","","","","","","",""
"","do_trial","65","267988","0.0-42.0-0.0","""event"",""trial"",""time""
""fullscreenenter"",""0"",""11089""
","
","
","""event"",""trial"",""time""
""fullscreenenter"",""0"",""11089""
","
","342.80000000074506","","","","","","","","49","1,0,1","6","blank","253","null","0.5330562729701156","0.11690693111069553","0.33507735240319797","1","","","","","","","","",""
"","html-keyboard-response","66","268989","0.0-42.0-1.0","""event"",""trial"",""time""
""fullscreenenter"",""0"",""11089""
","
","
","""event"",""trial"",""time""
""fullscreenenter"",""0"",""11089""
","
","null","<p></p>","null","","","","","","","","","","","","","","","","","","","","","","","",""
"","do_trial","67","271916","0.0-43.0-0.0","""event"",""trial"",""time""
""fullscreenenter"",""0"",""11089""
","
","
","""event"",""trial"",""time""
""fullscreenenter"",""0"",""11089""
","
","349","","","","","","","","49","1,0,0","6","blank","254","null","0.44802740181958006","0.1513125575614975","0.28242466741284866","1","","","","","","","","",""
"","html-keyboard-response","68","272917","0.0-43.0-1.0","""event"",""trial"",""time""
""fullscreenenter"",""0"",""11089""
","
","
","""event"",""trial"",""time""
""fullscreenenter"",""0"",""11089""
","
","null","<p></p>","null","","","","","","","","","","","","","","","","","","","","","","","",""
"","do_trial","69","276033","0.0-44.0-0.0","""event"",""trial"",""time""
""fullscreenenter"",""0"",""11089""
","
","
","""event"",""trial"",""time""
""fullscreenenter"",""0"",""11089""
","
","538.1000000014901","","","","","","","","49","1,0,0","6","blank","255","null","0.45985162102079535","0.09660759736265295","0.2708089600215823","1","","","","","","","","",""
"","html-keyboard-response","70","277034","0.0-44.0-1.0","""event"",""trial"",""time""
""fullscreenenter"",""0"",""11089""
","
","
","""event"",""trial"",""time""
""fullscreenenter"",""0"",""11089""
","
","null","<p></p>","null","","","","","","","","","","","","","","","","","","","","","","","",""
"","do_recog","71","280441","0.0-45.0-0.0","""event"",""trial"",""time""
""fullscreenenter"",""0"",""11089""
","
","
","""event"",""trial"",""time""
""fullscreenenter"",""0"",""11089""
","
","1898.9000000022352","","","","","","","","56","","","","256","probe-61","","","","","1","[object Object]","197","4","0","","","",""
"","html-keyboard-response","72","281443","0.0-45.0-1.0","""event"",""trial"",""time""
""fullscreenenter"",""0"",""11089""
","
","
","""event"",""trial"",""time""
""fullscreenenter"",""0"",""11089""
","
","null","<p></p>","null","","","","","","","","","","","","","","","","","","","","","","","",""
"","do_trial","73","285123","0.0-46.0-0.0","""event"",""trial"",""time""
""fullscreenenter"",""0"",""11089""
","
","
","""event"",""trial"",""time""
""fullscreenenter"",""0"",""11089""
","
","1098.1000000014901","","","","","","","","49","0,0,0","6","blank","257","null","0.5194071425083089","0.26976569092449815","0.2666429842989964","0","","","","","","","","",""
"","html-keyboard-response","74","286124","0.0-46.0-1.0","""event"",""trial"",""time""
""fullscreenenter"",""0"",""11089""
","
","
","""event"",""trial"",""time""
""fullscreenenter"",""0"",""11089""
","
","null","<p></p>","null","","","","","","","","","","","","","","","","","","","","","","","",""
"","do_trial","75","289075","0.0-47.0-0.0","""event"",""trial"",""time""
""fullscreenenter"",""0"",""11089""
","
","
","""event"",""trial"",""time""
""fullscreenenter"",""0"",""11089""
","
","369","","","","","","","","49","1,0,0","6","blank","258","null","0.48286796366257023","0.13690039557961647","0.2578608061636912","1","","","","","","","","",""
"","html-keyboard-response","76","290076","0.0-47.0-1.0","""event"",""trial"",""time""
""fullscreenenter"",""0"",""11089""
","
","
","""event"",""trial"",""time""
""fullscreenenter"",""0"",""11089""
","
","null","<p></p>","null","","","","","","","","","","","","","","","","","","","","","","","",""
"","do_trial","77","293224","0.0-48.0-0.0","""event"",""trial"",""time""
""fullscreenenter"",""0"",""11089""
","
","
","""event"",""trial"",""time""
""fullscreenenter"",""0"",""11089""
","
","570.5","","","","","","","","49","0,0,0","6","blank","259","null","0.44131086239882517","0.1868726909833226","0.13340217709966212","0","","","","","","","","",""
"","html-keyboard-response","78","294226","0.0-48.0-1.0","""event"",""trial"",""time""
""fullscreenenter"",""0"",""11089""
","
","
","""event"",""trial"",""time""
""fullscreenenter"",""0"",""11089""
","
","null","<p></p>","null","","","","","","","","","","","","","","","","","","","","","","","",""
"","do_trial","79","297567","0.0-49.0-0.0","""event"",""trial"",""time""
""fullscreenenter"",""0"",""11089""
","
","
","""event"",""trial"",""time""
""fullscreenenter"",""0"",""11089""
","
","759.8000000007451","","","","","","","","49","1,0,1","6","blank","260","null","0.5014958979825108","0.08902783454682175","0.08135578172373459","1","","","","","","","","",""
"","html-keyboard-response","80","298569","0.0-49.0-1.0","""event"",""trial"",""time""
""fullscreenenter"",""0"",""11089""
","
","
","""event"",""trial"",""time""
""fullscreenenter"",""0"",""11089""
","
","null","<p></p>","null","","","","","","","","","","","","","","","","","","","","","","","",""
"","do_trial","81","301696","0.0-50.0-0.0","""event"",""trial"",""time""
""fullscreenenter"",""0"",""11089""
","
","
","""event"",""trial"",""time""
""fullscreenenter"",""0"",""11089""
","
","534.1999999992549","","","","","","","","49","1,0,1","6","blank","261","null","0.6576384847969294","0.16134717417005462","0.1345869327047208","1","","","","","","","","",""
"","html-keyboard-response","82","302698","0.0-50.0-1.0","""event"",""trial"",""time""
""fullscreenenter"",""0"",""11089""
","
","
","""event"",""trial"",""time""
""fullscreenenter"",""0"",""11089""
","
","null","<p></p>","null","","","","","","","","","","","","","","","","","","","","","","","",""
"","do_recog","83","307027","0.0-51.0-0.0","""event"",""trial"",""time""
""fullscreenenter"",""0"",""11089""
","
","
","""event"",""trial"",""time""
""fullscreenenter"",""0"",""11089""
","
","2819.599999997765","","","","","","","","53","","","","262","probe-194","","","","","1","[object Object]","154","3","1","","","",""
"","html-keyboard-response","84","308031","0.0-51.0-1.0","""event"",""trial"",""time""
""fullscreenenter"",""0"",""11089""
","
","
","""event"",""trial"",""time""
""fullscreenenter"",""0"",""11089""
","
","null","<p></p>","null","","","","","","","","","","","","","","","","","","","","","","","",""
"","do_trial","85","311346","0.0-52.0-0.0","""event"",""trial"",""time""
""fullscreenenter"",""0"",""11089""
","
","
","""event"",""trial"",""time""
""fullscreenenter"",""0"",""11089""
","
","732","","","","","","","","49","1,1,0","6","blank","263","null","0.7151142344793443","0.05683478263867077","0.18049646194302188","1","","","","","","","","",""
"","html-keyboard-response","86","312349","0.0-52.0-1.0","""event"",""trial"",""time""
""fullscreenenter"",""0"",""11089""
","
","
","""event"",""trial"",""time""
""fullscreenenter"",""0"",""11089""
","
","null","<p></p>","null","","","","","","","","","","","","","","","","","","","","","","","",""
"","do_trial","87","316492","0.0-53.0-0.0","""event"",""trial"",""time""
""fullscreenenter"",""0"",""11089""
","
","
","""event"",""trial"",""time""
""fullscreenenter"",""0"",""11089""
","
","1572.699999999255","","","","","","","","49","1,0,1","6","blank","264","null","0.5989544177032162","0.06826573838632842","0.2851608270557493","1","","","","","","","","",""
"","html-keyboard-response","88","317493","0.0-53.0-1.0","""event"",""trial"",""time""
""fullscreenenter"",""0"",""11089""
","
","
","""event"",""trial"",""time""
""fullscreenenter"",""0"",""11089""
","
","null","<p></p>","null","","","","","","","","","","","","","","","","","","","","","","","",""
"","do_trial","89","320676","0.0-54.0-0.0","""event"",""trial"",""time""
""fullscreenenter"",""0"",""11089""
","
","
","""event"",""trial"",""time""
""fullscreenenter"",""0"",""11089""
","
","605.2000000029802","","","","","","","","49","0,1,0","6","blank","265","null","0.758883045517659","0.1449424600728261","0.3691115846995007","0","","","","","","","","",""
"","html-keyboard-response","90","321678","0.0-54.0-1.0","""event"",""trial"",""time""
""fullscreenenter"",""0"",""11089""
","
","
","""event"",""trial"",""time""
""fullscreenenter"",""0"",""11089""
","
","null","<p></p>","null","","","","","","","","","","","","","","","","","","","","","","","",""
"","do_trial","91","324835","0.0-55.0-0.0","""event"",""trial"",""time""
""fullscreenenter"",""0"",""11089""
","
","
","""event"",""trial"",""time""
""fullscreenenter"",""0"",""11089""
","
","578.8000000007451","","","","","","","","49","0,0,1","6","blank","266","null","0.6243472634411095","0.06565488276492024","0.43586887509464567","0","","","","","","","","",""
"","html-keyboard-response","92","325839","0.0-55.0-1.0","""event"",""trial"",""time""
""fullscreenenter"",""0"",""11089""
","
","
","""event"",""trial"",""time""
""fullscreenenter"",""0"",""11089""
","
","null","<p></p>","null","","","","","","","","","","","","","","","","","","","","","","","",""
"","do_trial","93","328902","0.0-56.0-0.0","""event"",""trial"",""time""
""fullscreenenter"",""0"",""11089""
","
","
","""event"",""trial"",""time""
""fullscreenenter"",""0"",""11089""
","
","485.4000000022352","","","","","","","","49","1,0,0","6","blank","267","null","0.4382409461971291","0.11359421583909071","0.23932404147576186","1","","","","","","","","",""
"","html-keyboard-response","94","329904","0.0-56.0-1.0","""event"",""trial"",""time""
""fullscreenenter"",""0"",""11089""
","
","
","""event"",""trial"",""time""
""fullscreenenter"",""0"",""11089""
","
","null","<p></p>","null","","","","","","","","","","","","","","","","","","","","","","","",""
"","do_trial","95","333395","0.0-57.0-0.0","""event"",""trial"",""time""
""fullscreenenter"",""0"",""11089""
","
","
","""event"",""trial"",""time""
""fullscreenenter"",""0"",""11089""
","
","915.8000000007451","","","","","","","","49","1,0,1","6","blank","268","null","0.6790991551856671","0.15369251329859793","0.3975758588488348","1","","","","","","","","",""
"","html-keyboard-response","96","334397","0.0-57.0-1.0","""event"",""trial"",""time""
""fullscreenenter"",""0"",""11089""
""fullscreenexit"",""97"",""338795""
""blur"",""97"",""344544""
""focus"",""97"",""360036""
","""event"",""trial"",""time""
""blur"",""97"",""344544""
","""event"",""trial"",""time""
""focus"",""97"",""360036""
","""event"",""trial"",""time""
""fullscreenenter"",""0"",""11089""
","""event"",""trial"",""time""
""fullscreenexit"",""97"",""338795""
","null","<p></p>","null","","","","","","","","","","","","","","","","","","","","","","","",""
"","break","97","362111","0.0-58.0-0.0","""event"",""trial"",""time""
""fullscreenenter"",""0"",""11089""
""fullscreenexit"",""97"",""338795""
""blur"",""97"",""344544""
""focus"",""97"",""360036""
","""event"",""trial"",""time""
""blur"",""97"",""344544""
","""event"",""trial"",""time""
""focus"",""97"",""360036""
","""event"",""trial"",""time""
""fullscreenenter"",""0"",""11089""
","""event"",""trial"",""time""
""fullscreenexit"",""97"",""338795""
","27712.70000000298","<div class='center'><p>Time to take a quick break! You have 2 minutes to rest, but you can move on sooner if you'd like.</p><p> Press the <b>space bar</b> to continue.</p></div>","32","","","","","","","","","","","","","","","","","","","","","","","",""
"","do_recog","98","368118","0.0-58.0-1.0","""event"",""trial"",""time""
""fullscreenenter"",""0"",""11089""
""fullscreenexit"",""97"",""338795""
""blur"",""97"",""344544""
""focus"",""97"",""360036""
","""event"",""trial"",""time""
""blur"",""97"",""344544""
","""event"",""trial"",""time""
""focus"",""97"",""360036""
","""event"",""trial"",""time""
""fullscreenenter"",""0"",""11089""
","""event"",""trial"",""time""
""fullscreenexit"",""97"",""338795""
","null","","","","","","","","null","","","","269","probe-243","","","","","0","[object Object]","null","null","0","","","",""
"","html-keyboard-response","99","369121","0.0-58.0-2.0","""event"",""trial"",""time""
""fullscreenenter"",""0"",""11089""
""fullscreenexit"",""97"",""338795""
""blur"",""97"",""344544""
""focus"",""97"",""360036""
","""event"",""trial"",""time""
""blur"",""97"",""344544""
","""event"",""trial"",""time""
""focus"",""97"",""360036""
","""event"",""trial"",""time""
""fullscreenenter"",""0"",""11089""
","""event"",""trial"",""time""
""fullscreenexit"",""97"",""338795""
","null","<p></p>","null","","","","","","","","","","","","","","","","","","","","","","","",""
"","do_trial","100","372343","0.0-59.0-0.0","""event"",""trial"",""time""
""fullscreenenter"",""0"",""11089""
""fullscreenexit"",""97"",""338795""
""blur"",""97"",""344544""
""focus"",""97"",""360036""
","""event"",""trial"",""time""
""blur"",""97"",""344544""
","""event"",""trial"",""time""
""focus"",""97"",""360036""
","""event"",""trial"",""time""
""fullscreenenter"",""0"",""11089""
","""event"",""trial"",""time""
""fullscreenexit"",""97"",""338795""
","642.1999999992549","","","","","","","","49","1,1,0","6","blank","270","null","0.5496459785491417","0.22128441882956304","0.31510625633136324","1","","","","","","","","",""
"","html-keyboard-response","101","373345","0.0-59.0-1.0","""event"",""trial"",""time""
""fullscreenenter"",""0"",""11089""
""fullscreenexit"",""97"",""338795""
""blur"",""97"",""344544""
""focus"",""97"",""360036""
","""event"",""trial"",""time""
""blur"",""97"",""344544""
","""event"",""trial"",""time""
""focus"",""97"",""360036""
","""event"",""trial"",""time""
""fullscreenenter"",""0"",""11089""
","""event"",""trial"",""time""
""fullscreenexit"",""97"",""338795""
","null","<p></p>","null","","","","","","","","","","","","","","","","","","","","","","","",""
"","do_trial","102","376368","0.0-60.0-0.0","""event"",""trial"",""time""
""fullscreenenter"",""0"",""11089""
""fullscreenexit"",""97"",""338795""
""blur"",""97"",""344544""
""focus"",""97"",""360036""
","""event"",""trial"",""time""
""blur"",""97"",""344544""
","""event"",""trial"",""time""
""focus"",""97"",""360036""
","""event"",""trial"",""time""
""fullscreenenter"",""0"",""11089""
","""event"",""trial"",""time""
""fullscreenexit"",""97"",""338795""
","448.5","","","","","","","","49","0,0,1","6","blank","271","null","0.48748491600710725","0.22263099545276185","0.4248912370221545","0","","","","","","","","",""
"","html-keyboard-response","103","377370","0.0-60.0-1.0","""event"",""trial"",""time""
""fullscreenenter"",""0"",""11089""
""fullscreenexit"",""97"",""338795""
""blur"",""97"",""344544""
""focus"",""97"",""360036""
","""event"",""trial"",""time""
""blur"",""97"",""344544""
","""event"",""trial"",""time""
""focus"",""97"",""360036""
","""event"",""trial"",""time""
""fullscreenenter"",""0"",""11089""
","""event"",""trial"",""time""
""fullscreenexit"",""97"",""338795""
","null","<p></p>","null","","","","","","","","","","","","","","","","","","","","","","","",""
"","do_trial","104","380333","0.0-61.0-0.0","""event"",""trial"",""time""
""fullscreenenter"",""0"",""11089""
""fullscreenexit"",""97"",""338795""
""blur"",""97"",""344544""
""focus"",""97"",""360036""
","""event"",""trial"",""time""
""blur"",""97"",""344544""
","""event"",""trial"",""time""
""focus"",""97"",""360036""
","""event"",""trial"",""time""
""fullscreenenter"",""0"",""11089""
","""event"",""trial"",""time""
""fullscreenexit"",""97"",""338795""
","386.19999999925494","","","","","","","","49","1,0,1","6","blank","272","null","0.6024719320354786","0.15122877762261047","0.35203268060114296","1","","","","","","","","",""
"","html-keyboard-response","105","381335","0.0-61.0-1.0","""event"",""trial"",""time""
""fullscreenenter"",""0"",""11089""
""fullscreenexit"",""97"",""338795""
""blur"",""97"",""344544""
""focus"",""97"",""360036""
","""event"",""trial"",""time""
""blur"",""97"",""344544""
","""event"",""trial"",""time""
""focus"",""97"",""360036""
","""event"",""trial"",""time""
""fullscreenenter"",""0"",""11089""
","""event"",""trial"",""time""
""fullscreenexit"",""97"",""338795""
","null","<p></p>","null","","","","","","","","","","","","","","","","","","","","","","","",""
"","do_trial","106","384209","0.0-62.0-0.0","""event"",""trial"",""time""
""fullscreenenter"",""0"",""11089""
""fullscreenexit"",""97"",""338795""
""blur"",""97"",""344544""
""focus"",""97"",""360036""
","""event"",""trial"",""time""
""blur"",""97"",""344544""
","""event"",""trial"",""time""
""focus"",""97"",""360036""
","""event"",""trial"",""time""
""fullscreenenter"",""0"",""11089""
","""event"",""trial"",""time""
""fullscreenexit"",""97"",""338795""
","292.20000000298023","","","","","","","","49","1,0,0","6","blank","273","null","0.5022487752774891","0.10151471573046367","0.48329797717700684","1","","","","","","","","",""
"","html-keyboard-response","107","385211","0.0-62.0-1.0","""event"",""trial"",""time""
""fullscreenenter"",""0"",""11089""
""fullscreenexit"",""97"",""338795""
""blur"",""97"",""344544""
""focus"",""97"",""360036""
","""event"",""trial"",""time""
""blur"",""97"",""344544""
","""event"",""trial"",""time""
""focus"",""97"",""360036""
","""event"",""trial"",""time""
""fullscreenenter"",""0"",""11089""
","""event"",""trial"",""time""
""fullscreenexit"",""97"",""338795""
","null","<p></p>","null","","","","","","","","","","","","","","","","","","","","","","","",""
"","do_trial","108","388084","0.0-63.0-0.0","""event"",""trial"",""time""
""fullscreenenter"",""0"",""11089""
""fullscreenexit"",""97"",""338795""
""blur"",""97"",""344544""
""focus"",""97"",""360036""
","""event"",""trial"",""time""
""blur"",""97"",""344544""
","""event"",""trial"",""time""
""focus"",""97"",""360036""
","""event"",""trial"",""time""
""fullscreenenter"",""0"",""11089""
","""event"",""trial"",""time""
""fullscreenexit"",""97"",""338795""
","291.8999999985099","","","","","","","","49","0,1,0","6","blank","274","null","0.5606469242056619","0.16272300673339563","0.5038287719714666","0","","","","","","","","",""
"","html-keyboard-response","109","389086","0.0-63.0-1.0","""event"",""trial"",""time""
""fullscreenenter"",""0"",""11089""
""fullscreenexit"",""97"",""338795""
""blur"",""97"",""344544""
""focus"",""97"",""360036""
","""event"",""trial"",""time""
""blur"",""97"",""344544""
","""event"",""trial"",""time""
""focus"",""97"",""360036""
","""event"",""trial"",""time""
""fullscreenenter"",""0"",""11089""
","""event"",""trial"",""time""
""fullscreenexit"",""97"",""338795""
","null","<p></p>","null","","","","","","","","","","","","","","","","","","","","","","","",""
"","do_trial","110","392114","0.0-64.0-0.0","""event"",""trial"",""time""
""fullscreenenter"",""0"",""11089""
""fullscreenexit"",""97"",""338795""
""blur"",""97"",""344544""
""focus"",""97"",""360036""
","""event"",""trial"",""time""
""blur"",""97"",""344544""
","""event"",""trial"",""time""
""focus"",""97"",""360036""
","""event"",""trial"",""time""
""fullscreenenter"",""0"",""11089""
","""event"",""trial"",""time""
""fullscreenexit"",""97"",""338795""
","448.5999999977648","","","","","","","","49","1,0,0","6","blank","275","null","0.687116167980467","0.05242928720755964","0.35012066022722527","1","","","","","","","","",""
"","html-keyboard-response","111","393116","0.0-64.0-1.0","""event"",""trial"",""time""
""fullscreenenter"",""0"",""11089""
""fullscreenexit"",""97"",""338795""
""blur"",""97"",""344544""
""focus"",""97"",""360036""
","""event"",""trial"",""time""
""blur"",""97"",""344544""
","""event"",""trial"",""time""
""focus"",""97"",""360036""
","""event"",""trial"",""time""
""fullscreenenter"",""0"",""11089""
","""event"",""trial"",""time""
""fullscreenexit"",""97"",""338795""
","null","<p></p>","null","","","","","","","","","","","","","","","","","","","","","","","",""
"","do_trial","112","396008","0.0-65.0-0.0","""event"",""trial"",""time""
""fullscreenenter"",""0"",""11089""
""fullscreenexit"",""97"",""338795""
""blur"",""97"",""344544""
""focus"",""97"",""360036""
","""event"",""trial"",""time""
""blur"",""97"",""344544""
","""event"",""trial"",""time""
""focus"",""97"",""360036""
","""event"",""trial"",""time""
""fullscreenenter"",""0"",""11089""
","""event"",""trial"",""time""
""fullscreenexit"",""97"",""338795""
","321","","","","","","","","49","1,0,0","6","blank","276","null","0.5787032628910382","0.14978455164127144","0.05342036039819014","1","","","","","","","","",""
"","html-keyboard-response","113","397009","0.0-65.0-1.0","""event"",""trial"",""time""
""fullscreenenter"",""0"",""11089""
""fullscreenexit"",""97"",""338795""
""blur"",""97"",""344544""
""focus"",""97"",""360036""
","""event"",""trial"",""time""
""blur"",""97"",""344544""
","""event"",""trial"",""time""
""focus"",""97"",""360036""
","""event"",""trial"",""time""
""fullscreenenter"",""0"",""11089""
","""event"",""trial"",""time""
""fullscreenexit"",""97"",""338795""
","null","<p></p>","null","","","","","","","","","","","","","","","","","","","","","","","",""
"","do_recog","114","400206","0.0-66.0-0.0","""event"",""trial"",""time""
""fullscreenenter"",""0"",""11089""
""fullscreenexit"",""97"",""338795""
""blur"",""97"",""344544""
""focus"",""97"",""360036""
","""event"",""trial"",""time""
""blur"",""97"",""344544""
","""event"",""trial"",""time""
""focus"",""97"",""360036""
","""event"",""trial"",""time""
""fullscreenenter"",""0"",""11089""
","""event"",""trial"",""time""
""fullscreenexit"",""97"",""338795""
","1686.5","","","","","","","","56","","","","277","probe-46","","","","","1","[object Object]","77","1","0","","","",""
"","html-keyboard-response","115","401208","0.0-66.0-1.0","""event"",""trial"",""time""
""fullscreenenter"",""0"",""11089""
""fullscreenexit"",""97"",""338795""
""blur"",""97"",""344544""
""focus"",""97"",""360036""
","""event"",""trial"",""time""
""blur"",""97"",""344544""
","""event"",""trial"",""time""
""focus"",""97"",""360036""
","""event"",""trial"",""time""
""fullscreenenter"",""0"",""11089""
","""event"",""trial"",""time""
""fullscreenexit"",""97"",""338795""
","null","<p></p>","null","","","","","","","","","","","","","","","","","","","","","","","",""
"","do_trial","116","404438","0.0-67.0-0.0","""event"",""trial"",""time""
""fullscreenenter"",""0"",""11089""
""fullscreenexit"",""97"",""338795""
""blur"",""97"",""344544""
""focus"",""97"",""360036""
","""event"",""trial"",""time""
""blur"",""97"",""344544""
","""event"",""trial"",""time""
""focus"",""97"",""360036""
","""event"",""trial"",""time""
""fullscreenenter"",""0"",""11089""
","""event"",""trial"",""time""
""fullscreenexit"",""97"",""338795""
","655","","","","","","","","49","0,0,0","6","blank","278","null","0.565631686033704","0.14511889101650746","0.2066050566252563","0","","","","","","","","",""
"","html-keyboard-response","117","405439","0.0-67.0-1.0","""event"",""trial"",""time""
""fullscreenenter"",""0"",""11089""
""fullscreenexit"",""97"",""338795""
""blur"",""97"",""344544""
""focus"",""97"",""360036""
","""event"",""trial"",""time""
""blur"",""97"",""344544""
","""event"",""trial"",""time""
""focus"",""97"",""360036""
","""event"",""trial"",""time""
""fullscreenenter"",""0"",""11089""
","""event"",""trial"",""time""
""fullscreenexit"",""97"",""338795""
","null","<p></p>","null","","","","","","","","","","","","","","","","","","","","","","","",""
"","do_recog","118","408538","0.0-68.0-0.0","""event"",""trial"",""time""
""fullscreenenter"",""0"",""11089""
""fullscreenexit"",""97"",""338795""
""blur"",""97"",""344544""
""focus"",""97"",""360036""
","""event"",""trial"",""time""
""blur"",""97"",""344544""
","""event"",""trial"",""time""
""focus"",""97"",""360036""
","""event"",""trial"",""time""
""fullscreenenter"",""0"",""11089""
","""event"",""trial"",""time""
""fullscreenexit"",""97"",""338795""
","1588.699999999255","","","","","","","","53","","","","279","probe-82","","","","","1","[object Object]","39","0","1","","","",""
"","html-keyboard-response","119","409540","0.0-68.0-1.0","""event"",""trial"",""time""
""fullscreenenter"",""0"",""11089""
""fullscreenexit"",""97"",""338795""
""blur"",""97"",""344544""
""focus"",""97"",""360036""
","""event"",""trial"",""time""
""blur"",""97"",""344544""
","""event"",""trial"",""time""
""focus"",""97"",""360036""
","""event"",""trial"",""time""
""fullscreenenter"",""0"",""11089""
","""event"",""trial"",""time""
""fullscreenexit"",""97"",""338795""
","null","<p></p>","null","","","","","","","","","","","","","","","","","","","","","","","",""
"","do_trial","120","412705","0.0-69.0-0.0","""event"",""trial"",""time""
""fullscreenenter"",""0"",""11089""
""fullscreenexit"",""97"",""338795""
""blur"",""97"",""344544""
""focus"",""97"",""360036""
","""event"",""trial"",""time""
""blur"",""97"",""344544""
","""event"",""trial"",""time""
""focus"",""97"",""360036""
","""event"",""trial"",""time""
""fullscreenenter"",""0"",""11089""
","""event"",""trial"",""time""
""fullscreenexit"",""97"",""338795""
","594.2000000029802","","","","","","","","49","1,0,0","6","blank","280","null","0.6200973439615306","0.12328164474257843","0.07012627506222976","1","","","","","","","","",""
"","html-keyboard-response","121","413707","0.0-69.0-1.0","""event"",""trial"",""time""
""fullscreenenter"",""0"",""11089""
""fullscreenexit"",""97"",""338795""
""blur"",""97"",""344544""
""focus"",""97"",""360036""
","""event"",""trial"",""time""
""blur"",""97"",""344544""
","""event"",""trial"",""time""
""focus"",""97"",""360036""
","""event"",""trial"",""time""
""fullscreenenter"",""0"",""11089""
","""event"",""trial"",""time""
""fullscreenexit"",""97"",""338795""
","null","<p></p>","null","","","","","","","","","","","","","","","","","","","","","","","",""
"","do_trial","122","417042","0.0-70.0-0.0","""event"",""trial"",""time""
""fullscreenenter"",""0"",""11089""
""fullscreenexit"",""97"",""338795""
""blur"",""97"",""344544""
""focus"",""97"",""360036""
","""event"",""trial"",""time""
""blur"",""97"",""344544""
","""event"",""trial"",""time""
""focus"",""97"",""360036""
","""event"",""trial"",""time""
""fullscreenenter"",""0"",""11089""
","""event"",""trial"",""time""
""fullscreenexit"",""97"",""338795""
","761.5","","","","","","","","49","0,0,0","6","blank","281","null","0.5986186105171529","0.08609963166365413","0.32319339807623787","0","","","","","","","","",""
"","html-keyboard-response","123","418043","0.0-70.0-1.0","""event"",""trial"",""time""
""fullscreenenter"",""0"",""11089""
""fullscreenexit"",""97"",""338795""
""blur"",""97"",""344544""
""focus"",""97"",""360036""
","""event"",""trial"",""time""
""blur"",""97"",""344544""
","""event"",""trial"",""time""
""focus"",""97"",""360036""
","""event"",""trial"",""time""
""fullscreenenter"",""0"",""11089""
","""event"",""trial"",""time""
""fullscreenexit"",""97"",""338795""
","null","<p></p>","null","","","","","","","","","","","","","","","","","","","","","","","",""
"","do_trial","124","421340","0.0-71.0-0.0","""event"",""trial"",""time""
""fullscreenenter"",""0"",""11089""
""fullscreenexit"",""97"",""338795""
""blur"",""97"",""344544""
""focus"",""97"",""360036""
","""event"",""trial"",""time""
""blur"",""97"",""344544""
","""event"",""trial"",""time""
""focus"",""97"",""360036""
","""event"",""trial"",""time""
""fullscreenenter"",""0"",""11089""
","""event"",""trial"",""time""
""fullscreenexit"",""97"",""338795""
","722.3999999985099","","","","","","","","49","1,0,0","6","blank","282","null","0.6327070365101132","0.23631897915868005","0.2333990942301801","1","","","","","","","","",""
"","html-keyboard-response","125","422342","0.0-71.0-1.0","""event"",""trial"",""time""
""fullscreenenter"",""0"",""11089""
""fullscreenexit"",""97"",""338795""
""blur"",""97"",""344544""
""focus"",""97"",""360036""
","""event"",""trial"",""time""
""blur"",""97"",""344544""
","""event"",""trial"",""time""
""focus"",""97"",""360036""
","""event"",""trial"",""time""
""fullscreenenter"",""0"",""11089""
","""event"",""trial"",""time""
""fullscreenexit"",""97"",""338795""
","null","<p></p>","null","","","","","","","","","","","","","","","","","","","","","","","",""
"","do_trial","126","425959","0.0-72.0-0.0","""event"",""trial"",""time""
""fullscreenenter"",""0"",""11089""
""fullscreenexit"",""97"",""338795""
""blur"",""97"",""344544""
""focus"",""97"",""360036""
","""event"",""trial"",""time""
""blur"",""97"",""344544""
","""event"",""trial"",""time""
""focus"",""97"",""360036""
","""event"",""trial"",""time""
""fullscreenenter"",""0"",""11089""
","""event"",""trial"",""time""
""fullscreenexit"",""97"",""338795""
","1038.300000000745","","","","","","","","49","0,1,0","6","blank","283","null","0.5240773093579434","0.23334616876485775","0.3025325386759898","0","","","","","","","","",""
"","html-keyboard-response","127","426960","0.0-72.0-1.0","""event"",""trial"",""time""
""fullscreenenter"",""0"",""11089""
""fullscreenexit"",""97"",""338795""
""blur"",""97"",""344544""
""focus"",""97"",""360036""
","""event"",""trial"",""time""
""blur"",""97"",""344544""
","""event"",""trial"",""time""
""focus"",""97"",""360036""
","""event"",""trial"",""time""
""fullscreenenter"",""0"",""11089""
","""event"",""trial"",""time""
""fullscreenexit"",""97"",""338795""
","null","<p></p>","null","","","","","","","","","","","","","","","","","","","","","","","",""
"","do_trial","128","429944","0.0-73.0-0.0","""event"",""trial"",""time""
""fullscreenenter"",""0"",""11089""
""fullscreenexit"",""97"",""338795""
""blur"",""97"",""344544""
""focus"",""97"",""360036""
","""event"",""trial"",""time""
""blur"",""97"",""344544""
","""event"",""trial"",""time""
""focus"",""97"",""360036""
","""event"",""trial"",""time""
""fullscreenenter"",""0"",""11089""
","""event"",""trial"",""time""
""fullscreenexit"",""97"",""338795""
","414.80000000074506","","","","","","","","49","1,0,0","6","blank","284","null","0.5812868772919537","0.05734230759297278","0.2790198380962851","1","","","","","","","","",""
"","html-keyboard-response","129","430946","0.0-73.0-1.0","""event"",""trial"",""time""
""fullscreenenter"",""0"",""11089""
""fullscreenexit"",""97"",""338795""
""blur"",""97"",""344544""
""focus"",""97"",""360036""
","""event"",""trial"",""time""
""blur"",""97"",""344544""
","""event"",""trial"",""time""
""focus"",""97"",""360036""
","""event"",""trial"",""time""
""fullscreenenter"",""0"",""11089""
","""event"",""trial"",""time""
""fullscreenexit"",""97"",""338795""
","null","<p></p>","null","","","","","","","","","","","","","","","","","","","","","","","",""
"","do_trial","130","434084","0.0-74.0-0.0","""event"",""trial"",""time""
""fullscreenenter"",""0"",""11089""
""fullscreenexit"",""97"",""338795""
""blur"",""97"",""344544""
""focus"",""97"",""360036""
","""event"",""trial"",""time""
""blur"",""97"",""344544""
","""event"",""trial"",""time""
""focus"",""97"",""360036""
","""event"",""trial"",""time""
""fullscreenenter"",""0"",""11089""
","""event"",""trial"",""time""
""fullscreenexit"",""97"",""338795""
","574.8999999985099","","","","","","","","49","1,0,1","6","blank","285","null","0.7317877529574685","0.13052063925606755","0.3346368941599592","1","","","","","","","","",""
"","html-keyboard-response","131","435086","0.0-74.0-1.0","""event"",""trial"",""time""
""fullscreenenter"",""0"",""11089""
""fullscreenexit"",""97"",""338795""
""blur"",""97"",""344544""
""focus"",""97"",""360036""
","""event"",""trial"",""time""
""blur"",""97"",""344544""
","""event"",""trial"",""time""
""focus"",""97"",""360036""
","""event"",""trial"",""time""
""fullscreenenter"",""0"",""11089""
","""event"",""trial"",""time""
""fullscreenexit"",""97"",""338795""
","null","<p></p>","null","","","","","","","","","","","","","","","","","","","","","","","",""
"","do_recog","132","438737","0.0-75.0-0.0","""event"",""trial"",""time""
""fullscreenenter"",""0"",""11089""
""fullscreenexit"",""97"",""338795""
""blur"",""97"",""344544""
""focus"",""97"",""360036""
","""event"",""trial"",""time""
""blur"",""97"",""344544""
","""event"",""trial"",""time""
""focus"",""97"",""360036""
","""event"",""trial"",""time""
""fullscreenenter"",""0"",""11089""
","""event"",""trial"",""time""
""fullscreenexit"",""97"",""338795""
","2143.300000000745","","","","","","","","53","","","","286","probe-58","","","","","1","[object Object]","156","3","1","","","",""
"","html-keyboard-response","133","439740","0.0-75.0-1.0","""event"",""trial"",""time""
""fullscreenenter"",""0"",""11089""
""fullscreenexit"",""97"",""338795""
""blur"",""97"",""344544""
""focus"",""97"",""360036""
","""event"",""trial"",""time""
""blur"",""97"",""344544""
","""event"",""trial"",""time""
""focus"",""97"",""360036""
","""event"",""trial"",""time""
""fullscreenenter"",""0"",""11089""
","""event"",""trial"",""time""
""fullscreenexit"",""97"",""338795""
","null","<p></p>","null","","","","","","","","","","","","","","","","","","","","","","","",""
"","do_trial","134","442934","0.0-76.0-0.0","""event"",""trial"",""time""
""fullscreenenter"",""0"",""11089""
""fullscreenexit"",""97"",""338795""
""blur"",""97"",""344544""
""focus"",""97"",""360036""
","""event"",""trial"",""time""
""blur"",""97"",""344544""
","""event"",""trial"",""time""
""focus"",""97"",""360036""
","""event"",""trial"",""time""
""fullscreenenter"",""0"",""11089""
","""event"",""trial"",""time""
""fullscreenexit"",""97"",""338795""
","614.2000000029802","","","","","","","","49","1,0,0","6","blank","287","null","0.6943215310016937","0.056472675767311645","0.28728740089094934","1","","","","","","","","",""
"","html-keyboard-response","135","443935","0.0-76.0-1.0","""event"",""trial"",""time""
""fullscreenenter"",""0"",""11089""
""fullscreenexit"",""97"",""338795""
""blur"",""97"",""344544""
""focus"",""97"",""360036""
","""event"",""trial"",""time""
""blur"",""97"",""344544""
","""event"",""trial"",""time""
""focus"",""97"",""360036""
","""event"",""trial"",""time""
""fullscreenenter"",""0"",""11089""
","""event"",""trial"",""time""
""fullscreenexit"",""97"",""338795""
","null","<p></p>","null","","","","","","","","","","","","","","","","","","","","","","","",""
"","do_recog","136","446804","0.0-77.0-0.0","""event"",""trial"",""time""
""fullscreenenter"",""0"",""11089""
""fullscreenexit"",""97"",""338795""
""blur"",""97"",""344544""
""focus"",""97"",""360036""
","""event"",""trial"",""time""
""blur"",""97"",""344544""
","""event"",""trial"",""time""
""focus"",""97"",""360036""
","""event"",""trial"",""time""
""fullscreenenter"",""0"",""11089""
","""event"",""trial"",""time""
""fullscreenexit"",""97"",""338795""
","1360.800000000745","","","","","","","","53","","","","288","probe-45","","","","","1","[object Object]","155","3","1","","","",""
"","html-keyboard-response","137","447805","0.0-77.0-1.0","""event"",""trial"",""time""
""fullscreenenter"",""0"",""11089""
""fullscreenexit"",""97"",""338795""
""blur"",""97"",""344544""
""focus"",""97"",""360036""
","""event"",""trial"",""time""
""blur"",""97"",""344544""
","""event"",""trial"",""time""
""focus"",""97"",""360036""
","""event"",""trial"",""time""
""fullscreenenter"",""0"",""11089""
","""event"",""trial"",""time""
""fullscreenexit"",""97"",""338795""
","null","<p></p>","null","","","","","","","","","","","","","","","","","","","","","","","",""
"","do_trial","138","451588","0.0-78.0-0.0","""event"",""trial"",""time""
""fullscreenenter"",""0"",""11089""
""fullscreenexit"",""97"",""338795""
""blur"",""97"",""344544""
""focus"",""97"",""360036""
","""event"",""trial"",""time""
""blur"",""97"",""344544""
","""event"",""trial"",""time""
""focus"",""97"",""360036""
","""event"",""trial"",""time""
""fullscreenenter"",""0"",""11089""
","""event"",""trial"",""time""
""fullscreenexit"",""97"",""338795""
","1206.6000000014901","","","","","","","","49","0,0,0","6","blank","289","null","0.6354066952746472","0.0785359803594252","0.18562795685700878","0","","","","","","","","",""
"","html-keyboard-response","139","452590","0.0-78.0-1.0","""event"",""trial"",""time""
""fullscreenenter"",""0"",""11089""
""fullscreenexit"",""97"",""338795""
""blur"",""97"",""344544""
""focus"",""97"",""360036""
","""event"",""trial"",""time""
""blur"",""97"",""344544""
","""event"",""trial"",""time""
""focus"",""97"",""360036""
","""event"",""trial"",""time""
""fullscreenenter"",""0"",""11089""
","""event"",""trial"",""time""
""fullscreenexit"",""97"",""338795""
","null","<p></p>","null","","","","","","","","","","","","","","","","","","","","","","","",""
"","do_recog","140","455307","0.0-79.0-0.0","""event"",""trial"",""time""
""fullscreenenter"",""0"",""11089""
""fullscreenexit"",""97"",""338795""
""blur"",""97"",""344544""
""focus"",""97"",""360036""
","""event"",""trial"",""time""
""blur"",""97"",""344544""
","""event"",""trial"",""time""
""focus"",""97"",""360036""
","""event"",""trial"",""time""
""fullscreenenter"",""0"",""11089""
","""event"",""trial"",""time""
""fullscreenexit"",""97"",""338795""
","1210","","","","","","","","53","","","","290","probe-224","","","","","1","[object Object]","150","3","1","","","",""
"","html-keyboard-response","141","456308","0.0-79.0-1.0","""event"",""trial"",""time""
""fullscreenenter"",""0"",""11089""
""fullscreenexit"",""97"",""338795""
""blur"",""97"",""344544""
""focus"",""97"",""360036""
","""event"",""trial"",""time""
""blur"",""97"",""344544""
","""event"",""trial"",""time""
""focus"",""97"",""360036""
","""event"",""trial"",""time""
""fullscreenenter"",""0"",""11089""
","""event"",""trial"",""time""
""fullscreenexit"",""97"",""338795""
","null","<p></p>","null","","","","","","","","","","","","","","","","","","","","","","","",""
"","do_trial","142","459926","0.0-80.0-0.0","""event"",""trial"",""time""
""fullscreenenter"",""0"",""11089""
""fullscreenexit"",""97"",""338795""
""blur"",""97"",""344544""
""focus"",""97"",""360036""
","""event"",""trial"",""time""
""blur"",""97"",""344544""
","""event"",""trial"",""time""
""focus"",""97"",""360036""
","""event"",""trial"",""time""
""fullscreenenter"",""0"",""11089""
","""event"",""trial"",""time""
""fullscreenexit"",""97"",""338795""
","1037.199999999255","","","","","","","","49","1,0,0","6","blank","291","null","0.7289948365565756","0.08772096606581617","0.26846032961626787","1","","","","","","","","",""
"","html-keyboard-response","143","460927","0.0-80.0-1.0","""event"",""trial"",""time""
""fullscreenenter"",""0"",""11089""
""fullscreenexit"",""97"",""338795""
""blur"",""97"",""344544""
""focus"",""97"",""360036""
","""event"",""trial"",""time""
""blur"",""97"",""344544""
","""event"",""trial"",""time""
""focus"",""97"",""360036""
","""event"",""trial"",""time""
""fullscreenenter"",""0"",""11089""
","""event"",""trial"",""time""
""fullscreenexit"",""97"",""338795""
","null","<p></p>","null","","","","","","","","","","","","","","","","","","","","","","","",""
"","do_trial","144","463968","0.0-81.0-0.0","""event"",""trial"",""time""
""fullscreenenter"",""0"",""11089""
""fullscreenexit"",""97"",""338795""
""blur"",""97"",""344544""
""focus"",""97"",""360036""
","""event"",""trial"",""time""
""blur"",""97"",""344544""
","""event"",""trial"",""time""
""focus"",""97"",""360036""
","""event"",""trial"",""time""
""fullscreenenter"",""0"",""11089""
","""event"",""trial"",""time""
""fullscreenexit"",""97"",""338795""
","466.30000000074506","","","","","","","","49","0,0,0","6","blank","292","null","0.6458429754605003","0.09673579892198923","0.12125802574085909","0","","","","","","","","",""
"","html-keyboard-response","145","464970","0.0-81.0-1.0","""event"",""trial"",""time""
""fullscreenenter"",""0"",""11089""
""fullscreenexit"",""97"",""338795""
""blur"",""97"",""344544""
""focus"",""97"",""360036""
","""event"",""trial"",""time""
""blur"",""97"",""344544""
","""event"",""trial"",""time""
""focus"",""97"",""360036""
","""event"",""trial"",""time""
""fullscreenenter"",""0"",""11089""
","""event"",""trial"",""time""
""fullscreenexit"",""97"",""338795""
","null","<p></p>","null","","","","","","","","","","","","","","","","","","","","","","","",""
"","do_recog","146","467949","0.0-82.0-0.0","""event"",""trial"",""time""
""fullscreenenter"",""0"",""11089""
""fullscreenexit"",""97"",""338795""
""blur"",""97"",""344544""
""focus"",""97"",""360036""
","""event"",""trial"",""time""
""blur"",""97"",""344544""
","""event"",""trial"",""time""
""focus"",""97"",""360036""
","""event"",""trial"",""time""
""fullscreenenter"",""0"",""11089""
","""event"",""trial"",""time""
""fullscreenexit"",""97"",""338795""
","1470.5","","","","","","","","56","","","","293","probe-20","","","","","1","[object Object]","30","0","0","","","",""
"","html-keyboard-response","147","468951","0.0-82.0-1.0","""event"",""trial"",""time""
""fullscreenenter"",""0"",""11089""
""fullscreenexit"",""97"",""338795""
""blur"",""97"",""344544""
""focus"",""97"",""360036""
","""event"",""trial"",""time""
""blur"",""97"",""344544""
","""event"",""trial"",""time""
""focus"",""97"",""360036""
","""event"",""trial"",""time""
""fullscreenenter"",""0"",""11089""
","""event"",""trial"",""time""
""fullscreenexit"",""97"",""338795""
","null","<p></p>","null","","","","","","","","","","","","","","","","","","","","","","","",""
"","do_trial","148","472203","0.0-83.0-0.0","""event"",""trial"",""time""
""fullscreenenter"",""0"",""11089""
""fullscreenexit"",""97"",""338795""
""blur"",""97"",""344544""
""focus"",""97"",""360036""
","""event"",""trial"",""time""
""blur"",""97"",""344544""
","""event"",""trial"",""time""
""focus"",""97"",""360036""
","""event"",""trial"",""time""
""fullscreenenter"",""0"",""11089""
","""event"",""trial"",""time""
""fullscreenexit"",""97"",""338795""
","681.1999999992549","","","","","","","","49","0,0,0","6","blank","294","null","0.527664585816941","0.06432514407247598","0.20130533621545318","0","","","","","","","","",""
"","html-keyboard-response","149","473205","0.0-83.0-1.0","""event"",""trial"",""time""
""fullscreenenter"",""0"",""11089""
""fullscreenexit"",""97"",""338795""
""blur"",""97"",""344544""
""focus"",""97"",""360036""
","""event"",""trial"",""time""
""blur"",""97"",""344544""
","""event"",""trial"",""time""
""focus"",""97"",""360036""
","""event"",""trial"",""time""
""fullscreenenter"",""0"",""11089""
","""event"",""trial"",""time""
""fullscreenexit"",""97"",""338795""
","null","<p></p>","null","","","","","","","","","","","","","","","","","","","","","","","",""
"","do_trial","150","476576","0.0-84.0-0.0","""event"",""trial"",""time""
""fullscreenenter"",""0"",""11089""
""fullscreenexit"",""97"",""338795""
""blur"",""97"",""344544""
""focus"",""97"",""360036""
","""event"",""trial"",""time""
""blur"",""97"",""344544""
","""event"",""trial"",""time""
""focus"",""97"",""360036""
","""event"",""trial"",""time""
""fullscreenenter"",""0"",""11089""
","""event"",""trial"",""time""
""fullscreenexit"",""97"",""338795""
","794.5","","","","","","","","49","0,0,1","6","blank","295","null","0.557207647466467","0.19928604244769943","0.19409989981564452","0","","","","","","","","",""
"","html-keyboard-response","151","477577","0.0-84.0-1.0","""event"",""trial"",""time""
""fullscreenenter"",""0"",""11089""
""fullscreenexit"",""97"",""338795""
""blur"",""97"",""344544""
""focus"",""97"",""360036""
","""event"",""trial"",""time""
""blur"",""97"",""344544""
","""event"",""trial"",""time""
""focus"",""97"",""360036""
","""event"",""trial"",""time""
""fullscreenenter"",""0"",""11089""
","""event"",""trial"",""time""
""fullscreenexit"",""97"",""338795""
","null","<p></p>","null","","","","","","","","","","","","","","","","","","","","","","","",""
"","do_recog","152","480389","0.0-85.0-0.0","""event"",""trial"",""time""
""fullscreenenter"",""0"",""11089""
""fullscreenexit"",""97"",""338795""
""blur"",""97"",""344544""
""focus"",""97"",""360036""
","""event"",""trial"",""time""
""blur"",""97"",""344544""
","""event"",""trial"",""time""
""focus"",""97"",""360036""
","""event"",""trial"",""time""
""fullscreenenter"",""0"",""11089""
","""event"",""trial"",""time""
""fullscreenexit"",""97"",""338795""
","1303.7000000029802","","","","","","","","53","","","","296","probe-38","","","","","1","[object Object]","118","2","1","","","",""
"","html-keyboard-response","153","481391","0.0-85.0-1.0","""event"",""trial"",""time""
""fullscreenenter"",""0"",""11089""
""fullscreenexit"",""97"",""338795""
""blur"",""97"",""344544""
""focus"",""97"",""360036""
","""event"",""trial"",""time""
""blur"",""97"",""344544""
","""event"",""trial"",""time""
""focus"",""97"",""360036""
","""event"",""trial"",""time""
""fullscreenenter"",""0"",""11089""
","""event"",""trial"",""time""
""fullscreenexit"",""97"",""338795""
","null","<p></p>","null","","","","","","","","","","","","","","","","","","","","","","","",""
"","do_trial","154","484568","0.0-86.0-0.0","""event"",""trial"",""time""
""fullscreenenter"",""0"",""11089""
""fullscreenexit"",""97"",""338795""
""blur"",""97"",""344544""
""focus"",""97"",""360036""
","""event"",""trial"",""time""
""blur"",""97"",""344544""
","""event"",""trial"",""time""
""focus"",""97"",""360036""
","""event"",""trial"",""time""
""fullscreenenter"",""0"",""11089""
","""event"",""trial"",""time""
""fullscreenexit"",""97"",""338795""
","595.6000000014901","","","","","","","","49","1,0,1","6","blank","297","null","0.34104845242299775","0.6266445223272169","0.34036062210965834","1","","","","","","","","",""
"","html-keyboard-response","155","485569","0.0-86.0-1.0","""event"",""trial"",""time""
""fullscreenenter"",""0"",""11089""
""fullscreenexit"",""97"",""338795""
""blur"",""97"",""344544""
""focus"",""97"",""360036""
","""event"",""trial"",""time""
""blur"",""97"",""344544""
","""event"",""trial"",""time""
""focus"",""97"",""360036""
","""event"",""trial"",""time""
""fullscreenenter"",""0"",""11089""
","""event"",""trial"",""time""
""fullscreenexit"",""97"",""338795""
","null","<p></p>","null","","","","","","","","","","","","","","","","","","","","","","","",""
"","do_trial","156","488616","0.0-87.0-0.0","""event"",""trial"",""time""
""fullscreenenter"",""0"",""11089""
""fullscreenexit"",""97"",""338795""
""blur"",""97"",""344544""
""focus"",""97"",""360036""
","""event"",""trial"",""time""
""blur"",""97"",""344544""
","""event"",""trial"",""time""
""focus"",""97"",""360036""
","""event"",""trial"",""time""
""fullscreenenter"",""0"",""11089""
","""event"",""trial"",""time""
""fullscreenexit"",""97"",""338795""
","476.20000000298023","","","","","","","","49","0,0,0","6","blank","298","null","0.2919078064082653","0.6181726075671249","0.2600223455762003","0","","","","","","","","",""
"","html-keyboard-response","157","489620","0.0-87.0-1.0","""event"",""trial"",""time""
""fullscreenenter"",""0"",""11089""
""fullscreenexit"",""97"",""338795""
""blur"",""97"",""344544""
""focus"",""97"",""360036""
","""event"",""trial"",""time""
""blur"",""97"",""344544""
","""event"",""trial"",""time""
""focus"",""97"",""360036""
","""event"",""trial"",""time""
""fullscreenenter"",""0"",""11089""
","""event"",""trial"",""time""
""fullscreenexit"",""97"",""338795""
","null","<p></p>","null","","","","","","","","","","","","","","","","","","","","","","","",""
"","do_trial","158","492521","0.0-88.0-0.0","""event"",""trial"",""time""
""fullscreenenter"",""0"",""11089""
""fullscreenexit"",""97"",""338795""
""blur"",""97"",""344544""
""focus"",""97"",""360036""
","""event"",""trial"",""time""
""blur"",""97"",""344544""
","""event"",""trial"",""time""
""focus"",""97"",""360036""
","""event"",""trial"",""time""
""fullscreenenter"",""0"",""11089""
","""event"",""trial"",""time""
""fullscreenexit"",""97"",""338795""
","317.1000000014901","","","","","","","","49","0,1,0","6","blank","299","null","0.21705992184409922","0.5512380104385447","0.3776146013538939","0","","","","","","","","",""
"","html-keyboard-response","159","493523","0.0-88.0-1.0","""event"",""trial"",""time""
""fullscreenenter"",""0"",""11089""
""fullscreenexit"",""97"",""338795""
""blur"",""97"",""344544""
""focus"",""97"",""360036""
","""event"",""trial"",""time""
""blur"",""97"",""344544""
","""event"",""trial"",""time""
""focus"",""97"",""360036""
","""event"",""trial"",""time""
""fullscreenenter"",""0"",""11089""
","""event"",""trial"",""time""
""fullscreenexit"",""97"",""338795""
","null","<p></p>","null","","","","","","","","","","","","","","","","","","","","","","","",""
"","do_trial","160","496518","0.0-89.0-0.0","""event"",""trial"",""time""
""fullscreenenter"",""0"",""11089""
""fullscreenexit"",""97"",""338795""
""blur"",""97"",""344544""
""focus"",""97"",""360036""
","""event"",""trial"",""time""
""blur"",""97"",""344544""
","""event"",""trial"",""time""
""focus"",""97"",""360036""
","""event"",""trial"",""time""
""fullscreenenter"",""0"",""11089""
","""event"",""trial"",""time""
""fullscreenexit"",""97"",""338795""
","425","","","","","","","","49","0,0,1","6","blank","300","null","0.10961752584698936","0.5373298607033565","0.29402538799803823","0","","","","","","","","",""
"","html-keyboard-response","161","497520","0.0-89.0-1.0","""event"",""trial"",""time""
""fullscreenenter"",""0"",""11089""
""fullscreenexit"",""97"",""338795""
""blur"",""97"",""344544""
""focus"",""97"",""360036""
","""event"",""trial"",""time""
""blur"",""97"",""344544""
","""event"",""trial"",""time""
""focus"",""97"",""360036""
","""event"",""trial"",""time""
""fullscreenenter"",""0"",""11089""
","""event"",""trial"",""time""
""fullscreenexit"",""97"",""338795""
","null","<p></p>","null","","","","","","","","","","","","","","","","","","","","","","","",""
"","do_trial","162","500493","0.0-90.0-0.0","""event"",""trial"",""time""
""fullscreenenter"",""0"",""11089""
""fullscreenexit"",""97"",""338795""
""blur"",""97"",""344544""
""focus"",""97"",""360036""
","""event"",""trial"",""time""
""blur"",""97"",""344544""
","""event"",""trial"",""time""
""focus"",""97"",""360036""
","""event"",""trial"",""time""
""fullscreenenter"",""0"",""11089""
","""event"",""trial"",""time""
""fullscreenexit"",""97"",""338795""
","401.3999999985099","","","","","","","","49","1,1,0","6","blank","301","null","0.10263929990965721","0.5727711188791491","0.2710846243499894","1","","","","","","","","",""
"","html-keyboard-response","163","501495","0.0-90.0-1.0","""event"",""trial"",""time""
""fullscreenenter"",""0"",""11089""
""fullscreenexit"",""97"",""338795""
""blur"",""97"",""344544""
""focus"",""97"",""360036""
","""event"",""trial"",""time""
""blur"",""97"",""344544""
","""event"",""trial"",""time""
""focus"",""97"",""360036""
","""event"",""trial"",""time""
""fullscreenenter"",""0"",""11089""
","""event"",""trial"",""time""
""fullscreenexit"",""97"",""338795""
","null","<p></p>","null","","","","","","","","","","","","","","","","","","","","","","","",""
"","do_recog","164","507504","0.0-91.0-0.0","""event"",""trial"",""time""
""fullscreenenter"",""0"",""11089""
""fullscreenexit"",""97"",""338795""
""blur"",""97"",""344544""
""focus"",""97"",""360036""
","""event"",""trial"",""time""
""blur"",""97"",""344544""
","""event"",""trial"",""time""
""focus"",""97"",""360036""
","""event"",""trial"",""time""
""fullscreenenter"",""0"",""11089""
","""event"",""trial"",""time""
""fullscreenexit"",""97"",""338795""
","null","","","","","","","","null","","","","302","probe-204","","","","","1","[object Object]","194","4","0","","","",""
"","html-keyboard-response","165","508506","0.0-91.0-1.0","""event"",""trial"",""time""
""fullscreenenter"",""0"",""11089""
""fullscreenexit"",""97"",""338795""
""blur"",""97"",""344544""
""focus"",""97"",""360036""
","""event"",""trial"",""time""
""blur"",""97"",""344544""
","""event"",""trial"",""time""
""focus"",""97"",""360036""
","""event"",""trial"",""time""
""fullscreenenter"",""0"",""11089""
","""event"",""trial"",""time""
""fullscreenexit"",""97"",""338795""
","null","<p></p>","null","","","","","","","","","","","","","","","","","","","","","","","",""
"","do_trial","166","511768","0.0-92.0-0.0","""event"",""trial"",""time""
""fullscreenenter"",""0"",""11089""
""fullscreenexit"",""97"",""338795""
""blur"",""97"",""344544""
""focus"",""97"",""360036""
","""event"",""trial"",""time""
""blur"",""97"",""344544""
","""event"",""trial"",""time""
""focus"",""97"",""360036""
","""event"",""trial"",""time""
""fullscreenenter"",""0"",""11089""
","""event"",""trial"",""time""
""fullscreenexit"",""97"",""338795""
","685.8999999985099","","","","","","","","49","0,1,0","6","blank","303","null","0.07606257107566969","0.591524417983533","0.20259285023111745","0","","","","","","","","",""
"","html-keyboard-response","167","512770","0.0-92.0-1.0","""event"",""trial"",""time""
""fullscreenenter"",""0"",""11089""
""fullscreenexit"",""97"",""338795""
""blur"",""97"",""344544""
""focus"",""97"",""360036""
","""event"",""trial"",""time""
""blur"",""97"",""344544""
","""event"",""trial"",""time""
""focus"",""97"",""360036""
","""event"",""trial"",""time""
""fullscreenenter"",""0"",""11089""
","""event"",""trial"",""time""
""fullscreenexit"",""97"",""338795""
","null","<p></p>","null","","","","","","","","","","","","","","","","","","","","","","","",""
"","do_trial","168","515961","0.0-93.0-0.0","""event"",""trial"",""time""
""fullscreenenter"",""0"",""11089""
""fullscreenexit"",""97"",""338795""
""blur"",""97"",""344544""
""focus"",""97"",""360036""
","""event"",""trial"",""time""
""blur"",""97"",""344544""
","""event"",""trial"",""time""
""focus"",""97"",""360036""
","""event"",""trial"",""time""
""fullscreenenter"",""0"",""11089""
","""event"",""trial"",""time""
""fullscreenexit"",""97"",""338795""
","610.2999999970198","","","","","","","","49","1,1,1","6","blank","304","null","0.11681003948770174","0.6159940226294282","0.24900590541156958","1","","","","","","","","",""
"","html-keyboard-response","169","516963","0.0-93.0-1.0","""event"",""trial"",""time""
""fullscreenenter"",""0"",""11089""
""fullscreenexit"",""97"",""338795""
""blur"",""97"",""344544""
""focus"",""97"",""360036""
","""event"",""trial"",""time""
""blur"",""97"",""344544""
","""event"",""trial"",""time""
""focus"",""97"",""360036""
","""event"",""trial"",""time""
""fullscreenenter"",""0"",""11089""
","""event"",""trial"",""time""
""fullscreenexit"",""97"",""338795""
","null","<p></p>","null","","","","","","","","","","","","","","","","","","","","","","","",""
"","do_trial","170","519850","0.0-94.0-0.0","""event"",""trial"",""time""
""fullscreenenter"",""0"",""11089""
""fullscreenexit"",""97"",""338795""
""blur"",""97"",""344544""
""focus"",""97"",""360036""
","""event"",""trial"",""time""
""blur"",""97"",""344544""
","""event"",""trial"",""time""
""focus"",""97"",""360036""
","""event"",""trial"",""time""
""fullscreenenter"",""0"",""11089""
","""event"",""trial"",""time""
""fullscreenexit"",""97"",""338795""
","312.69999999925494","","","","","","","","49","0,1,0","6","blank","305","null","0.08005317703421337","0.5395781984623613","0.366888028962039","0","","","","","","","","",""
"","html-keyboard-response","171","520851","0.0-94.0-1.0","""event"",""trial"",""time""
""fullscreenenter"",""0"",""11089""
""fullscreenexit"",""97"",""338795""
""blur"",""97"",""344544""
""focus"",""97"",""360036""
","""event"",""trial"",""time""
""blur"",""97"",""344544""
","""event"",""trial"",""time""
""focus"",""97"",""360036""
","""event"",""trial"",""time""
""fullscreenenter"",""0"",""11089""
","""event"",""trial"",""time""
""fullscreenexit"",""97"",""338795""
","null","<p></p>","null","","","","","","","","","","","","","","","","","","","","","","","",""
"","do_trial","172","523426","0.0-95.0-0.0","""event"",""trial"",""time""
""fullscreenenter"",""0"",""11089""
""fullscreenexit"",""97"",""338795""
""blur"",""97"",""344544""
""focus"",""97"",""360036""
","""event"",""trial"",""time""
""blur"",""97"",""344544""
","""event"",""trial"",""time""
""focus"",""97"",""360036""
","""event"",""trial"",""time""
""fullscreenenter"",""0"",""11089""
","""event"",""trial"",""time""
""fullscreenexit"",""97"",""338795""
","0.30000000074505806","","","","","","","","49","1,1,0","6","blank","306","null","0.15429314158307095","0.5810838550681633","0.3202422937274443","1","","","","","","","","",""
"","html-keyboard-response","173","524428","0.0-95.0-1.0","""event"",""trial"",""time""
""fullscreenenter"",""0"",""11089""
""fullscreenexit"",""97"",""338795""
""blur"",""97"",""344544""
""focus"",""97"",""360036""
","""event"",""trial"",""time""
""blur"",""97"",""344544""
","""event"",""trial"",""time""
""focus"",""97"",""360036""
","""event"",""trial"",""time""
""fullscreenenter"",""0"",""11089""
","""event"",""trial"",""time""
""fullscreenexit"",""97"",""338795""
","null","<p></p>","null","","","","","","","","","","","","","","","","","","","","","","","",""
"","do_trial","174","527646","0.0-96.0-0.0","""event"",""trial"",""time""
""fullscreenenter"",""0"",""11089""
""fullscreenexit"",""97"",""338795""
""blur"",""97"",""344544""
""focus"",""97"",""360036""
","""event"",""trial"",""time""
""blur"",""97"",""344544""
","""event"",""trial"",""time""
""focus"",""97"",""360036""
","""event"",""trial"",""time""
""fullscreenenter"",""0"",""11089""
","""event"",""trial"",""time""
""fullscreenexit"",""97"",""338795""
","647.7000000029802","","","","","","","","49","0,0,0","6","blank","307","null","0.10415922966084512","0.5971425347556906","0.43024964152979367","0","","","","","","","","",""
"","html-keyboard-response","175","528647","0.0-96.0-1.0","""event"",""trial"",""time""
""fullscreenenter"",""0"",""11089""
""fullscreenexit"",""97"",""338795""
""blur"",""97"",""344544""
""focus"",""97"",""360036""
","""event"",""trial"",""time""
""blur"",""97"",""344544""
","""event"",""trial"",""time""
""focus"",""97"",""360036""
","""event"",""trial"",""time""
""fullscreenenter"",""0"",""11089""
","""event"",""trial"",""time""
""fullscreenexit"",""97"",""338795""
","null","<p></p>","null","","","","","","","","","","","","","","","","","","","","","","","",""
"","do_trial","176","531795","0.0-97.0-0.0","""event"",""trial"",""time""
""fullscreenenter"",""0"",""11089""
""fullscreenexit"",""97"",""338795""
""blur"",""97"",""344544""
""focus"",""97"",""360036""
","""event"",""trial"",""time""
""blur"",""97"",""344544""
","""event"",""trial"",""time""
""focus"",""97"",""360036""
","""event"",""trial"",""time""
""fullscreenenter"",""0"",""11089""
","""event"",""trial"",""time""
""fullscreenexit"",""97"",""338795""
","570.8999999985099","","","","","","","","49","0,0,0","6","blank","308","null","0.07495815204275427","0.5916649483303613","0.2736426576615226","0","","","","","","","","",""
"","html-keyboard-response","177","532797","0.0-97.0-1.0","""event"",""trial"",""time""
""fullscreenenter"",""0"",""11089""
""fullscreenexit"",""97"",""338795""
""blur"",""97"",""344544""
""focus"",""97"",""360036""
""blur"",""178"",""535911""
""focus"",""178"",""553497""
","""event"",""trial"",""time""
""blur"",""97"",""344544""
""blur"",""178"",""535911""
","""event"",""trial"",""time""
""focus"",""97"",""360036""
""focus"",""178"",""553497""
","""event"",""trial"",""time""
""fullscreenenter"",""0"",""11089""
","""event"",""trial"",""time""
""fullscreenexit"",""97"",""338795""
","null","<p></p>","null","","","","","","","","","","","","","","","","","","","","","","","",""
"","break","178","554457","0.0-98.0-0.0","""event"",""trial"",""time""
""fullscreenenter"",""0"",""11089""
""fullscreenexit"",""97"",""338795""
""blur"",""97"",""344544""
""focus"",""97"",""360036""
""blur"",""178"",""535911""
""focus"",""178"",""553497""
","""event"",""trial"",""time""
""blur"",""97"",""344544""
""blur"",""178"",""535911""
","""event"",""trial"",""time""
""focus"",""97"",""360036""
""focus"",""178"",""553497""
","""event"",""trial"",""time""
""fullscreenenter"",""0"",""11089""
","""event"",""trial"",""time""
""fullscreenexit"",""97"",""338795""
","21658.10000000149","<div class='center'><p>Time to take a quick break! You have 2 minutes to rest, but you can move on sooner if you'd like.</p><p> Press the <b>space bar</b> to continue.</p></div>","32","","","","","","","","","","","","","","","","","","","","","","","",""
"","do_trial","179","558446","0.0-98.0-1.0","""event"",""trial"",""time""
""fullscreenenter"",""0"",""11089""
""fullscreenexit"",""97"",""338795""
""blur"",""97"",""344544""
""focus"",""97"",""360036""
""blur"",""178"",""535911""
""focus"",""178"",""553497""
","""event"",""trial"",""time""
""blur"",""97"",""344544""
""blur"",""178"",""535911""
","""event"",""trial"",""time""
""focus"",""97"",""360036""
""focus"",""178"",""553497""
","""event"",""trial"",""time""
""fullscreenenter"",""0"",""11089""
","""event"",""trial"",""time""
""fullscreenexit"",""97"",""338795""
","1397.8999999985099","","","","","","","","49","0,0,0","6","blank","309","null","0.14387090625035348","0.6583140487450265","0.25651474666172003","0","","","","","","","","",""
"","html-keyboard-response","180","559447","0.0-98.0-2.0","""event"",""trial"",""time""
""fullscreenenter"",""0"",""11089""
""fullscreenexit"",""97"",""338795""
""blur"",""97"",""344544""
""focus"",""97"",""360036""
""blur"",""178"",""535911""
""focus"",""178"",""553497""
","""event"",""trial"",""time""
""blur"",""97"",""344544""
""blur"",""178"",""535911""
","""event"",""trial"",""time""
""focus"",""97"",""360036""
""focus"",""178"",""553497""
","""event"",""trial"",""time""
""fullscreenenter"",""0"",""11089""
","""event"",""trial"",""time""
""fullscreenexit"",""97"",""338795""
","null","<p></p>","null","","","","","","","","","","","","","","","","","","","","","","","",""
"","do_recog","181","563574","0.0-99.0-0.0","""event"",""trial"",""time""
""fullscreenenter"",""0"",""11089""
""fullscreenexit"",""97"",""338795""
""blur"",""97"",""344544""
""focus"",""97"",""360036""
""blur"",""178"",""535911""
""focus"",""178"",""553497""
","""event"",""trial"",""time""
""blur"",""97"",""344544""
""blur"",""178"",""535911""
","""event"",""trial"",""time""
""focus"",""97"",""360036""
""focus"",""178"",""553497""
","""event"",""trial"",""time""
""fullscreenenter"",""0"",""11089""
","""event"",""trial"",""time""
""fullscreenexit"",""97"",""338795""
","2619.39999999851","","","","","","","","56","","","","310","probe-175","","","","","1","[object Object]","33","0","0","","","",""
"","html-keyboard-response","182","564575","0.0-99.0-1.0","""event"",""trial"",""time""
""fullscreenenter"",""0"",""11089""
""fullscreenexit"",""97"",""338795""
""blur"",""97"",""344544""
""focus"",""97"",""360036""
""blur"",""178"",""535911""
""focus"",""178"",""553497""
","""event"",""trial"",""time""
""blur"",""97"",""344544""
""blur"",""178"",""535911""
","""event"",""trial"",""time""
""focus"",""97"",""360036""
""focus"",""178"",""553497""
","""event"",""trial"",""time""
""fullscreenenter"",""0"",""11089""
","""event"",""trial"",""time""
""fullscreenexit"",""97"",""338795""
","null","<p></p>","null","","","","","","","","","","","","","","","","","","","","","","","",""
"","do_trial","183","567599","0.0-100.0-0.0","""event"",""trial"",""time""
""fullscreenenter"",""0"",""11089""
""fullscreenexit"",""97"",""338795""
""blur"",""97"",""344544""
""focus"",""97"",""360036""
""blur"",""178"",""535911""
""focus"",""178"",""553497""
","""event"",""trial"",""time""
""blur"",""97"",""344544""
""blur"",""178"",""535911""
","""event"",""trial"",""time""
""focus"",""97"",""360036""
""focus"",""178"",""553497""
","""event"",""trial"",""time""
""fullscreenenter"",""0"",""11089""
","""event"",""trial"",""time""
""fullscreenexit"",""97"",""338795""
","448.19999999925494","","","","","","","","49","1,0,0","6","blank","311","null","0.2910015544300303","0.6280605474866252","0.2554316078529727","1","","","","","","","","",""
"","html-keyboard-response","184","568600","0.0-100.0-1.0","""event"",""trial"",""time""
""fullscreenenter"",""0"",""11089""
""fullscreenexit"",""97"",""338795""
""blur"",""97"",""344544""
""focus"",""97"",""360036""
""blur"",""178"",""535911""
""focus"",""178"",""553497""
","""event"",""trial"",""time""
""blur"",""97"",""344544""
""blur"",""178"",""535911""
","""event"",""trial"",""time""
""focus"",""97"",""360036""
""focus"",""178"",""553497""
","""event"",""trial"",""time""
""fullscreenenter"",""0"",""11089""
","""event"",""trial"",""time""
""fullscreenexit"",""97"",""338795""
","null","<p></p>","null","","","","","","","","","","","","","","","","","","","","","","","",""
"","do_trial","185","571771","0.0-101.0-0.0","""event"",""trial"",""time""
""fullscreenenter"",""0"",""11089""
""fullscreenexit"",""97"",""338795""
""blur"",""97"",""344544""
""focus"",""97"",""360036""
""blur"",""178"",""535911""
""focus"",""178"",""553497""
","""event"",""trial"",""time""
""blur"",""97"",""344544""
""blur"",""178"",""535911""
","""event"",""trial"",""time""
""focus"",""97"",""360036""
""focus"",""178"",""553497""
","""event"",""trial"",""time""
""fullscreenenter"",""0"",""11089""
","""event"",""trial"",""time""
""fullscreenexit"",""97"",""338795""
","596.6999999992549","","","","","","","","49","1,1,0","6","blank","312","null","0.20305767549902912","0.6573182640461928","0.261074113334784","1","","","","","","","","",""
"","html-keyboard-response","186","572773","0.0-101.0-1.0","""event"",""trial"",""time""
""fullscreenenter"",""0"",""11089""
""fullscreenexit"",""97"",""338795""
""blur"",""97"",""344544""
""focus"",""97"",""360036""
""blur"",""178"",""535911""
""focus"",""178"",""553497""
","""event"",""trial"",""time""
""blur"",""97"",""344544""
""blur"",""178"",""535911""
","""event"",""trial"",""time""
""focus"",""97"",""360036""
""focus"",""178"",""553497""
","""event"",""trial"",""time""
""fullscreenenter"",""0"",""11089""
","""event"",""trial"",""time""
""fullscreenexit"",""97"",""338795""
","null","<p></p>","null","","","","","","","","","","","","","","","","","","","","","","","",""
"","do_trial","187","575781","0.0-102.0-0.0","""event"",""trial"",""time""
""fullscreenenter"",""0"",""11089""
""fullscreenexit"",""97"",""338795""
""blur"",""97"",""344544""
""focus"",""97"",""360036""
""blur"",""178"",""535911""
""focus"",""178"",""553497""
","""event"",""trial"",""time""
""blur"",""97"",""344544""
""blur"",""178"",""535911""
","""event"",""trial"",""time""
""focus"",""97"",""360036""
""focus"",""178"",""553497""
","""event"",""trial"",""time""
""fullscreenenter"",""0"",""11089""
","""event"",""trial"",""time""
""fullscreenexit"",""97"",""338795""
","425.6000000014901","","","","","","","","49","0,1,0","6","blank","313","null","0.054593802878240026","0.5580058607776813","0.2679144581819378","0","","","","","","","","",""
"","html-keyboard-response","188","576783","0.0-102.0-1.0","""event"",""trial"",""time""
""fullscreenenter"",""0"",""11089""
""fullscreenexit"",""97"",""338795""
""blur"",""97"",""344544""
""focus"",""97"",""360036""
""blur"",""178"",""535911""
""focus"",""178"",""553497""
","""event"",""trial"",""time""
""blur"",""97"",""344544""
""blur"",""178"",""535911""
","""event"",""trial"",""time""
""focus"",""97"",""360036""
""focus"",""178"",""553497""
","""event"",""trial"",""time""
""fullscreenenter"",""0"",""11089""
","""event"",""trial"",""time""
""fullscreenexit"",""97"",""338795""
","null","<p></p>","null","","","","","","","","","","","","","","","","","","","","","","","",""
"","do_trial","189","580249","0.0-103.0-0.0","""event"",""trial"",""time""
""fullscreenenter"",""0"",""11089""
""fullscreenexit"",""97"",""338795""
""blur"",""97"",""344544""
""focus"",""97"",""360036""
""blur"",""178"",""535911""
""focus"",""178"",""553497""
","""event"",""trial"",""time""
""blur"",""97"",""344544""
""blur"",""178"",""535911""
","""event"",""trial"",""time""
""focus"",""97"",""360036""
""focus"",""178"",""553497""
","""event"",""trial"",""time""
""fullscreenenter"",""0"",""11089""
","""event"",""trial"",""time""
""fullscreenexit"",""97"",""338795""
","903.1999999992549","","","","","","","","49","0,1,1","6","blank","314","null","0.1229179651967982","0.597249376051235","0.31635154252021075","0","","","","","","","","",""
"","html-keyboard-response","190","581251","0.0-103.0-1.0","""event"",""trial"",""time""
""fullscreenenter"",""0"",""11089""
""fullscreenexit"",""97"",""338795""
""blur"",""97"",""344544""
""focus"",""97"",""360036""
""blur"",""178"",""535911""
""focus"",""178"",""553497""
","""event"",""trial"",""time""
""blur"",""97"",""344544""
""blur"",""178"",""535911""
","""event"",""trial"",""time""
""focus"",""97"",""360036""
""focus"",""178"",""553497""
","""event"",""trial"",""time""
""fullscreenenter"",""0"",""11089""
","""event"",""trial"",""time""
""fullscreenexit"",""97"",""338795""
","null","<p></p>","null","","","","","","","","","","","","","","","","","","","","","","","",""
"","do_recog","191","584581","0.0-104.0-0.0","""event"",""trial"",""time""
""fullscreenenter"",""0"",""11089""
""fullscreenexit"",""97"",""338795""
""blur"",""97"",""344544""
""focus"",""97"",""360036""
""blur"",""178"",""535911""
""focus"",""178"",""553497""
","""event"",""trial"",""time""
""blur"",""97"",""344544""
""blur"",""178"",""535911""
","""event"",""trial"",""time""
""focus"",""97"",""360036""
""focus"",""178"",""553497""
","""event"",""trial"",""time""
""fullscreenenter"",""0"",""11089""
","""event"",""trial"",""time""
""fullscreenexit"",""97"",""338795""
","1823.3999999985099","","","","","","","","56","","","","315","probe-219","","","","","1","[object Object]","73","1","0","","","",""
"","html-keyboard-response","192","585583","0.0-104.0-1.0","""event"",""trial"",""time""
""fullscreenenter"",""0"",""11089""
""fullscreenexit"",""97"",""338795""
""blur"",""97"",""344544""
""focus"",""97"",""360036""
""blur"",""178"",""535911""
""focus"",""178"",""553497""
","""event"",""trial"",""time""
""blur"",""97"",""344544""
