success,trial_type,trial_index,time_elapsed,internal_node_id,rt,stimulus,subject_id,key_press,response,choice_outcomes,context_n,context_img_id,trial_n,probe_img_id,pR_red,pR_white,pR_black,outcome,is_valid,image_to_show,probed_trial,probed_context,correct,context_id
TRUE,fullscreen,0,4295,0.0-0.0,,,,,,,,,,,,,,,,,,,,
,pavlovia,1,4300,0.0-1.0,,,,,,,,,,,,,,,,,,,,
,html-keyboard-response,2,32516,0.0-2.0,28215,"<div class='center'><p>Like yesterday,as the head captain of the ship, you have one important things to do: </p><b><p> Pick the pirate who you think will be most successful at robbing the next ship.</p></b><p>This is important in determining how much bonus money you’ll win.</p><br><p>The game will start by showing you the pirates. First pick a pirate using the <b> 1, 2, 3 </b> buttons on your keyboard. </p><p> Press <b>'1'</b> to choose red beard, <b>'2'</b> to choose white beard, and <b>'3'</b> to choose black beard</p><p> You only have 3 seconds to pick a pirate, so please make a choice quickly! If you are too slow, you’ll have to wait a bit during the time out.</p><p> Don’t feel rushed, but please do try to make a choice every time.</p><p>How good a pirate is at robbing a ship will change depending on the place they are in and how good the defenses are of the ship.</p><p><b>[Press the space bar to begin the practice game]</b></p></div>",612d68e3c29fe8ce86a5d841,32,,,,,,,,,,,,,,,,
,html-keyboard-response,3,49762,0.0-3.0,17246,"<div class='center'><p>You’ve arrived at the final island of your journey! Unfortunately, it’s very foggy out, so you won’t be able to see it in the distance like the previous islands you've visited.</p><p>You’ll still be deciding which pirate you want to rob a ship like before. However, because of the fog, you also won’t be able to see the ship.</p><p>This means you do not have to remember the ships you rob on this island.</p><p><b>[Press the space bar to continue]</b></p></div>",,32,,,,,,,,,,,,,,,,
,html-keyboard-response,4,56975,0.0-4.0,7212,"<div class='center'><p> Sometimes you’ll be shown a ship, and you will be asked if you saw this ship on a past island.</p><p> Here is an example of what you will see.</p><p><b>[Press the space bar to continue]</b></p><p><img src='run_exp/static/images/tutorial/example_recog_trial.png' height='500'></p></div>",,32,,,,,,,,,,,,,,,,
,html-keyboard-response,5,73411,0.0-5.0,16435,"<div class='center'><p> You will press the 5, 6, 7, 8 buttons on your keyboard to respond.</p><p>If you are very sure saw the ship, press <b>5</b> on your keyboard.</p><p> If you think you  saw it before but are not sure, then press <b>6</b>.</p><p> If you think you have not seen it before but are not sure, then press <b>7</b>.</p><p> If you are sure you did not see the ship before, then press <b>8</b>.</p><p><b>[Press the space bar to continue]</b></p><p><img src='run_exp/static/images/tutorial/example_recog_trial.png' height='500'></p></div>",,32,,,,,,,,,,,,,,,,
,html-keyboard-response,6,90351,0.0-6.0,16940,"<div class='center'><p> If you remember correctly, then you’ll get a gold coin like this: </p><p><img src='run_exp/static/images/tutorial/reward_small.png' height='200'></p><p>If you do not remember correctly, then you'll see a red x like this: </p><p><img src='run_exp/static/images/tutorial/reward_no.png' height='200'></p><p>Importantly, when you are shown a ship, take the time to remind yourself which island you saw it on. This will help you in the next part of the study.</p><p><b>[Press the space bar to continue]</b></p></div>",,32,,,,,,,,,,,,,,,,
,html-keyboard-response,7,99563,0.0-7.0,9212,"<div class='center'><p>Let's go over the important points again. Your job is to: </p><p>1. Pick the pirate who is best at robbing ships and will bring you back gold coins. </p><p>2. Correctly remember whether or not you saw a ship before. If you did see the ship before, remind yourself on which island you saw the ship. </p><p><b>[Press the space bar to begin the next part of the study]</b></p></div>",,32,,,,,,,,,,,,,,,,
,do_welcome,8,101078,0.0-8.0,null,,,,null,,,,,,,,,,,,,,,
,do_trial,9,105590,0.0-9.0-0.0,1960,,,,49,"1,1,0",6,blank,230,null,0.160987359,0.65859244,0.244954017,1,,,,,,
,html-keyboard-response,10,106593,0.0-9.0-1.0,null,<p></p>,,null,,,,,,,,,,,,,,,,
,do_trial,11,109989,0.0-10.0-0.0,841,,,,49,"0,1,0",6,blank,231,null,0.103544748,0.692395022,0.259838733,0,,,,,,
,html-keyboard-response,12,110992,0.0-10.0-1.0,null,<p></p>,,null,,,,,,,,,,,,,,,,
,do_trial,13,114170,0.0-11.0-0.0,622,,,,49,"0,1,1",6,blank,232,null,0.051081129,0.668712685,0.310273186,0,,,,,,
,html-keyboard-response,14,115172,0.0-11.0-1.0,null,<p></p>,,null,,,,,,,,,,,,,,,,
,do_trial,15,118116,0.0-12.0-0.0,385,,,,51,"0,1,0",6,blank,233,null,0.167511414,0.76852251,0.332874297,0,,,,,,
,html-keyboard-response,16,119119,0.0-12.0-1.0,null,<p></p>,,null,,,,,,,,,,,,,,,,
,do_trial,17,122080,0.0-13.0-0.0,403,,,,50,"0,0,1",6,blank,234,null,0.223544696,0.675998993,0.340369622,0,,,,,,
,html-keyboard-response,18,123083,0.0-13.0-1.0,null,<p></p>,,null,,,,,,,,,,,,,,,,
,do_trial,19,126058,0.0-14.0-0.0,416,,,,49,"0,0,0",6,blank,235,null,0.170468176,0.655001444,0.335464785,0,,,,,,
,html-keyboard-response,20,127060,0.0-14.0-1.0,null,<p></p>,,null,,,,,,,,,,,,,,,,
,do_trial,21,130019,0.0-15.0-0.0,399,,,,50,"0,0,0",6,blank,236,null,0.118066831,0.624730003,0.384375225,0,,,,,,
,html-keyboard-response,22,131023,0.0-15.0-1.0,null,<p></p>,,null,,,,,,,,,,,,,,,,
,do_trial,23,133988,0.0-16.0-0.0,410,,,,49,"1,1,1",6,blank,237,null,0.150401294,0.575996449,0.457697826,1,,,,,,
,html-keyboard-response,24,134991,0.0-16.0-1.0,null,<p></p>,,null,,,,,,,,,,,,,,,,
,do_trial,25,138040,0.0-17.0-0.0,496,,,,49,"0,0,1",6,blank,238,null,0.134215068,0.655748496,0.413528448,0,,,,,,
,html-keyboard-response,26,139042,0.0-17.0-1.0,null,<p></p>,,null,,,,,,,,,,,,,,,,
,do_trial,27,142048,0.0-18.0-0.0,451,,,,51,"0,0,0",6,blank,239,null,0.195218875,0.573729148,0.316198182,0,,,,,,
,html-keyboard-response,28,143051,0.0-18.0-1.0,null,<p></p>,,null,,,,,,,,,,,,,,,,
,do_trial,29,145980,0.0-19.0-0.0,375,,,,50,"0,0,1",6,blank,240,null,0.199016546,0.557726379,0.375367423,0,,,,,,
,html-keyboard-response,30,146983,0.0-19.0-1.0,null,<p></p>,,null,,,,,,,,,,,,,,,,
,do_trial,31,149723,0.0-20.0-0.0,183,,,,49,"1,0,1",6,blank,241,null,0.213749322,0.561712545,0.498426827,1,,,,,,
,html-keyboard-response,32,150726,0.0-20.0-1.0,null,<p></p>,,null,,,,,,,,,,,,,,,,
,do_recog,33,156737,0.0-21.0-0.0,null,,,,null,,,,242,probe-193,,,,,1,[object Object],163,4,0,
,html-keyboard-response,34,157740,0.0-21.0-1.0,null,<p></p>,,null,,,,,,,,,,,,,,,,
,do_trial,35,161656,0.0-22.0-0.0,1342,,,,49,"0,0,0",6,blank,243,null,0.311006893,0.646568051,0.258673695,0,,,,,,
,html-keyboard-response,36,162659,0.0-22.0-1.0,null,<p></p>,,null,,,,,,,,,,,,,,,,
,do_trial,37,165544,0.0-23.0-0.0,307,,,,50,"0,0,1",6,blank,244,null,0.242977713,0.545526621,0.347423264,0,,,,,,
,html-keyboard-response,38,166547,0.0-23.0-1.0,null,<p></p>,,null,,,,,,,,,,,,,,,,
,do_trial,39,169520,0.0-24.0-0.0,394,,,,51,"0,0,0",6,blank,245,null,0.116959825,0.51113269,0.619974164,0,,,,,,
,html-keyboard-response,40,170522,0.0-24.0-1.0,null,<p></p>,,null,,,,,,,,,,,,,,,,
,do_trial,41,173506,0.0-25.0-0.0,412,,,,51,"0,1,1",6,blank,246,null,0.066714479,0.397505635,0.588111669,1,,,,,,
,html-keyboard-response,42,174509,0.0-25.0-1.0,null,<p></p>,,null,,,,,,,,,,,,,,,,
,do_trial,43,177492,0.0-26.0-0.0,411,,,,51,"0,1,1",6,blank,247,null,0.106798996,0.433633673,0.713864553,1,,,,,,
,html-keyboard-response,44,178495,0.0-26.0-1.0,null,<p></p>,,null,,,,,,,,,,,,,,,,
,do_trial,45,181429,0.0-27.0-0.0,362,,,,51,"0,1,0",6,blank,248,null,0.055506714,0.488547263,0.730281877,0,,,,,,
,html-keyboard-response,46,182432,0.0-27.0-1.0,null,<p></p>,,null,,,,,,,,,,,,,,,,
,do_recog,47,188443,0.0-28.0-0.0,null,,,,null,,,,249,probe-54,,,,,1,[object Object],208,5,0,
,html-keyboard-response,48,189446,0.0-28.0-1.0,null,<p></p>,,null,,,,,,,,,,,,,,,,
,do_trial,49,192992,0.0-29.0-0.0,975,,,,50,"0,0,1",6,blank,250,null,0.06065762,0.344482502,0.655175953,0,,,,,,
,html-keyboard-response,50,193995,0.0-29.0-1.0,null,<p></p>,,null,,,,,,,,,,,,,,,,
,do_trial,51,196904,0.0-30.0-0.0,340,,,,51,"0,1,0",6,blank,251,null,0.054408901,0.330804657,0.740531446,0,,,,,,
,html-keyboard-response,52,197907,0.0-30.0-1.0,null,<p></p>,,null,,,,,,,,,,,,,,,,
,do_trial,53,201360,0.0-31.0-0.0,884,,,,49,"0,0,1",6,blank,252,null,0.103837926,0.27323218,0.777933072,0,,,,,,
,html-keyboard-response,54,202363,0.0-31.0-1.0,null,<p></p>,,null,,,,,,,,,,,,,,,,
,do_trial,55,205392,0.0-32.0-0.0,458,,,,50,"0,0,1",6,blank,253,null,0.063233488,0.356208212,0.684275101,0,,,,,,
,html-keyboard-response,56,206395,0.0-32.0-1.0,null,<p></p>,,null,,,,,,,,,,,,,,,,
,do_recog,57,209640,0.0-33.0-0.0,1736,,,,56,,,,254,probe-170,,,,,1,[object Object],45,1,0,
,html-keyboard-response,58,210643,0.0-33.0-1.0,null,<p></p>,,null,,,,,,,,,,,,,,,,
,do_trial,59,213736,0.0-34.0-0.0,523,,,,50,"0,0,1",6,blank,255,null,0.156644543,0.299849221,0.613929558,0,,,,,,
,html-keyboard-response,60,214739,0.0-34.0-1.0,null,<p></p>,,null,,,,,,,,,,,,,,,,
,do_recog,61,220751,0.0-35.0-0.0,null,,,,null,,,,256,probe-162,,,,,1,[object Object],42,1,0,
,html-keyboard-response,62,221753,0.0-35.0-1.0,null,<p></p>,,null,,,,,,,,,,,,,,,,
,do_trial,63,224942,0.0-36.0-0.0,616,,,,50,"0,0,1",6,blank,257,null,0.142100917,0.253354385,0.604426721,0,,,,,,
,html-keyboard-response,64,225945,0.0-36.0-1.0,null,<p></p>,,null,,,,,,,,,,,,,,,,
,do_recog,65,228760,0.0-37.0-0.0,1306,,,,56,,,,258,probe-212,,,,,1,[object Object],165,4,0,
,html-keyboard-response,66,229763,0.0-37.0-1.0,null,<p></p>,,null,,,,,,,,,,,,,,,,
,do_trial,67,232926,0.0-38.0-0.0,592,,,,50,"0,1,1",6,blank,259,null,0.065429507,0.278663922,0.722869791,1,,,,,,
,html-keyboard-response,68,233931,0.0-38.0-1.0,null,<p></p>,,null,,,,,,,,,,,,,,,,
,do_trial,69,237229,0.0-39.0-0.0,727,,,,50,"0,0,1",6,blank,260,null,0.074007235,0.30548734,0.742318713,0,,,,,,
,html-keyboard-response,70,238232,0.0-39.0-1.0,null,<p></p>,,null,,,,,,,,,,,,,,,,
,do_trial,71,241303,0.0-40.0-0.0,500,,,,51,"0,0,1",6,blank,261,null,0.140833808,0.256972485,0.808561248,1,,,,,,
,html-keyboard-response,72,242306,0.0-40.0-1.0,null,<p></p>,,null,,,,,,,,,,,,,,,,
,do_trial,73,245394,0.0-41.0-0.0,516,,,,51,"0,0,1",6,blank,262,null,0.137481325,0.245086706,0.671574156,1,,,,,,
,html-keyboard-response,74,246397,0.0-41.0-1.0,null,<p></p>,,null,,,,,,,,,,,,,,,,
,do_trial,75,249433,0.0-42.0-0.0,466,,,,51,"0,0,0",6,blank,263,null,0.0908373,0.277723114,0.667366463,0,,,,,,
,html-keyboard-response,76,250436,0.0-42.0-1.0,null,<p></p>,,null,,,,,,,,,,,,,,,,
,do_recog,77,253265,0.0-43.0-0.0,1321,,,,56,,,,264,probe-118,,,,,1,[object Object],162,4,0,
,html-keyboard-response,78,254268,0.0-43.0-1.0,null,<p></p>,,null,,,,,,,,,,,,,,,,
,do_trial,79,257682,0.0-44.0-0.0,842,,,,49,"0,0,0",6,blank,265,null,0.184715966,0.272902104,0.608432171,0,,,,,,
,html-keyboard-response,80,258684,0.0-44.0-1.0,null,<p></p>,,null,,,,,,,,,,,,,,,,
,do_recog,81,261671,0.0-45.0-0.0,1478,,,,56,,,,266,probe-135,,,,,1,[object Object],129,3,0,
,html-keyboard-response,82,262675,0.0-45.0-1.0,null,<p></p>,,null,,,,,,,,,,,,,,,,
,do_trial,83,265663,0.0-46.0-0.0,419,,,,50,"0,0,0",6,blank,267,null,0.149706974,0.344480459,0.688215964,0,,,,,,
,html-keyboard-response,84,266667,0.0-46.0-1.0,null,<p></p>,,null,,,,,,,,,,,,,,,,
,do_recog,85,269620,0.0-47.0-0.0,1444,,,,56,,,,268,probe-233,,,,,0,[object Object],null,null,1,
,html-keyboard-response,86,270623,0.0-47.0-1.0,null,<p></p>,,null,,,,,,,,,,,,,,,,
,do_trial,87,273645,0.0-48.0-0.0,455,,,,51,"0,0,1",6,blank,269,null,0.103455863,0.32012609,0.644353006,1,,,,,,
,html-keyboard-response,88,274647,0.0-48.0-1.0,null,<p></p>,,null,,,,,,,,,,,,,,,,
,do_recog,89,278761,0.0-49.0-0.0,2606,,,,55,,,,270,probe-136,,,,,1,[object Object],86,2,0,
,html-keyboard-response,90,279764,0.0-49.0-1.0,null,<p></p>,,null,,,,,,,,,,,,,,,,
,do_trial,91,282825,0.0-50.0-0.0,493,,,,50,"0,1,1",6,blank,271,null,0.137934229,0.240192444,0.634255893,1,,,,,,
,html-keyboard-response,92,283830,0.0-50.0-1.0,null,<p></p>,,null,,,,,,,,,,,,,,,,
,do_trial,93,286962,0.0-51.0-0.0,563,,,,50,"0,0,1",6,blank,272,null,0.142267441,0.310921359,0.690228136,0,,,,,,
,html-keyboard-response,94,287965,0.0-51.0-1.0,null,<p></p>,,null,,,,,,,,,,,,,,,,
,do_trial,95,291078,0.0-52.0-0.0,541,,,,49,"0,0,1",6,blank,273,null,0.051301398,0.328613148,0.641091279,0,,,,,,
,html-keyboard-response,96,292080,0.0-52.0-1.0,null,<p></p>,,null,,,,,,,,,,,,,,,,
,do_trial,97,295111,0.0-53.0-0.0,465,,,,51,"0,0,0",6,blank,274,null,0.105352595,0.167731812,0.604518493,0,,,,,,
,html-keyboard-response,98,296114,0.0-53.0-1.0,null,<p></p>,,null,,,,,,,,,,,,,,,,
,do_trial,99,299201,0.0-54.0-0.0,531,,,,50,"0,0,1",6,blank,275,null,0.139669349,0.073849308,0.594292561,0,,,,,,
,html-keyboard-response,100,300204,0.0-54.0-1.0,null,<p></p>,,null,,,,,,,,,,,,,,,,
,do_recog,101,303181,0.0-55.0-0.0,1469,,,,53,,,,276,probe-101,,,,,1,[object Object],207,5,1,
,html-keyboard-response,102,304186,0.0-55.0-1.0,null,<p></p>,,null,,,,,,,,,,,,,,,,
,do_trial,103,307230,0.0-56.0-0.0,488,,,,49,"0,1,1",6,blank,277,null,0.071622005,0.147300085,0.42377418,0,,,,,,
,html-keyboard-response,104,308235,0.0-56.0-1.0,null,<p></p>,,null,,,,,,,,,,,,,,,,
,do_recog,105,311447,0.0-57.0-0.0,1706,,,,56,,,,278,probe-240,,,,,0,[object Object],null,null,1,
,html-keyboard-response,106,312450,0.0-57.0-1.0,null,<p></p>,,null,,,,,,,,,,,,,,,,
,do_trial,107,315458,0.0-58.0-0.0,449,,,,51,"1,0,1",6,blank,279,null,0.159239299,0.174601385,0.61321287,1,,,,,,
,html-keyboard-response,108,316460,0.0-58.0-1.0,null,<p></p>,,null,,,,,,,,,,,,,,,,
,do_trial,109,319425,0.0-59.0-0.0,407,,,,51,"0,0,1",6,blank,280,null,0.094152039,0.302885482,0.517881529,1,,,,,,
,html-keyboard-response,110,320428,0.0-59.0-1.0,null,<p></p>,,null,,,,,,,,,,,,,,,,
,do_trial,111,323472,0.0-60.0-0.0,490,,,,51,"0,0,1",6,blank,281,null,0.102153654,0.243270409,0.490599005,1,,,,,,
,html-keyboard-response,112,324475,0.0-60.0-1.0,null,<p></p>,,null,,,,,,,,,,,,,,,,
,do_trial,113,327508,0.0-61.0-0.0,477,,,,51,"0,1,0",6,blank,282,null,0.08475579,0.306714223,0.486007581,0,,,,,,
,html-keyboard-response,114,328511,0.0-61.0-1.0,null,<p></p>,,null,,,,,,,,,,,,,,,,
,do_trial,115,331501,0.0-62.0-0.0,437,,,,49,"0,0,1",6,blank,283,null,0.056256422,0.319341507,0.477425353,0,,,,,,
,html-keyboard-response,116,332503,0.0-62.0-1.0,null,<p></p>,,null,,,,,,,,,,,,,,,,
,do_trial,117,335439,0.0-63.0-0.0,379,,,,50,"0,1,1",6,blank,284,null,0.102305086,0.31831392,0.434136361,1,,,,,,
,html-keyboard-response,118,336442,0.0-63.0-1.0,null,<p></p>,,null,,,,,,,,,,,,,,,,
,do_trial,119,339458,0.0-64.0-0.0,462,,,,50,"0,0,0",6,blank,285,null,0.197263062,0.1995824,0.620680162,0,,,,,,
,html-keyboard-response,120,340461,0.0-64.0-1.0,null,<p></p>,,null,,,,,,,,,,,,,,,,
,do_recog,121,343648,0.0-65.0-0.0,1679,,,,53,,,,286,probe-214,,,,,1,[object Object],125,3,1,
,html-keyboard-response,122,344651,0.0-65.0-1.0,null,<p></p>,,null,,,,,,,,,,,,,,,,
,do_trial,123,347672,0.0-66.0-0.0,468,,,,50,"0,0,0",6,blank,287,null,0.261466514,0.269199347,0.65694155,0,,,,,,
,html-keyboard-response,124,348675,0.0-66.0-1.0,null,<p></p>,,null,,,,,,,,,,,,,,,,
,do_recog,125,351959,0.0-67.0-0.0,1777,,,,56,,,,288,probe-204,,,,,1,[object Object],202,5,0,
,html-keyboard-response,126,352962,0.0-67.0-1.0,null,<p></p>,,null,,,,,,,,,,,,,,,,
,do_trial,127,355926,0.0-68.0-0.0,407,,,,49,"0,0,0",6,blank,289,null,0.213736742,0.131214194,0.573456944,0,,,,,,
,html-keyboard-response,128,356929,0.0-68.0-1.0,null,<p></p>,,null,,,,,,,,,,,,,,,,
,do_trial,129,360019,0.0-69.0-0.0,534,,,,51,"0,0,0",6,blank,290,null,0.248951133,0.229334775,0.658172634,0,,,,,,
,html-keyboard-response,130,361021,0.0-69.0-1.0,null,<p></p>,,null,,,,,,,,,,,,,,,,
,do_trial,131,363919,0.0-70.0-0.0,341,,,,50,"1,0,1",6,blank,291,null,0.24262887,0.282319235,0.629527629,0,,,,,,
,html-keyboard-response,132,364922,0.0-70.0-1.0,null,<p></p>,,null,,,,,,,,,,,,,,,,
,do_recog,133,368079,0.0-71.0-0.0,1650,,,,56,,,,292,probe-103,,,,,1,[object Object],87,2,0,
,html-keyboard-response,134,369082,0.0-71.0-1.0,null,<p></p>,,null,,,,,,,,,,,,,,,,
,do_trial,135,372303,0.0-72.0-0.0,668,,,,49,"0,0,1",6,blank,293,null,0.171629017,0.237877266,0.790256334,0,,,,,,
,html-keyboard-response,136,373306,0.0-72.0-1.0,null,<p></p>,,null,,,,,,,,,,,,,,,,
,do_trial,137,376659,0.0-73.0-0.0,797,,,,51,"0,0,1",6,blank,294,null,0.159909141,0.240064745,0.720608627,1,,,,,,
,html-keyboard-response,138,377662,0.0-73.0-1.0,null,<p></p>,,null,,,,,,,,,,,,,,,,
,do_trial,139,380732,0.0-74.0-0.0,516,,,,50,"0,0,1",6,blank,295,null,0.167744559,0.313936029,0.673885258,0,,,,,,
,html-keyboard-response,140,381735,0.0-74.0-1.0,null,<p></p>,,null,,,,,,,,,,,,,,,,
,do_trial,141,384706,0.0-75.0-0.0,415,,,,51,"0,0,1",6,blank,296,null,0.178097198,0.619865764,0.419011126,1,,,,,,
,html-keyboard-response,142,385709,0.0-75.0-1.0,null,<p></p>,,null,,,,,,,,,,,,,,,,
,do_trial,143,388759,0.0-76.0-0.0,494,,,,51,"0,1,1",6,blank,297,null,0.060806242,0.667584188,0.288428914,1,,,,,,
,html-keyboard-response,144,389762,0.0-76.0-1.0,null,<p></p>,,null,,,,,,,,,,,,,,,,
,do_recog,145,392979,0.0-77.0-0.0,1709,,,,56,,,,298,probe-252,,,,,0,[object Object],null,null,1,
,html-keyboard-response,146,393982,0.0-77.0-1.0,null,<p></p>,,null,,,,,,,,,,,,,,,,
,do_trial,147,397004,0.0-78.0-0.0,467,,,,51,"0,1,0",6,blank,299,null,0.071152318,0.703148015,0.237859093,0,,,,,,
,html-keyboard-response,148,398007,0.0-78.0-1.0,null,<p></p>,,null,,,,,,,,,,,,,,,,
,do_trial,149,400933,0.0-79.0-0.0,373,,,,50,"1,0,0",6,blank,300,null,0.082238076,0.633019726,0.197089429,0,,,,,,
,html-keyboard-response,150,401936,0.0-79.0-1.0,null,<p></p>,,null,,,,,,,,,,,,,,,,
,do_trial,151,404992,0.0-80.0-0.0,500,,,,49,"1,1,0",6,blank,301,null,0.190680081,0.576431376,0.083193019,1,,,,,,
,html-keyboard-response,152,405994,0.0-80.0-1.0,null,<p></p>,,null,,,,,,,,,,,,,,,,
,do_trial,153,408967,0.0-81.0-0.0,419,,,,49,"0,1,0",6,blank,302,null,0.184148308,0.564043773,0.109544224,0,,,,,,
,html-keyboard-response,154,409970,0.0-81.0-1.0,null,<p></p>,,null,,,,,,,,,,,,,,,,
,do_trial,155,412906,0.0-82.0-0.0,381,,,,50,"0,0,0",6,blank,303,null,0.166056013,0.611009537,0.201446805,0,,,,,,
,html-keyboard-response,156,413909,0.0-82.0-1.0,null,<p></p>,,null,,,,,,,,,,,,,,,,
,do_recog,157,416961,0.0-83.0-0.0,1545,,,,56,,,,304,probe-222,,,,,1,[object Object],161,4,0,
,html-keyboard-response,158,417963,0.0-83.0-1.0,null,<p></p>,,null,,,,,,,,,,,,,,,,
,do_trial,159,420993,0.0-84.0-0.0,477,,,,51,"0,1,0",6,blank,305,null,0.134892943,0.540422409,0.241334796,0,,,,,,
,html-keyboard-response,160,421996,0.0-84.0-1.0,null,<p></p>,,null,,,,,,,,,,,,,,,,
,do_trial,161,424903,0.0-85.0-0.0,350,,,,50,"0,1,0",6,blank,306,null,0.138406052,0.640774885,0.265831405,1,,,,,,
,html-keyboard-response,162,425906,0.0-85.0-1.0,null,<p></p>,,null,,,,,,,,,,,,,,,,
,do_recog,163,429455,0.0-86.0-0.0,2041,,,,53,,,,307,probe-211,,,,,1,[object Object],46,1,1,
,html-keyboard-response,164,430458,0.0-86.0-1.0,null,<p></p>,,null,,,,,,,,,,,,,,,,
,do_trial,165,433511,0.0-87.0-0.0,501,,,,49,"0,0,1",6,blank,308,null,0.125847749,0.597621032,0.371499142,0,,,,,,
,html-keyboard-response,166,434514,0.0-87.0-1.0,null,<p></p>,,null,,,,,,,,,,,,,,,,
,do_trial,167,437483,0.0-88.0-0.0,416,,,,49,"0,0,0",6,blank,309,null,0.130065393,0.627394015,0.292723301,0,,,,,,
,html-keyboard-response,168,438486,0.0-88.0-1.0,null,<p></p>,,null,,,,,,,,,,,,,,,,
,do_trial,169,441459,0.0-89.0-0.0,419,,,,50,"0,1,1",6,blank,310,null,0.064328158,0.706891447,0.339419467,1,,,,,,
,html-keyboard-response,170,442461,0.0-89.0-1.0,null,<p></p>,,null,,,,,,,,,,,,,,,,
,do_trial,171,445475,0.0-90.0-0.0,459,,,,50,"0,0,0",6,blank,311,null,0.275338583,0.792142716,0.335133207,0,,,,,,
,html-keyboard-response,172,446478,0.0-90.0-1.0,null,<p></p>,,null,,,,,,,,,,,,,,,,
,do_trial,173,449468,0.0-91.0-0.0,438,,,,51,"0,1,1",6,blank,312,null,0.156318624,0.658377057,0.305026423,1,,,,,,
,html-keyboard-response,174,450471,0.0-91.0-1.0,null,<p></p>,,null,,,,,,,,,,,,,,,,
,do_trial,175,453458,0.0-92.0-0.0,434,,,,51,"0,1,0",6,blank,313,null,0.090008537,0.783256497,0.359893324,0,,,,,,
,html-keyboard-response,176,454461,0.0-92.0-1.0,null,<p></p>,,null,,,,,,,,,,,,,,,,
,do_recog,177,457129,0.0-93.0-0.0,1160,,,,56,,,,314,probe-45,,,,,1,[object Object],128,3,0,
,html-keyboard-response,178,458132,0.0-93.0-1.0,null,<p></p>,,null,,,,,,,,,,,,,,,,
,do_trial,179,461613,0.0-94.0-0.0,925,,,,51,"0,0,1",6,blank,315,null,0.069464454,0.680612961,0.404660141,1,,,,,,
,html-keyboard-response,180,462615,0.0-94.0-1.0,null,<p></p>,,null,,,,,,,,,,,,,,,,
,do_recog,181,465514,0.0-95.0-0.0,1391,,,,56,,,,316,probe-18,,,,,1,[object Object],121,3,0,
,html-keyboard-response,182,466517,0.0-95.0-1.0,null,<p></p>,,null,,,,,,,,,,,,,,,,
,do_trial,183,469716,0.0-96.0-0.0,645,,,,49,"0,1,0",6,blank,317,null,0.126072749,0.645870515,0.457184135,0,,,,,,
,html-keyboard-response,184,470718,0.0-96.0-1.0,null,<p></p>,,null,,,,,,,,,,,,,,,,
,do_trial,185,473666,0.0-97.0-0.0,391,,,,50,"0,1,0",6,blank,318,null,0.192129627,0.671876876,0.428895518,1,,,,,,
,html-keyboard-response,186,474669,0.0-97.0-1.0,null,<p></p>,,null,,,,,,,,,,,,,,,,
,do_trial,187,477674,0.0-98.0-0.0,451,,,,50,"0,0,0",6,blank,319,null,0.14599435,0.475484378,0.367468999,0,,,,,,
,html-keyboard-response,188,478676,0.0-98.0-1.0,null,<p></p>,,null,,,,,,,,,,,,,,,,
,do_recog,189,481459,0.0-99.0-0.0,1274,,,,56,,,,320,probe-75,,,,,1,[object Object],201,5,0,
,html-keyboard-response,190,482462,0.0-99.0-1.0,null,<p></p>,,null,,,,,,,,,,,,,,,,
,do_trial,191,485499,0.0-100.0-0.0,481,,,,51,"0,1,0",6,blank,321,null,0.112881165,0.536260643,0.270950378,0,,,,,,
,html-keyboard-response,192,486501,0.0-100.0-1.0,null,<p></p>,,null,,,,,,,,,,,,,,,,
,do_trial,193,489489,0.0-101.0-0.0,429,,,,49,"0,1,0",6,blank,322,null,0.130457061,0.540337274,0.328778995,0,,,,,,
,html-keyboard-response,194,490492,0.0-101.0-1.0,null,<p></p>,,null,,,,,,,,,,,,,,,,
,do_trial,195,493422,0.0-102.0-0.0,376,,,,51,"1,1,1",6,blank,323,null,0.165901884,0.558034207,0.430117634,1,,,,,,
,html-keyboard-response,196,494424,0.0-102.0-1.0,null,<p></p>,,null,,,,,,,,,,,,,,,,
,do_recog,197,497050,0.0-103.0-0.0,1117,,,,53,,,,324,probe-246,,,,,0,[object Object],null,null,0,
,html-keyboard-response,198,498053,0.0-103.0-1.0,null,<p></p>,,null,,,,,,,,,,,,,,,,
,do_trial,199,501057,0.0-104.0-0.0,451,,,,51,"0,0,0",6,blank,325,null,0.096866378,0.593909812,0.210082858,0,,,,,,
,html-keyboard-response,200,502060,0.0-104.0-1.0,null,<p></p>,,null,,,,,,,,,,,,,,,,
,do_recog,201,505150,0.0-105.0-0.0,1582,,,,53,,,,326,probe-226,,,,,1,[object Object],164,4,1,
,html-keyboard-response,202,506153,0.0-105.0-1.0,null,<p></p>,,null,,,,,,,,,,,,,,,,
,do_trial,203,509157,0.0-106.0-0.0,451,,,,49,"0,1,0",6,blank,327,null,0.083492493,0.466000197,0.22365478,0,,,,,,
,html-keyboard-response,204,510160,0.0-106.0-1.0,null,<p></p>,,null,,,,,,,,,,,,,,,,
,do_trial,205,513177,0.0-107.0-0.0,460,,,,50,"0,0,1",6,blank,328,null,0.186101354,0.340968186,0.239083361,0,,,,,,
,html-keyboard-response,206,514180,0.0-107.0-1.0,null,<p></p>,,null,,,,,,,,,,,,,,,,
,do_trial,207,517097,0.0-108.0-0.0,364,,,,51,"0,0,0",6,blank,329,null,0.184541343,0.307141928,0.122731216,0,,,,,,
,html-keyboard-response,208,518100,0.0-108.0-1.0,null,<p></p>,,null,,,,,,,,,,,,,,,,
,do_recog,209,521197,0.0-109.0-0.0,1589,,,,53,,,,330,probe-08,,,,,1,[object Object],123,3,1,
,html-keyboard-response,210,522200,0.0-109.0-1.0,null,<p></p>,,null,,,,,,,,,,,,,,,,
,do_trial,211,525174,0.0-110.0-0.0,418,,,,49,"0,1,0",6,blank,331,null,0.278018158,0.589146653,0.086646862,0,,,,,,
,html-keyboard-response,212,526178,0.0-110.0-1.0,null,<p></p>,,null,,,,,,,,,,,,,,,,
,do_trial,213,529415,0.0-111.0-0.0,681,,,,50,"0,0,0",6,blank,332,null,0.077985485,0.615143318,0.224392243,0,,,,,,
,html-keyboard-response,214,530418,0.0-111.0-1.0,null,<p></p>,,null,,,,,,,,,,,,,,,,
,do_trial,215,533369,0.0-112.0-0.0,398,,,,51,"0,1,0",6,blank,333,null,0.090147109,0.570714523,0.268580759,0,,,,,,
,html-keyboard-response,216,534372,0.0-112.0-1.0,null,<p></p>,,null,,,,,,,,,,,,,,,,
,do_trial,217,537425,0.0-113.0-0.0,499,,,,51,"0,1,1",6,blank,334,null,0.088631447,0.576407406,0.234194075,1,,,,,,
,html-keyboard-response,218,538428,0.0-113.0-1.0,null,<p></p>,,null,,,,,,,,,,,,,,,,
,do_trial,219,541481,0.0-114.0-0.0,499,,,,51,"0,0,0",6,blank,335,null,0.139158448,0.594035422,0.267028373,0,,,,,,
,html-keyboard-response,220,542483,0.0-114.0-1.0,null,<p></p>,,null,,,,,,,,,,,,,,,,
,do_trial,221,545455,0.0-115.0-0.0,418,,,,51,"0,0,0",6,blank,336,null,0.282417346,0.508442184,0.22819732,0,,,,,,
,html-keyboard-response,222,546458,0.0-115.0-1.0,null,<p></p>,,null,,,,,,,,,,,,,,,,
,do_recog,223,549937,0.0-116.0-0.0,1970,,,,53,,,,337,probe-228,,,,,1,[object Object],124,3,1,
,html-keyboard-response,224,550940,0.0-116.0-1.0,null,<p></p>,,null,,,,,,,,,,,,,,,,
,do_trial,225,553898,0.0-117.0-0.0,405,,,,49,"0,1,0",6,blank,338,null,0.325004705,0.624045199,0.15615806,0,,,,,,
,html-keyboard-response,226,554901,0.0-117.0-1.0,null,<p></p>,,null,,,,,,,,,,,,,,,,
,do_recog,227,557930,0.0-118.0-0.0,1521,,,,56,,,,339,probe-55,,,,,1,[object Object],169,4,0,
,html-keyboard-response,228,558933,0.0-118.0-1.0,null,<p></p>,,null,,,,,,,,,,,,,,,,
,do_trial,229,561930,0.0-119.0-0.0,444,,,,51,"1,0,1",6,blank,340,null,0.299098173,0.61321912,0.226816888,1,,,,,,
,html-keyboard-response,230,562933,0.0-119.0-1.0,null,<p></p>,,null,,,,,,,,,,,,,,,,
,do_trial,231,566021,0.0-120.0-0.0,529,,,,51,"0,1,0",6,blank,341,null,0.14367042,0.490445557,0.152743401,0,,,,,,
,html-keyboard-response,232,567023,0.0-120.0-1.0,null,<p></p>,,null,,,,,,,,,,,,,,,,
,do_trial,233,570026,0.0-121.0-0.0,446,,,,51,"0,1,1",6,blank,342,null,0.17568657,0.513897715,0.13989509,1,,,,,,
,html-keyboard-response,234,571029,0.0-121.0-1.0,null,<p></p>,,null,,,,,,,,,,,,,,,,
,do_trial,235,574093,0.0-122.0-0.0,511,,,,51,"0,1,0",6,blank,343,null,0.053987013,0.652848905,0.123006364,0,,,,,,
,html-keyboard-response,236,575096,0.0-122.0-1.0,null,<p></p>,,null,,,,,,,,,,,,,,,,
,do_trial,237,578105,0.0-123.0-0.0,452,,,,50,"1,0,1",6,blank,344,null,0.157324816,0.620072228,0.293437567,0,,,,,,
,html-keyboard-response,238,579108,0.0-123.0-1.0,null,<p></p>,,null,,,,,,,,,,,,,,,,
,do_recog,239,582308,0.0-124.0-0.0,1690,,,,56,,,,345,probe-37,,,,,1,[object Object],43,1,0,
,html-keyboard-response,240,583311,0.0-124.0-1.0,null,<p></p>,,null,,,,,,,,,,,,,,,,
,do_trial,241,586524,0.0-125.0-0.0,655,,,,49,"1,1,1",6,blank,346,null,0.229545292,0.654001313,0.347502071,1,,,,,,
,html-keyboard-response,242,587526,0.0-125.0-1.0,null,<p></p>,,null,,,,,,,,,,,,,,,,
,do_recog,243,590539,0.0-126.0-0.0,1506,,,,53,,,,347,probe-207,,,,,1,[object Object],127,3,1,
,html-keyboard-response,244,591544,0.0-126.0-1.0,null,<p></p>,,null,,,,,,,,,,,,,,,,
,do_trial,245,594532,0.0-127.0-0.0,432,,,,49,"1,0,0",6,blank,348,null,0.198535634,0.574270585,0.43972656,1,,,,,,
,html-keyboard-response,246,595537,0.0-127.0-1.0,null,<p></p>,,null,,,,,,,,,,,,,,,,
,do_recog,247,598437,0.0-128.0-0.0,1392,,,,56,,,,349,probe-70,,,,,1,[object Object],205,5,0,
,html-keyboard-response,248,599439,0.0-128.0-1.0,null,<p></p>,,null,,,,,,,,,,,,,,,,
,do_trial,249,602574,0.0-129.0-0.0,578,,,,49,"1,1,0",6,blank,350,null,0.464199664,0.281982736,0.247388473,1,,,,,,
,html-keyboard-response,250,603576,0.0-129.0-1.0,null,<p></p>,,null,,,,,,,,,,,,,,,,
,do_trial,251,606575,0.0-130.0-0.0,446,,,,49,"0,0,1",6,blank,351,null,0.539628515,0.227918225,0.180462935,0,,,,,,
,html-keyboard-response,252,607578,0.0-130.0-1.0,null,<p></p>,,null,,,,,,,,,,,,,,,,
,do_trial,253,610597,0.0-131.0-0.0,466,,,,51,"0,0,1",6,blank,352,null,0.592976589,0.166219118,0.192271958,1,,,,,,
,html-keyboard-response,254,611600,0.0-131.0-1.0,null,<p></p>,,null,,,,,,,,,,,,,,,,
,do_trial,255,614642,0.0-132.0-0.0,486,,,,51,"1,1,0",6,blank,353,null,0.534555973,0.162652227,0.289030784,0,,,,,,
,html-keyboard-response,256,615644,0.0-132.0-1.0,null,<p></p>,,null,,,,,,,,,,,,,,,,
,do_trial,257,618647,0.0-133.0-0.0,450,,,,50,"1,1,0",6,blank,354,null,0.596576438,0.207751815,0.247895724,1,,,,,,
,html-keyboard-response,258,619650,0.0-133.0-1.0,null,<p></p>,,null,,,,,,,,,,,,,,,,
,do_trial,259,622602,0.0-134.0-0.0,395,,,,50,"0,0,0",6,blank,355,null,0.585665485,0.1755989,0.140237082,0,,,,,,
,html-keyboard-response,260,623604,0.0-134.0-1.0,null,<p></p>,,null,,,,,,,,,,,,,,,,
,do_recog,261,626365,0.0-135.0-0.0,1253,,,,53,,,,356,probe-109,,,,,1,[object Object],168,4,1,
,html-keyboard-response,262,627368,0.0-135.0-1.0,null,<p></p>,,null,,,,,,,,,,,,,,,,
,do_trial,263,630413,0.0-136.0-0.0,491,,,,50,"1,0,0",6,blank,357,null,0.478763034,0.093675991,0.272532295,0,,,,,,
,html-keyboard-response,264,631416,0.0-136.0-1.0,null,<p></p>,,null,,,,,,,,,,,,,,,,
,do_trial,265,634334,0.0-137.0-0.0,361,,,,49,"0,1,0",6,blank,358,null,0.610284122,0.067958651,0.31709886,0,,,,,,
,html-keyboard-response,266,635337,0.0-137.0-1.0,null,<p></p>,,null,,,,,,,,,,,,,,,,
,do_recog,267,638212,0.0-138.0-0.0,1367,,,,53,,,,359,probe-52,,,,,1,[object Object],120,3,1,
,html-keyboard-response,268,639215,0.0-138.0-1.0,null,<p></p>,,null,,,,,,,,,,,,,,,,
,do_trial,269,642228,0.0-139.0-0.0,454,,,,49,"0,0,1",6,blank,360,null,0.583228772,0.140503683,0.234501508,0,,,,,,
,html-keyboard-response,270,643231,0.0-139.0-1.0,null,<p></p>,,null,,,,,,,,,,,,,,,,
,do_recog,271,646314,0.0-140.0-0.0,1576,,,,53,,,,361,probe-163,,,,,1,[object Object],88,2,1,
,html-keyboard-response,272,647316,0.0-140.0-1.0,null,<p></p>,,null,,,,,,,,,,,,,,,,
,do_trial,273,650430,0.0-141.0-0.0,560,,,,51,"1,0,0",6,blank,362,null,0.606941011,0.076015977,0.319916625,0,,,,,,
,html-keyboard-response,274,651433,0.0-141.0-1.0,null,<p></p>,,null,,,,,,,,,,,,,,,,
,do_recog,275,654251,0.0-142.0-0.0,1310,,,,56,,,,363,probe-151,,,,,1,[object Object],81,2,0,
,html-keyboard-response,276,655256,0.0-142.0-1.0,null,<p></p>,,null,,,,,,,,,,,,,,,,
,do_trial,277,658291,0.0-143.0-0.0,481,,,,51,"0,0,1",6,blank,364,null,0.395278441,0.066348915,0.367564503,1,,,,,,
,html-keyboard-response,278,659295,0.0-143.0-1.0,null,<p></p>,,null,,,,,,,,,,,,,,,,
,do_recog,279,662123,0.0-144.0-0.0,1320,,,,56,,,,365,probe-33,,,,,1,[object Object],167,4,0,
,html-keyboard-response,280,663125,0.0-144.0-1.0,null,<p></p>,,null,,,,,,,,,,,,,,,,
,do_trial,281,666188,0.0-145.0-0.0,505,,,,51,"1,0,1",6,blank,366,null,0.472951032,0.139484092,0.334157225,1,,,,,,
,html-keyboard-response,282,667190,0.0-145.0-1.0,null,<p></p>,,null,,,,,,,,,,,,,,,,
,do_trial,283,670414,0.0-146.0-0.0,671,,,,51,"0,0,0",6,blank,367,null,0.515326127,0.202767193,0.327663879,0,,,,,,
,html-keyboard-response,284,671417,0.0-146.0-1.0,null,<p></p>,,null,,,,,,,,,,,,,,,,
,do_trial,285,674412,0.0-147.0-0.0,438,,,,49,"1,0,0",6,blank,368,null,0.553748641,0.123901951,0.218296598,1,,,,,,
,html-keyboard-response,286,675414,0.0-147.0-1.0,null,<p></p>,,null,,,,,,,,,,,,,,,,
,do_trial,287,678408,0.0-148.0-0.0,437,,,,49,"1,0,0",6,blank,369,null,0.589634424,0.152028904,0.225452491,1,,,,,,
,html-keyboard-response,288,679411,0.0-148.0-1.0,null,<p></p>,,null,,,,,,,,,,,,,,,,
,do_recog,289,682548,0.0-149.0-0.0,1630,,,,53,,,,370,probe-68,,,,,1,[object Object],204,5,1,
,html-keyboard-response,290,683551,0.0-149.0-1.0,null,<p></p>,,null,,,,,,,,,,,,,,,,
,do_trial,291,686580,0.0-150.0-0.0,474,,,,49,"0,0,0",6,blank,371,null,0.590720443,0.127324922,0.248395972,0,,,,,,
,html-keyboard-response,292,687583,0.0-150.0-1.0,null,<p></p>,,null,,,,,,,,,,,,,,,,
,do_trial,293,690557,0.0-151.0-0.0,417,,,,50,"1,0,0",6,blank,372,null,0.543477486,0.167443483,0.28664967,0,,,,,,
,html-keyboard-response,294,691559,0.0-151.0-1.0,null,<p></p>,,null,,,,,,,,,,,,,,,,
,do_recog,295,694530,0.0-152.0-0.0,1463,,,,56,,,,373,probe-131,,,,,1,[object Object],44,1,0,
,html-keyboard-response,296,695533,0.0-152.0-1.0,null,<p></p>,,null,,,,,,,,,,,,,,,,
,do_trial,297,698586,0.0-153.0-0.0,496,,,,51,"1,0,1",6,blank,374,null,0.628681954,0.271356653,0.337361077,1,,,,,,
,html-keyboard-response,298,699589,0.0-153.0-1.0,null,<p></p>,,null,,,,,,,,,,,,,,,,
,do_trial,299,702515,0.0-154.0-0.0,371,,,,51,"1,0,0",6,blank,375,null,0.627794645,0.168538618,0.369230293,0,,,,,,
,html-keyboard-response,300,703517,0.0-154.0-1.0,null,<p></p>,,null,,,,,,,,,,,,,,,,
,do_trial,301,706454,0.0-155.0-0.0,382,,,,49,"0,1,1",6,blank,376,null,0.533092437,0.150209326,0.284140383,0,,,,,,
,html-keyboard-response,302,707456,0.0-155.0-1.0,null,<p></p>,,null,,,,,,,,,,,,,,,,
,do_trial,303,710325,0.0-156.0-0.0,314,,,,50,"0,0,1",6,blank,377,null,0.59218318,0.136650445,0.295275054,0,,,,,,
,html-keyboard-response,304,711327,0.0-156.0-1.0,null,<p></p>,,null,,,,,,,,,,,,,,,,
,do_trial,305,714261,0.0-157.0-0.0,379,,,,51,"1,0,1",6,blank,378,null,0.610443166,0.186280764,0.11199968,1,,,,,,
,html-keyboard-response,306,715264,0.0-157.0-1.0,null,<p></p>,,null,,,,,,,,,,,,,,,,
,do_recog,307,718212,0.0-158.0-0.0,1440,,,,53,,,,379,probe-36,,,,,1,[object Object],84,2,1,
,html-keyboard-response,308,719214,0.0-158.0-1.0,null,<p></p>,,null,,,,,,,,,,,,,,,,
,do_trial,309,722284,0.0-159.0-0.0,515,,,,51,"0,0,0",6,blank,380,null,0.535669086,0.0530126,0.235189778,0,,,,,,
,html-keyboard-response,310,723287,0.0-159.0-1.0,null,<p></p>,,null,,,,,,,,,,,,,,,,
,do_trial,311,726171,0.0-160.0-0.0,326,,,,49,"1,0,1",6,blank,381,null,0.596519832,0.06734324,0.261285946,1,,,,,,
,html-keyboard-response,312,727174,0.0-160.0-1.0,null,<p></p>,,null,,,,,,,,,,,,,,,,
,do_trial,313,730181,0.0-161.0-0.0,450,,,,49,"1,0,0",6,blank,382,null,0.569292676,0.07037253,0.254303117,1,,,,,,
,html-keyboard-response,314,731184,0.0-161.0-1.0,null,<p></p>,,null,,,,,,,,,,,,,,,,
,do_trial,315,734321,0.0-162.0-0.0,582,,,,49,"1,0,0",6,blank,383,null,0.563989236,0.075382013,0.197758847,1,,,,,,
,html-keyboard-response,316,735324,0.0-162.0-1.0,null,<p></p>,,null,,,,,,,,,,,,,,,,
,do_recog,317,738122,0.0-163.0-0.0,1288,,,,53,,,,384,probe-07,,,,,1,[object Object],40,1,1,
,html-keyboard-response,318,739125,0.0-163.0-1.0,null,<p></p>,,null,,,,,,,,,,,,,,,,
,do_trial,319,742370,0.0-164.0-0.0,690,,,,49,"0,0,0",6,blank,385,null,0.587505883,0.056627673,0.268606251,0,,,,,,
,html-keyboard-response,320,743373,0.0-164.0-1.0,null,<p></p>,,null,,,,,,,,,,,,,,,,
,do_trial,321,746306,0.0-165.0-0.0,378,,,,50,"0,0,0",6,blank,386,null,0.461890147,0.123203213,0.268569489,0,,,,,,
,html-keyboard-response,322,747308,0.0-165.0-1.0,null,<p></p>,,null,,,,,,,,,,,,,,,,
,do_trial,323,750216,0.0-166.0-0.0,350,,,,51,"0,0,0",6,blank,387,null,0.499484326,0.064821431,0.413713088,0,,,,,,
,html-keyboard-response,324,751218,0.0-166.0-1.0,null,<p></p>,,null,,,,,,,,,,,,,,,,
,do_trial,325,754116,0.0-167.0-0.0,344,,,,51,"0,1,0",6,blank,388,null,0.53597309,0.175098861,0.334823113,0,,,,,,
,html-keyboard-response,326,755119,0.0-167.0-1.0,null,<p></p>,,null,,,,,,,,,,,,,,,,
,do_trial,327,758113,0.0-168.0-0.0,438,,,,50,"0,0,0",6,blank,389,null,0.455422708,0.228508884,0.300055266,0,,,,,,
,html-keyboard-response,328,759116,0.0-168.0-1.0,null,<p></p>,,null,,,,,,,,,,,,,,,,
,do_trial,329,762361,0.0-169.0-0.0,689,,,,49,"1,0,0",6,blank,390,null,0.604869994,0.163043706,0.306960991,1,,,,,,
,html-keyboard-response,330,763364,0.0-169.0-1.0,null,<p></p>,,null,,,,,,,,,,,,,,,,
,do_recog,331,766151,0.0-170.0-0.0,1279,,,,53,,,,391,probe-141,,,,,1,[object Object],48,1,1,
,html-keyboard-response,332,767155,0.0-170.0-1.0,null,<p></p>,,null,,,,,,,,,,,,,,,,
,do_trial,333,770135,0.0-171.0-0.0,424,,,,49,"1,1,0",6,blank,392,null,0.573921282,0.140859978,0.176254625,1,,,,,,
,html-keyboard-response,334,771139,0.0-171.0-1.0,null,<p></p>,,null,,,,,,,,,,,,,,,,
,do_trial,335,774235,0.0-172.0-0.0,538,,,,49,"1,0,0",6,blank,393,null,0.56794343,0.155751834,0.230790548,1,,,,,,
,html-keyboard-response,336,775238,0.0-172.0-1.0,null,<p></p>,,null,,,,,,,,,,,,,,,,
,do_trial,337,778368,0.0-173.0-0.0,577,,,,49,"1,0,0",6,blank,394,null,0.517713546,0.072777135,0.196249725,1,,,,,,
,html-keyboard-response,338,779371,0.0-173.0-1.0,null,<p></p>,,null,,,,,,,,,,,,,,,,
,do_trial,339,784067,0.0-174.0-0.0,2142,,,,49,"1,0,0",6,blank,395,null,0.690073045,0.126897971,0.204888545,1,,,,,,
,html-keyboard-response,340,785070,0.0-174.0-1.0,null,<p></p>,,null,,,,,,,,,,,,,,,,
,do_recog,341,788127,0.0-175.0-0.0,1549,,,,53,,,,396,probe-194,,,,,1,[object Object],126,3,1,
,html-keyboard-response,342,789130,0.0-175.0-1.0,null,<p></p>,,null,,,,,,,,,,,,,,,,
,do_trial,343,792128,0.0-176.0-0.0,442,,,,49,"1,0,0",6,blank,397,null,0.716424017,0.12465758,0.105444604,1,,,,,,
,html-keyboard-response,344,793130,0.0-176.0-1.0,null,<p></p>,,null,,,,,,,,,,,,,,,,
,do_recog,345,795784,0.0-177.0-0.0,1146,,,,53,,,,398,probe-105,,,,,1,[object Object],203,5,1,
,html-keyboard-response,346,796786,0.0-177.0-1.0,null,<p></p>,,null,,,,,,,,,,,,,,,,
,do_trial,347,799800,0.0-178.0-0.0,459,,,,49,"1,1,0",6,blank,399,null,0.669341142,0.185828955,0.184606013,1,,,,,,
,html-keyboard-response,348,800803,0.0-178.0-1.0,null,<p></p>,,null,,,,,,,,,,,,,,,,
,do_recog,349,803605,0.0-179.0-0.0,1294,,,,53,,,,400,probe-130,,,,,1,[object Object],200,5,1,
,html-keyboard-response,350,804610,0.0-179.0-1.0,null,<p></p>,,null,,,,,,,,,,,,,,,,
,do_trial,351,807645,0.0-180.0-0.0,479,,,,49,"1,0,0",6,blank,401,null,0.505633767,0.082864138,0.213311224,1,,,,,,
,html-keyboard-response,352,808650,0.0-180.0-1.0,null,<p></p>,,null,,,,,,,,,,,,,,,,
,do_trial,353,811821,0.0-181.0-0.0,615,,,,49,"0,0,1",6,blank,402,null,0.350883814,0.069241556,0.245654267,0,,,,,,
,html-keyboard-response,354,812824,0.0-181.0-1.0,null,<p></p>,,null,,,,,,,,,,,,,,,,
,do_trial,355,816049,0.0-182.0-0.0,672,,,,51,"0,0,0",6,blank,403,null,0.432040423,0.072172078,0.345088925,0,,,,,,
,html-keyboard-response,356,817052,0.0-182.0-1.0,null,<p></p>,,null,,,,,,,,,,,,,,,,
,do_trial,357,820309,0.0-183.0-0.0,703,,,,50,"0,1,1",6,blank,404,null,0.352233611,0.081331086,0.532730304,1,,,,,,
,html-keyboard-response,358,821312,0.0-183.0-1.0,null,<p></p>,,null,,,,,,,,,,,,,,,,
,do_trial,359,824340,0.0-184.0-0.0,472,,,,50,"0,0,1",6,blank,405,null,0.302045675,0.067352958,0.618653245,0,,,,,,
,html-keyboard-response,360,825343,0.0-184.0-1.0,null,<p></p>,,null,,,,,,,,,,,,,,,,
,do_trial,361,828281,0.0-185.0-0.0,383,,,,51,"1,0,1",6,blank,406,null,0.354630125,0.078118187,0.708241114,1,,,,,,
,html-keyboard-response,362,829284,0.0-185.0-1.0,null,<p></p>,,null,,,,,,,,,,,,,,,,
,do_recog,363,832061,0.0-186.0-0.0,1268,,,,53,,,,407,probe-95,,,,,1,[object Object],41,1,1,
,html-keyboard-response,364,833064,0.0-186.0-1.0,null,<p></p>,,null,,,,,,,,,,,,,,,,
,do_trial,365,836052,0.0-187.0-0.0,432,,,,51,"0,0,0",6,blank,408,null,0.222449683,0.229502518,0.716630383,0,,,,,,
,html-keyboard-response,366,837054,0.0-187.0-1.0,null,<p></p>,,null,,,,,,,,,,,,,,,,
,do_recog,367,839798,0.0-188.0-0.0,1236,,,,53,,,,409,probe-191,,,,,1,[object Object],47,1,1,
,html-keyboard-response,368,840801,0.0-188.0-1.0,null,<p></p>,,null,,,,,,,,,,,,,,,,
,do_trial,369,843991,0.0-189.0-0.0,634,,,,50,"0,0,1",6,blank,410,null,0.191033708,0.078983943,0.712563808,0,,,,,,
,html-keyboard-response,370,844994,0.0-189.0-1.0,null,<p></p>,,null,,,,,,,,,,,,,,,,
,do_trial,371,847978,0.0-190.0-0.0,428,,,,49,"1,0,1",6,blank,411,null,0.230231442,0.156277782,0.722873374,1,,,,,,
,html-keyboard-response,372,848981,0.0-190.0-1.0,null,<p></p>,,null,,,,,,,,,,,,,,,,
,do_trial,373,852050,0.0-191.0-0.0,517,,,,49,"0,0,1",6,blank,412,null,0.162009337,0.082574804,0.79084638,0,,,,,,
,html-keyboard-response,374,853053,0.0-191.0-1.0,null,<p></p>,,null,,,,,,,,,,,,,,,,
,do_trial,375,856183,0.0-192.0-0.0,574,,,,51,"0,0,1",6,blank,413,null,0.176526118,0.129800356,0.729158116,1,,,,,,
,html-keyboard-response,376,857186,0.0-192.0-1.0,null,<p></p>,,null,,,,,,,,,,,,,,,,
,do_trial,377,860135,0.0-193.0-0.0,396,,,,51,"0,0,0",6,blank,414,null,0.1681884,0.101797839,0.619361606,0,,,,,,
,html-keyboard-response,378,861138,0.0-193.0-1.0,null,<p></p>,,null,,,,,,,,,,,,,,,,
,do_recog,379,864196,0.0-194.0-0.0,1549,,,,56,,,,415,probe-20,,,,,1,[object Object],83,2,0,
,html-keyboard-response,380,865199,0.0-194.0-1.0,null,<p></p>,,null,,,,,,,,,,,,,,,,
,do_trial,381,868182,0.0-195.0-0.0,426,,,,49,"1,0,0",6,blank,416,null,0.279366841,0.096022296,0.511514776,1,,,,,,
,html-keyboard-response,382,869185,0.0-195.0-1.0,null,<p></p>,,null,,,,,,,,,,,,,,,,
,do_recog,383,871917,0.0-196.0-0.0,1222,,,,53,,,,417,probe-177,,,,,1,[object Object],85,2,1,
,html-keyboard-response,384,872920,0.0-196.0-1.0,null,<p></p>,,null,,,,,,,,,,,,,,,,
,do_trial,385,875933,0.0-197.0-0.0,460,,,,49,"0,0,0",6,blank,418,null,0.35357193,0.075647689,0.536104162,0,,,,,,
,html-keyboard-response,386,876936,0.0-197.0-1.0,null,<p></p>,,null,,,,,,,,,,,,,,,,
,do_recog,387,879676,0.0-198.0-0.0,1232,,,,53,,,,419,probe-203,,,,,1,[object Object],89,2,1,
,html-keyboard-response,388,880679,0.0-198.0-1.0,null,<p></p>,,null,,,,,,,,,,,,,,,,
,do_trial,389,883660,0.0-199.0-0.0,428,,,,49,"0,0,1",6,blank,420,null,0.352595485,0.178797652,0.478582225,0,,,,,,
,html-keyboard-response,390,884663,0.0-199.0-1.0,null,<p></p>,,null,,,,,,,,,,,,,,,,
,do_recog,391,887485,0.0-200.0-0.0,1314,,,,56,,,,421,probe-113,,,,,1,[object Object],160,4,0,
,html-keyboard-response,392,888489,0.0-200.0-1.0,null,<p></p>,,null,,,,,,,,,,,,,,,,
,do_trial,393,892843,0.0-201.0-0.0,1798,,,,49,"1,0,1",6,blank,422,null,0.29306152,0.134076311,0.556253986,1,,,,,,
,html-keyboard-response,394,893846,0.0-201.0-1.0,null,<p></p>,,null,,,,,,,,,,,,,,,,
,do_trial,395,896972,0.0-202.0-0.0,573,,,,49,"1,0,0",6,blank,423,null,0.424792612,0.166970453,0.594630582,1,,,,,,
,html-keyboard-response,396,897975,0.0-202.0-1.0,null,<p></p>,,null,,,,,,,,,,,,,,,,
,do_trial,397,900999,0.0-203.0-0.0,469,,,,49,"0,0,0",6,blank,424,null,0.503820801,0.053730215,0.55867654,0,,,,,,
,html-keyboard-response,398,902002,0.0-203.0-1.0,null,<p></p>,,null,,,,,,,,,,,,,,,,
,do_trial,399,905029,0.0-204.0-0.0,470,,,,50,"0,0,0",6,blank,425,null,0.479164992,0.158555134,0.574603257,0,,,,,,
,html-keyboard-response,400,906031,0.0-204.0-1.0,null,<p></p>,,null,,,,,,,,,,,,,,,,
,do_trial,401,909003,0.0-205.0-0.0,418,,,,49,"1,0,0",6,blank,426,null,0.333718005,0.100175216,0.683207555,1,,,,,,
,html-keyboard-response,402,910006,0.0-205.0-1.0,null,<p></p>,,null,,,,,,,,,,,,,,,,
,do_recog,403,912700,0.0-206.0-0.0,1185,,,,56,,,,427,probe-94,,,,,1,[object Object],122,3,0,
,html-keyboard-response,404,913703,0.0-206.0-1.0,null,<p></p>,,null,,,,,,,,,,,,,,,,
,do_trial,405,916675,0.0-207.0-0.0,417,,,,49,"0,0,0",6,blank,428,null,0.388146713,0.192433191,0.540746705,0,,,,,,
,html-keyboard-response,406,917678,0.0-207.0-1.0,null,<p></p>,,null,,,,,,,,,,,,,,,,
,do_recog,407,920524,0.0-208.0-0.0,1337,,,,53,,,,429,probe-188,,,,,1,[object Object],206,5,1,
,html-keyboard-response,408,921527,0.0-208.0-1.0,null,<p></p>,,null,,,,,,,,,,,,,,,,
,do_trial,409,924556,0.0-209.0-0.0,476,,,,51,"1,0,0",6,blank,430,null,0.290458974,0.207296399,0.440408536,0,,,,,,
,html-keyboard-response,410,925559,0.0-209.0-1.0,null,<p></p>,,null,,,,,,,,,,,,,,,,
,do_trial,411,928686,0.0-210.0-0.0,573,,,,51,"1,0,0",6,blank,431,null,0.374158381,0.059426485,0.481065901,0,,,,,,
,html-keyboard-response,412,929689,0.0-210.0-1.0,null,<p></p>,,null,,,,,,,,,,,,,,,,
,do_trial,413,932572,0.0-211.0-0.0,329,,,,49,"1,0,0",6,blank,432,null,0.335689489,0.062804478,0.486865793,1,,,,,,
,html-keyboard-response,414,933575,0.0-211.0-1.0,null,<p></p>,,null,,,,,,,,,,,,,,,,
,do_trial,415,936495,0.0-212.0-0.0,363,,,,49,"1,0,0",6,blank,433,null,0.366645072,0.138250903,0.536197601,1,,,,,,
,html-keyboard-response,416,937498,0.0-212.0-1.0,null,<p></p>,,null,,,,,,,,,,,,,,,,
,do_trial,417,940452,0.0-213.0-0.0,401,,,,49,"0,0,1",6,blank,434,null,0.363372561,0.172008205,0.562164124,0,,,,,,
,html-keyboard-response,418,941456,0.0-213.0-1.0,null,<p></p>,,null,,,,,,,,,,,,,,,,
,do_trial,419,944371,0.0-214.0-0.0,358,,,,50,"1,0,1",6,blank,435,null,0.195038274,0.138489425,0.657260139,0,,,,,,
,html-keyboard-response,420,945374,0.0-214.0-1.0,null,<p></p>,,null,,,,,,,,,,,,,,,,
,do_trial,421,948030,0.0-215.0-0.0,101,,,,50,"0,1,1",6,blank,436,null,0.166156898,0.121489277,0.547416875,1,,,,,,
,html-keyboard-response,422,949033,0.0-215.0-1.0,null,<p></p>,,null,,,,,,,,,,,,,,,,
,do_recog,423,952178,0.0-216.0-0.0,1638,,,,53,,,,437,probe-12,,,,,1,[object Object],49,1,1,
,html-keyboard-response,424,953182,0.0-216.0-1.0,null,<p></p>,,null,,,,,,,,,,,,,,,,
,do_trial,425,956228,0.0-217.0-0.0,491,,,,50,"0,1,1",6,blank,438,null,0.090923548,0.097764419,0.666893787,1,,,,,,
,html-keyboard-response,426,957231,0.0-217.0-1.0,null,<p></p>,,null,,,,,,,,,,,,,,,,
,do_trial,427,960134,0.0-218.0-0.0,347,,,,50,"0,0,0",6,blank,439,null,0.163450534,0.118622992,0.597653085,0,,,,,,
,html-keyboard-response,428,961137,0.0-218.0-1.0,null,<p></p>,,null,,,,,,,,,,,,,,,,
,do_trial,429,964011,0.0-219.0-0.0,319,,,,49,"0,0,1",6,blank,440,null,0.12026215,0.156339196,0.570342976,0,,,,,,
,html-keyboard-response,430,965014,0.0-219.0-1.0,null,<p></p>,,null,,,,,,,,,,,,,,,,
,do_trial,431,967790,0.0-220.0-0.0,217,,,,49,"0,0,0",6,blank,441,null,0.180639927,0.164710727,0.547480129,0,,,,,,
,html-keyboard-response,432,968793,0.0-220.0-1.0,null,<p></p>,,null,,,,,,,,,,,,,,,,
,do_trial,433,971667,0.0-221.0-0.0,319,,,,49,"1,0,1",6,blank,442,null,0.26126176,0.053240405,0.468507025,1,,,,,,
,html-keyboard-response,434,972670,0.0-221.0-1.0,null,<p></p>,,null,,,,,,,,,,,,,,,,
,do_trial,435,975558,0.0-222.0-0.0,329,,,,49,"0,1,1",6,blank,443,null,0.24177926,0.218117208,0.530833895,0,,,,,,
,html-keyboard-response,436,976560,0.0-222.0-1.0,null,<p></p>,,null,,,,,,,,,,,,,,,,
,do_recog,437,979609,0.0-223.0-0.0,1541,,,,56,,,,444,probe-90,,,,,1,[object Object],80,2,0,
,html-keyboard-response,438,980612,0.0-223.0-1.0,null,<p></p>,,null,,,,,,,,,,,,,,,,
,do_trial,439,983587,0.0-224.0-0.0,422,,,,51,"0,0,1",6,blank,445,null,0.308390339,0.075708971,0.646761172,1,,,,,,
,html-keyboard-response,440,984590,0.0-224.0-1.0,null,<p></p>,,null,,,,,,,,,,,,,,,,
,do_trial,441,987598,0.0-225.0-0.0,453,,,,51,"0,0,1",6,blank,446,null,0.275105253,0.160746384,0.592558011,1,,,,,,
,html-keyboard-response,442,988601,0.0-225.0-1.0,null,<p></p>,,null,,,,,,,,,,,,,,,,
,do_trial,443,991523,0.0-226.0-0.0,369,,,,51,"1,0,0",6,blank,447,null,0.379900727,0.150614052,0.745920869,0,,,,,,
,html-keyboard-response,444,992526,0.0-226.0-1.0,null,<p></p>,,null,,,,,,,,,,,,,,,,
,do_trial,445,995491,0.0-227.0-0.0,411,,,,50,"1,0,1",6,blank,448,null,0.320915575,0.155465112,0.758952924,0,,,,,,
,html-keyboard-response,446,996494,0.0-227.0-1.0,null,<p></p>,,null,,,,,,,,,,,,,,,,
,do_recog,447,999234,0.0-228.0-0.0,1232,,,,53,,,,449,probe-51,,,,,1,[object Object],82,2,1,
,html-keyboard-response,448,1000237,0.0-228.0-1.0,null,<p></p>,,null,,,,,,,,,,,,,,,,
,do_trial,449,1003259,0.0-229.0-0.0,467,,,,49,"1,0,1",6,blank,450,null,0.299327359,0.059486938,0.668482196,1,,,,,,
,html-keyboard-response,450,1004262,0.0-229.0-1.0,null,<p></p>,,null,,,,,,,,,,,,,,,,
,do_trial,451,1007181,0.0-230.0-0.0,365,,,,49,"0,0,1",6,blank,451,null,0.26642544,0.126903388,0.677261198,0,,,,,,
,html-keyboard-response,452,1008184,0.0-230.0-1.0,null,<p></p>,,null,,,,,,,,,,,,,,,,
,do_trial,453,1011147,0.0-231.0-0.0,407,,,,50,"0,0,0",6,blank,452,null,0.440205254,0.144830144,0.515371163,0,,,,,,
,html-keyboard-response,454,1012150,0.0-231.0-1.0,null,<p></p>,,null,,,,,,,,,,,,,,,,
,do_trial,455,1015042,0.0-232.0-0.0,337,,,,51,"0,0,0",6,blank,453,null,0.620213525,0.15175083,0.439372628,0,,,,,,
,html-keyboard-response,456,1016045,0.0-232.0-1.0,null,<p></p>,,null,,,,,,,,,,,,,,,,
,do_trial,457,1018882,0.0-233.0-0.0,280,,,,50,"1,1,0",6,blank,454,null,0.430542952,0.476691363,0.275480548,1,,,,,,
,html-keyboard-response,458,1019885,0.0-233.0-1.0,null,<p></p>,,null,,,,,,,,,,,,,,,,
,do_recog,459,1022665,0.0-234.0-0.0,1272,,,,53,,,,455,probe-34,,,,,1,[object Object],166,4,1,
,html-keyboard-response,460,1023668,0.0-234.0-1.0,null,<p></p>,,null,,,,,,,,,,,,,,,,
,do_trial,461,1026611,0.0-235.0-0.0,386,,,,50,"0,0,0",6,blank,456,null,0.424361736,0.634998128,0.3969175,0,,,,,,
,html-keyboard-response,462,1027613,0.0-235.0-1.0,null,<p></p>,,null,,,,,,,,,,,,,,,,
,do_trial,463,1030531,0.0-236.0-0.0,362,,,,49,"1,0,0",6,blank,457,null,0.352403673,0.551549391,0.252460986,1,,,,,,
,html-keyboard-response,464,1031533,0.0-236.0-1.0,null,<p></p>,,null,,,,,,,,,,,,,,,,
,do_trial,465,1034413,0.0-237.0-0.0,326,,,,49,"0,1,0",6,blank,458,null,0.388072262,0.804621527,0.283924653,0,,,,,,
,html-keyboard-response,466,1035416,0.0-237.0-1.0,null,<p></p>,,null,,,,,,,,,,,,,,,,
,do_trial,467,1038306,0.0-238.0-0.0,334,,,,51,"0,1,0",6,blank,459,null,0.35130667,0.722703593,0.191357363,0,,,,,,
,html-keyboard-response,468,1039309,0.0-238.0-1.0,null,<p></p>,,null,,,,,,,,,,,,,,,,
,do_recog,469,1041936,0.0-239.0-0.0,1119,,,,53,,,,460,probe-97,,,,,1,[object Object],209,5,1,
,html-keyboard-response,470,1042939,0.0-239.0-1.0,null,<p></p>,,null,,,,,,,,,,,,,,,,
,do_trial,471,1045874,0.0-240.0-0.0,380,,,,49,"1,1,1",6,blank,461,null,0.319801462,0.633541688,0.179123191,1,,,,,,
,html-keyboard-response,472,1046877,0.0-240.0-1.0,null,<p></p>,,null,,,,,,,,,,,,,,,,
,do_recog,473,1049330,0.0-241.0-0.0,944,,,,53,,,,462,probe-247,,,,,0,[object Object],null,null,0,
,html-keyboard-response,474,1050333,0.0-241.0-1.0,null,<p></p>,,null,,,,,,,,,,,,,,,,
,do_trial,475,1053522,0.0-242.0-0.0,633,,,,49,"0,1,0",6,blank,463,null,0.300017165,0.624862555,0.134037396,0,,,,,,
,html-keyboard-response,476,1054524,0.0-242.0-1.0,null,<p></p>,,null,,,,,,,,,,,,,,,,
,do_trial,477,1057394,0.0-243.0-0.0,313,,,,50,"0,1,0",6,blank,464,null,0.168719688,0.625929668,0.134810612,1,,,,,,
,html-keyboard-response,478,1058397,0.0-243.0-1.0,null,<p></p>,,null,,,,,,,,,,,,,,,,
,do_trial,479,1061444,0.0-244.0-0.0,493,,,,50,"0,1,0",6,blank,465,null,0.064406111,0.559246776,0.133398309,1,,,,,,
,html-keyboard-response,480,1062447,0.0-244.0-1.0,null,<p></p>,,null,,,,,,,,,,,,,,,,
,do_recog,481,1065441,0.0-245.0-0.0,1487,,,,56,,,,466,probe-236,,,,,0,[object Object],null,null,1,
,html-keyboard-response,482,1066445,0.0-245.0-1.0,null,<p></p>,,null,,,,,,,,,,,,,,,,
,do_trial,483,1069385,0.0-246.0-0.0,387,,,,50,"0,1,0",6,blank,467,null,0.127359947,0.533605899,0.093233706,1,,,,,,
,html-keyboard-response,484,1070388,0.0-246.0-1.0,null,<p></p>,,null,,,,,,,,,,,,,,,,
,do_recog,485,1073122,0.0-247.0-0.0,1225,,,,56,,,,468,probe-234,,,,,0,[object Object],null,null,1,
,html-keyboard-response,486,1074124,0.0-247.0-1.0,null,<p></p>,,null,,,,,,,,,,,,,,,,
,do_trial,487,1077138,0.0-248.0-0.0,458,,,,50,"0,1,0",6,blank,469,null,0.150871274,0.56643741,0.092234977,1,,,,,,
,html-keyboard-response,488,1078141,0.0-248.0-1.0,null,<p></p>,,null,,,,,,,,,,,,,,,,
,do_trial,489,1081169,0.0-249.0-0.0,474,,,,51,"1,0,0",6,blank,470,null,0.183680292,0.526053599,0.252765802,0,,,,,,
,html-keyboard-response,490,1082172,0.0-249.0-1.0,null,<p></p>,,null,,,,,,,,,,,,,,,,
,do_trial,491,1085137,0.0-250.0-0.0,411,,,,50,"0,1,0",6,blank,471,null,0.194235016,0.658552021,0.12718784,1,,,,,,
,html-keyboard-response,492,1086140,0.0-250.0-1.0,null,<p></p>,,null,,,,,,,,,,,,,,,,
,do_trial,493,1089116,0.0-251.0-0.0,421,,,,50,"0,1,1",6,blank,472,null,0.150762635,0.701780664,0.244873542,1,,,,,,
,html-keyboard-response,494,1090119,0.0-251.0-1.0,null,<p></p>,,null,,,,,,,,,,,,,,,,
,do_trial,495,1093160,0.0-252.0-0.0,489,,,,50,"1,1,0",6,blank,473,null,0.329255911,0.714523161,0.228495499,1,,,,,,
,html-keyboard-response,496,1094163,0.0-252.0-1.0,null,<p></p>,,null,,,,,,,,,,,,,,,,
,do_recog,497,1097193,0.0-253.0-0.0,1522,,,,53,,,,474,probe-249,,,,,0,[object Object],null,null,0,
,html-keyboard-response,498,1098196,0.0-253.0-1.0,null,<p></p>,,null,,,,,,,,,,,,,,,,
,do_trial,499,1100879,0.0-254.0-0.0,131,,,,49,"0,1,1",6,blank,475,null,0.203174512,0.618253341,0.194700191,0,,,,,,
,html-keyboard-response,500,1101882,0.0-254.0-1.0,null,<p></p>,,null,,,,,,,,,,,,,,,,
,do_trial,501,1104873,0.0-255.0-0.0,436,,,,50,"1,0,0",6,blank,476,null,0.197696358,0.687314067,0.102184903,0,,,,,,
,html-keyboard-response,502,1105876,0.0-255.0-1.0,null,<p></p>,,null,,,,,,,,,,,,,,,,
,do_recog,503,1109305,0.0-256.0-0.0,1921,,,,55,,,,477,probe-239,,,,,0,[object Object],null,null,1,
,html-keyboard-response,504,1110308,0.0-256.0-1.0,null,<p></p>,,null,,,,,,,,,,,,,,,,
,do_trial,505,1113280,0.0-257.0-0.0,420,,,,51,"0,1,0",6,blank,478,null,0.361311523,0.573578564,0.133764506,0,,,,,,
,html-keyboard-response,506,1114283,0.0-257.0-1.0,null,<p></p>,,null,,,,,,,,,,,,,,,,
,do_recog,507,1117392,0.0-258.0-0.0,1601,,,,55,,,,479,probe-254,,,,,0,[object Object],null,null,1,
,html-keyboard-response,508,1118395,0.0-258.0-1.0,null,<p></p>,,null,,,,,,,,,,,,,,,,
,do_pick_best_pirate,509,1119891,0.0-259.0-0.0,488,,,,49,,,,,,,,,,,,,,,
,do_pick_best_pirate,510,1122978,0.0-260.0-0.0,2079,,,,50,,,,,,,,,,,,,,,
,do_pick_best_pirate,511,1124962,0.0-261.0-0.0,979,,,,51,,,,,,,,,,,,,,,
,do_pick_best_pirate,512,1127557,0.0-262.0-0.0,1586,,,,49,,,,,,,,,,,,,,,
,do_pick_best_pirate,513,1129819,0.0-263.0-0.0,1254,,,,51,,,,,,,,,,,,,,,
,do_pick_best_pirate,514,1131906,0.0-264.0-0.0,1079,,,,50,,,,,,,,,,,,,,,
,html-keyboard-response,515,1141267,0.0-265.0-0.0,9358,<p>You are all done with the experiment!</p><p> You made $15 plus $2 in bonus payment!</p><p>Thank you for participating. You will recieve your payment within 3 days.<p><b>[Press the space bar to end the experiment]</b></p></div>,,32,,,,,,,,,,,,,,,,