"success","trial_type","trial_index","time_elapsed","internal_node_id","rt","stimulus","key_press","response","choice_outcomes","context_n","context_img_id","trial_n","probe_img_id","pR_red","pR_white","pR_black","outcome","is_valid","image_to_show","probed_trial","probed_context","correct","context_id"
"true","fullscreen","0","4354","0.0-0.0","","","","","","","","","","","","","","","","","","",""
"","pavlovia","1","4360","0.0-1.0","","","","","","","","","","","","","","","","","","",""
"","html-keyboard-response","2","14860","0.0-2.0","10499.399999976158","<div class='center'><p>Welcome! This is the second day of the experiment. This part will last ~30 minutes. </p><br><p>Just as a reminder, you are the head captain of a pirate ship traveling around the world to different places. </p><p>Today,you’ve arrived at the final destination of your journey!</p><p> Unfortunately, it’s very foggy out, so you won’t be able to see it in the distance like the places you visited yesterday.</p><p>You’ll still be deciding which pirates you want to rob ships. Because of the fog, however, you won't be able to see which ship your chosen pirate is robbing. </p><p><b>[Press the space bar to go over the instructions]</b></p></div>","32","","","","","","","","","","","","","","","",""
"","html-keyboard-response","3","26244","0.0-3.0","11382.5","<div class='center'><p>Like yesterday,as the head captain of the ship, you have one important things to do: </p><b><p> Pick the pirate who you think will be most successful at robbing the next ship.</p></b><p>This is important in determining how much bonus money you’ll win.</p><br><p>The game will start by showing you the pirates. First pick a pirate using the <b> 1, 2, 3 </b> buttons on your keyboard. </p><p> Press <b>'1'</b> to choose red beard, <b>'2'</b> to choose white beard, and <b>'3'</b> to choose black beard</p><p> You only have 3 seconds to pick a pirate, so please make a choice quickly! If you are too slow, you’ll have to wait a bit during the time out.</p><p> Don’t feel rushed, but please do try to make a choice every time.</p><p>How good a pirate is at robbing a ship will change depending on the place they are in and how good the defenses are of the ship.</p><p><b>[Press the space bar to begin the practice game]</b></p></div>","32","","","","","","","","","","","","","","","",""
"","html-keyboard-response","4","36897","0.0-4.0","10651.699999988079","<div class='center'><p>Unlike yesterday, sometimes you’ll be asked if you’ve seen a ship before (see the example below). You will use the 5, 6, 7, 8 buttons on your keyboard to respond. </p><p> If you definitely did not see the ship, pick the the big red thumbs down by pressing <b>5</b>.</p><p> If you don’t think you saw it but aren’t sure, then pick the small red thumbs down by pressing <b>6</b>.</p><p> If you think you might have seen it, then pick the small green thumbs up by pressing <b>7</b>.</p><p> If you definitely did see this ship before, then pick the big thumb green thumbs up by pressing <b>8</b>.</p><p> If you recall it correctly, then you’ll get a gold coin!</p><p><b>[Press the space bar to the experiment]</b></p><p><img src='run_exp/static/images/example_recog_trial.png' height='500'></p></div>","32","","","","","","","","","","","","","","","",""
"","do_welcome","5","38419","0.0-5.0-0.0","null","","","null","","","","","","","","","","","","","","",""
"","do_trial","6","43673","0.0-6.0-0.0","2698.400000035763","","","51","1,0,0","6","blank","240","null","1","0.47441421441972914","0.3222973589680885","0","","","","","",""
"","do_recog","7","49686","0.0-7.0-0.0","null","","","null","","","","241","probe-18","","","","","1","[object Object]","43","1","0",""
"","do_trial","8","53248","0.0-8.0-0.0","1006.3000000119209","","","51","1,0,0","6","blank","242","null","0.8855925725120386","0.33156118136616625","0.2408824366457919","0","","","","","",""
"","do_recog","9","56591","0.0-9.0-0.0","1830.699999988079","","","55","","","","243","probe-104","","","","","1","[object Object]","168","4","1",""
"","do_trial","10","60965","0.0-10.0-0.0","1818.8999999761581","","","50","1,0,0","6","blank","244","null","0.865181765014934","0.36385784883918426","0.0982504030065552","0","","","","","",""
"","do_trial","11","64885","0.0-11.0-0.0","1369.199999988079","","","51","1,0,0","6","blank","245","null","0.6966705631083702","0.5019142761982152","0.1946197665583469","0","","","","","",""
"","do_trial","12","67671","0.0-12.0-0.0","233.9000000357628","","","49","1,0,0","6","blank","246","null","0.8773290030828669","0.42054988954373174","0.0629179677818261","1","","","","","",""
"","do_trial","13","71037","0.0-13.0-0.0","811.1000000238419","","","50","1,1,0","6","blank","247","null","0.9088605363088934","0.4028143489555739","0.1009892123434512","1","","","","","",""
"","do_recog","14","76199","0.0-14.0-0.0","3654.399999976158","","","54","","","","248","probe-05","","","","","1","[object Object]","165","4","0",""
"","do_trial","15","79357","0.0-15.0-0.0","604.7999999523163","","","51","1,0,0","6","blank","249","null","0.9143585786305313","0.43982092989552385","0.08673979124543976","0","","","","","",""
"","do_recog","16","85372","0.0-16.0-0.0","null","","","null","","","","250","probe-185","","","","","1","[object Object]","83","2","0",""
"","do_trial","17","88443","0.0-17.0-0.0","520.5","","","50","1,1,0","6","blank","251","null","0.8222658549256916","0.4469932399418079","0.0712875721576724","1","","","","","",""
"","do_recog","18","91194","0.0-18.0-0.0","1238","","","54","","","","252","probe-211","","","","","1","[object Object]","84","2","0",""
"","do_trial","19","95416","0.0-19.0-0.0","1669.5","","","50","0,0,0","6","blank","253","null","0.7560352836984481","0.5134047547663652","0.09890133789089149","0","","","","","",""
"","do_recog","20","98600","0.0-20.0-0.0","1675.5","","","55","","","","254","probe-164","","","","","1","[object Object]","81","2","1",""
"","do_trial","21","101909","0.0-21.0-0.0","756","","","51","1,1,1","6","blank","255","null","0.7551438022177128","0.277452108981853","0.05779671673782499","1","","","","","",""
"","do_trial","22","105081","0.0-22.0-0.0","620.0999999642372","","","50","0,0,0","6","blank","256","null","0.6535266113926627","0.232715209222829","0.4446998847911745","0","","","","","",""
"","do_recog","23","108366","0.0-23.0-0.0","1776.5","","","54","","","","257","probe-53","","","","","1","[object Object]","88","2","0",""
"","do_trial","24","111810","0.0-24.0-0.0","889.3000000119209","","","51","0,0,1","6","blank","258","null","0.7526166004473646","0.10359598046640564","0.5817412709616151","1","","","","","",""
"","do_recog","25","114121","0.0-25.0-0.0","802.8000000119209","","","55","","","","259","probe-111","","","","","1","[object Object]","125","3","1",""
"","do_trial","26","117535","0.0-26.0-0.0","859.7999999523163","","","49","0,1,1","6","blank","260","null","0.6662271873978375","0.21741661046706212","0.6245724833780176","0","","","","","",""
"","do_trial","27","120506","0.0-27.0-0.0","416","","","50","1,0,0","6","blank","261","null","0.6723676802107086","0.26357442475923054","0.6136084704686526","0","","","","","",""
"","do_trial","28","123496","0.0-28.0-0.0","435.5999999642372","","","49","1,0,1","6","blank","262","null","0.6493271376520212","0.0792846905639281","0.7012282153980749","1","","","","","",""
"","do_trial","29","126917","0.0-29.0-0.0","867.3999999761581","","","51","0,0,1","6","blank","263","null","0.4258257111175624","0.14906574169399753","0.7725928924379984","1","","","","","",""
"","do_trial","30","129932","0.0-30.0-0.0","462.69999998807907","","","49","0,0,0","6","blank","264","null","0.4854314793808666","0.10999373087349852","0.7505778478940431","0","","","","","",""
"","do_recog","31","133132","0.0-31.0-0.0","1689.699999988079","","","54","","","","265","probe-221","","","","","1","[object Object]","85","2","0",""
"","do_trial","32","136442","0.0-32.0-0.0","756.6999999880791","","","51","1,0,1","6","blank","266","null","0.47663392206431504","0.1706857729658781","0.7334405599632237","1","","","","","",""
"","do_recog","33","139150","0.0-33.0-0.0","1195.4000000357628","","","55","","","","267","probe-157","","","","","1","[object Object]","41","1","1",""
"","do_trial","34","142473","0.0-34.0-0.0","768.6000000238419","","","50","1,0,0","6","blank","268","null","0.5069034325691093","0.26899144677256903","0.7778495150717021","0","","","","","",""
"","do_recog","35","145610","0.0-35.0-0.0","1627.6000000238419","","","54","","","","269","probe-244","","","","","0","[object Object]","null","null","1",""
"","do_trial","36","149037","0.0-36.0-0.0","875.5","","","51","1,0,0","6","blank","270","null","0.5260924687108278","0.21297079436133434","0.7923711758090332","0","","","","","",""
"","do_trial","37","151906","0.0-37.0-0.0","317.4000000357628","","","49","1,1,1","6","blank","271","null","0.3778959590158755","0.1847564782912531","0.7601644237816477","1","","","","","",""
"","do_trial","38","154890","0.0-38.0-0.0","430.4000000357628","","","50","0,1,1","6","blank","272","null","0.35820623225765447","0.12594195754395243","0.8449069823829056","1","","","","","",""
"","do_trial","39","157787","0.0-39.0-0.0","346.30000001192093","","","49","1,0,1","6","blank","273","null","0.47966554096374153","0.13208163791232416","0.8332241340291671","1","","","","","",""
"","do_trial","40","160802","0.0-40.0-0.0","461.5","","","49","0,0,1","6","blank","274","null","0.3975350593056781","0.0944653005112187","0.8728883653508152","0","","","","","",""
"","do_trial","41","163650","0.0-41.0-0.0","295.19999998807907","","","51","1,1,1","6","blank","275","null","0.33957147517517405","0.15977656880444865","0.928834400332304","1","","","","","",""
"","do_recog","42","167317","0.0-42.0-0.0","2153.800000011921","","","56","","","","276","probe-136","","","","","1","[object Object]","200","5","1",""
"","do_trial","43","170975","0.0-43.0-0.0","1104","","","51","1,0,1","6","blank","277","null","0.3203949691507964","0.24632280598769238","0.8399639338445389","1","","","","","",""
"","do_recog","44","174402","0.0-44.0-0.0","1914.800000011921","","","55","","","","278","probe-196","","","","","1","[object Object]","207","5","1",""
"","do_trial","45","177737","0.0-45.0-0.0","781.1000000238419","","","50","0,0,1","6","blank","279","null","0.37641650516197867","0.18782495291010326","0.9132383093926246","0","","","","","",""
"","do_recog","46","181023","0.0-46.0-0.0","1773.5","","","54","","","","280","probe-257","","","","","0","[object Object]","null","null","1",""
"","do_trial","47","184043","0.0-47.0-0.0","465.5999999642372","","","51","1,1,1","6","blank","281","null","0.36533794390275537","0.07907512217899244","0.8661065421764278","1","","","","","",""
"","do_recog","48","187180","0.0-48.0-0.0","1624.5","","","54","","","","282","probe-19","","","","","1","[object Object]","86","2","0",""
"","do_trial","49","190941","0.0-49.0-0.0","1211.5","","","50","1,0,1","6","blank","283","null","0.4407327907667187","0.13163451089112174","0.8585219174516963","0","","","","","",""
"","do_trial","50","194142","0.0-50.0-0.0","648.2000000476837","","","49","0,0,1","6","blank","284","null","0.4077639252628044","0.13084004932183638","0.8604456449414423","0","","","","","",""
"","do_trial","51","197015","0.0-51.0-0.0","323.30000001192093","","","51","0,0,1","6","blank","285","null","0.44832862812778773","0.053525316212378986","1","1","","","","","",""
"","do_recog","52","200208","0.0-52.0-0.0","1684.199999988079","","","55","","","","286","probe-79","","","","","1","[object Object]","161","4","1",""
"","do_trial","53","203860","0.0-53.0-0.0","1097.800000011921","","","51","1,0,1","6","blank","287","null","0.4170893952404039","0.05331473513135039","0.9081051806661242","1","","","","","",""
"","do_recog","54","206868","0.0-54.0-0.0","1502.199999988079","","","54","","","","288","probe-81","","","","","1","[object Object]","80","2","0",""
"","do_trial","55","209887","0.0-55.0-0.0","465","","","50","0,0,0","6","blank","289","null","0.3940886122503303","0.12255487514878625","0.8956036466480594","0","","","","","",""
"","do_trial","56","212668","0.0-56.0-0.0","226.19999998807907","","","49","0,1,1","6","blank","290","null","0.2790374884492478","0.19174270867345172","0.8255574556827137","0","","","","","",""
"","do_trial","57","215901","0.0-57.0-0.0","680.0999999642372","","","51","1,0,0","6","blank","291","null","0.2640763186740442","0.11310069645137041","0.7249564042006962","0","","","","","",""
"","do_trial","58","218457","0.0-58.0-0.0","0.09999996423721313","","","51","0,0,1","6","blank","292","null","0.29705963363090204","0.07790128785131392","0.7008654263821315","1","","","","","",""
"","do_trial","59","221540","0.0-59.0-0.0","529.6999999880791","","","50","0,0,1","6","blank","293","null","0.4592199476092222","0.08446730571197449","0.7168636864790735","0","","","","","",""
"","do_recog","60","224772","0.0-60.0-0.0","1718.800000011921","","","55","","","","294","probe-43","","","","","1","[object Object]","162","4","1",""
"","do_trial","61","227934","0.0-61.0-0.0","611.9000000357628","","","50","1,0,0","6","blank","295","null","0.43375171345663954","0.08212063423962877","0.7220279634495429","0","","","","","",""
"","do_trial","62","230919","0.0-62.0-0.0","433.69999998807907","","","51","0,0,0","6","blank","296","null","0.49786357421755406","0.10544684882928473","0.6219767772630237","0","","","","","",""
"","do_recog","63","233914","0.0-63.0-0.0","1482.800000011921","","","54","","","","297","probe-246","","","","","0","[object Object]","null","null","1",""
"","do_trial","64","237390","0.0-64.0-0.0","922.3999999761581","","","51","0,0,0","6","blank","298","null","0.4927376044003643","0.10246186633489753","0.7166224559907304","0","","","","","",""
"","do_recog","65","240301","0.0-65.0-0.0","1401.3999999761581","","","54","","","","299","probe-214","","","","","1","[object Object]","208","5","0",""
"","do_trial","66","243475","0.0-66.0-0.0","619.4000000357628","","","49","1,0,0","6","blank","300","null","0.6029035483148374","0.07964518689204594","0.7299469807726076","1","","","","","",""
"","do_recog","67","246613","0.0-67.0-0.0","1625.699999988079","","","54","","","","301","probe-44","","","","","1","[object Object]","163","4","0",""
"","do_trial","68","249612","0.0-68.0-0.0","445.30000001192093","","","51","1,0,1","6","blank","302","null","0.6886438227103657","0.16272031944298626","0.6614369867616491","1","","","","","",""
"","do_recog","69","252479","0.0-69.0-0.0","1354.2999999523163","","","56","","","","303","probe-03","","","","","1","[object Object]","204","5","1",""
"","do_trial","70","255380","0.0-70.0-0.0","350.9000000357628","","","49","1,0,0","6","blank","304","null","0.5580525093365243","0.442166209717328","0.4500258113513707","1","","","","","",""
"","do_trial","71","258331","0.0-71.0-0.0","401.0999999642372","","","50","0,1,0","6","blank","305","null","0.6074665839906664","0.6852484996993137","0.28740353653926926","1","","","","","",""
"","do_trial","72","261305","0.0-72.0-0.0","412.39999997615814","","","49","0,1,0","6","blank","306","null","0.37786051408647225","0.8903343275312224","0.19871589046437352","0","","","","","",""
"","do_trial","73","264289","0.0-73.0-0.0","429.2999999523163","","","51","0,1,0","6","blank","307","null","0.3905361280654795","0.9127816910388853","0.07690785522893938","0","","","","","",""
"","do_recog","74","267289","0.0-74.0-0.0","1490.7999999523163","","","54","","","","308","probe-96","","","","","1","[object Object]","166","4","0",""
"","do_trial","75","270453","0.0-75.0-0.0","609.5999999642372","","","49","1,1,0","6","blank","309","null","0.4527847345244518","0.9178171307968798","0.080699936581284","1","","","","","",""
"","do_trial","76","273427","0.0-76.0-0.0","420.5","","","51","0,1,0","6","blank","310","null","0.38877850303079714","0.7577546780937663","0.22137253337598467","0","","","","","",""
"","do_recog","77","276289","0.0-77.0-0.0","1348.8999999761581","","","55","","","","311","probe-204","","","","","1","[object Object]","123","3","1",""
"","do_trial","78","279885","0.0-78.0-0.0","1042.9000000357628","","","50","1,1,0","6","blank","312","null","0.5161426069497196","0.7154483227915523","0.10766495896096828","1","","","","","",""
"","do_recog","79","282119","0.0-79.0-0.0","721.3000000119209","","","55","","","","313","probe-72","","","","","1","[object Object]","201","5","1",""
"","do_trial","80","285686","0.0-80.0-0.0","1017.8999999761581","","","49","1,1,0","6","blank","314","null","0.4951309199197024","0.6317392803794857","0.1645135637816723","1","","","","","",""
"","do_recog","81","288184","0.0-81.0-0.0","990.4000000357628","","","56","","","","315","probe-24","","","","","1","[object Object]","122","3","1",""
"","do_trial","82","291409","0.0-82.0-0.0","677.0999999642372","","","51","1,1,0","6","blank","316","null","0.3950111721572867","0.7440322225060214","0.15077934620774544","0","","","","","",""
"","do_recog","83","294408","0.0-83.0-0.0","1489.199999988079","","","55","","","","317","probe-248","","","","","0","[object Object]","null","null","0",""
"","do_trial","84","297693","0.0-84.0-0.0","730.1999999880791","","","49","0,1,0","6","blank","318","null","0.364407801108195","0.8374049967183195","0.07257843509132801","0","","","","","",""
"","do_recog","85","300742","0.0-85.0-0.0","1537.3999999761581","","","54","","","","319","probe-128","","","","","1","[object Object]","205","5","0",""
"","do_trial","86","303751","0.0-86.0-0.0","456.60000002384186","","","51","1,1,0","6","blank","320","null","0.5092252587887177","0.8556575111677021","0.060482142480558165","0","","","","","",""
"","do_recog","87","305851","0.0-87.0-0.0","588.7999999523163","","","55","","","","321","probe-251","","","","","0","[object Object]","null","null","0",""
"","do_trial","88","309506","0.0-88.0-0.0","1103.3999999761581","","","50","0,1,0","6","blank","322","null","0.40807576061041645","0.8925884517747206","0.15704936713890483","1","","","","","",""
"","do_recog","89","313638","0.0-89.0-0.0","2618.599999964237","","","56","","","","323","probe-147","","","","","1","[object Object]","206","5","1",""
"","do_trial","90","316962","0.0-90.0-0.0","774.5","","","51","0,1,0","6","blank","324","null","0.4828120250022396","0.9356926515418086","0.0638094572043437","0","","","","","",""
"","do_trial","91","320263","0.0-91.0-0.0","750","","","49","0,0,0","6","blank","325","null","0.5723914683237252","0.7663864758447209","0.10038656475598585","0","","","","","",""
"","do_recog","92","322636","0.0-92.0-0.0","862.2999999523163","","","55","","","","326","probe-170","","","","","1","[object Object]","47","1","1",""
"","do_trial","93","326585","0.0-93.0-0.0","1395.5","","","50","1,1,0","6","blank","327","null","0.49472163782165085","0.7330335010872725","0.13849866772287003","1","","","","","",""
"","do_trial","94","329491","0.0-94.0-0.0","351.69999998807907","","","51","0,1,0","6","blank","328","null","0.48491330390745285","0.7348413908012508","0.1522351570359863","0","","","","","",""
"","do_trial","95","332118","0.0-95.0-0.0","73.19999998807907","","","49","0,0,0","6","blank","329","null","0.40020934028362204","0.5975530680083536","0.08075622757689964","0","","","","","",""
"","do_trial","96","335054","0.0-96.0-0.0","381.10000002384186","","","50","0,0,0","6","blank","330","null","0.43534996272905646","0.6154921248854063","0.0556039593900182","0","","","","","",""
"","do_recog","97","338115","0.0-97.0-0.0","1551.2000000476837","","","56","","","","331","probe-210","","","","","1","[object Object]","164","4","1",""
"","do_trial","98","341161","0.0-98.0-0.0","492","","","49","0,1,1","6","blank","332","null","0.35751437972561273","1","0.06571277289083127","0","","","","","",""
"","do_recog","99","343899","0.0-99.0-0.0","1225.3999999761581","","","54","","","","333","probe-259","","","","","0","[object Object]","null","null","1",""
"","do_trial","100","347618","0.0-100.0-0.0","1169.4000000357628","","","51","0,1,0","6","blank","334","null","0.18409506212955815","0.8460037703970972","0.1917931888195815","0","","","","","",""
"","do_trial","101","350526","0.0-101.0-0.0","357.60000002384186","","","50","0,1,0","6","blank","335","null","0.270367683570985","0.7819074320056457","0.11632842926170169","1","","","","","",""
"","do_trial","102","353486","0.0-102.0-0.0","407.5999999642372","","","49","0,1,0","6","blank","336","null","0.44571688181344327","0.8471777864346709","0.07518385731422252","0","","","","","",""
"","do_trial","103","356497","0.0-103.0-0.0","456.9000000357628","","","50","0,1,0","6","blank","337","null","0.4260990352700015","0.9292398376747517","0.2463699285455768","1","","","","","",""
"","do_recog","104","359474","0.0-104.0-0.0","1463.300000011921","","","55","","","","338","probe-130","","","","","1","[object Object]","202","5","1",""
"","do_trial","105","362818","0.0-105.0-0.0","790.7999999523163","","","50","0,1,0","6","blank","339","null","0.6205336521545575","0.7744419133761096","0.22551397102062987","1","","","","","",""
"","do_trial","106","365749","0.0-106.0-0.0","381.2999999523163","","","51","0,1,0","6","blank","340","null","0.5221873853664194","0.6956581269554165","0.11482282296580039","0","","","","","",""
"","do_trial","107","368569","0.0-107.0-0.0","269.80000001192093","","","50","1,1,0","6","blank","341","null","0.5318051568936776","0.7289131552018108","0.1609993860511719","1","","","","","",""
"","do_trial","108","371641","0.0-108.0-0.0","522.8999999761581","","","49","1,1,1","6","blank","342","null","0.5832392851607208","0.6295449515488114","0.05415251618541682","1","","","","","",""
"","do_trial","109","374648","0.0-109.0-0.0","454.69999998807907","","","50","1,1,0","6","blank","343","null","0.48325780751282693","0.7732733791856232","0.20189115662829327","1","","","","","",""
"","do_trial","110","377296","0.0-110.0-0.0","93.5","","","49","1,1,0","6","blank","344","null","0.6600504462849872","0.5327969179569594","0.3123153711718478","1","","","","","",""
"","do_trial","111","380310","0.0-111.0-0.0","477.69999998807907","","","50","0,0,0","6","blank","345","null","0.7690339955832454","0.44610943437524136","0.24649104533681615","0","","","","","",""
"","do_recog","112","383200","0.0-112.0-0.0","1380.1000000238419","","","53","","","","346","probe-138","","","","","1","[object Object]","128","3","0",""
"","do_trial","113","386474","0.0-113.0-0.0","718.0999999642372","","","51","1,0,1","6","blank","347","null","0.8203104851543712","0.3135432346403349","0.37200587173891864","1","","","","","",""
"","do_recog","114","389277","0.0-114.0-0.0","1290.5","","","55","","","","348","probe-172","","","","","1","[object Object]","49","1","1",""
"","do_trial","115","392825","0.0-115.0-0.0","994","","","50","1,1,0","6","blank","349","null","0.7753983381307481","0.2684723452148557","0.37704942537081265","1","","","","","",""
"","do_recog","116","395712","0.0-116.0-0.0","1374.699999988079","","","54","","","","350","probe-15","","","","","1","[object Object]","160","4","0",""
"","do_trial","117","399182","0.0-117.0-0.0","918.5","","","50","1,1,1","6","blank","351","null","0.9171933146158723","0.27353911799171055","0.464807128715475","1","","","","","",""
"","do_trial","118","402038","0.0-118.0-0.0","305.19999998807907","","","51","1,0,0","6","blank","352","null","0.9130023676480924","0.11998982879201046","0.42891765771794016","0","","","","","",""
"","do_recog","119","404575","0.0-119.0-0.0","1027.0999999642372","","","55","","","","353","probe-166","","","","","1","[object Object]","44","1","1",""
"","do_trial","120","407618","0.0-120.0-0.0","492.5999999642372","","","50","1,0,1","6","blank","354","null","0.9165479752942439","0.2879635376459254","0.36392885549320947","0","","","","","",""
"","do_trial","121","410375","0.0-121.0-0.0","202.30000001192093","","","51","1,0,1","6","blank","355","null","0.7641453334818007","0.1907285844539142","0.3048051569579486","1","","","","","",""
"","do_trial","122","414476","0.0-122.0-0.0","1546.2000000476837","","","50","1,0,0","6","blank","356","null","0.7941537724699778","0.13812487341524965","0.3426724905279383","0","","","","","",""
"","do_recog","123","417935","0.0-123.0-0.0","1950.5999999642372","","","56","","","","357","probe-168","","","","","1","[object Object]","40","1","1",""
"","do_trial","124","422832","0.0-124.0-0.0","2344.400000035763","","","51","1,0,0","6","blank","358","null","0.6691315022913366","0.06645369804044457","0.5142500149298195","0","","","","","",""
"","do_trial","125","425718","0.0-125.0-0.0","330.69999998807907","","","49","1,1,1","6","blank","359","null","0.6233693908905142","0.3452838140208288","0.547072224636951","1","","","","","",""
"","do_trial","126","428655","0.0-126.0-0.0","385.19999998807907","","","50","0,1,1","6","blank","360","null","0.5449618531294951","0.280499125588358","0.6826994696122273","1","","","","","",""
"","do_trial","127","431818","0.0-127.0-0.0","608.0999999642372","","","51","0,0,0","6","blank","361","null","0.6260246005414141","0.21446520729084373","0.5346461206816312","0","","","","","",""
"","do_trial","128","434885","0.0-128.0-0.0","514.6999999880791","","","50","1,0,0","6","blank","362","null","0.6128816332017077","0.08660394934283724","0.44269509804727813","0","","","","","",""
"","do_recog","129","437638","0.0-129.0-0.0","1240.9000000357628","","","55","","","","363","probe-57","","","","","1","[object Object]","46","1","1",""
"","do_trial","130","440958","0.0-130.0-0.0","767.9000000357628","","","49","0,0,0","6","blank","364","null","0.6829455823771664","0.10712677133157923","0.4241562125010862","0","","","","","",""
"","do_recog","131","444182","0.0-131.0-0.0","1711.5","","","54","","","","365","probe-151","","","","","1","[object Object]","124","3","0",""
"","do_trial","132","447969","0.0-132.0-0.0","1231.6000000238419","","","50","1,0,0","6","blank","366","null","0.7026931734599932","0.22361218692179174","0.5431960694147258","0","","","","","",""
"","do_trial","133","451103","0.0-133.0-0.0","579.5","","","51","1,0,0","6","blank","367","null","0.8175967582164188","0.26870430335665524","0.5956325635539264","0","","","","","",""
"","do_trial","134","454087","0.0-134.0-0.0","429.10000002384186","","","50","1,0,1","6","blank","368","null","0.740254794188544","0.24148884566798487","0.5810123051930343","0","","","","","",""
"","do_trial","135","457295","0.0-135.0-0.0","653.8000000119209","","","49","0,0,0","6","blank","369","null","0.9240612675184654","0.2050203012752944","0.4568868613248289","0","","","","","",""
"","do_recog","136","460088","0.0-136.0-0.0","1280.6000000238419","","","55","","","","370","probe-194","","","","","1","[object Object]","167","4","1",""
"","do_trial","137","463301","0.0-137.0-0.0","663.1000000238419","","","51","0,0,1","6","blank","371","null","0.7275285692884346","0.12918634845403063","0.3982462624987918","1","","","","","",""
"","do_recog","138","466248","0.0-138.0-0.0","1434.0999999642372","","","54","","","","372","probe-86","","","","","1","[object Object]","82","2","0",""
"","do_trial","139","470671","0.0-139.0-0.0","1868.300000011921","","","50","1,0,0","6","blank","373","null","1","0.1281054168937481","0.4553606816673952","0","","","","","",""
"","do_recog","140","474786","0.0-140.0-0.0","2605.800000011921","","","55","","","","374","probe-48","","","","","1","[object Object]","127","3","1",""
"","do_trial","141","478489","0.0-141.0-0.0","1153.5","","","50","1,0,0","6","blank","375","null","0.9347728276240436","0.06882578068985097","0.213427631403718","0","","","","","",""
"","do_recog","142","481803","0.0-142.0-0.0","1805.2999999523163","","","54","","","","376","probe-135","","","","","1","[object Object]","169","4","0",""
"","do_trial","143","485053","0.0-143.0-0.0","695.8999999761581","","","51","1,0,0","6","blank","377","null","0.8300198163582069","0.12695046678232969","0.3499402678761783","0","","","","","",""
"","do_recog","144","488489","0.0-144.0-0.0","1924.9000000357628","","","56","","","","378","probe-84","","","","","1","[object Object]","209","5","1",""
"","do_trial","145","491975","0.0-145.0-0.0","930.9000000357628","","","50","0,0,1","6","blank","379","null","0.7774233602262354","0.11094714625409385","0.3934675695882386","0","","","","","",""
"","do_trial","146","495037","0.0-146.0-0.0","513.2999999523163","","","49","1,0,1","6","blank","380","null","0.8187158894039988","0.12081469157672968","0.5867762188805508","1","","","","","",""
"","do_trial","147","498959","0.0-147.0-0.0","1369.5","","","50","0,0,0","6","blank","381","null","0.8457351345083128","0.1268585062931592","0.4648657454174308","0","","","","","",""
"","do_recog","148","501675","0.0-148.0-0.0","1203.5","","","54","","","","382","probe-69","","","","","1","[object Object]","89","2","0",""
"","do_trial","149","504935","0.0-149.0-0.0","708","","","51","1,0,0","6","blank","383","null","0.7434174838605355","0.09943113884912835","0.469661937188155","0","","","","","",""
"","do_recog","150","507688","0.0-150.0-0.0","1239.6000000238419","","","55","","","","384","probe-33","","","","","1","[object Object]","48","1","1",""
"","do_trial","151","510819","0.0-151.0-0.0","580.5","","","51","1,0,1","6","blank","385","null","0.6729969919454449","0.21430334243221194","0.5157374481759172","1","","","","","",""
"","do_trial","152","513820","0.0-152.0-0.0","451.2999999523163","","","50","1,0,0","6","blank","386","null","0.7637908455895014","0.13318462036196285","0.40954381523253475","0","","","","","",""
"","do_trial","153","516672","0.0-153.0-0.0","297.2999999523163","","","51","1,0,0","6","blank","387","null","0.946661497967768","0.2687097209309624","0.4111788627822427","0","","","","","",""
"","do_trial","154","519655","0.0-154.0-0.0","431","","","50","0,0,0","6","blank","388","null","0.7412639500461304","0.42976927767777573","0.4511597368969605","0","","","","","",""
"","do_recog","155","522453","0.0-155.0-0.0","1287.199999988079","","","56","","","","389","probe-58","","","","","1","[object Object]","42","1","1",""
"","do_trial","156","526068","0.0-156.0-0.0","1061.1000000238419","","","50","1,1,0","6","blank","390","null","0.6185540889095491","0.6131162728028493","0.2710166458559641","1","","","","","",""
"","do_recog","157","529137","0.0-157.0-0.0","1556.5999999642372","","","54","","","","391","probe-255","","","","","0","[object Object]","null","null","1",""
"","do_trial","158","533517","0.0-158.0-0.0","1826.3999999761581","","","51","1,1,0","6","blank","392","null","0.5931289869208276","0.8339874527762257","0.18336913508147654","0","","","","","",""
"","do_trial","159","536072","0.0-159.0-0.0","0.10000002384185791","","","49","1,1,0","6","blank","393","null","0.5222265704386682","0.8722948864890908","0.1521713578717011","1","","","","","",""
"","do_recog","160","538978","0.0-160.0-0.0","1394.8999999761581","","","56","","","","394","probe-55","","","","","1","[object Object]","203","5","1",""
"","do_trial","161","542144","0.0-161.0-0.0","612.5","","","50","1,1,0","6","blank","395","null","0.5075260503783783","0.9252837305679534","0.08994873900570266","1","","","","","",""
"","do_recog","162","544775","0.0-162.0-0.0","1118.3999999761581","","","56","","","","396","probe-202","","","","","1","[object Object]","129","3","1",""
"","do_trial","163","548062","0.0-163.0-0.0","733","","","50","0,1,0","6","blank","397","null","0.40158667723513913","0.8906283452704491","0.12994420086292674","1","","","","","",""
"","do_recog","164","550705","0.0-164.0-0.0","1129.699999988079","","","54","","","","398","probe-20","","","","","1","[object Object]","87","2","0",""
"","do_trial","165","554803","0.0-165.0-0.0","1545.699999988079","","","51","1,1,0","6","blank","399","null","0.3151723009662922","0.9184700282079614","0.13676708078844244","0","","","","","",""
"","do_trial","166","558920","0.0-166.0-0.0","1566","","","49","0,1,0","6","blank","400","null","0.29035320179234647","0.7882455258131803","0.14206458005957578","0","","","","","",""
"","do_trial","167","562200","0.0-167.0-0.0","725.8999999761581","","","49","0,1,0","6","blank","401","null","0.2656826436069079","0.8683246473730206","0.12425692015665718","0","","","","","",""
"","do_trial","168","566094","0.0-168.0-0.0","1339.8999999761581","","","51","0,0,0","6","blank","402","null","0.3497522301394537","0.6439151934948287","0.11998929003222593","0","","","","","",""
"","do_trial","169","569600","0.0-169.0-0.0","956.1999999880791","","","49","0,1,0","6","blank","403","null","0.5768690656980171","0.8421337699462537","0.0771556267523316","0","","","","","",""
"","do_trial","170","572772","0.0-170.0-0.0","617.1999999880791","","","50","0,1,0","6","blank","404","null","0.4925232671282172","0.8611231947605055","0.0709317506019736","1","","","","","",""
"","do_recog","171","575698","0.0-171.0-0.0","1413.199999988079","","","54","","","","405","probe-228","","","","","1","[object Object]","45","1","0",""
"","do_trial","172","580802","0.0-172.0-0.0","2550.300000011921","","","51","1,1,0","6","blank","406","null","0.45106379436286786","0.8640906173453943","0.08494368248196354","0","","","","","",""
"","do_recog","173","583378","0.0-173.0-0.0","1063.6000000238419","","","56","","","","407","probe-256","","","","","0","[object Object]","null","null","0",""
"","do_trial","174","586527","0.0-174.0-0.0","600.0999999642372","","","50","0,1,0","6","blank","408","null","0.47367967976285924","0.7687316220782071","0.17737001494490912","1","","","","","",""
"","do_trial","175","589848","0.0-175.0-0.0","769.6999999880791","","","49","1,1,1","6","blank","409","null","0.3695425755283083","0.8160746298180371","0.21333517306811003","1","","","","","",""
"","do_trial","176","592959","0.0-176.0-0.0","558.8000000119209","","","50","0,1,0","6","blank","410","null","0.32267175641140705","0.8175547861019878","0.07768150276963151","1","","","","","",""
"","do_recog","177","595871","0.0-177.0-0.0","1403.699999988079","","","56","","","","411","probe-242","","","","","0","[object Object]","null","null","0",""
"","do_trial","178","599435","0.0-178.0-0.0","1014","","","50","0,0,0","6","blank","412","null","0.21416960300010737","0.8264535656832847","0.09149140839208011","0","","","","","",""
"","do_recog","179","602153","0.0-179.0-0.0","1204.699999988079","","","54","","","","413","probe-250","","","","","0","[object Object]","null","null","1",""
"","do_trial","180","605420","0.0-180.0-0.0","718.5","","","49","0,1,0","6","blank","414","null","0.3328327746901863","0.9321088714047552","0.23480700131943727","0","","","","","",""
"","do_recog","181","608767","0.0-181.0-0.0","1834.3999999761581","","","55","","","","415","probe-245","","","","","0","[object Object]","null","null","0",""
"","do_trial","182","612031","0.0-182.0-0.0","711.8000000119209","","","51","0,0,0","6","blank","416","null","0.40552602457321757","0.928809732598478","0.08563196787980797","0","","","","","",""
"","do_recog","183","615173","0.0-183.0-0.0","1628.800000011921","","","54","","","","417","probe-254","","","","","0","[object Object]","null","null","1",""
"","do_trial","184","618400","0.0-184.0-0.0","672.3999999761581","","","50","0,1,0","6","blank","418","null","0.45604046313351104","0.8463968835396476","0.1926228846669398","1","","","","","",""
"","do_recog","185","621794","0.0-185.0-0.0","1881.699999988079","","","53","","","","419","probe-252","","","","","0","[object Object]","null","null","1",""
"","do_pick_best_pirate","186","628820","0.0-186.0-0.0","6017.300000011921","","","51","","","","","","","","","","","","","","",""
"","do_pick_best_pirate","187","632461","0.0-187.0-0.0","2632.5","","","49","","","","","","","","","","","","","","",""
"","do_pick_best_pirate","188","634969","0.0-188.0-0.0","1497.5","","","49","","","","","","","","","","","","","","",""
"","do_pick_best_pirate","189","637585","0.0-189.0-0.0","1604","","","50","","","","","","","","","","","","","","",""
"","do_pick_best_pirate","190","639920","0.0-190.0-0.0","1324.3999999761581","","","51","","","","","","","","","","","","","","",""
"","do_pick_best_pirate","191","642870","0.0-191.0-0.0","1937.5","","","51","","","","","","","","","","","","","","",""
"","html-keyboard-response","192","648851","0.0-192.0-0.0","5979.699999988079","<div class='center'>You are all done with both parts of the experiment! You made $15 plus $3 in bonus payment!! Thank you for participating. You will recieve your payment within 3 days<p><b>[Press the space bar to end the experiment]</b></p></div>","32","","","","","","","","","","","","","","","",""
