success,trial_type,trial_index,time_elapsed,internal_node_id,rt,stimulus,subject_id,key_press,response,choice_outcomes,context_n,context_img_id,trial_n,probe_img_id,pR_red,pR_white,pR_black,outcome,is_valid,image_to_show,probed_trial,probed_context,correct,context_id
TRUE,fullscreen,0,4213,0.0-0.0,,,,,,,,,,,,,,,,,,,,
,pavlovia,1,4215,0.0-1.0,,,,,,,,,,,,,,,,,,,,
,html-keyboard-response,2,12046,0.0-2.0,7830.8,"<div class='center'><p>Like yesterday,as the head captain of the ship, you have one important things to do: </p><b><p> Pick the pirate who you think will be most successful at robbing the next ship.</p></b><p>This is important in determining how much bonus money you’ll win.</p><br><p>The game will start by showing you the pirates. First pick a pirate using the <b> 1, 2, 3 </b> buttons on your keyboard. </p><p> Press <b>'1'</b> to choose red beard, <b>'2'</b> to choose white beard, and <b>'3'</b> to choose black beard</p><p> You only have 3 seconds to pick a pirate, so please make a choice quickly! If you are too slow, you’ll have to wait a bit during the time out.</p><p> Don’t feel rushed, but please do try to make a choice every time.</p><p>How good a pirate is at robbing a ship will change depending on the place they are in and how good the defenses are of the ship.</p><p><b>[Press the space bar to begin the practice game]</b></p></div>",60ff7760436f1e083e4e78ce,32,,,,,,,,,,,,,,,,
,html-keyboard-response,3,17709,0.0-3.0,5662.2,"<div class='center'><p>You’ve arrived at the final island of your journey! Unfortunately, it’s very foggy out, so you won’t be able to see it in the distance like the previous islands you've visited.</p><p>You’ll still be deciding which pirate you want to rob a ship like before. However, because of the fog, you also won’t be able to see the ship.</p><p>This means you do not have to remember the ships you rob on this island.</p><p><b>[Press the space bar to continue]</b></p></div>",,32,,,,,,,,,,,,,,,,
,html-keyboard-response,4,27523,0.0-4.0,9813.8,"<div class='center'><p> Sometimes you’ll be shown a ship, and you will be asked if you saw this ship on a past island.</p><p> Here is an example of what you will see.</p><p><b>[Press the space bar to continue]</b></p><p><img src='run_exp/static/images/tutorial/example_recog_trial.png' height='500'></p></div>",,32,,,,,,,,,,,,,,,,
,html-keyboard-response,5,32623,0.0-5.0,5099.8,"<div class='center'><p> You will press the 5, 6, 7, 8 buttons on your keyboard to respond.</p><p>If you are very sure saw the ship, press <b>5</b> on your keyboard.</p><p> If you think you  saw it before but are not sure, then press <b>6</b>.</p><p> If you think you have not seen it before but are not sure, then press <b>7</b>.</p><p> If you are sure you did not see the ship before, then press <b>8</b>.</p><p><b>[Press the space bar to continue]</b></p><p><img src='run_exp/static/images/tutorial/example_recog_trial.png' height='500'></p></div>",,32,,,,,,,,,,,,,,,,
,html-keyboard-response,6,38394,0.0-6.0,5769.6,"<div class='center'><p> If you remember correctly, then you’ll get a gold coin like this: </p><p><img src='run_exp/static/images/tutorial/reward_small.png' height='200'></p><p>If you do not remember correctly, then you'll see a red x like this: </p><p><img src='run_exp/static/images/tutorial/reward_no.png' height='200'></p><p>Importantly, when you are shown a ship, take the time to remind yourself which island you saw it on. This will help you in the next part of the study.</p><p><b>[Press the space bar to continue]</b></p></div>",,32,,,,,,,,,,,,,,,,
,html-keyboard-response,7,41664,0.0-7.0,3269.6,"<div class='center'><p>Let's go over the important points again. Your job is to: </p><p>1. Pick the pirate who is best at robbing ships and will bring you back gold coins. </p><p>2. Correctly remember whether or not you saw a ship before. If you did see the ship before, remind yourself on which island you saw the ship. </p><p><b>[Press the space bar to begin the next part of the study]</b></p></div>",,32,,,,,,,,,,,,,,,,
,do_welcome,8,43170,0.0-8.0,null,,,,null,,,,,,,,,,,,,,,
,do_trial,9,47211,0.0-9.0-0.0,1518.8,,,,49,"0,0,0",6,blank,230,null,0.291726887,0.205268895,0.615973948,0,,,,,,
,html-keyboard-response,10,48212,0.0-9.0-1.0,null,<p></p>,,null,,,,,,,,,,,,,,,,
,do_trial,11,51809,0.0-10.0-0.0,1076.1,,,,50,"0,1,1",6,blank,231,null,0.278465818,0.258644006,0.688827836,1,,,,,,
,html-keyboard-response,12,52811,0.0-10.0-1.0,null,<p></p>,,null,,,,,,,,,,,,,,,,
,do_trial,13,55739,0.0-11.0-0.0,408.3,,,,50,"0,1,1",6,blank,232,null,0.202135195,0.248603504,0.60068641,1,,,,,,
,html-keyboard-response,14,56741,0.0-11.0-1.0,null,<p></p>,,null,,,,,,,,,,,,,,,,
,do_trial,15,59578,0.0-12.0-0.0,316.4,,,,50,"0,0,1",6,blank,233,null,0.200432947,0.225954413,0.624570956,0,,,,,,
,html-keyboard-response,16,60579,0.0-12.0-1.0,null,<p></p>,,null,,,,,,,,,,,,,,,,
,do_trial,17,63575,0.0-13.0-0.0,474.7,,,,51,"1,0,1",6,blank,234,null,0.35111273,0.119618884,0.681919777,1,,,,,,
,html-keyboard-response,18,64576,0.0-13.0-1.0,null,<p></p>,,null,,,,,,,,,,,,,,,,
,do_trial,19,67684,0.0-14.0-0.0,587.9,,,,51,"0,0,1",6,blank,235,null,0.441857717,0.060774219,0.806164607,1,,,,,,
,html-keyboard-response,20,68685,0.0-14.0-1.0,null,<p></p>,,null,,,,,,,,,,,,,,,,
,do_trial,21,71427,0.0-15.0-0.0,220.6,,,,50,"0,1,0",6,blank,236,null,0.323314015,0.125414698,0.795932278,1,,,,,,
,html-keyboard-response,22,72428,0.0-15.0-1.0,null,<p></p>,,null,,,,,,,,,,,,,,,,
,do_trial,23,75343,0.0-16.0-0.0,394.2,,,,51,"0,1,1",6,blank,237,null,0.304966023,0.169283915,0.923782632,1,,,,,,
,html-keyboard-response,24,76344,0.0-16.0-1.0,null,<p></p>,,null,,,,,,,,,,,,,,,,
,do_trial,25,79066,0.0-17.0-0.0,203,,,,50,"0,0,0",6,blank,238,null,0.315667008,0.113098755,0.740070938,0,,,,,,
,html-keyboard-response,26,80068,0.0-17.0-1.0,null,<p></p>,,null,,,,,,,,,,,,,,,,
,do_trial,27,82875,0.0-18.0-0.0,286.5,,,,51,"0,0,0",6,blank,239,null,0.353191485,0.11199994,0.666617584,0,,,,,,
,html-keyboard-response,28,83877,0.0-18.0-1.0,null,<p></p>,,null,,,,,,,,,,,,,,,,
,do_trial,29,86948,0.0-19.0-0.0,551.4,,,,50,"0,1,0",6,blank,240,null,0.36365283,0.168166322,0.693990575,1,,,,,,
,html-keyboard-response,30,87950,0.0-19.0-1.0,null,<p></p>,,null,,,,,,,,,,,,,,,,
,do_trial,31,90798,0.0-20.0-0.0,328.6,,,,50,"0,1,1",6,blank,241,null,0.497647764,0.104624669,0.704229503,1,,,,,,
,html-keyboard-response,32,91799,0.0-20.0-1.0,null,<p></p>,,null,,,,,,,,,,,,,,,,
,do_trial,33,94605,0.0-21.0-0.0,285.8,,,,50,"1,0,1",6,blank,242,null,0.482841253,0.080648716,0.53868728,0,,,,,,
,html-keyboard-response,34,95606,0.0-21.0-1.0,null,<p></p>,,null,,,,,,,,,,,,,,,,
,do_trial,35,98172,0.0-22.0-0.0,45.10000001,,,,51,"1,0,0",6,blank,243,null,0.505298019,0.061746799,0.43925385,0,,,,,,
,html-keyboard-response,36,99174,0.0-22.0-1.0,null,<p></p>,,null,,,,,,,,,,,,,,,,
,do_trial,37,101944,0.0-23.0-0.0,248.9,,,,49,"1,0,0",6,blank,244,null,0.59398649,0.054310027,0.396982009,1,,,,,,
,html-keyboard-response,38,102945,0.0-23.0-1.0,null,<p></p>,,null,,,,,,,,,,,,,,,,
,do_trial,39,105744,0.0-24.0-0.0,277.8,,,,49,"0,0,0",6,blank,245,null,0.452501123,0.121676501,0.298317599,0,,,,,,
,html-keyboard-response,40,106744,0.0-24.0-1.0,null,<p></p>,,null,,,,,,,,,,,,,,,,
,do_recog,41,110576,0.0-25.0-0.0,2329,,,,53,,,,246,probe-109,,,,,1,[object Object],49,1,1,
,html-keyboard-response,42,111577,0.0-25.0-1.0,null,<p></p>,,null,,,,,,,,,,,,,,,,
,do_trial,43,114878,0.0-26.0-0.0,780.7,,,,49,"1,0,0",6,blank,247,null,0.481204322,0.146403213,0.341668101,1,,,,,,
,html-keyboard-response,44,115879,0.0-26.0-1.0,null,<p></p>,,null,,,,,,,,,,,,,,,,
,do_trial,45,118711,0.0-27.0-0.0,311.2,,,,50,"0,1,0",6,blank,248,null,0.588644957,0.17338432,0.308722603,1,,,,,,
,html-keyboard-response,46,119712,0.0-27.0-1.0,null,<p></p>,,null,,,,,,,,,,,,,,,,
,do_trial,47,122434,0.0-28.0-0.0,201.4,,,,51,"1,0,0",6,blank,249,null,0.646134379,0.060737914,0.126707228,0,,,,,,
,html-keyboard-response,48,123435,0.0-28.0-1.0,null,<p></p>,,null,,,,,,,,,,,,,,,,
,do_trial,49,126675,0.0-29.0-0.0,719.4,,,,49,"1,0,0",6,blank,250,null,0.553714485,0.134975053,0.214482912,1,,,,,,
,html-keyboard-response,50,127676,0.0-29.0-1.0,null,<p></p>,,null,,,,,,,,,,,,,,,,
,do_recog,51,133679,0.0-30.0-0.0,null,,,,null,,,,251,probe-68,,,,,1,[object Object],165,4,0,
,html-keyboard-response,52,134681,0.0-30.0-1.0,null,<p></p>,,null,,,,,,,,,,,,,,,,
,do_trial,53,137501,0.0-31.0-0.0,299.8,,,,49,"0,0,0",6,blank,252,null,0.473793654,0.116372844,0.209795196,0,,,,,,
,html-keyboard-response,54,138502,0.0-31.0-1.0,null,<p></p>,,null,,,,,,,,,,,,,,,,
,do_recog,55,144506,0.0-32.0-0.0,null,,,,null,,,,253,probe-74,,,,,1,[object Object],203,5,0,
,html-keyboard-response,56,145507,0.0-32.0-1.0,null,<p></p>,,null,,,,,,,,,,,,,,,,
,do_trial,57,148361,0.0-33.0-0.0,333.7,,,,50,"0,0,0",6,blank,254,null,0.588805697,0.255884217,0.311301114,0,,,,,,
,html-keyboard-response,58,149363,0.0-33.0-1.0,null,<p></p>,,null,,,,,,,,,,,,,,,,
,do_recog,59,152844,0.0-34.0-0.0,1978.6,,,,53,,,,255,probe-178,,,,,1,[object Object],169,4,1,
,html-keyboard-response,60,153845,0.0-34.0-1.0,null,<p></p>,,null,,,,,,,,,,,,,,,,
,do_trial,61,156940,0.0-35.0-0.0,575.2,,,,50,"0,0,1",6,blank,256,null,0.584619895,0.347351751,0.340765304,0,,,,,,
,html-keyboard-response,62,157941,0.0-35.0-1.0,null,<p></p>,,null,,,,,,,,,,,,,,,,
,do_trial,63,160731,0.0-36.0-0.0,269.4,,,,51,"1,0,1",6,blank,257,null,0.516437295,0.211675795,0.351009733,1,,,,,,
,html-keyboard-response,64,161732,0.0-36.0-1.0,null,<p></p>,,null,,,,,,,,,,,,,,,,
,do_trial,65,164481,0.0-37.0-0.0,228.9,,,,51,"1,0,1",6,blank,258,null,0.526755416,0.053891383,0.461105663,1,,,,,,
,html-keyboard-response,66,165482,0.0-37.0-1.0,null,<p></p>,,null,,,,,,,,,,,,,,,,
,do_trial,67,168328,0.0-38.0-0.0,325,,,,51,"1,0,0",6,blank,259,null,0.73426678,0.196319531,0.325493564,0,,,,,,
,html-keyboard-response,68,169329,0.0-38.0-1.0,null,<p></p>,,null,,,,,,,,,,,,,,,,
,do_trial,69,172262,0.0-39.0-0.0,412.5,,,,50,"0,0,1",6,blank,260,null,0.664020094,0.143921571,0.342759533,0,,,,,,
,html-keyboard-response,70,173264,0.0-39.0-1.0,null,<p></p>,,null,,,,,,,,,,,,,,,,
,do_recog,71,177221,0.0-40.0-0.0,2454.5,,,,56,,,,261,probe-242,,,,,0,[object Object],null,null,1,
,html-keyboard-response,72,178222,0.0-40.0-1.0,null,<p></p>,,null,,,,,,,,,,,,,,,,
,do_trial,73,181712,0.0-41.0-0.0,970,,,,51,"1,0,0",6,blank,262,null,0.56889987,0.175426432,0.154405437,0,,,,,,
,html-keyboard-response,74,182713,0.0-41.0-1.0,null,<p></p>,,null,,,,,,,,,,,,,,,,
,do_recog,75,186217,0.0-42.0-0.0,2002.4,,,,56,,,,263,probe-247,,,,,0,[object Object],null,null,1,
,html-keyboard-response,76,187218,0.0-42.0-1.0,null,<p></p>,,null,,,,,,,,,,,,,,,,
,do_trial,77,190653,0.0-43.0-0.0,914.5,,,,51,"1,0,1",6,blank,264,null,0.413620954,0.149470026,0.364798864,1,,,,,,
,html-keyboard-response,78,191654,0.0-43.0-1.0,null,<p></p>,,null,,,,,,,,,,,,,,,,
,do_recog,79,194822,0.0-44.0-0.0,1665.3,,,,56,,,,265,probe-250,,,,,0,[object Object],null,null,1,
,html-keyboard-response,80,195823,0.0-44.0-1.0,null,<p></p>,,null,,,,,,,,,,,,,,,,
,do_trial,81,198851,0.0-45.0-0.0,508,,,,49,"0,0,0",6,blank,266,null,0.344818593,0.268141461,0.249235773,0,,,,,,
,html-keyboard-response,82,199853,0.0-45.0-1.0,null,<p></p>,,null,,,,,,,,,,,,,,,,
,do_trial,83,202632,0.0-46.0-0.0,259.3,,,,51,"1,0,0",6,blank,267,null,0.419180401,0.101111605,0.237215586,0,,,,,,
,html-keyboard-response,84,203633,0.0-46.0-1.0,null,<p></p>,,null,,,,,,,,,,,,,,,,
,do_recog,85,206771,0.0-47.0-0.0,1634.6,,,,53,,,,268,probe-221,,,,,1,[object Object],205,5,1,
,html-keyboard-response,86,207772,0.0-47.0-1.0,null,<p></p>,,null,,,,,,,,,,,,,,,,
,do_trial,87,211119,0.0-48.0-0.0,827.3,,,,51,"0,0,0",6,blank,269,null,0.66222052,0.121206173,0.185257203,0,,,,,,
,html-keyboard-response,88,212120,0.0-48.0-1.0,null,<p></p>,,null,,,,,,,,,,,,,,,,
,do_trial,89,215912,0.0-49.0-0.0,1270.6,,,,50,"0,0,1",6,blank,270,null,0.818679958,0.122429987,0.302544393,0,,,,,,
,html-keyboard-response,90,216913,0.0-49.0-1.0,null,<p></p>,,null,,,,,,,,,,,,,,,,
,do_trial,91,219779,0.0-50.0-0.0,346.3,,,,51,"0,0,0",6,blank,271,null,0.564472118,0.093725645,0.307952976,0,,,,,,
,html-keyboard-response,92,220781,0.0-50.0-1.0,null,<p></p>,,null,,,,,,,,,,,,,,,,
,do_trial,93,223792,0.0-51.0-0.0,491.2,,,,51,"0,0,0",6,blank,272,null,0.690199791,0.079817278,0.286647743,0,,,,,,
,html-keyboard-response,94,224794,0.0-51.0-1.0,null,<p></p>,,null,,,,,,,,,,,,,,,,
,do_trial,95,227643,0.0-52.0-0.0,328.6,,,,49,"1,0,0",6,blank,273,null,0.756215054,0.107074093,0.411413052,1,,,,,,
,html-keyboard-response,96,228644,0.0-52.0-1.0,null,<p></p>,,null,,,,,,,,,,,,,,,,
,do_trial,97,231850,0.0-53.0-0.0,685.3,,,,50,"0,0,1",6,blank,274,null,0.734146769,0.272379053,0.433365083,0,,,,,,
,html-keyboard-response,98,232851,0.0-53.0-1.0,null,<p></p>,,null,,,,,,,,,,,,,,,,
,do_recog,99,236276,0.0-54.0-0.0,1922.1,,,,53,,,,275,probe-94,,,,,1,[object Object],125,3,1,
,html-keyboard-response,100,237277,0.0-54.0-1.0,null,<p></p>,,null,,,,,,,,,,,,,,,,
,do_trial,101,240670,0.0-55.0-0.0,871.4,,,,49,"1,0,1",6,blank,276,null,0.717868661,0.158733824,0.328897329,1,,,,,,
,html-keyboard-response,102,241671,0.0-55.0-1.0,null,<p></p>,,null,,,,,,,,,,,,,,,,
,do_trial,103,244727,0.0-56.0-0.0,536,,,,50,"1,0,0",6,blank,277,null,0.676382724,0.106057777,0.472814077,0,,,,,,
,html-keyboard-response,104,245728,0.0-56.0-1.0,null,<p></p>,,null,,,,,,,,,,,,,,,,
,do_trial,105,248602,0.0-57.0-0.0,352.9,,,,51,"0,0,0",6,blank,278,null,0.685001407,0.109173807,0.434489188,0,,,,,,
,html-keyboard-response,106,249603,0.0-57.0-1.0,null,<p></p>,,null,,,,,,,,,,,,,,,,
,do_trial,107,252398,0.0-58.0-0.0,274.1,,,,49,"0,0,1",6,blank,279,null,0.637190821,0.064529505,0.442650383,0,,,,,,
,html-keyboard-response,108,253399,0.0-58.0-1.0,null,<p></p>,,null,,,,,,,,,,,,,,,,
,do_trial,109,256126,0.0-59.0-0.0,207,,,,50,"1,0,0",6,blank,280,null,0.606835561,0.161362239,0.406448864,0,,,,,,
,html-keyboard-response,110,257127,0.0-59.0-1.0,null,<p></p>,,null,,,,,,,,,,,,,,,,
,do_trial,111,259877,0.0-60.0-0.0,228.5,,,,51,"1,0,1",6,blank,281,null,0.728068649,0.087190189,0.377813724,1,,,,,,
,html-keyboard-response,112,260878,0.0-60.0-1.0,null,<p></p>,,null,,,,,,,,,,,,,,,,
,do_recog,113,263940,0.0-61.0-0.0,1559.6,,,,53,,,,282,probe-192,,,,,1,[object Object],160,4,1,
,html-keyboard-response,114,264942,0.0-61.0-1.0,null,<p></p>,,null,,,,,,,,,,,,,,,,
,do_trial,115,267675,0.0-62.0-0.0,213.7,,,,50,"1,0,1",6,blank,283,null,0.686822419,0.133267369,0.315316497,0,,,,,,
,html-keyboard-response,116,268676,0.0-62.0-1.0,null,<p></p>,,null,,,,,,,,,,,,,,,,
,do_trial,117,271417,0.0-63.0-0.0,220.3,,,,51,"1,0,0",6,blank,284,null,0.716153973,0.078816537,0.44505076,0,,,,,,
,html-keyboard-response,118,272418,0.0-63.0-1.0,null,<p></p>,,null,,,,,,,,,,,,,,,,
,do_trial,119,275135,0.0-64.0-0.0,195.9,,,,49,"1,0,0",6,blank,285,null,0.586323985,0.126035148,0.367186261,1,,,,,,
,html-keyboard-response,120,276136,0.0-64.0-1.0,null,<p></p>,,null,,,,,,,,,,,,,,,,
,do_recog,121,279367,0.0-65.0-0.0,1728.2,,,,53,,,,286,probe-195,,,,,1,[object Object],121,3,1,
,html-keyboard-response,122,280368,0.0-65.0-1.0,null,<p></p>,,null,,,,,,,,,,,,,,,,
,do_trial,123,283584,0.0-66.0-0.0,696.4,,,,50,"1,0,1",6,blank,287,null,0.706286153,0.094992074,0.42710049,0,,,,,,
,html-keyboard-response,124,284585,0.0-66.0-1.0,null,<p></p>,,null,,,,,,,,,,,,,,,,
,do_recog,125,288329,0.0-67.0-0.0,2241.6,,,,53,,,,288,probe-76,,,,,1,[object Object],48,1,1,
,html-keyboard-response,126,289331,0.0-67.0-1.0,null,<p></p>,,null,,,,,,,,,,,,,,,,
,do_trial,127,292505,0.0-68.0-0.0,654.5,,,,50,"0,0,0",6,blank,289,null,0.542852181,0.15368177,0.361817508,0,,,,,,
,html-keyboard-response,128,293506,0.0-68.0-1.0,null,<p></p>,,null,,,,,,,,,,,,,,,,
,do_recog,129,296493,0.0-69.0-0.0,1483.5,,,,53,,,,290,probe-45,,,,,1,[object Object],40,1,1,
,html-keyboard-response,130,297494,0.0-69.0-1.0,null,<p></p>,,null,,,,,,,,,,,,,,,,
,do_trial,131,300996,0.0-70.0-0.0,981.8,,,,50,"1,0,1",6,blank,291,null,0.563370786,0.225079483,0.306340949,0,,,,,,
,html-keyboard-response,132,301997,0.0-70.0-1.0,null,<p></p>,,null,,,,,,,,,,,,,,,,
,do_trial,133,304709,0.0-71.0-0.0,191.3,,,,51,"0,0,1",6,blank,292,null,0.656761843,0.053674325,0.313686435,1,,,,,,
,html-keyboard-response,134,305710,0.0-71.0-1.0,null,<p></p>,,null,,,,,,,,,,,,,,,,
,do_trial,135,309172,0.0-72.0-0.0,941.7,,,,49,"0,0,1",6,blank,293,null,0.616930176,0.082868597,0.582042401,0,,,,,,
,html-keyboard-response,136,310173,0.0-72.0-1.0,null,<p></p>,,null,,,,,,,,,,,,,,,,
,do_trial,137,312944,0.0-73.0-0.0,250.6,,,,51,"0,0,0",6,blank,294,null,0.573896761,0.109411324,0.451839057,0,,,,,,
,html-keyboard-response,138,313945,0.0-73.0-1.0,null,<p></p>,,null,,,,,,,,,,,,,,,,
,do_recog,139,317100,0.0-74.0-0.0,1653,,,,53,,,,295,probe-39,,,,,1,[object Object],123,3,1,
,html-keyboard-response,140,318101,0.0-74.0-1.0,null,<p></p>,,null,,,,,,,,,,,,,,,,
,do_trial,141,320856,0.0-75.0-0.0,234.2,,,,49,"0,1,1",6,blank,296,null,0.459907843,0.379049687,0.431777307,0,,,,,,
,html-keyboard-response,142,321857,0.0-75.0-1.0,null,<p></p>,,null,,,,,,,,,,,,,,,,
,do_recog,143,325911,0.0-76.0-0.0,2549.9,,,,55,,,,297,probe-151,,,,,1,[object Object],124,3,0,
,html-keyboard-response,144,326912,0.0-76.0-1.0,null,<p></p>,,null,,,,,,,,,,,,,,,,
,do_trial,145,329637,0.0-77.0-0.0,205.1,,,,50,"0,0,1",6,blank,298,null,0.221865658,0.357318139,0.444196066,0,,,,,,
,html-keyboard-response,146,330638,0.0-77.0-1.0,null,<p></p>,,null,,,,,,,,,,,,,,,,
,do_trial,147,333338,0.0-78.0-0.0,179.9,,,,51,"0,1,1",6,blank,299,null,0.185397932,0.552235397,0.420842792,1,,,,,,
,html-keyboard-response,148,334339,0.0-78.0-1.0,null,<p></p>,,null,,,,,,,,,,,,,,,,
,do_trial,149,337237,0.0-79.0-0.0,377.1,,,,49,"0,1,0",6,blank,300,null,0.084218588,0.613078917,0.344969287,0,,,,,,
,html-keyboard-response,150,338238,0.0-79.0-1.0,null,<p></p>,,null,,,,,,,,,,,,,,,,
,do_trial,151,340961,0.0-80.0-0.0,203.2,,,,51,"0,1,0",6,blank,301,null,0.160855315,0.48565975,0.292630464,0,,,,,,
,html-keyboard-response,152,341962,0.0-80.0-1.0,null,<p></p>,,null,,,,,,,,,,,,,,,,
,do_recog,153,344854,0.0-81.0-0.0,1388.1,,,,53,,,,302,probe-128,,,,,1,[object Object],43,1,1,
,html-keyboard-response,154,345855,0.0-81.0-1.0,null,<p></p>,,null,,,,,,,,,,,,,,,,
,do_trial,155,348751,0.0-82.0-0.0,375.7,,,,49,"0,0,0",6,blank,303,null,0.216890149,0.583170897,0.311637684,0,,,,,,
,html-keyboard-response,156,349752,0.0-82.0-1.0,null,<p></p>,,null,,,,,,,,,,,,,,,,
,do_trial,157,352619,0.0-83.0-0.0,346.6,,,,51,"0,1,1",6,blank,304,null,0.214202653,0.580021698,0.389302942,1,,,,,,
,html-keyboard-response,158,353621,0.0-83.0-1.0,null,<p></p>,,null,,,,,,,,,,,,,,,,
,do_trial,159,356934,0.0-84.0-0.0,793,,,,50,"1,0,0",6,blank,305,null,0.331167705,0.578333784,0.205733505,0,,,,,,
,html-keyboard-response,160,357935,0.0-84.0-1.0,null,<p></p>,,null,,,,,,,,,,,,,,,,
,do_trial,161,360666,0.0-85.0-0.0,211.3,,,,51,"0,1,0",6,blank,306,null,0.254692605,0.571113692,0.390857465,0,,,,,,
,html-keyboard-response,162,361668,0.0-85.0-1.0,null,<p></p>,,null,,,,,,,,,,,,,,,,
,do_trial,163,364524,0.0-86.0-0.0,336.3,,,,49,"0,1,0",6,blank,307,null,0.231321284,0.667483458,0.441812963,0,,,,,,
,html-keyboard-response,164,365525,0.0-86.0-1.0,null,<p></p>,,null,,,,,,,,,,,,,,,,
,do_trial,165,368277,0.0-87.0-0.0,232,,,,51,"0,1,0",6,blank,308,null,0.297846181,0.740266411,0.397244601,0,,,,,,
,html-keyboard-response,166,369279,0.0-87.0-1.0,null,<p></p>,,null,,,,,,,,,,,,,,,,
,do_trial,167,372075,0.0-88.0-0.0,274.9,,,,50,"0,0,0",6,blank,309,null,0.305722603,0.578890499,0.374711286,0,,,,,,
,html-keyboard-response,168,373076,0.0-88.0-1.0,null,<p></p>,,null,,,,,,,,,,,,,,,,
,do_recog,169,376487,0.0-89.0-0.0,1908,,,,53,,,,310,probe-193,,,,,1,[object Object],163,4,1,
,html-keyboard-response,170,377488,0.0-89.0-1.0,null,<p></p>,,null,,,,,,,,,,,,,,,,
,do_trial,171,380526,0.0-90.0-0.0,518,,,,51,"1,1,0",6,blank,311,null,0.14637261,0.615492245,0.427740698,0,,,,,,
,html-keyboard-response,172,381527,0.0-90.0-1.0,null,<p></p>,,null,,,,,,,,,,,,,,,,
,do_recog,173,384411,0.0-91.0-0.0,1380.6,,,,53,,,,312,probe-111,,,,,1,[object Object],45,1,1,
,html-keyboard-response,174,385412,0.0-91.0-1.0,null,<p></p>,,null,,,,,,,,,,,,,,,,
,do_trial,175,388702,0.0-92.0-0.0,770.1,,,,50,"0,1,1",6,blank,313,null,0.185617576,0.445223088,0.501180622,1,,,,,,
,html-keyboard-response,176,389704,0.0-92.0-1.0,null,<p></p>,,null,,,,,,,,,,,,,,,,
,do_recog,177,392373,0.0-93.0-0.0,1166,,,,53,,,,314,probe-160,,,,,1,[object Object],129,3,1,
,html-keyboard-response,178,393374,0.0-93.0-1.0,null,<p></p>,,null,,,,,,,,,,,,,,,,
,do_trial,179,397212,0.0-94.0-0.0,1318,,,,51,"0,1,0",6,blank,315,null,0.08319423,0.588081189,0.387017593,0,,,,,,
,html-keyboard-response,180,398214,0.0-94.0-1.0,null,<p></p>,,null,,,,,,,,,,,,,,,,
,do_recog,181,401113,0.0-95.0-0.0,1396.8,,,,53,,,,316,probe-156,,,,,1,[object Object],167,4,1,
,html-keyboard-response,182,402115,0.0-95.0-1.0,null,<p></p>,,null,,,,,,,,,,,,,,,,
,do_trial,183,406095,0.0-96.0-0.0,1460.4,,,,50,"0,1,1",6,blank,317,null,0.08047648,0.667100538,0.415607433,1,,,,,,
,html-keyboard-response,184,407096,0.0-96.0-1.0,null,<p></p>,,null,,,,,,,,,,,,,,,,
,do_recog,185,410092,0.0-97.0-0.0,1493.2,,,,53,,,,318,probe-144,,,,,1,[object Object],204,5,1,
,html-keyboard-response,186,411093,0.0-97.0-1.0,null,<p></p>,,null,,,,,,,,,,,,,,,,
,do_trial,187,414077,0.0-98.0-0.0,463.2,,,,51,"0,1,1",6,blank,319,null,0.119011945,0.64419607,0.296343702,1,,,,,,
,html-keyboard-response,188,415079,0.0-98.0-1.0,null,<p></p>,,null,,,,,,,,,,,,,,,,
,do_trial,189,418055,0.0-99.0-0.0,456,,,,50,"0,1,0",6,blank,320,null,0.086511789,0.74378727,0.22163032,1,,,,,,
,html-keyboard-response,190,419056,0.0-99.0-1.0,null,<p></p>,,null,,,,,,,,,,,,,,,,
,do_recog,191,421723,0.0-100.0-0.0,1165,,,,53,,,,321,probe-82,,,,,1,[object Object],162,4,1,
,html-keyboard-response,192,422725,0.0-100.0-1.0,null,<p></p>,,null,,,,,,,,,,,,,,,,
,do_trial,193,425776,0.0-101.0-0.0,531.2,,,,51,"0,1,1",6,blank,322,null,0.115851622,0.811228447,0.342038246,1,,,,,,
,html-keyboard-response,194,426777,0.0-101.0-1.0,null,<p></p>,,null,,,,,,,,,,,,,,,,
,do_recog,195,429886,0.0-102.0-0.0,1606,,,,53,,,,323,probe-172,,,,,1,[object Object],88,2,1,
,html-keyboard-response,196,430887,0.0-102.0-1.0,null,<p></p>,,null,,,,,,,,,,,,,,,,
,do_trial,197,434494,0.0-103.0-0.0,1086.6,,,,51,"0,1,1",6,blank,324,null,0.172579523,0.631075003,0.296980921,1,,,,,,
,html-keyboard-response,198,435495,0.0-103.0-1.0,null,<p></p>,,null,,,,,,,,,,,,,,,,
,do_trial,199,439014,0.0-104.0-0.0,998.4,,,,51,"1,1,0",6,blank,325,null,0.153827869,0.636357938,0.302002188,0,,,,,,
,html-keyboard-response,200,440014,0.0-104.0-1.0,null,<p></p>,,null,,,,,,,,,,,,,,,,
,do_trial,201,442949,0.0-105.0-0.0,414.9,,,,50,"0,0,0",6,blank,326,null,0.149169313,0.555000917,0.352569967,0,,,,,,
,html-keyboard-response,202,443950,0.0-105.0-1.0,null,<p></p>,,null,,,,,,,,,,,,,,,,
,do_trial,203,446843,0.0-106.0-0.0,371.8,,,,51,"0,0,0",6,blank,327,null,0.142421939,0.567960352,0.34371736,0,,,,,,
,html-keyboard-response,204,447844,0.0-106.0-1.0,null,<p></p>,,null,,,,,,,,,,,,,,,,
,do_recog,205,450621,0.0-107.0-0.0,1274.3,,,,53,,,,328,probe-117,,,,,1,[object Object],42,1,1,
,html-keyboard-response,206,451622,0.0-107.0-1.0,null,<p></p>,,null,,,,,,,,,,,,,,,,
,do_trial,207,454795,0.0-108.0-0.0,652.1,,,,50,"0,1,0",6,blank,329,null,0.072720764,0.635823976,0.332814552,1,,,,,,
,html-keyboard-response,208,455796,0.0-108.0-1.0,null,<p></p>,,null,,,,,,,,,,,,,,,,
,do_trial,209,458949,0.0-109.0-0.0,631.6,,,,51,"0,0,0",6,blank,330,null,0.062536802,0.777168443,0.41029407,0,,,,,,
,html-keyboard-response,210,459950,0.0-109.0-1.0,null,<p></p>,,null,,,,,,,,,,,,,,,,
,do_trial,211,463220,0.0-110.0-0.0,749.5,,,,51,"0,1,1",6,blank,331,null,0.19088597,0.80436576,0.367820652,1,,,,,,
,html-keyboard-response,212,464221,0.0-110.0-1.0,null,<p></p>,,null,,,,,,,,,,,,,,,,
,do_trial,213,467291,0.0-111.0-0.0,550.4,,,,51,"0,0,1",6,blank,332,null,0.277909071,0.771884905,0.32366965,1,,,,,,
,html-keyboard-response,214,468293,0.0-111.0-1.0,null,<p></p>,,null,,,,,,,,,,,,,,,,
,do_trial,215,471489,0.0-112.0-0.0,676.6,,,,51,"0,0,0",6,blank,333,null,0.339319942,0.717235709,0.399726459,0,,,,,,
,html-keyboard-response,216,472491,0.0-112.0-1.0,null,<p></p>,,null,,,,,,,,,,,,,,,,
,do_trial,217,475305,0.0-113.0-0.0,293.7,,,,51,"0,0,0",6,blank,334,null,0.155066607,0.73695331,0.480138933,0,,,,,,
,html-keyboard-response,218,476306,0.0-113.0-1.0,null,<p></p>,,null,,,,,,,,,,,,,,,,
,do_trial,219,479126,0.0-114.0-0.0,300.3,,,,51,"0,1,1",6,blank,335,null,0.110401167,0.81400281,0.514276537,1,,,,,,
,html-keyboard-response,220,480127,0.0-114.0-1.0,null,<p></p>,,null,,,,,,,,,,,,,,,,
,do_recog,221,483041,0.0-115.0-0.0,1411,,,,53,,,,336,probe-21,,,,,1,[object Object],44,1,1,
,html-keyboard-response,222,484043,0.0-115.0-1.0,null,<p></p>,,null,,,,,,,,,,,,,,,,
,do_trial,223,486973,0.0-116.0-0.0,409.6,,,,51,"1,0,0",6,blank,337,null,0.220754742,0.734519608,0.372052809,0,,,,,,
,html-keyboard-response,224,487974,0.0-116.0-1.0,null,<p></p>,,null,,,,,,,,,,,,,,,,
,do_trial,225,491057,0.0-117.0-0.0,562.9,,,,50,"0,1,0",6,blank,338,null,0.207297901,0.601715212,0.333312408,1,,,,,,
,html-keyboard-response,226,492058,0.0-117.0-1.0,null,<p></p>,,null,,,,,,,,,,,,,,,,
,do_trial,227,495380,0.0-118.0-0.0,802.1,,,,51,"1,1,0",6,blank,339,null,0.225457616,0.604769256,0.243601707,0,,,,,,
,html-keyboard-response,228,496381,0.0-118.0-1.0,null,<p></p>,,null,,,,,,,,,,,,,,,,
,do_trial,229,499274,0.0-119.0-0.0,372.3,,,,50,"0,0,1",6,blank,340,null,0.273406421,0.661226478,0.314389898,0,,,,,,
,html-keyboard-response,230,500275,0.0-119.0-1.0,null,<p></p>,,null,,,,,,,,,,,,,,,,
,do_recog,231,503105,0.0-120.0-0.0,1327,,,,53,,,,341,probe-110,,,,,1,[object Object],47,1,1,
,html-keyboard-response,232,504106,0.0-120.0-1.0,null,<p></p>,,null,,,,,,,,,,,,,,,,
,do_trial,233,507349,0.0-121.0-0.0,723.5,,,,51,"0,0,0",6,blank,342,null,0.186457317,0.601127138,0.227549003,0,,,,,,
,html-keyboard-response,234,508351,0.0-121.0-1.0,null,<p></p>,,null,,,,,,,,,,,,,,,,
,do_trial,235,511403,0.0-122.0-0.0,532.5,,,,50,"0,1,0",6,blank,343,null,0.170855003,0.543653068,0.121600748,1,,,,,,
,html-keyboard-response,236,512405,0.0-122.0-1.0,null,<p></p>,,null,,,,,,,,,,,,,,,,
,do_trial,237,515291,0.0-123.0-0.0,364.9,,,,51,"0,0,0",6,blank,344,null,0.205397879,0.721633628,0.163794029,0,,,,,,
,html-keyboard-response,238,516292,0.0-123.0-1.0,null,<p></p>,,null,,,,,,,,,,,,,,,,
,do_recog,239,519044,0.0-124.0-0.0,1249,,,,53,,,,345,probe-165,,,,,1,[object Object],206,5,1,
,html-keyboard-response,240,520045,0.0-124.0-1.0,null,<p></p>,,null,,,,,,,,,,,,,,,,
,do_trial,241,523124,0.0-125.0-0.0,558.9,,,,51,"0,0,1",6,blank,346,null,0.202532421,0.636608236,0.230379789,1,,,,,,
,html-keyboard-response,242,524125,0.0-125.0-1.0,null,<p></p>,,null,,,,,,,,,,,,,,,,
,do_recog,243,526967,0.0-126.0-0.0,1339,,,,53,,,,347,probe-114,,,,,1,[object Object],127,3,1,
,html-keyboard-response,244,527967,0.0-126.0-1.0,null,<p></p>,,null,,,,,,,,,,,,,,,,
,do_trial,245,533327,0.0-127.0-0.0,2838.5,,,,51,"0,1,0",6,blank,348,null,0.178904065,0.579109498,0.057011407,0,,,,,,
,html-keyboard-response,246,534328,0.0-127.0-1.0,null,<p></p>,,null,,,,,,,,,,,,,,,,
,do_trial,247,536872,0.0-128.0-0.0,23.89999999,,,,50,"0,1,0",6,blank,349,null,0.128179102,0.565889452,0.174926483,1,,,,,,
,html-keyboard-response,248,537873,0.0-128.0-1.0,null,<p></p>,,null,,,,,,,,,,,,,,,,
,do_trial,249,540697,0.0-129.0-0.0,304,,,,50,"0,0,0",6,blank,350,null,0.278110369,0.335038939,0.280987108,0,,,,,,
,html-keyboard-response,250,541698,0.0-129.0-1.0,null,<p></p>,,null,,,,,,,,,,,,,,,,
,do_trial,251,544443,0.0-130.0-0.0,224.7,,,,49,"0,0,0",6,blank,351,null,0.245458663,0.215318076,0.311509072,0,,,,,,
,html-keyboard-response,252,545444,0.0-130.0-1.0,null,<p></p>,,null,,,,,,,,,,,,,,,,
,do_trial,253,548281,0.0-131.0-0.0,317.4,,,,51,"1,0,1",6,blank,352,null,0.463290588,0.261573836,0.280858652,1,,,,,,
,html-keyboard-response,254,549282,0.0-131.0-1.0,null,<p></p>,,null,,,,,,,,,,,,,,,,
,do_recog,255,551880,0.0-132.0-0.0,1095.9,,,,53,,,,353,probe-60,,,,,1,[object Object],128,3,1,
,html-keyboard-response,256,552881,0.0-132.0-1.0,null,<p></p>,,null,,,,,,,,,,,,,,,,
,do_trial,257,555778,0.0-133.0-0.0,375.6,,,,51,"0,0,1",6,blank,354,null,0.595561484,0.190512218,0.282216983,1,,,,,,
,html-keyboard-response,258,556779,0.0-133.0-1.0,null,<p></p>,,null,,,,,,,,,,,,,,,,
,do_recog,259,559610,0.0-134.0-0.0,1327.6,,,,53,,,,355,probe-169,,,,,1,[object Object],41,1,1,
,html-keyboard-response,260,560611,0.0-134.0-1.0,null,<p></p>,,null,,,,,,,,,,,,,,,,
,do_trial,261,563422,0.0-135.0-0.0,290.6,,,,51,"0,0,0",6,blank,356,null,0.694852983,0.068031262,0.22169967,0,,,,,,
,html-keyboard-response,262,564422,0.0-135.0-1.0,null,<p></p>,,null,,,,,,,,,,,,,,,,
,do_recog,263,567135,0.0-136.0-0.0,1210,,,,53,,,,357,probe-77,,,,,1,[object Object],82,2,1,
,html-keyboard-response,264,568136,0.0-136.0-1.0,null,<p></p>,,null,,,,,,,,,,,,,,,,
,do_trial,265,571093,0.0-137.0-0.0,436.3,,,,50,"1,0,0",6,blank,358,null,0.578116979,0.074678349,0.194553634,0,,,,,,
,html-keyboard-response,266,572094,0.0-137.0-1.0,null,<p></p>,,null,,,,,,,,,,,,,,,,
,do_trial,267,574953,0.0-138.0-0.0,338.2,,,,51,"1,0,1",6,blank,359,null,0.704628939,0.053914545,0.28413419,1,,,,,,
,html-keyboard-response,268,575954,0.0-138.0-1.0,null,<p></p>,,null,,,,,,,,,,,,,,,,
,do_trial,269,578832,0.0-139.0-0.0,358.1,,,,51,"1,0,1",6,blank,360,null,0.654557274,0.051050288,0.193809023,1,,,,,,
,html-keyboard-response,270,579833,0.0-139.0-1.0,null,<p></p>,,null,,,,,,,,,,,,,,,,
,do_trial,271,582591,0.0-140.0-0.0,237.7,,,,51,"0,0,0",6,blank,361,null,0.642023595,0.228503076,0.282788641,0,,,,,,
,html-keyboard-response,272,583592,0.0-140.0-1.0,null,<p></p>,,null,,,,,,,,,,,,,,,,
,do_recog,273,586457,0.0-141.0-0.0,1362.5,,,,53,,,,362,probe-53,,,,,1,[object Object],87,2,1,
,html-keyboard-response,274,587457,0.0-141.0-1.0,null,<p></p>,,null,,,,,,,,,,,,,,,,
,do_trial,275,590398,0.0-142.0-0.0,419.9,,,,51,"1,0,0",6,blank,363,null,0.590790834,0.212979752,0.37514495,0,,,,,,
,html-keyboard-response,276,591398,0.0-142.0-1.0,null,<p></p>,,null,,,,,,,,,,,,,,,,
,do_recog,277,593674,0.0-143.0-0.0,772.5,,,,53,,,,364,probe-142,,,,,1,[object Object],164,4,1,
,html-keyboard-response,278,594675,0.0-143.0-1.0,null,<p></p>,,null,,,,,,,,,,,,,,,,
,do_trial,279,597558,0.0-144.0-0.0,362.1,,,,49,"0,0,0",6,blank,365,null,0.648782323,0.270201634,0.186971968,0,,,,,,
,html-keyboard-response,280,598559,0.0-144.0-1.0,null,<p></p>,,null,,,,,,,,,,,,,,,,
,do_trial,281,601451,0.0-145.0-0.0,372.3,,,,50,"0,0,0",6,blank,366,null,0.779372419,0.183453913,0.291026881,0,,,,,,
,html-keyboard-response,282,602452,0.0-145.0-1.0,null,<p></p>,,null,,,,,,,,,,,,,,,,
,do_trial,283,605250,0.0-146.0-0.0,277,,,,51,"1,0,0",6,blank,367,null,0.795687953,0.088897006,0.383084253,0,,,,,,
,html-keyboard-response,284,606252,0.0-146.0-1.0,null,<p></p>,,null,,,,,,,,,,,,,,,,
,do_trial,285,609102,0.0-147.0-0.0,330.3,,,,51,"1,0,0",6,blank,368,null,0.588278724,0.105218637,0.277253115,0,,,,,,
,html-keyboard-response,286,610103,0.0-147.0-1.0,null,<p></p>,,null,,,,,,,,,,,,,,,,
,do_trial,287,612877,0.0-148.0-0.0,253.2,,,,50,"1,0,1",6,blank,369,null,0.555336744,0.11636053,0.343456369,0,,,,,,
,html-keyboard-response,288,613878,0.0-148.0-1.0,null,<p></p>,,null,,,,,,,,,,,,,,,,
,do_recog,289,617059,0.0-149.0-0.0,1679.2,,,,53,,,,370,probe-223,,,,,1,[object Object],83,2,1,
,html-keyboard-response,290,618060,0.0-149.0-1.0,null,<p></p>,,null,,,,,,,,,,,,,,,,
,do_trial,291,621169,0.0-150.0-0.0,587.5,,,,51,"0,0,0",6,blank,371,null,0.572487088,0.052491905,0.222203762,0,,,,,,
,html-keyboard-response,292,622171,0.0-150.0-1.0,null,<p></p>,,null,,,,,,,,,,,,,,,,
,do_trial,293,625039,0.0-151.0-0.0,347,,,,51,"1,0,1",6,blank,372,null,0.551419726,0.094796141,0.295333587,1,,,,,,
,html-keyboard-response,294,626040,0.0-151.0-1.0,null,<p></p>,,null,,,,,,,,,,,,,,,,
,do_trial,295,628902,0.0-152.0-0.0,340.9,,,,51,"0,0,1",6,blank,373,null,0.457702219,0.09304587,0.370013445,1,,,,,,
,html-keyboard-response,296,629903,0.0-152.0-1.0,null,<p></p>,,null,,,,,,,,,,,,,,,,
,do_trial,297,632884,0.0-153.0-0.0,460.2,,,,50,"0,0,0",6,blank,374,null,0.499769282,0.126000364,0.306751853,0,,,,,,
,html-keyboard-response,298,633885,0.0-153.0-1.0,null,<p></p>,,null,,,,,,,,,,,,,,,,
,do_trial,299,636633,0.0-154.0-0.0,228.3,,,,51,"0,0,1",6,blank,375,null,0.57048763,0.069659296,0.361928202,1,,,,,,
,html-keyboard-response,300,637635,0.0-154.0-1.0,null,<p></p>,,null,,,,,,,,,,,,,,,,
,do_trial,301,640497,0.0-155.0-0.0,342.3,,,,51,"0,0,0",6,blank,376,null,0.556864826,0.095358165,0.449918192,0,,,,,,
,html-keyboard-response,302,641498,0.0-155.0-1.0,null,<p></p>,,null,,,,,,,,,,,,,,,,
,do_recog,303,643865,0.0-156.0-0.0,863.9,,,,53,,,,377,probe-14,,,,,1,[object Object],209,5,1,
,html-keyboard-response,304,644866,0.0-156.0-1.0,null,<p></p>,,null,,,,,,,,,,,,,,,,
,do_trial,305,647779,0.0-157.0-0.0,393.3,,,,51,"1,0,1",6,blank,378,null,0.554886301,0.089324182,0.419685503,1,,,,,,
,html-keyboard-response,306,648781,0.0-157.0-1.0,null,<p></p>,,null,,,,,,,,,,,,,,,,
,do_trial,307,651620,0.0-158.0-0.0,318.5,,,,51,"1,0,1",6,blank,379,null,0.535706193,0.091266889,0.459100939,1,,,,,,
,html-keyboard-response,308,652622,0.0-158.0-1.0,null,<p></p>,,null,,,,,,,,,,,,,,,,
,do_recog,309,655641,0.0-159.0-0.0,1517.5,,,,53,,,,380,probe-59,,,,,1,[object Object],120,3,1,
,html-keyboard-response,310,656643,0.0-159.0-1.0,null,<p></p>,,null,,,,,,,,,,,,,,,,
,do_trial,311,659502,0.0-160.0-0.0,338.2,,,,51,"1,1,1",6,blank,381,null,0.569642532,0.11141975,0.39126033,1,,,,,,
,html-keyboard-response,312,660503,0.0-160.0-1.0,null,<p></p>,,null,,,,,,,,,,,,,,,,
,do_recog,313,663025,0.0-161.0-0.0,1019.4,,,,53,,,,382,probe-179,,,,,1,[object Object],80,2,1,
,html-keyboard-response,314,664026,0.0-161.0-1.0,null,<p></p>,,null,,,,,,,,,,,,,,,,
,do_trial,315,666897,0.0-162.0-0.0,350.4,,,,51,"0,0,1",6,blank,383,null,0.684985008,0.103418045,0.423134961,1,,,,,,
,html-keyboard-response,316,667898,0.0-162.0-1.0,null,<p></p>,,null,,,,,,,,,,,,,,,,
,do_recog,317,670211,0.0-163.0-0.0,810,,,,53,,,,384,probe-145,,,,,1,[object Object],46,1,1,
,html-keyboard-response,318,671212,0.0-163.0-1.0,null,<p></p>,,null,,,,,,,,,,,,,,,,
,do_trial,319,674027,0.0-164.0-0.0,294.8,,,,51,"0,0,1",6,blank,385,null,0.555723429,0.062563452,0.364840844,1,,,,,,
,html-keyboard-response,320,675028,0.0-164.0-1.0,null,<p></p>,,null,,,,,,,,,,,,,,,,
,do_trial,321,677849,0.0-165.0-0.0,300.7,,,,51,"1,1,1",6,blank,386,null,0.640157281,0.069972518,0.345741851,1,,,,,,
,html-keyboard-response,322,678851,0.0-165.0-1.0,null,<p></p>,,null,,,,,,,,,,,,,,,,
,do_recog,323,681426,0.0-166.0-0.0,1072.5,,,,53,,,,387,probe-73,,,,,1,[object Object],200,5,1,
,html-keyboard-response,324,682428,0.0-166.0-1.0,null,<p></p>,,null,,,,,,,,,,,,,,,,
,do_trial,325,685251,0.0-167.0-0.0,303,,,,51,"1,0,1",6,blank,388,null,0.623277403,0.120309638,0.269059313,1,,,,,,
,html-keyboard-response,326,686252,0.0-167.0-1.0,null,<p></p>,,null,,,,,,,,,,,,,,,,
,do_trial,327,688972,0.0-168.0-0.0,200.4,,,,51,"1,0,1",6,blank,389,null,0.649335628,0.152202001,0.284895447,1,,,,,,
,html-keyboard-response,328,689973,0.0-168.0-1.0,null,<p></p>,,null,,,,,,,,,,,,,,,,
,do_trial,329,692833,0.0-169.0-0.0,339.4,,,,51,"0,0,0",6,blank,390,null,0.609338327,0.060358206,0.428800191,0,,,,,,
,html-keyboard-response,330,693835,0.0-169.0-1.0,null,<p></p>,,null,,,,,,,,,,,,,,,,
,do_trial,331,696720,0.0-170.0-0.0,364.3,,,,50,"1,0,0",6,blank,391,null,0.56621237,0.128337224,0.421112999,0,,,,,,
,html-keyboard-response,332,697721,0.0-170.0-1.0,null,<p></p>,,null,,,,,,,,,,,,,,,,
,do_trial,333,700525,0.0-171.0-0.0,284.6,,,,51,"1,1,0",6,blank,392,null,0.642198769,0.230148167,0.481901255,0,,,,,,
,html-keyboard-response,334,701526,0.0-171.0-1.0,null,<p></p>,,null,,,,,,,,,,,,,,,,
,do_recog,335,704799,0.0-172.0-0.0,1769.8,,,,53,,,,393,probe-138,,,,,1,[object Object],168,4,1,
,html-keyboard-response,336,705800,0.0-172.0-1.0,null,<p></p>,,null,,,,,,,,,,,,,,,,
,do_trial,337,708575,0.0-173.0-0.0,254.5,,,,51,"1,0,0",6,blank,394,null,0.622178113,0.202940271,0.427531949,0,,,,,,
,html-keyboard-response,338,709577,0.0-173.0-1.0,null,<p></p>,,null,,,,,,,,,,,,,,,,
,do_recog,339,712597,0.0-174.0-0.0,1517.8,,,,53,,,,395,probe-101,,,,,1,[object Object],122,3,1,
,html-keyboard-response,340,713598,0.0-174.0-1.0,null,<p></p>,,null,,,,,,,,,,,,,,,,
,do_trial,341,716855,0.0-175.0-0.0,736.1,,,,51,"1,1,1",6,blank,396,null,0.487274562,0.351913064,0.338357518,1,,,,,,
,html-keyboard-response,342,717856,0.0-175.0-1.0,null,<p></p>,,null,,,,,,,,,,,,,,,,
,do_trial,343,720592,0.0-176.0-0.0,216.4,,,,51,"0,0,0",6,blank,397,null,0.413227692,0.285761139,0.271790579,0,,,,,,
,html-keyboard-response,344,721594,0.0-176.0-1.0,null,<p></p>,,null,,,,,,,,,,,,,,,,
,do_recog,345,723910,0.0-177.0-0.0,813.5,,,,53,,,,398,probe-70,,,,,1,[object Object],84,2,1,
,html-keyboard-response,346,724911,0.0-177.0-1.0,null,<p></p>,,null,,,,,,,,,,,,,,,,
,do_trial,347,727851,0.0-178.0-0.0,419.7,,,,51,"0,0,0",6,blank,399,null,0.415422488,0.206861964,0.104546232,0,,,,,,
,html-keyboard-response,348,728852,0.0-178.0-1.0,null,<p></p>,,null,,,,,,,,,,,,,,,,
,do_recog,349,731094,0.0-179.0-0.0,739.3,,,,53,,,,400,probe-167,,,,,1,[object Object],201,5,1,
,html-keyboard-response,350,732096,0.0-179.0-1.0,null,<p></p>,,null,,,,,,,,,,,,,,,,
,do_trial,351,734929,0.0-180.0-0.0,312.6,,,,51,"0,0,0",6,blank,401,null,0.52077846,0.207993548,0.314216687,0,,,,,,
,html-keyboard-response,352,735930,0.0-180.0-1.0,null,<p></p>,,null,,,,,,,,,,,,,,,,
,do_trial,353,738711,0.0-181.0-0.0,261.6,,,,50,"0,0,1",6,blank,402,null,0.475921043,0.135714608,0.316361468,0,,,,,,
,html-keyboard-response,354,739712,0.0-181.0-1.0,null,<p></p>,,null,,,,,,,,,,,,,,,,
,do_trial,355,742606,0.0-182.0-0.0,374,,,,49,"1,0,0",6,blank,403,null,0.454319911,0.075669393,0.408060598,1,,,,,,
,html-keyboard-response,356,743607,0.0-182.0-1.0,null,<p></p>,,null,,,,,,,,,,,,,,,,
,do_trial,357,746420,0.0-183.0-0.0,292.9,,,,49,"0,0,0",6,blank,404,null,0.437785423,0.100034704,0.309423063,0,,,,,,
,html-keyboard-response,358,747422,0.0-183.0-1.0,null,<p></p>,,null,,,,,,,,,,,,,,,,
,do_trial,359,750130,0.0-184.0-0.0,187.6,,,,51,"0,0,0",6,blank,405,null,0.320859288,0.301198828,0.189923759,0,,,,,,
,html-keyboard-response,360,751131,0.0-184.0-1.0,null,<p></p>,,null,,,,,,,,,,,,,,,,
,do_recog,361,753922,0.0-185.0-0.0,1288.1,,,,53,,,,406,probe-146,,,,,1,[object Object],81,2,1,
,html-keyboard-response,362,754924,0.0-185.0-1.0,null,<p></p>,,null,,,,,,,,,,,,,,,,
,do_trial,363,757774,0.0-186.0-0.0,329.8,,,,51,"0,0,0",6,blank,407,null,0.351962126,0.414836548,0.148950098,0,,,,,,
,html-keyboard-response,364,758775,0.0-186.0-1.0,null,<p></p>,,null,,,,,,,,,,,,,,,,
,do_trial,365,761774,0.0-187.0-0.0,478.6,,,,51,"0,1,1",6,blank,408,null,0.326431866,0.60378251,0.198113191,1,,,,,,
,html-keyboard-response,366,762776,0.0-187.0-1.0,null,<p></p>,,null,,,,,,,,,,,,,,,,
,do_trial,367,765651,0.0-188.0-0.0,355.3,,,,51,"1,1,0",6,blank,409,null,0.425434668,0.642952291,0.255145955,0,,,,,,
,html-keyboard-response,368,766653,0.0-188.0-1.0,null,<p></p>,,null,,,,,,,,,,,,,,,,
,do_recog,369,769171,0.0-189.0-0.0,1015.7,,,,53,,,,410,probe-140,,,,,1,[object Object],161,4,1,
,html-keyboard-response,370,770173,0.0-189.0-1.0,null,<p></p>,,null,,,,,,,,,,,,,,,,
,do_trial,371,773820,0.0-190.0-0.0,1127.4,,,,51,"0,0,0",6,blank,411,null,0.382316862,0.583704959,0.151397765,0,,,,,,
,html-keyboard-response,372,774821,0.0-190.0-1.0,null,<p></p>,,null,,,,,,,,,,,,,,,,
,do_recog,373,778312,0.0-191.0-0.0,1988,,,,53,,,,412,probe-212,,,,,1,[object Object],126,3,1,
,html-keyboard-response,374,779312,0.0-191.0-1.0,null,<p></p>,,null,,,,,,,,,,,,,,,,
,do_trial,375,782529,0.0-192.0-0.0,696,,,,51,"1,0,0",6,blank,413,null,0.453136422,0.680783359,0.070757684,0,,,,,,
,html-keyboard-response,376,783531,0.0-192.0-1.0,null,<p></p>,,null,,,,,,,,,,,,,,,,
,do_recog,377,786590,0.0-193.0-0.0,1555.9,,,,53,,,,414,probe-52,,,,,1,[object Object],89,2,1,
,html-keyboard-response,378,787591,0.0-193.0-1.0,null,<p></p>,,null,,,,,,,,,,,,,,,,
,do_trial,379,790397,0.0-194.0-0.0,286.1,,,,51,"0,1,0",6,blank,415,null,0.408291048,0.69161093,0.204860162,0,,,,,,
,html-keyboard-response,380,791399,0.0-194.0-1.0,null,<p></p>,,null,,,,,,,,,,,,,,,,
,do_trial,381,793940,0.0-195.0-0.0,19.7,,,,50,"0,1,0",6,blank,416,null,0.391501192,0.717018702,0.176573582,1,,,,,,
,html-keyboard-response,382,794941,0.0-195.0-1.0,null,<p></p>,,null,,,,,,,,,,,,,,,,
,do_trial,383,797625,0.0-196.0-0.0,164.1,,,,51,"0,1,0",6,blank,417,null,0.335710294,0.6723027,0.266405504,0,,,,,,
,html-keyboard-response,384,798626,0.0-196.0-1.0,null,<p></p>,,null,,,,,,,,,,,,,,,,
,do_trial,385,801466,0.0-197.0-0.0,319.4,,,,51,"0,0,0",6,blank,418,null,0.33179515,0.512255818,0.097948953,0,,,,,,
,html-keyboard-response,386,802467,0.0-197.0-1.0,null,<p></p>,,null,,,,,,,,,,,,,,,,
,do_trial,387,805277,0.0-198.0-0.0,289.4,,,,50,"1,1,1",6,blank,419,null,0.247122776,0.63750389,0.081456475,1,,,,,,
,html-keyboard-response,388,806279,0.0-198.0-1.0,null,<p></p>,,null,,,,,,,,,,,,,,,,
,do_trial,389,808996,0.0-199.0-0.0,196.2,,,,50,"0,1,0",6,blank,420,null,0.306487306,0.559520399,0.104871011,1,,,,,,
,html-keyboard-response,390,809997,0.0-199.0-1.0,null,<p></p>,,null,,,,,,,,,,,,,,,,
,do_trial,391,812841,0.0-200.0-0.0,324.1,,,,50,"1,0,0",6,blank,421,null,0.269938771,0.535163348,0.080654782,0,,,,,,
,html-keyboard-response,392,813843,0.0-200.0-1.0,null,<p></p>,,null,,,,,,,,,,,,,,,,
,do_recog,393,816932,0.0-201.0-0.0,1587.1,,,,53,,,,422,probe-238,,,,,0,[object Object],null,null,0,
,html-keyboard-response,394,817933,0.0-201.0-1.0,null,<p></p>,,null,,,,,,,,,,,,,,,,
,do_trial,395,820810,0.0-202.0-0.0,355.9,,,,51,"0,1,0",6,blank,423,null,0.321256436,0.444189671,0.109811266,0,,,,,,
,html-keyboard-response,396,821811,0.0-202.0-1.0,null,<p></p>,,null,,,,,,,,,,,,,,,,
,do_trial,397,824553,0.0-203.0-0.0,221,,,,51,"0,0,0",6,blank,424,null,0.540142866,0.61771938,0.150769367,0,,,,,,
,html-keyboard-response,398,825554,0.0-203.0-1.0,null,<p></p>,,null,,,,,,,,,,,,,,,,
,do_trial,399,828298,0.0-204.0-0.0,222.8,,,,50,"0,1,0",6,blank,425,null,0.51705681,0.556325906,0.118979262,1,,,,,,
,html-keyboard-response,400,829300,0.0-204.0-1.0,null,<p></p>,,null,,,,,,,,,,,,,,,,
,do_trial,401,832165,0.0-205.0-0.0,345.5,,,,51,"1,1,0",6,blank,426,null,0.536352188,0.762828016,0.05277027,0,,,,,,
,html-keyboard-response,402,833166,0.0-205.0-1.0,null,<p></p>,,null,,,,,,,,,,,,,,,,
,do_trial,403,835921,0.0-206.0-0.0,234.5,,,,51,"0,1,0",6,blank,427,null,0.485498926,0.855714804,0.116031671,0,,,,,,
,html-keyboard-response,404,836922,0.0-206.0-1.0,null,<p></p>,,null,,,,,,,,,,,,,,,,
,do_trial,405,839665,0.0-207.0-0.0,222.5,,,,50,"1,1,0",6,blank,428,null,0.48760548,0.930707737,0.200438616,1,,,,,,
,html-keyboard-response,406,840666,0.0-207.0-1.0,null,<p></p>,,null,,,,,,,,,,,,,,,,
,do_recog,407,843472,0.0-208.0-0.0,1303.7,,,,53,,,,429,probe-134,,,,,1,[object Object],208,5,1,
,html-keyboard-response,408,844474,0.0-208.0-1.0,null,<p></p>,,null,,,,,,,,,,,,,,,,
,do_trial,409,847645,0.0-209.0-0.0,651.4,,,,51,"0,1,0",6,blank,430,null,0.458874811,0.749286482,0.107232581,0,,,,,,
,html-keyboard-response,410,848646,0.0-209.0-1.0,null,<p></p>,,null,,,,,,,,,,,,,,,,
,do_trial,411,851669,0.0-210.0-0.0,502,,,,50,"0,0,1",6,blank,431,null,0.45960131,0.71639568,0.170066915,0,,,,,,
,html-keyboard-response,412,852670,0.0-210.0-1.0,null,<p></p>,,null,,,,,,,,,,,,,,,,
,do_trial,413,855475,0.0-211.0-0.0,284.7,,,,51,"1,1,1",6,blank,432,null,0.40467604,0.637730449,0.050388383,1,,,,,,
,html-keyboard-response,414,856477,0.0-211.0-1.0,null,<p></p>,,null,,,,,,,,,,,,,,,,
,do_recog,415,858837,0.0-212.0-0.0,857.8,,,,53,,,,433,probe-215,,,,,1,[object Object],85,2,1,
,html-keyboard-response,416,859838,0.0-212.0-1.0,null,<p></p>,,null,,,,,,,,,,,,,,,,
,do_trial,417,862642,0.0-213.0-0.0,284,,,,51,"1,0,0",6,blank,434,null,0.360870067,0.49320403,0.158107513,0,,,,,,
,html-keyboard-response,418,863643,0.0-213.0-1.0,null,<p></p>,,null,,,,,,,,,,,,,,,,
,do_recog,419,867175,0.0-214.0-0.0,2028.9,,,,56,,,,435,probe-198,,,,,1,[object Object],86,2,0,
,html-keyboard-response,420,868176,0.0-214.0-1.0,null,<p></p>,,null,,,,,,,,,,,,,,,,
,do_trial,421,871001,0.0-215.0-0.0,304.4,,,,51,"0,1,1",6,blank,436,null,0.341885176,0.577328546,0.211945386,1,,,,,,
,html-keyboard-response,422,872002,0.0-215.0-1.0,null,<p></p>,,null,,,,,,,,,,,,,,,,
,do_trial,423,874751,0.0-216.0-0.0,229.4,,,,51,"0,1,0",6,blank,437,null,0.476890221,0.513961811,0.053759776,0,,,,,,
,html-keyboard-response,424,875753,0.0-216.0-1.0,null,<p></p>,,null,,,,,,,,,,,,,,,,
,do_trial,425,878467,0.0-217.0-0.0,194.4,,,,50,"0,0,0",6,blank,438,null,0.289016934,0.505276727,0.171120807,0,,,,,,
,html-keyboard-response,426,879468,0.0-217.0-1.0,null,<p></p>,,null,,,,,,,,,,,,,,,,
,do_trial,427,882239,0.0-218.0-0.0,250.2,,,,51,"1,1,0",6,blank,439,null,0.352880178,0.56490685,0.146024267,0,,,,,,
,html-keyboard-response,428,883240,0.0-218.0-1.0,null,<p></p>,,null,,,,,,,,,,,,,,,,
,do_recog,429,886602,0.0-219.0-0.0,1859.5,,,,53,,,,440,probe-180,,,,,1,[object Object],166,4,1,
,html-keyboard-response,430,887604,0.0-219.0-1.0,null,<p></p>,,null,,,,,,,,,,,,,,,,
,do_trial,431,890487,0.0-220.0-0.0,362.1,,,,51,"0,1,0",6,blank,441,null,0.256651128,0.57518028,0.182260232,0,,,,,,
,html-keyboard-response,432,891488,0.0-220.0-1.0,null,<p></p>,,null,,,,,,,,,,,,,,,,
,do_recog,433,893904,0.0-221.0-0.0,911.6,,,,53,,,,442,probe-218,,,,,1,[object Object],207,5,1,
,html-keyboard-response,434,894905,0.0-221.0-1.0,null,<p></p>,,null,,,,,,,,,,,,,,,,
,do_trial,435,898067,0.0-222.0-0.0,641,,,,51,"1,1,0",6,blank,443,null,0.327005294,0.53031623,0.117812128,0,,,,,,
,html-keyboard-response,436,899069,0.0-222.0-1.0,null,<p></p>,,null,,,,,,,,,,,,,,,,
,do_trial,437,901845,0.0-223.0-0.0,255.9,,,,51,"0,1,0",6,blank,444,null,0.354270598,0.525755113,0.213782274,0,,,,,,
,html-keyboard-response,438,902847,0.0-223.0-1.0,null,<p></p>,,null,,,,,,,,,,,,,,,,
,do_trial,439,905715,0.0-224.0-0.0,347.6,,,,51,"0,0,0",6,blank,445,null,0.352687311,0.531970385,0.321808189,0,,,,,,
,html-keyboard-response,440,906716,0.0-224.0-1.0,null,<p></p>,,null,,,,,,,,,,,,,,,,
,do_trial,441,909541,0.0-225.0-0.0,304.5,,,,50,"0,0,0",6,blank,446,null,0.245045484,0.567203743,0.244973007,0,,,,,,
,html-keyboard-response,442,910542,0.0-225.0-1.0,null,<p></p>,,null,,,,,,,,,,,,,,,,
,do_trial,443,913246,0.0-226.0-0.0,183.9,,,,51,"0,0,0",6,blank,447,null,0.293199982,0.585867824,0.272943188,0,,,,,,
,html-keyboard-response,444,914247,0.0-226.0-1.0,null,<p></p>,,null,,,,,,,,,,,,,,,,
,do_recog,445,916718,0.0-227.0-0.0,968.3,,,,53,,,,448,probe-67,,,,,1,[object Object],202,5,1,
,html-keyboard-response,446,917720,0.0-227.0-1.0,null,<p></p>,,null,,,,,,,,,,,,,,,,
,do_trial,447,920473,0.0-228.0-0.0,233.4,,,,51,"0,0,1",6,blank,449,null,0.283087796,0.607607375,0.236643752,1,,,,,,
,html-keyboard-response,448,921474,0.0-228.0-1.0,null,<p></p>,,null,,,,,,,,,,,,,,,,
,do_trial,449,924188,0.0-229.0-0.0,193.4,,,,51,"1,1,1",6,blank,450,null,0.338574883,0.768687011,0.110772212,1,,,,,,
,html-keyboard-response,450,925189,0.0-229.0-1.0,null,<p></p>,,null,,,,,,,,,,,,,,,,
,do_trial,451,927963,0.0-230.0-0.0,253.5,,,,50,"1,1,0",6,blank,451,null,0.285801122,0.664843054,0.119022682,1,,,,,,
,html-keyboard-response,452,928964,0.0-230.0-1.0,null,<p></p>,,null,,,,,,,,,,,,,,,,
,do_recog,453,932728,0.0-231.0-0.0,2261.1,,,,56,,,,452,probe-234,,,,,0,[object Object],null,null,1,
,html-keyboard-response,454,933729,0.0-231.0-1.0,null,<p></p>,,null,,,,,,,,,,,,,,,,
,do_trial,455,936529,0.0-232.0-0.0,279.7,,,,51,"0,1,0",6,blank,453,null,0.21884361,0.577042694,0.053030591,0,,,,,,
,html-keyboard-response,456,937530,0.0-232.0-1.0,null,<p></p>,,null,,,,,,,,,,,,,,,,
,do_trial,457,940357,0.0-233.0-0.0,306.2,,,,50,"0,0,0",6,blank,454,null,0.199191891,0.61537838,0.171965921,0,,,,,,
,html-keyboard-response,458,941358,0.0-233.0-1.0,null,<p></p>,,null,,,,,,,,,,,,,,,,
,do_trial,459,944167,0.0-234.0-0.0,288.6,,,,51,"1,1,0",6,blank,455,null,0.287240383,0.695366131,0.13944471,0,,,,,,
,html-keyboard-response,460,945168,0.0-234.0-1.0,null,<p></p>,,null,,,,,,,,,,,,,,,,
,do_trial,461,947840,0.0-235.0-0.0,151.6,,,,50,"1,1,0",6,blank,456,null,0.363049692,0.712239013,0.248017144,1,,,,,,
,html-keyboard-response,462,948841,0.0-235.0-1.0,null,<p></p>,,null,,,,,,,,,,,,,,,,
,do_trial,463,951873,0.0-236.0-0.0,511.3,,,,50,"0,0,1",6,blank,457,null,0.451664498,0.579910244,0.246297251,0,,,,,,
,html-keyboard-response,464,952874,0.0-236.0-1.0,null,<p></p>,,null,,,,,,,,,,,,,,,,
,do_recog,465,956554,0.0-237.0-0.0,2176.6,,,,56,,,,458,probe-253,,,,,0,[object Object],null,null,1,
,html-keyboard-response,466,957555,0.0-237.0-1.0,null,<p></p>,,null,,,,,,,,,,,,,,,,
,do_trial,467,960632,0.0-238.0-0.0,556.6,,,,51,"0,0,0",6,blank,459,null,0.612013327,0.446423499,0.056286123,0,,,,,,
,html-keyboard-response,468,961634,0.0-238.0-1.0,null,<p></p>,,null,,,,,,,,,,,,,,,,
,do_trial,469,964605,0.0-239.0-0.0,450.8,,,,50,"0,0,0",6,blank,460,null,0.616607157,0.369163271,0.054584249,0,,,,,,
,html-keyboard-response,470,965607,0.0-239.0-1.0,null,<p></p>,,null,,,,,,,,,,,,,,,,
,do_trial,471,968450,0.0-240.0-0.0,323.3,,,,51,"1,0,0",6,blank,461,null,0.526569382,0.357909156,0.140648225,0,,,,,,
,html-keyboard-response,472,969451,0.0-240.0-1.0,null,<p></p>,,null,,,,,,,,,,,,,,,,
,do_trial,473,972344,0.0-241.0-0.0,372.4,,,,51,"1,0,1",6,blank,462,null,0.57645951,0.229669867,0.29658072,1,,,,,,
,html-keyboard-response,474,973345,0.0-241.0-1.0,null,<p></p>,,null,,,,,,,,,,,,,,,,
,do_recog,475,976049,0.0-242.0-0.0,1201.8,,,,53,,,,463,probe-235,,,,,0,[object Object],null,null,0,
,html-keyboard-response,476,977050,0.0-242.0-1.0,null,<p></p>,,null,,,,,,,,,,,,,,,,
,do_trial,477,979821,0.0-243.0-0.0,249.4,,,,51,"1,0,0",6,blank,464,null,0.757619576,0.133751062,0.31382415,0,,,,,,
,html-keyboard-response,478,980822,0.0-243.0-1.0,null,<p></p>,,null,,,,,,,,,,,,,,,,
,do_trial,479,983411,0.0-244.0-0.0,68.8,,,,50,"1,0,1",6,blank,465,null,0.81976143,0.129202188,0.307759814,0,,,,,,
,html-keyboard-response,480,984412,0.0-244.0-1.0,null,<p></p>,,null,,,,,,,,,,,,,,,,
,do_trial,481,986963,0.0-245.0-0.0,30.90000001,,,,51,"1,1,1",6,blank,466,null,0.910359891,0.146187727,0.271948316,1,,,,,,
,html-keyboard-response,482,987965,0.0-245.0-1.0,null,<p></p>,,null,,,,,,,,,,,,,,,,
,do_trial,483,990762,0.0-246.0-0.0,276.9,,,,51,"0,0,0",6,blank,467,null,0.679401165,0.215894958,0.425471919,0,,,,,,
,html-keyboard-response,484,991763,0.0-246.0-1.0,null,<p></p>,,null,,,,,,,,,,,,,,,,
,do_recog,485,995310,0.0-247.0-0.0,2044.1,,,,53,,,,468,probe-246,,,,,0,[object Object],null,null,0,
,html-keyboard-response,486,996311,0.0-247.0-1.0,null,<p></p>,,null,,,,,,,,,,,,,,,,
,do_trial,487,999346,0.0-248.0-0.0,514,,,,51,"1,0,0",6,blank,469,null,0.668977318,0.205549745,0.328850612,0,,,,,,
,html-keyboard-response,488,1000347,0.0-248.0-1.0,null,<p></p>,,null,,,,,,,,,,,,,,,,
,do_trial,489,1003229,0.0-249.0-0.0,362,,,,50,"1,0,1",6,blank,470,null,0.479001241,0.18486619,0.344604902,0,,,,,,
,html-keyboard-response,490,1004230,0.0-249.0-1.0,null,<p></p>,,null,,,,,,,,,,,,,,,,
,do_trial,491,1006953,0.0-250.0-0.0,203.1,,,,50,"0,0,0",6,blank,471,null,0.554440128,0.195677144,0.320314208,0,,,,,,
,html-keyboard-response,492,1007954,0.0-250.0-1.0,null,<p></p>,,null,,,,,,,,,,,,,,,,
,do_trial,493,1010806,0.0-251.0-0.0,331.5,,,,49,"1,0,1",6,blank,472,null,0.536916378,0.187091213,0.306733213,1,,,,,,
,html-keyboard-response,494,1011808,0.0-251.0-1.0,null,<p></p>,,null,,,,,,,,,,,,,,,,
,do_trial,495,1014607,0.0-252.0-0.0,278.3,,,,49,"1,0,0",6,blank,473,null,0.497314541,0.197796229,0.291978147,1,,,,,,
,html-keyboard-response,496,1015608,0.0-252.0-1.0,null,<p></p>,,null,,,,,,,,,,,,,,,,
,do_trial,497,1018320,0.0-253.0-0.0,192.6,,,,49,"1,0,0",6,blank,474,null,0.657808222,0.211883346,0.24596128,1,,,,,,
,html-keyboard-response,498,1019322,0.0-253.0-1.0,null,<p></p>,,null,,,,,,,,,,,,,,,,
,do_trial,499,1022022,0.0-254.0-0.0,178.6,,,,49,"1,0,1",6,blank,475,null,0.50634116,0.113688668,0.173782342,1,,,,,,
,html-keyboard-response,500,1023024,0.0-254.0-1.0,null,<p></p>,,null,,,,,,,,,,,,,,,,
,do_recog,501,1026749,0.0-255.0-0.0,2223,,,,56,,,,476,probe-240,,,,,0,[object Object],null,null,1,
,html-keyboard-response,502,1027750,0.0-255.0-1.0,null,<p></p>,,null,,,,,,,,,,,,,,,,
,do_trial,503,1030530,0.0-256.0-0.0,259.3,,,,49,"0,0,0",6,blank,477,null,0.561212229,0.087494854,0.389237642,0,,,,,,
,html-keyboard-response,504,1031531,0.0-256.0-1.0,null,<p></p>,,null,,,,,,,,,,,,,,,,
,do_trial,505,1034239,0.0-257.0-0.0,187.9,,,,50,"0,1,1",6,blank,478,null,0.633440352,0.118650605,0.389696231,1,,,,,,
,html-keyboard-response,506,1035241,0.0-257.0-1.0,null,<p></p>,,null,,,,,,,,,,,,,,,,
,do_recog,507,1038719,0.0-258.0-0.0,1974.9,,,,53,,,,479,probe-236,,,,,0,[object Object],null,null,0,
,html-keyboard-response,508,1039720,0.0-258.0-1.0,null,<p></p>,,null,,,,,,,,,,,,,,,,
,do_pick_best_pirate,509,1041160,0.0-259.0-0.0,437.9,,,,50,,,,,,,,,,,,,,,
,do_pick_best_pirate,510,1044611,0.0-260.0-0.0,2448.2,,,,49,,,,,,,,,,,,,,,
,do_pick_best_pirate,511,1048758,0.0-261.0-0.0,3144.4,,,,51,,,,,,,,,,,,,,,
,do_pick_best_pirate,512,1052763,0.0-262.0-0.0,3003.3,,,,50,,,,,,,,,,,,,,,
,do_pick_best_pirate,513,1055415,0.0-263.0-0.0,1648.7,,,,50,,,,,,,,,,,,,,,
,do_pick_best_pirate,514,1057322,0.0-264.0-0.0,903.8,,,,51,,,,,,,,,,,,,,,
,html-keyboard-response,515,1064602,0.0-265.0-0.0,7279.5,<p>You are all done with the experiment!</p><p> You made $15 plus $3 in bonus payment!</p><p>Thank you for participating. You will recieve your payment within 3 days.<p><b>[Press the space bar to end the experiment]</b></p></div>,,32,,,,,,,,,,,,,,,,