"success","trial_type","trial_index","time_elapsed","internal_node_id","interactions","blur_events","focus_events","fullscreenenter_events","fullscreenexit_events","rt","stimulus","key_press","subject_id","participant_id","age","gender","prompt","response","choice_outcomes","context_n","context_img_id","trial_n","probe_img_id","pR_red","pR_white","pR_black","outcome","is_valid","image_to_show","probed_trial","probed_context","correct","probe","probed_trial_n","probed_context_n","context_im"
"true","fullscreen","0","3835","0.0-0.0","""event"",""trial"",""time""
""fullscreenenter"",""0"",""2898""
","
","
","""event"",""trial"",""time""
""fullscreenenter"",""0"",""2898""
","
","","","","","","","","","","","","","","","","","","","","","","","","","","",""
"","pavlovia","1","3842","0.0-1.0","""event"",""trial"",""time""
""fullscreenenter"",""0"",""2898""
","
","
","""event"",""trial"",""time""
""fullscreenenter"",""0"",""2898""
","
","","","","","","","","","","","","","","","","","","","","","","","","","","",""
"","welc_back","2","13653","0.0-2.0","""event"",""trial"",""time""
""fullscreenenter"",""0"",""2898""
","
","
","""event"",""trial"",""time""
""fullscreenenter"",""0"",""2898""
","
","null","run_exp/static/audio/clip_29_welcome_back.m4a","null","2127","2144","13","Female","<div class='center'><p>Welcome to day 2!</p><p> Yesterday, you were the head captain of a pirate ship. You asked your fellow pirates to rob other ships of their gold across six different islands.</p></div>","","","","","","","","","","","","","","","","","","",""
"","html-keyboard-response","3","14898","0.0-3.0","""event"",""trial"",""time""
""fullscreenenter"",""0"",""2898""
","
","
","""event"",""trial"",""time""
""fullscreenenter"",""0"",""2898""
","
","1242.5","<div class='center'><p>Welcome to day 2!</p><p> Yesterday, you were the head captain of a pirate ship. You asked your fellow pirates to rob other ships of their gold across six different islands.</p><p><b>[Press the space bar to continue]</b></p></div>","32","","","","","","","","","","","","","","","","","","","","","","","",""
"","day_1_summary_goal","4","32132","0.0-4.0","""event"",""trial"",""time""
""fullscreenenter"",""0"",""2898""
","
","
","""event"",""trial"",""time""
""fullscreenenter"",""0"",""2898""
","
","null","run_exp/static/audio/clip_30_goal_of_game.m4a","null","","","","","<div class='center'><p>Today, like yesterday, you get to pick which pirate you want to rob the next ship.</p><p>If the pirate is successful in robbing a ship, you get gold coins that look like this: </p><p><img src='run_exp/static/images/tutorial/reward.png' height='150'></p><p> If they were not successful in robbing the ship, then you will get no gold coins and you'll see a big red x like this: </p><p><img src='run_exp/static/images/tutorial/reward_no.png' height='150'></p></div>","","","","","","","","","","","","","","","","","","",""
"","html-keyboard-response","5","32723","0.0-5.0","""event"",""trial"",""time""
""fullscreenenter"",""0"",""2898""
","
","
","""event"",""trial"",""time""
""fullscreenenter"",""0"",""2898""
","
","588.3000001907349","<div class='center'><p>Today, like yesterday, you get to pick which pirate you want to rob the next ship.</p><p>If the pirate is successful in robbing a ship, you get gold coins that look like this: </p><p><img src='run_exp/static/images/tutorial/reward.png' height='150'></p><p> If they were not successful in robbing the ship, then you will get no gold coins and you'll see a big red x like this: </p><p><img src='run_exp/static/images/tutorial/reward_no.png' height='150'></p><p><b>[Press the space bar to continue]</b></p></div>","32","","","","","","","","","","","","","","","","","","","","","","","",""
"","day_1_summary_pick","6","47425","0.0-6.0","""event"",""trial"",""time""
""fullscreenenter"",""0"",""2898""
","
","
","""event"",""trial"",""time""
""fullscreenenter"",""0"",""2898""
","
","null","run_exp/static/audio/clip_31_how_to_pick_a_pirate.m4a","null","","","","","<div class='center'><p>Also, just like yesterday, you will use the 1,2,3 keys on your keyboard to pick a pirate. Press '1' to choose red beard, '2' to choose white beard, and '3' to choose black beard . You only have 3 seconds to pick a pirate, so please make a choice quickly!</p></div>","","","","","","","","","","","","","","","","","","",""
"","html-keyboard-response","7","47951","0.0-7.0","""event"",""trial"",""time""
""fullscreenenter"",""0"",""2898""
","
","
","""event"",""trial"",""time""
""fullscreenenter"",""0"",""2898""
","
","525.5","<div class='center'><p>Also, just like yesterday, you will use the 1,2,3 keys on your keyboard to pick a pirate. Press '1' to choose red beard, '2' to choose white beard, and '3' to choose black beard . You only have 3 seconds to pick a pirate, so please make a choice quickly!</p><p><b>[Press the space bar to continue]</b></p></div>","32","","","","","","","","","","","","","","","","","","","","","","","",""
"","test_phase_begin","8","78359","0.0-8.0","""event"",""trial"",""time""
""fullscreenenter"",""0"",""2898""
","
","
","""event"",""trial"",""time""
""fullscreenenter"",""0"",""2898""
","
","null","run_exp/static/audio/clip_32_final_place.m4a","null","","","","","<div class='center'><p>You’ve arrived at the final island of your journey! Unfortunately, it’s very foggy out, so you won’t be able to see it in the distance like the other islands you've visited.</p><p>You’ll still be deciding which pirate you want to rob a ship like before. However, because of the fog, you also won’t be able to see the ship.</p><p>This means you do not have to remember the ships you rob on this island.</p><p>Unlike yesterday, you won't be visiting multiple islands today. You will stay on this island for the entire game. This game will last ~30 minutes.</p></div>","","","","","","","","","","","","","","","","","","",""
"","html-keyboard-response","9","79644","0.0-9.0","""event"",""trial"",""time""
""fullscreenenter"",""0"",""2898""
","
","
","""event"",""trial"",""time""
""fullscreenenter"",""0"",""2898""
","
","1284.0999999046326","<div class='center'><p>You’ve arrived at the final island of your journey! Unfortunately, it’s very foggy out, so you won’t be able to see it in the distance like the other islands you've visited.</p><p>You’ll still be deciding which pirate you want to rob a ship like before. However, because of the fog, you also won’t be able to see the ship.</p><p>This means you do not have to remember the ships you rob on this island.</p><p>Unlike yesterday, you won't be visiting multiple islands today. You will stay on this island for the entire game. This game will last ~30 minutes.</p><p><b>[Press the space bar to continue]</b></p></div>","32","","","","","","","","","","","","","","","","","","","","","","","",""
"","explain_probe_1","10","87380","0.0-10.0","""event"",""trial"",""time""
""fullscreenenter"",""0"",""2898""
","
","
","""event"",""trial"",""time""
""fullscreenenter"",""0"",""2898""
","
","null","run_exp/static/audio/clip_33_recognition_1.m4a","null","","","","","<div class='center'><p> Sometimes you’ll be shown a ship, and you will be asked if you saw this ship on a past island.</p><p> Here is an example of what you will see.</p><p><img src='run_exp/static/images/tutorial/example_recog_trial.png' height='500'></p></div>","","","","","","","","","","","","","","","","","","",""
"","html-keyboard-response","11","88617","0.0-11.0","""event"",""trial"",""time""
""fullscreenenter"",""0"",""2898""
","
","
","""event"",""trial"",""time""
""fullscreenenter"",""0"",""2898""
","
","1234.0999999046326","<div class='center'><p> Sometimes you’ll be shown a ship, and you will be asked if you saw this ship on a past island.</p><p> Here is an example of what you will see.</p><p><img src='run_exp/static/images/tutorial/example_recog_trial.png' height='500'></p><p><b>[Press the space bar to continue]</b></p></div>","32","","","","","","","","","","","","","","","","","","","","","","","",""
"","explain_probe_2","12","110337","0.0-12.0","""event"",""trial"",""time""
""fullscreenenter"",""0"",""2898""
","
","
","""event"",""trial"",""time""
""fullscreenenter"",""0"",""2898""
","
","null","run_exp/static/audio/clip_34_recognition_2.m4a","null","","","","","<div class='center'><p> You will press the 5, 6, 7, 8 keys on your keyboard to respond.</p><p>If you are sure you saw the ship, press <b>5</b> on your keyboard.</p><p> If you think you saw it before but aren't sure, then press <b>6</b>.</p><p> If you think you have <b>not</b> seen it before but aren't sure, then press <b>7</b>.</p><p> If you are sure you did <b>not</b> see the ship before, then press <b>8</b>.</p><p><img src='run_exp/static/images/tutorial/example_recog_trial.png' height='500'></p></div>","","","","","","","","","","","","","","","","","","",""
"","html-keyboard-response","13","110757","0.0-13.0","""event"",""trial"",""time""
""fullscreenenter"",""0"",""2898""
","
","
","""event"",""trial"",""time""
""fullscreenenter"",""0"",""2898""
","
","416.5","<div class='center'><p> You will press the 5, 6, 7, 8 keys on your keyboard to respond.</p><p>If you are sure you saw the ship, press <b>5</b> on your keyboard.</p><p> If you think you saw it before but aren't sure, then press <b>6</b>.</p><p> If you think you have <b>not</b> seen it before but aren't sure, then press <b>7</b>.</p><p> If you are sure you did <b>not</b> see the ship before, then press <b>8</b>.</p><p><img src='run_exp/static/images/tutorial/example_recog_trial.png' height='500'></p><p><b>[Press the space bar to continue]</b></p></div>","32","","","","","","","","","","","","","","","","","","","","","","","",""
"","explain_outcome","14","128001","0.0-14.0","""event"",""trial"",""time""
""fullscreenenter"",""0"",""2898""
","
","
","""event"",""trial"",""time""
""fullscreenenter"",""0"",""2898""
","
","null","run_exp/static/audio/clip_35_recognition_3.m4a","null","","","","","<div class='center'><p> If you remember correctly, then you’ll get a gold coin like this: </p><p><img src='run_exp/static/images/tutorial/reward_small.png' height='200'></p><p>If you do not remember correctly, then you'll see a red x like this: </p><p><img src='run_exp/static/images/tutorial/reward_no.png' height='200'></p><p>Importantly, when you are shown a ship, take the time to remind yourself which island you saw it on. This will help you in the next part of the study.</p></div>","","","","","","","","","","","","","","","","","","",""
"","html-keyboard-response","15","129172","0.0-15.0","""event"",""trial"",""time""
""fullscreenenter"",""0"",""2898""
","
","
","""event"",""trial"",""time""
""fullscreenenter"",""0"",""2898""
","
","1164.3999996185303","<div class='center'><p> If you remember correctly, then you’ll get a gold coin like this: </p><p><img src='run_exp/static/images/tutorial/reward_small.png' height='200'></p><p>If you do not remember correctly, then you'll see a red x like this: </p><p><img src='run_exp/static/images/tutorial/reward_no.png' height='200'></p><p>Importantly, when you are shown a ship, take the time to remind yourself which island you saw it on. This will help you in the next part of the study.</p><p><b>[Press the space bar to continue]</b></p></div>","32","","","","","","","","","","","","","","","","","","","","","","","",""
"","begin_test_phase","16","145004","0.0-16.0","""event"",""trial"",""time""
""fullscreenenter"",""0"",""2898""
","
","
","""event"",""trial"",""time""
""fullscreenenter"",""0"",""2898""
","
","null","run_exp/static/audio/clip_36_begin_final.m4a","null","","","","","<div class='center'><p>Let's go over the important points again. Your job is to: </p><p>1. Pick the pirate who is best at robbing ships and will bring you back gold coins. </p><p>2. Correctly remember whether or not you saw a ship before. If you did see the ship before, remind yourself on which island you saw it. </p></div>","","","","","","","","","","","","","","","","","","",""
"","html-keyboard-response","17","145880","0.0-17.0","""event"",""trial"",""time""
""fullscreenenter"",""0"",""2898""
","
","
","""event"",""trial"",""time""
""fullscreenenter"",""0"",""2898""
","
","815.5","<div class='center'><p>Let's go over the important points again. Your job is to: </p><p>1. Pick the pirate who is best at robbing ships and will bring you back gold coins. </p><p>2. Correctly remember whether or not you saw a ship before. If you did see the ship before, remind yourself on which island you saw it. </p><p><b>[Press the space bar to continue]</b></p></div>","32","","","","","","","","","","","","","","","","","","","","","","","",""
"","do_welcome","18","149903","0.0-18.0","""event"",""trial"",""time""
""fullscreenenter"",""0"",""2898""
","
","
","""event"",""trial"",""time""
""fullscreenenter"",""0"",""2898""
","
","null","","","","","","","","null","","","","","","","","","","","","","","","","","",""
"","do_trial","19","153988","0.0-19.0-0.0","""event"",""trial"",""time""
""fullscreenenter"",""0"",""2898""
","
","
","""event"",""trial"",""time""
""fullscreenenter"",""0"",""2898""
","
","1510.8000001907349","","","","","","","","49","1,1,0","6","blank","230","null","0.6616464851638884","0.32671110573187456","0.2288726938502353","1","","","","","","","","",""
"","html-keyboard-response","20","155002","0.0-19.0-1.0","""event"",""trial"",""time""
""fullscreenenter"",""0"",""2898""
","
","
","""event"",""trial"",""time""
""fullscreenenter"",""0"",""2898""
","
","null","<p></p>","null","","","","","","","","","","","","","","","","","","","","","","","",""
"","do_trial","21","158043","0.0-20.0-0.0","""event"",""trial"",""time""
""fullscreenenter"",""0"",""2898""
","
","
","""event"",""trial"",""time""
""fullscreenenter"",""0"",""2898""
","
","479.30000019073486","","","","","","","","50","1,1,0","6","blank","231","null","0.7046763432063559","0.3151876613966727","0.10677639126765413","1","","","","","","","","",""
"","html-keyboard-response","22","159053","0.0-20.0-1.0","""event"",""trial"",""time""
""fullscreenenter"",""0"",""2898""
","
","
","""event"",""trial"",""time""
""fullscreenenter"",""0"",""2898""
","
","null","<p></p>","null","","","","","","","","","","","","","","","","","","","","","","","",""
"","do_trial","23","161980","0.0-21.0-0.0","""event"",""trial"",""time""
""fullscreenenter"",""0"",""2898""
","
","
","""event"",""trial"",""time""
""fullscreenenter"",""0"",""2898""
","
","351.7000002861023","","","","","","","","49","1,1,0","6","blank","232","null","0.6294987204633187","0.11989657996496757","0.06487837438941922","1","","","","","","","","",""
"","html-keyboard-response","24","162983","0.0-21.0-1.0","""event"",""trial"",""time""
""fullscreenenter"",""0"",""2898""
","
","
","""event"",""trial"",""time""
""fullscreenenter"",""0"",""2898""
","
","null","<p></p>","null","","","","","","","","","","","","","","","","","","","","","","","",""
"","do_trial","25","165766","0.0-22.0-0.0","""event"",""trial"",""time""
""fullscreenenter"",""0"",""2898""
","
","
","""event"",""trial"",""time""
""fullscreenenter"",""0"",""2898""
","
","214.5","","","","","","","","49","1,1,0","6","blank","233","null","0.5900008544128026","0.28153917989678023","0.14309715223724773","1","","","","","","","","",""
"","html-keyboard-response","26","166772","0.0-22.0-1.0","""event"",""trial"",""time""
""fullscreenenter"",""0"",""2898""
","
","
","""event"",""trial"",""time""
""fullscreenenter"",""0"",""2898""
","
","null","<p></p>","null","","","","","","","","","","","","","","","","","","","","","","","",""
"","do_trial","27","169693","0.0-23.0-0.0","""event"",""trial"",""time""
""fullscreenenter"",""0"",""2898""
","
","
","""event"",""trial"",""time""
""fullscreenenter"",""0"",""2898""
","
","357.59999990463257","","","","","","","","49","1,0,0","6","blank","234","null","0.6248831355642152","0.2629426637206087","0.13652953225387077","1","","","","","","","","",""
"","html-keyboard-response","28","170696","0.0-23.0-1.0","""event"",""trial"",""time""
""fullscreenenter"",""0"",""2898""
","
","
","""event"",""trial"",""time""
""fullscreenenter"",""0"",""2898""
","
","null","<p></p>","null","","","","","","","","","","","","","","","","","","","","","","","",""
"","do_trial","29","173690","0.0-24.0-0.0","""event"",""trial"",""time""
""fullscreenenter"",""0"",""2898""
","
","
","""event"",""trial"",""time""
""fullscreenenter"",""0"",""2898""
","
","441.30000019073486","","","","","","","","49","1,0,1","6","blank","235","null","0.6070738270353132","0.4122721090277285","0.13805275391607458","1","","","","","","","","",""
"","html-keyboard-response","30","174697","0.0-24.0-1.0","""event"",""trial"",""time""
""fullscreenenter"",""0"",""2898""
","
","
","""event"",""trial"",""time""
""fullscreenenter"",""0"",""2898""
","
","null","<p></p>","null","","","","","","","","","","","","","","","","","","","","","","","",""
"","do_trial","31","177612","0.0-25.0-0.0","""event"",""trial"",""time""
""fullscreenenter"",""0"",""2898""
","
","
","""event"",""trial"",""time""
""fullscreenenter"",""0"",""2898""
","
","348.3999996185303","","","","","","","","49","1,1,0","6","blank","236","null","0.7878324955007056","0.4238474114438891","0.3094071915673787","1","","","","","","","","",""
"","html-keyboard-response","32","178631","0.0-25.0-1.0","""event"",""trial"",""time""
""fullscreenenter"",""0"",""2898""
","
","
","""event"",""trial"",""time""
""fullscreenenter"",""0"",""2898""
","
","null","<p></p>","null","","","","","","","","","","","","","","","","","","","","","","","",""
"","do_trial","33","181191","0.0-26.0-0.0","""event"",""trial"",""time""
""fullscreenenter"",""0"",""2898""
","
","
","""event"",""trial"",""time""
""fullscreenenter"",""0"",""2898""
","
","0.19999980926513672","","","","","","","","49","1,0,0","6","blank","237","null","0.6356505976990794","0.3460961976489281","0.33455433373692084","1","","","","","","","","",""
"","html-keyboard-response","34","182199","0.0-26.0-1.0","""event"",""trial"",""time""
""fullscreenenter"",""0"",""2898""
","
","
","""event"",""trial"",""time""
""fullscreenenter"",""0"",""2898""
","
","null","<p></p>","null","","","","","","","","","","","","","","","","","","","","","","","",""
"","do_trial","35","185590","0.0-27.0-0.0","""event"",""trial"",""time""
""fullscreenenter"",""0"",""2898""
","
","
","""event"",""trial"",""time""
""fullscreenenter"",""0"",""2898""
","
","819","","","","","","","","49","1,1,0","6","blank","238","null","0.6485994117566405","0.38569977162366587","0.10886567830351655","1","","","","","","","","",""
"","html-keyboard-response","36","186597","0.0-27.0-1.0","""event"",""trial"",""time""
""fullscreenenter"",""0"",""2898""
","
","
","""event"",""trial"",""time""
""fullscreenenter"",""0"",""2898""
","
","null","<p></p>","null","","","","","","","","","","","","","","","","","","","","","","","",""
"","do_trial","37","189415","0.0-28.0-0.0","""event"",""trial"",""time""
""fullscreenenter"",""0"",""2898""
","
","
","""event"",""trial"",""time""
""fullscreenenter"",""0"",""2898""
","
","244.90000009536743","","","","","","","","49","0,0,0","6","blank","239","null","0.6089610988749928","0.29793060553101786","0.06285948223999345","0","","","","","","","","",""
"","html-keyboard-response","38","190431","0.0-28.0-1.0","""event"",""trial"",""time""
""fullscreenenter"",""0"",""2898""
","
","
","""event"",""trial"",""time""
""fullscreenenter"",""0"",""2898""
","
","null","<p></p>","null","","","","","","","","","","","","","","","","","","","","","","","",""
"","do_trial","39","193242","0.0-29.0-0.0","""event"",""trial"",""time""
""fullscreenenter"",""0"",""2898""
","
","
","""event"",""trial"",""time""
""fullscreenenter"",""0"",""2898""
","
","239.2000002861023","","","","","","","","49","1,1,0","6","blank","240","null","0.7615917446541337","0.21120747086742758","0.06080291107609021","1","","","","","","","","",""
"","html-keyboard-response","40","194255","0.0-29.0-1.0","""event"",""trial"",""time""
""fullscreenenter"",""0"",""2898""
","
","
","""event"",""trial"",""time""
""fullscreenenter"",""0"",""2898""
","
","null","<p></p>","null","","","","","","","","","","","","","","","","","","","","","","","",""
"","do_trial","41","197033","0.0-30.0-0.0","""event"",""trial"",""time""
""fullscreenenter"",""0"",""2898""
","
","
","""event"",""trial"",""time""
""fullscreenenter"",""0"",""2898""
","
","208","","","","","","","","49","1,1,0","6","blank","241","null","0.7724518476305715","0.1619843635576783","0.058537383597593716","1","","","","","","","","",""
"","html-keyboard-response","42","198045","0.0-30.0-1.0","""event"",""trial"",""time""
""fullscreenenter"",""0"",""2898""
","
","
","""event"",""trial"",""time""
""fullscreenenter"",""0"",""2898""
","
","null","<p></p>","null","","","","","","","","","","","","","","","","","","","","","","","",""
"","do_trial","43","200619","0.0-31.0-0.0","""event"",""trial"",""time""
""fullscreenenter"",""0"",""2898""
","
","
","""event"",""trial"",""time""
""fullscreenenter"",""0"",""2898""
","
","0.3000001907348633","","","","","","","","49","1,0,1","6","blank","242","null","0.6152767570297528","0.06039385031135664","0.1804627911894644","1","","","","","","","","",""
"","html-keyboard-response","44","201624","0.0-31.0-1.0","""event"",""trial"",""time""
""fullscreenenter"",""0"",""2898""
","
","
","""event"",""trial"",""time""
""fullscreenenter"",""0"",""2898""
","
","null","<p></p>","null","","","","","","","","","","","","","","","","","","","","","","","",""
"","do_trial","45","204505","0.0-32.0-0.0","""event"",""trial"",""time""
""fullscreenenter"",""0"",""2898""
","
","
","""event"",""trial"",""time""
""fullscreenenter"",""0"",""2898""
","
","319.40000009536743","","","","","","","","49","1,1,1","6","blank","243","null","0.48039301462427403","0.1577046760605557","0.2598220659087803","1","","","","","","","","",""
"","html-keyboard-response","46","205511","0.0-32.0-1.0","""event"",""trial"",""time""
""fullscreenenter"",""0"",""2898""
","
","
","""event"",""trial"",""time""
""fullscreenenter"",""0"",""2898""
","
","null","<p></p>","null","","","","","","","","","","","","","","","","","","","","","","","",""
"","do_recog","47","211527","0.0-33.0-0.0","""event"",""trial"",""time""
""fullscreenenter"",""0"",""2898""
","
","
","""event"",""trial"",""time""
""fullscreenenter"",""0"",""2898""
","
","null","","","","","","","","null","","","","244","probe-188","","","","","1","[object Object]","36","0","0","","","",""
"","html-keyboard-response","48","212535","0.0-33.0-1.0","""event"",""trial"",""time""
""fullscreenenter"",""0"",""2898""
","
","
","""event"",""trial"",""time""
""fullscreenenter"",""0"",""2898""
","
","null","<p></p>","null","","","","","","","","","","","","","","","","","","","","","","","",""
"","do_trial","49","216139","0.0-34.0-0.0","""event"",""trial"",""time""
""fullscreenenter"",""0"",""2898""
","
","
","""event"",""trial"",""time""
""fullscreenenter"",""0"",""2898""
","
","1047.5999999046326","","","","","","","","49","1,0,0","6","blank","245","null","0.4580708497089658","0.08007170283304577","0.3312762382186233","1","","","","","","","","",""
"","html-keyboard-response","50","217142","0.0-34.0-1.0","""event"",""trial"",""time""
""fullscreenenter"",""0"",""2898""
","
","
","""event"",""trial"",""time""
""fullscreenenter"",""0"",""2898""
","
","null","<p></p>","null","","","","","","","","","","","","","","","","","","","","","","","",""
"","do_trial","51","220286","0.0-35.0-0.0","""event"",""trial"",""time""
""fullscreenenter"",""0"",""2898""
","
","
","""event"",""trial"",""time""
""fullscreenenter"",""0"",""2898""
","
","579.3000001907349","","","","","","","","49","0,0,0","6","blank","246","null","0.28946789081188173","0.07970478942814826","0.37710803391823783","0","","","","","","","","",""
"","html-keyboard-response","52","221292","0.0-35.0-1.0","""event"",""trial"",""time""
""fullscreenenter"",""0"",""2898""
","
","
","""event"",""trial"",""time""
""fullscreenenter"",""0"",""2898""
","
","null","<p></p>","null","","","","","","","","","","","","","","","","","","","","","","","",""
"","do_trial","53","224101","0.0-36.0-0.0","""event"",""trial"",""time""
""fullscreenenter"",""0"",""2898""
","
","
","""event"",""trial"",""time""
""fullscreenenter"",""0"",""2898""
","
","242.90000009536743","","","","","","","","49","1,0,0","6","blank","247","null","0.27067619100169654","0.05713326789437323","0.5156670361249674","1","","","","","","","","",""
"","html-keyboard-response","54","225109","0.0-36.0-1.0","""event"",""trial"",""time""
""fullscreenenter"",""0"",""2898""
","
","
","""event"",""trial"",""time""
""fullscreenenter"",""0"",""2898""
","
","null","<p></p>","null","","","","","","","","","","","","","","","","","","","","","","","",""
"","do_trial","55","227999","0.0-37.0-0.0","""event"",""trial"",""time""
""fullscreenenter"",""0"",""2898""
","
","
","""event"",""trial"",""time""
""fullscreenenter"",""0"",""2898""
","
","329.40000009536743","","","","","","","","49","0,0,0","6","blank","248","null","0.16803630042093887","0.09729153887871751","0.6209292094980897","0","","","","","","","","",""
"","html-keyboard-response","56","229013","0.0-37.0-1.0","""event"",""trial"",""time""
""fullscreenenter"",""0"",""2898""
","
","
","""event"",""trial"",""time""
""fullscreenenter"",""0"",""2898""
","
","null","<p></p>","null","","","","","","","","","","","","","","","","","","","","","","","",""
"","do_recog","57","232355","0.0-38.0-0.0","""event"",""trial"",""time""
""fullscreenenter"",""0"",""2898""
","
","
","""event"",""trial"",""time""
""fullscreenenter"",""0"",""2898""
","
","1831","","","","","","","","53","","","","249","probe-209","","","","","1","[object Object]","155","3","1","","","",""
"","html-keyboard-response","58","233371","0.0-38.0-1.0","""event"",""trial"",""time""
""fullscreenenter"",""0"",""2898""
","
","
","""event"",""trial"",""time""
""fullscreenenter"",""0"",""2898""
","
","null","<p></p>","null","","","","","","","","","","","","","","","","","","","","","","","",""
"","do_trial","59","237111","0.0-39.0-0.0","""event"",""trial"",""time""
""fullscreenenter"",""0"",""2898""
","
","
","""event"",""trial"",""time""
""fullscreenenter"",""0"",""2898""
","
","1181.5999999046326","","","","","","","","50","0,0,0","6","blank","250","null","0.20815098159906137","0.07156089613409856","0.7102827377594989","0","","","","","","","","",""
"","html-keyboard-response","60","238116","0.0-39.0-1.0","""event"",""trial"",""time""
""fullscreenenter"",""0"",""2898""
","
","
","""event"",""trial"",""time""
""fullscreenenter"",""0"",""2898""
","
","null","<p></p>","null","","","","","","","","","","","","","","","","","","","","","","","",""
"","do_recog","61","241793","0.0-40.0-0.0","""event"",""trial"",""time""
""fullscreenenter"",""0"",""2898""
","
","
","""event"",""trial"",""time""
""fullscreenenter"",""0"",""2898""
","
","2168.1000003814697","","","","","","","","55","","","","251","probe-145","","","","","1","[object Object]","193","4","0","","","",""
"","html-keyboard-response","62","242811","0.0-40.0-1.0","""event"",""trial"",""time""
""fullscreenenter"",""0"",""2898""
","
","
","""event"",""trial"",""time""
""fullscreenenter"",""0"",""2898""
","
","null","<p></p>","null","","","","","","","","","","","","","","","","","","","","","","","",""
"","do_trial","63","246206","0.0-41.0-0.0","""event"",""trial"",""time""
""fullscreenenter"",""0"",""2898""
","
","
","""event"",""trial"",""time""
""fullscreenenter"",""0"",""2898""
","
","825.6999998092651","","","","","","","","49","0,0,1","6","blank","252","null","0.12270023532717324","0.12266396421580987","0.7050265702992283","0","","","","","","","","",""
"","html-keyboard-response","64","247221","0.0-41.0-1.0","""event"",""trial"",""time""
""fullscreenenter"",""0"",""2898""
","
","
","""event"",""trial"",""time""
""fullscreenenter"",""0"",""2898""
","
","null","<p></p>","null","","","","","","","","","","","","","","","","","","","","","","","",""
"","do_recog","65","250562","0.0-42.0-0.0","""event"",""trial"",""time""
""fullscreenenter"",""0"",""2898""
","
","
","""event"",""trial"",""time""
""fullscreenenter"",""0"",""2898""
","
","1822.1999998092651","","","","","","","","56","","","","253","probe-135","","","","","1","[object Object]","157","3","0","","","",""
"","html-keyboard-response","66","251576","0.0-42.0-1.0","""event"",""trial"",""time""
""fullscreenenter"",""0"",""2898""
","
","
","""event"",""trial"",""time""
""fullscreenenter"",""0"",""2898""
","
","null","<p></p>","null","","","","","","","","","","","","","","","","","","","","","","","",""
"","do_trial","67","254672","0.0-43.0-0.0","""event"",""trial"",""time""
""fullscreenenter"",""0"",""2898""
","
","
","""event"",""trial"",""time""
""fullscreenenter"",""0"",""2898""
","
","538.7999997138977","","","","","","","","49","1,0,1","6","blank","254","null","0.24544983049079303","0.1286757781665799","0.7208037237485073","1","","","","","","","","",""
"","html-keyboard-response","68","255682","0.0-43.0-1.0","""event"",""trial"",""time""
""fullscreenenter"",""0"",""2898""
","
","
","""event"",""trial"",""time""
""fullscreenenter"",""0"",""2898""
","
","null","<p></p>","null","","","","","","","","","","","","","","","","","","","","","","","",""
"","do_trial","69","258505","0.0-44.0-0.0","""event"",""trial"",""time""
""fullscreenenter"",""0"",""2898""
","
","
","""event"",""trial"",""time""
""fullscreenenter"",""0"",""2898""
","
","257","","","","","","","","49","0,0,0","6","blank","255","null","0.3797418137153178","0.13604385644144326","0.837522828797814","0","","","","","","","","",""
"","html-keyboard-response","70","259518","0.0-44.0-1.0","""event"",""trial"",""time""
""fullscreenenter"",""0"",""2898""
","
","
","""event"",""trial"",""time""
""fullscreenenter"",""0"",""2898""
","
","null","<p></p>","null","","","","","","","","","","","","","","","","","","","","","","","",""
"","do_trial","71","262345","0.0-45.0-0.0","""event"",""trial"",""time""
""fullscreenenter"",""0"",""2898""
","
","
","""event"",""trial"",""time""
""fullscreenenter"",""0"",""2898""
","
","263.80000019073486","","","","","","","","50","1,0,1","6","blank","256","null","0.35570476697619896","0.11109703711869916","0.5387515912365063","0","","","","","","","","",""
"","html-keyboard-response","72","263358","0.0-45.0-1.0","""event"",""trial"",""time""
""fullscreenenter"",""0"",""2898""
","
","
","""event"",""trial"",""time""
""fullscreenenter"",""0"",""2898""
","
","null","<p></p>","null","","","","","","","","","","","","","","","","","","","","","","","",""
"","do_trial","73","266223","0.0-46.0-0.0","""event"",""trial"",""time""
""fullscreenenter"",""0"",""2898""
","
","
","""event"",""trial"",""time""
""fullscreenenter"",""0"",""2898""
","
","297.30000019073486","","","","","","","","50","0,0,0","6","blank","257","null","0.38736092993796","0.08953839668687757","0.4513082255200426","0","","","","","","","","",""
"","html-keyboard-response","74","267226","0.0-46.0-1.0","""event"",""trial"",""time""
""fullscreenenter"",""0"",""2898""
","
","
","""event"",""trial"",""time""
""fullscreenenter"",""0"",""2898""
","
","null","<p></p>","null","","","","","","","","","","","","","","","","","","","","","","","",""
"","do_trial","75","270086","0.0-47.0-0.0","""event"",""trial"",""time""
""fullscreenenter"",""0"",""2898""
","
","
","""event"",""trial"",""time""
""fullscreenenter"",""0"",""2898""
","
","292.09999990463257","","","","","","","","51","1,0,1","6","blank","258","null","0.3812137395533058","0.14365704548484512","0.46140105951516647","1","","","","","","","","",""
"","html-keyboard-response","76","271103","0.0-47.0-1.0","""event"",""trial"",""time""
""fullscreenenter"",""0"",""2898""
","
","
","""event"",""trial"",""time""
""fullscreenenter"",""0"",""2898""
","
","null","<p></p>","null","","","","","","","","","","","","","","","","","","","","","","","",""
"","do_trial","77","274007","0.0-48.0-0.0","""event"",""trial"",""time""
""fullscreenenter"",""0"",""2898""
","
","
","""event"",""trial"",""time""
""fullscreenenter"",""0"",""2898""
","
","344.5","","","","","","","","51","0,0,0","6","blank","259","null","0.36139445632887457","0.10583336455145043","0.5408796865096034","0","","","","","","","","",""
"","html-keyboard-response","78","275012","0.0-48.0-1.0","""event"",""trial"",""time""
""fullscreenenter"",""0"",""2898""
","
","
","""event"",""trial"",""time""
""fullscreenenter"",""0"",""2898""
","
","null","<p></p>","null","","","","","","","","","","","","","","","","","","","","","","","",""
"","do_recog","79","277959","0.0-49.0-0.0","""event"",""trial"",""time""
""fullscreenenter"",""0"",""2898""
","
","
","""event"",""trial"",""time""
""fullscreenenter"",""0"",""2898""
","
","1442.2000002861023","","","","","","","","53","","","","260","probe-171","","","","","1","[object Object]","75","1","1","","","",""
"","html-keyboard-response","80","278974","0.0-49.0-1.0","""event"",""trial"",""time""
""fullscreenenter"",""0"",""2898""
","
","
","""event"",""trial"",""time""
""fullscreenenter"",""0"",""2898""
","
","null","<p></p>","null","","","","","","","","","","","","","","","","","","","","","","","",""
"","do_trial","81","281924","0.0-50.0-0.0","""event"",""trial"",""time""
""fullscreenenter"",""0"",""2898""
","
","
","""event"",""trial"",""time""
""fullscreenenter"",""0"",""2898""
","
","410.40000009536743","","","","","","","","49","0,0,0","6","blank","261","null","0.3933463153377519","0.17599200591610417","0.5903028997475581","0","","","","","","","","",""
"","html-keyboard-response","82","282935","0.0-50.0-1.0","""event"",""trial"",""time""
""fullscreenenter"",""0"",""2898""
","
","
","""event"",""trial"",""time""
""fullscreenenter"",""0"",""2898""
","
","null","<p></p>","null","","","","","","","","","","","","","","","","","","","","","","","",""
"","do_recog","83","285892","0.0-51.0-0.0","""event"",""trial"",""time""
""fullscreenenter"",""0"",""2898""
","
","
","""event"",""trial"",""time""
""fullscreenenter"",""0"",""2898""
","
","1442.0999999046326","","","","","","","","53","","","","262","probe-76","","","","","1","[object Object]","199","4","1","","","",""
"","html-keyboard-response","84","286898","0.0-51.0-1.0","""event"",""trial"",""time""
""fullscreenenter"",""0"",""2898""
","
","
","""event"",""trial"",""time""
""fullscreenenter"",""0"",""2898""
","
","null","<p></p>","null","","","","","","","","","","","","","","","","","","","","","","","",""
"","do_trial","85","289857","0.0-52.0-0.0","""event"",""trial"",""time""
""fullscreenenter"",""0"",""2898""
","
","
","""event"",""trial"",""time""
""fullscreenenter"",""0"",""2898""
","
","395.90000009536743","","","","","","","","49","0,0,0","6","blank","263","null","0.26013814458463513","0.205915868167622","0.6097565140705005","0","","","","","","","","",""
"","html-keyboard-response","86","290862","0.0-52.0-1.0","""event"",""trial"",""time""
""fullscreenenter"",""0"",""2898""
","
","
","""event"",""trial"",""time""
""fullscreenenter"",""0"",""2898""
","
","null","<p></p>","null","","","","","","","","","","","","","","","","","","","","","","","",""
"","do_trial","87","293699","0.0-53.0-0.0","""event"",""trial"",""time""
""fullscreenenter"",""0"",""2898""
","
","
","""event"",""trial"",""time""
""fullscreenenter"",""0"",""2898""
","
","263","","","","","","","","49","0,0,0","6","blank","264","null","0.3351520285004635","0.1655825148618558","0.5816889110359206","0","","","","","","","","",""
"","html-keyboard-response","88","294701","0.0-53.0-1.0","""event"",""trial"",""time""
""fullscreenenter"",""0"",""2898""
","
","
","""event"",""trial"",""time""
""fullscreenenter"",""0"",""2898""
","
","null","<p></p>","null","","","","","","","","","","","","","","","","","","","","","","","",""
"","do_recog","89","298479","0.0-54.0-0.0","""event"",""trial"",""time""
""fullscreenenter"",""0"",""2898""
","
","
","""event"",""trial"",""time""
""fullscreenenter"",""0"",""2898""
","
","2263.5","","","","","","","","53","","","","265","probe-228","","","","","1","[object Object]","77","1","1","","","",""
"","html-keyboard-response","90","299487","0.0-54.0-1.0","""event"",""trial"",""time""
""fullscreenenter"",""0"",""2898""
","
","
","""event"",""trial"",""time""
""fullscreenenter"",""0"",""2898""
","
","null","<p></p>","null","","","","","","","","","","","","","","","","","","","","","","","",""
"","do_trial","91","302482","0.0-55.0-0.0","""event"",""trial"",""time""
""fullscreenenter"",""0"",""2898""
","
","
","""event"",""trial"",""time""
""fullscreenenter"",""0"",""2898""
","
","423.59999990463257","","","","","","","","51","0,0,1","6","blank","266","null","0.25948393663870595","0.26289417642813034","0.577875212143783","1","","","","","","","","",""
"","html-keyboard-response","92","303494","0.0-55.0-1.0","""event"",""trial"",""time""
""fullscreenenter"",""0"",""2898""
","
","
","""event"",""trial"",""time""
""fullscreenenter"",""0"",""2898""
","
","null","<p></p>","null","","","","","","","","","","","","","","","","","","","","","","","",""
"","do_trial","93","306402","0.0-56.0-0.0","""event"",""trial"",""time""
""fullscreenenter"",""0"",""2898""
","
","
","""event"",""trial"",""time""
""fullscreenenter"",""0"",""2898""
","
","342.69999980926514","","","","","","","","51","0,0,1","6","blank","267","null","0.29622189999552007","0.15172309984679383","0.5010775715202972","1","","","","","","","","",""
"","html-keyboard-response","94","307419","0.0-56.0-1.0","""event"",""trial"",""time""
""fullscreenenter"",""0"",""2898""
","
","
","""event"",""trial"",""time""
""fullscreenenter"",""0"",""2898""
","
","null","<p></p>","null","","","","","","","","","","","","","","","","","","","","","","","",""
"","do_trial","95","310263","0.0-57.0-0.0","""event"",""trial"",""time""
""fullscreenenter"",""0"",""2898""
","
","
","""event"",""trial"",""time""
""fullscreenenter"",""0"",""2898""
","
","278.2999997138977","","","","","","","","50","0,0,1","6","blank","268","null","0.31161611412562557","0.18103533797128335","0.5640685899736844","0","","","","","","","","",""
"","html-keyboard-response","96","311272","0.0-57.0-1.0","""event"",""trial"",""time""
""fullscreenenter"",""0"",""2898""
","
","
","""event"",""trial"",""time""
""fullscreenenter"",""0"",""2898""
","
","null","<p></p>","null","","","","","","","","","","","","","","","","","","","","","","","",""
"","break","97","313923","0.0-58.0-0.0","""event"",""trial"",""time""
""fullscreenenter"",""0"",""2898""
","
","
","""event"",""trial"",""time""
""fullscreenenter"",""0"",""2898""
","
","2649.5999999046326","<div class='center'><p>Time to take a quick break! You have 2 minutes to rest, but you can move on sooner if you'd like.</p><p> Press the <b>space bar</b> to continue.</p></div>","32","","","","","","","","","","","","","","","","","","","","","","","",""
"","do_trial","98","317346","0.0-58.0-1.0","""event"",""trial"",""time""
""fullscreenenter"",""0"",""2898""
","
","
","""event"",""trial"",""time""
""fullscreenenter"",""0"",""2898""
","
","870.7000002861023","","","","","","","","49","0,0,1","6","blank","269","null","0.28474446043401475","0.12307365403117208","0.6561988022360233","0","","","","","","","","",""
"","html-keyboard-response","99","318350","0.0-58.0-2.0","""event"",""trial"",""time""
""fullscreenenter"",""0"",""2898""
","
","
","""event"",""trial"",""time""
""fullscreenenter"",""0"",""2898""
","
","null","<p></p>","null","","","","","","","","","","","","","","","","","","","","","","","",""
"","do_trial","100","321180","0.0-59.0-0.0","""event"",""trial"",""time""
""fullscreenenter"",""0"",""2898""
","
","
","""event"",""trial"",""time""
""fullscreenenter"",""0"",""2898""
","
","266.40000009536743","","","","","","","","49","1,0,1","6","blank","270","null","0.26669684871404087","0.051845904319161695","0.6507246272533446","1","","","","","","","","",""
"","html-keyboard-response","101","322186","0.0-59.0-1.0","""event"",""trial"",""time""
""fullscreenenter"",""0"",""2898""
","
","
","""event"",""trial"",""time""
""fullscreenenter"",""0"",""2898""
","
","null","<p></p>","null","","","","","","","","","","","","","","","","","","","","","","","",""
"","do_trial","102","325008","0.0-60.0-0.0","""event"",""trial"",""time""
""fullscreenenter"",""0"",""2898""
","
","
","""event"",""trial"",""time""
""fullscreenenter"",""0"",""2898""
","
","263.80000019073486","","","","","","","","49","1,0,1","6","blank","271","null","0.32289464141012525","0.08797863452355907","0.6871725789908831","1","","","","","","","","",""
"","html-keyboard-response","103","326013","0.0-60.0-1.0","""event"",""trial"",""time""
""fullscreenenter"",""0"",""2898""
","
","
","""event"",""trial"",""time""
""fullscreenenter"",""0"",""2898""
","
","null","<p></p>","null","","","","","","","","","","","","","","","","","","","","","","","",""
"","do_trial","104","328872","0.0-61.0-0.0","""event"",""trial"",""time""
""fullscreenenter"",""0"",""2898""
","
","
","""event"",""trial"",""time""
""fullscreenenter"",""0"",""2898""
","
","288.7999997138977","","","","","","","","49","0,0,1","6","blank","272","null","0.29326043032715077","0.10628848705936912","0.688813653306665","0","","","","","","","","",""
"","html-keyboard-response","105","329888","0.0-61.0-1.0","""event"",""trial"",""time""
""fullscreenenter"",""0"",""2898""
","
","
","""event"",""trial"",""time""
""fullscreenenter"",""0"",""2898""
","
","null","<p></p>","null","","","","","","","","","","","","","","","","","","","","","","","",""
"","do_recog","106","333035","0.0-62.0-0.0","""event"",""trial"",""time""
""fullscreenenter"",""0"",""2898""
","
","
","""event"",""trial"",""time""
""fullscreenenter"",""0"",""2898""
","
","1633.6999998092651","","","","","","","","53","","","","273","probe-128","","","","","1","[object Object]","79","1","1","","","",""
"","html-keyboard-response","107","334052","0.0-62.0-1.0","""event"",""trial"",""time""
""fullscreenenter"",""0"",""2898""
","
","
","""event"",""trial"",""time""
""fullscreenenter"",""0"",""2898""
","
","null","<p></p>","null","","","","","","","","","","","","","","","","","","","","","","","",""
"","do_trial","108","337045","0.0-63.0-0.0","""event"",""trial"",""time""
""fullscreenenter"",""0"",""2898""
","
","
","""event"",""trial"",""time""
""fullscreenenter"",""0"",""2898""
","
","431.6000003814697","","","","","","","","49","0,0,1","6","blank","274","null","0.25453057118890243","0.11602104727998676","0.567573658019703","0","","","","","","","","",""
"","html-keyboard-response","109","338054","0.0-63.0-1.0","""event"",""trial"",""time""
""fullscreenenter"",""0"",""2898""
","
","
","""event"",""trial"",""time""
""fullscreenenter"",""0"",""2898""
","
","null","<p></p>","null","","","","","","","","","","","","","","","","","","","","","","","",""
"","do_trial","110","340836","0.0-64.0-0.0","""event"",""trial"",""time""
""fullscreenenter"",""0"",""2898""
","
","
","""event"",""trial"",""time""
""fullscreenenter"",""0"",""2898""
","
","222.69999980926514","","","","","","","","51","0,0,0","6","blank","275","null","0.13499257928475708","0.19519100797547395","0.6016471545657085","0","","","","","","","","",""
"","html-keyboard-response","111","341841","0.0-64.0-1.0","""event"",""trial"",""time""
""fullscreenenter"",""0"",""2898""
","
","
","""event"",""trial"",""time""
""fullscreenenter"",""0"",""2898""
","
","null","<p></p>","null","","","","","","","","","","","","","","","","","","","","","","","",""
"","do_trial","112","344708","0.0-65.0-0.0","""event"",""trial"",""time""
""fullscreenenter"",""0"",""2898""
","
","
","""event"",""trial"",""time""
""fullscreenenter"",""0"",""2898""
","
","306.7000002861023","","","","","","","","50","0,0,1","6","blank","276","null","0.11861057334174704","0.16909689429295344","0.6069520402375493","0","","","","","","","","",""
"","html-keyboard-response","113","345713","0.0-65.0-1.0","""event"",""trial"",""time""
""fullscreenenter"",""0"",""2898""
","
","
","""event"",""trial"",""time""
""fullscreenenter"",""0"",""2898""
","
","null","<p></p>","null","","","","","","","","","","","","","","","","","","","","","","","",""
"","do_trial","114","348278","0.0-66.0-0.0","""event"",""trial"",""time""
""fullscreenenter"",""0"",""2898""
","
","
","""event"",""trial"",""time""
""fullscreenenter"",""0"",""2898""
","
","0.20000028610229492","","","","","","","","50","0,0,1","6","blank","277","null","0.17062684951951912","0.09489604361393411","0.6633876595741824","0","","","","","","","","",""
"","html-keyboard-response","115","349283","0.0-66.0-1.0","""event"",""trial"",""time""
""fullscreenenter"",""0"",""2898""
","
","
","""event"",""trial"",""time""
""fullscreenenter"",""0"",""2898""
","
","null","<p></p>","null","","","","","","","","","","","","","","","","","","","","","","","",""
"","do_trial","116","352094","0.0-67.0-0.0","""event"",""trial"",""time""
""fullscreenenter"",""0"",""2898""
","
","
","""event"",""trial"",""time""
""fullscreenenter"",""0"",""2898""
","
","248.2999997138977","","","","","","","","51","0,0,0","6","blank","278","null","0.1913956143102447","0.22766264581052512","0.643109831527744","0","","","","","","","","",""
"","html-keyboard-response","117","353110","0.0-67.0-1.0","""event"",""trial"",""time""
""fullscreenenter"",""0"",""2898""
","
","
","""event"",""trial"",""time""
""fullscreenenter"",""0"",""2898""
","
","null","<p></p>","null","","","","","","","","","","","","","","","","","","","","","","","",""
"","do_trial","118","355993","0.0-68.0-0.0","""event"",""trial"",""time""
""fullscreenenter"",""0"",""2898""
","
","
","""event"",""trial"",""time""
""fullscreenenter"",""0"",""2898""
","
","311.59999990463257","","","","","","","","51","0,1,1","6","blank","279","null","0.12268275505186164","0.22651568632997626","0.48780692962442906","1","","","","","","","","",""
"","html-keyboard-response","119","356998","0.0-68.0-1.0","""event"",""trial"",""time""
""fullscreenenter"",""0"",""2898""
","
","
","""event"",""trial"",""time""
""fullscreenenter"",""0"",""2898""
","
","null","<p></p>","null","","","","","","","","","","","","","","","","","","","","","","","",""
"","do_recog","120","359883","0.0-69.0-0.0","""event"",""trial"",""time""
""fullscreenenter"",""0"",""2898""
","
","
","""event"",""trial"",""time""
""fullscreenenter"",""0"",""2898""
","
","1370.9000000953674","","","","","","","","53","","","","280","probe-110","","","","","1","[object Object]","110","2","1","","","",""
"","html-keyboard-response","121","360890","0.0-69.0-1.0","""event"",""trial"",""time""
""fullscreenenter"",""0"",""2898""
","
","
","""event"",""trial"",""time""
""fullscreenenter"",""0"",""2898""
","
","null","<p></p>","null","","","","","","","","","","","","","","","","","","","","","","","",""
"","do_trial","122","364003","0.0-70.0-0.0","""event"",""trial"",""time""
""fullscreenenter"",""0"",""2898""
","
","
","""event"",""trial"",""time""
""fullscreenenter"",""0"",""2898""
","
","554.2999997138977","","","","","","","","51","0,0,0","6","blank","281","null","0.34344380219664417","0.0921643281308616","0.5092899414332591","0","","","","","","","","",""
"","html-keyboard-response","123","365014","0.0-70.0-1.0","""event"",""trial"",""time""
""fullscreenenter"",""0"",""2898""
","
","
","""event"",""trial"",""time""
""fullscreenenter"",""0"",""2898""
","
","null","<p></p>","null","","","","","","","","","","","","","","","","","","","","","","","",""
"","do_recog","124","367449","0.0-71.0-0.0","""event"",""trial"",""time""
""fullscreenenter"",""0"",""2898""
","
","
","""event"",""trial"",""time""
""fullscreenenter"",""0"",""2898""
","
","924.5999999046326","","","","","","","","53","","","","282","probe-31","","","","","1","[object Object]","38","0","1","","","",""
"","html-keyboard-response","125","368453","0.0-71.0-1.0","""event"",""trial"",""time""
""fullscreenenter"",""0"",""2898""
","
","
","""event"",""trial"",""time""
""fullscreenenter"",""0"",""2898""
","
","null","<p></p>","null","","","","","","","","","","","","","","","","","","","","","","","",""
"","do_trial","126","371580","0.0-72.0-0.0","""event"",""trial"",""time""
""fullscreenenter"",""0"",""2898""
","
","
","""event"",""trial"",""time""
""fullscreenenter"",""0"",""2898""
","
","572.1999998092651","","","","","","","","49","0,0,1","6","blank","283","null","0.36824804649382437","0.13835324503818267","0.5670851294726621","0","","","","","","","","",""
"","html-keyboard-response","127","372587","0.0-72.0-1.0","""event"",""trial"",""time""
""fullscreenenter"",""0"",""2898""
","
","
","""event"",""trial"",""time""
""fullscreenenter"",""0"",""2898""
","
","null","<p></p>","null","","","","","","","","","","","","","","","","","","","","","","","",""
"","do_trial","128","375535","0.0-73.0-0.0","""event"",""trial"",""time""
""fullscreenenter"",""0"",""2898""
","
","
","""event"",""trial"",""time""
""fullscreenenter"",""0"",""2898""
","
","385","","","","","","","","49","0,0,1","6","blank","284","null","0.3760180227237597","0.13693865740926892","0.642350282547324","0","","","","","","","","",""
"","html-keyboard-response","129","376539","0.0-73.0-1.0","""event"",""trial"",""time""
""fullscreenenter"",""0"",""2898""
","
","
","""event"",""trial"",""time""
""fullscreenenter"",""0"",""2898""
","
","null","<p></p>","null","","","","","","","","","","","","","","","","","","","","","","","",""
"","do_trial","130","379473","0.0-74.0-0.0","""event"",""trial"",""time""
""fullscreenenter"",""0"",""2898""
","
","
","""event"",""trial"",""time""
""fullscreenenter"",""0"",""2898""
","
","364.2999997138977","","","","","","","","49","0,0,1","6","blank","285","null","0.3364021337744435","0.2070481318243933","0.6108938088717135","0","","","","","","","","",""
"","html-keyboard-response","131","380481","0.0-74.0-1.0","""event"",""trial"",""time""
""fullscreenenter"",""0"",""2898""
","
","
","""event"",""trial"",""time""
""fullscreenenter"",""0"",""2898""
","
","null","<p></p>","null","","","","","","","","","","","","","","","","","","","","","","","",""
"","do_recog","132","383559","0.0-75.0-0.0","""event"",""trial"",""time""
""fullscreenenter"",""0"",""2898""
","
","
","""event"",""trial"",""time""
""fullscreenenter"",""0"",""2898""
","
","1557.6999998092651","","","","","","","","56","","","","286","probe-205","","","","","1","[object Object]","37","0","0","","","",""
"","html-keyboard-response","133","384564","0.0-75.0-1.0","""event"",""trial"",""time""
""fullscreenenter"",""0"",""2898""
","
","
","""event"",""trial"",""time""
""fullscreenenter"",""0"",""2898""
","
","null","<p></p>","null","","","","","","","","","","","","","","","","","","","","","","","",""
"","do_trial","134","387534","0.0-76.0-0.0","""event"",""trial"",""time""
""fullscreenenter"",""0"",""2898""
","
","
","""event"",""trial"",""time""
""fullscreenenter"",""0"",""2898""
","
","413.19999980926514","","","","","","","","49","0,1,0","6","blank","287","null","0.41775632015660097","0.15642228736377606","0.6632217310630061","0","","","","","","","","",""
"","html-keyboard-response","135","388552","0.0-76.0-1.0","""event"",""trial"",""time""
""fullscreenenter"",""0"",""2898""
","
","
","""event"",""trial"",""time""
""fullscreenenter"",""0"",""2898""
","
","null","<p></p>","null","","","","","","","","","","","","","","","","","","","","","","","",""
"","do_trial","136","391413","0.0-77.0-0.0","""event"",""trial"",""time""
""fullscreenenter"",""0"",""2898""
","
","
","""event"",""trial"",""time""
""fullscreenenter"",""0"",""2898""
","
","294.80000019073486","","","","","","","","51","1,1,1","6","blank","288","null","0.37310277439164474","0.11278777730776533","0.7269530432881749","1","","","","","","","","",""
"","html-keyboard-response","137","392423","0.0-77.0-1.0","""event"",""trial"",""time""
""fullscreenenter"",""0"",""2898""
","
","
","""event"",""trial"",""time""
""fullscreenenter"",""0"",""2898""
","
","null","<p></p>","null","","","","","","","","","","","","","","","","","","","","","","","",""
"","do_trial","138","395220","0.0-78.0-0.0","""event"",""trial"",""time""
""fullscreenenter"",""0"",""2898""
","
","
","""event"",""trial"",""time""
""fullscreenenter"",""0"",""2898""
","
","226.59999990463257","","","","","","","","51","0,0,1","6","blank","289","null","0.2532900714252308","0.10037708467826383","0.7590621505779265","1","","","","","","","","",""
"","html-keyboard-response","139","396238","0.0-78.0-1.0","""event"",""trial"",""time""
""fullscreenenter"",""0"",""2898""
","
","
","""event"",""trial"",""time""
""fullscreenenter"",""0"",""2898""
","
","null","<p></p>","null","","","","","","","","","","","","","","","","","","","","","","","",""
"","do_trial","140","399030","0.0-79.0-0.0","""event"",""trial"",""time""
""fullscreenenter"",""0"",""2898""
","
","
","""event"",""trial"",""time""
""fullscreenenter"",""0"",""2898""
","
","234.2000002861023","","","","","","","","51","0,0,0","6","blank","290","null","0.1543524622119631","0.10932848159537473","0.6040898941237388","0","","","","","","","","",""
"","html-keyboard-response","141","400044","0.0-79.0-1.0","""event"",""trial"",""time""
""fullscreenenter"",""0"",""2898""
","
","
","""event"",""trial"",""time""
""fullscreenenter"",""0"",""2898""
","
","null","<p></p>","null","","","","","","","","","","","","","","","","","","","","","","","",""
"","do_trial","142","402914","0.0-80.0-0.0","""event"",""trial"",""time""
""fullscreenenter"",""0"",""2898""
","
","
","""event"",""trial"",""time""
""fullscreenenter"",""0"",""2898""
","
","302.90000009536743","","","","","","","","50","0,0,0","6","blank","291","null","0.08909916374737137","0.0939096971198304","0.49969163975127984","0","","","","","","","","",""
"","html-keyboard-response","143","403930","0.0-80.0-1.0","""event"",""trial"",""time""
""fullscreenenter"",""0"",""2898""
","
","
","""event"",""trial"",""time""
""fullscreenenter"",""0"",""2898""
","
","null","<p></p>","null","","","","","","","","","","","","","","","","","","","","","","","",""
"","do_trial","144","406852","0.0-81.0-0.0","""event"",""trial"",""time""
""fullscreenenter"",""0"",""2898""
","
","
","""event"",""trial"",""time""
""fullscreenenter"",""0"",""2898""
","
","358.5","","","","","","","","51","0,1,0","6","blank","292","null","0.0751416703440274","0.09467068593228149","0.4720328033973253","0","","","","","","","","",""
"","html-keyboard-response","145","407870","0.0-81.0-1.0","""event"",""trial"",""time""
""fullscreenenter"",""0"",""2898""
","
","
","""event"",""trial"",""time""
""fullscreenenter"",""0"",""2898""
","
","null","<p></p>","null","","","","","","","","","","","","","","","","","","","","","","","",""
"","do_recog","146","411102","0.0-82.0-0.0","""event"",""trial"",""time""
""fullscreenenter"",""0"",""2898""
","
","
","""event"",""trial"",""time""
""fullscreenenter"",""0"",""2898""
","
","1711.5","","","","","","","","56","","","","293","probe-253","","","","","0","[object Object]","null","null","1","","","",""
"","html-keyboard-response","147","412106","0.0-82.0-1.0","""event"",""trial"",""time""
""fullscreenenter"",""0"",""2898""
","
","
","""event"",""trial"",""time""
""fullscreenenter"",""0"",""2898""
","
","null","<p></p>","null","","","","","","","","","","","","","","","","","","","","","","","",""
"","do_trial","148","415200","0.0-83.0-0.0","""event"",""trial"",""time""
""fullscreenenter"",""0"",""2898""
","
","
","""event"",""trial"",""time""
""fullscreenenter"",""0"",""2898""
","
","530.6999998092651","","","","","","","","51","0,0,0","6","blank","294","null","0.26368637582823673","0.22979874854802312","0.2010754928997877","0","","","","","","","","",""
"","html-keyboard-response","149","416206","0.0-83.0-1.0","""event"",""trial"",""time""
""fullscreenenter"",""0"",""2898""
","
","
","""event"",""trial"",""time""
""fullscreenenter"",""0"",""2898""
","
","null","<p></p>","null","","","","","","","","","","","","","","","","","","","","","","","",""
"","do_trial","150","419240","0.0-84.0-0.0","""event"",""trial"",""time""
""fullscreenenter"",""0"",""2898""
","
","
","""event"",""trial"",""time""
""fullscreenenter"",""0"",""2898""
","
","477.3999996185303","","","","","","","","51","0,1,0","6","blank","295","null","0.41909665024881493","0.4059003780537938","0.15396560423813516","0","","","","","","","","",""
"","html-keyboard-response","151","420255","0.0-84.0-1.0","""event"",""trial"",""time""
""fullscreenenter"",""0"",""2898""
","
","
","""event"",""trial"",""time""
""fullscreenenter"",""0"",""2898""
","
","null","<p></p>","null","","","","","","","","","","","","","","","","","","","","","","","",""
"","do_recog","152","423381","0.0-85.0-0.0","""event"",""trial"",""time""
""fullscreenenter"",""0"",""2898""
","
","
","""event"",""trial"",""time""
""fullscreenenter"",""0"",""2898""
","
","1605.1999998092651","","","","","","","","56","","","","296","probe-222","","","","","1","[object Object]","71","1","0","","","",""
"","html-keyboard-response","153","424389","0.0-85.0-1.0","""event"",""trial"",""time""
""fullscreenenter"",""0"",""2898""
","
","
","""event"",""trial"",""time""
""fullscreenenter"",""0"",""2898""
","
","null","<p></p>","null","","","","","","","","","","","","","","","","","","","","","","","",""
"","do_trial","154","427354","0.0-86.0-0.0","""event"",""trial"",""time""
""fullscreenenter"",""0"",""2898""
","
","
","""event"",""trial"",""time""
""fullscreenenter"",""0"",""2898""
","
","396.59999990463257","","","","","","","","49","1,0,0","6","blank","297","null","0.4874401147828427","0.4338948676759273","0.10689726371250252","1","","","","","","","","",""
"","html-keyboard-response","155","428363","0.0-86.0-1.0","""event"",""trial"",""time""
""fullscreenenter"",""0"",""2898""
","
","
","""event"",""trial"",""time""
""fullscreenenter"",""0"",""2898""
","
","null","<p></p>","null","","","","","","","","","","","","","","","","","","","","","","","",""
"","do_trial","156","431203","0.0-87.0-0.0","""event"",""trial"",""time""
""fullscreenenter"",""0"",""2898""
","
","
","""event"",""trial"",""time""
""fullscreenenter"",""0"",""2898""
","
","289.19999980926514","","","","","","","","49","1,1,0","6","blank","298","null","0.5816605443517745","0.4597767230726315","0.05213550007682111","1","","","","","","","","",""
"","html-keyboard-response","157","432208","0.0-87.0-1.0","""event"",""trial"",""time""
""fullscreenenter"",""0"",""2898""
","
","
","""event"",""trial"",""time""
""fullscreenenter"",""0"",""2898""
","
","null","<p></p>","null","","","","","","","","","","","","","","","","","","","","","","","",""
"","do_trial","158","435079","0.0-88.0-0.0","""event"",""trial"",""time""
""fullscreenenter"",""0"",""2898""
","
","
","""event"",""trial"",""time""
""fullscreenenter"",""0"",""2898""
","
","295.59999990463257","","","","","","","","51","1,0,0","6","blank","299","null","0.520349240809513","0.5601821844708812","0.1196512388898017","0","","","","","","","","",""
"","html-keyboard-response","159","436096","0.0-88.0-1.0","""event"",""trial"",""time""
""fullscreenenter"",""0"",""2898""
","
","
","""event"",""trial"",""time""
""fullscreenenter"",""0"",""2898""
","
","null","<p></p>","null","","","","","","","","","","","","","","","","","","","","","","","",""
"","do_trial","160","438941","0.0-89.0-0.0","""event"",""trial"",""time""
""fullscreenenter"",""0"",""2898""
","
","
","""event"",""trial"",""time""
""fullscreenenter"",""0"",""2898""
","
","283.2000002861023","","","","","","","","49","0,1,0","6","blank","300","null","0.5223407266732304","0.4394172041474388","0.13096839524406906","0","","","","","","","","",""
"","html-keyboard-response","161","439945","0.0-89.0-1.0","""event"",""trial"",""time""
""fullscreenenter"",""0"",""2898""
","
","
","""event"",""trial"",""time""
""fullscreenenter"",""0"",""2898""
","
","null","<p></p>","null","","","","","","","","","","","","","","","","","","","","","","","",""
"","do_recog","162","442582","0.0-90.0-0.0","""event"",""trial"",""time""
""fullscreenenter"",""0"",""2898""
","
","
","""event"",""trial"",""time""
""fullscreenenter"",""0"",""2898""
","
","1127.5","","","","","","","","53","","","","301","probe-124","","","","","1","[object Object]","194","4","1","","","",""
"","html-keyboard-response","163","443594","0.0-90.0-1.0","""event"",""trial"",""time""
""fullscreenenter"",""0"",""2898""
","
","
","""event"",""trial"",""time""
""fullscreenenter"",""0"",""2898""
","
","null","<p></p>","null","","","","","","","","","","","","","","","","","","","","","","","",""
"","do_trial","164","446631","0.0-91.0-0.0","""event"",""trial"",""time""
""fullscreenenter"",""0"",""2898""
","
","
","""event"",""trial"",""time""
""fullscreenenter"",""0"",""2898""
","
","472.40000009536743","","","","","","","","49","0,1,0","6","blank","302","null","0.5774875043270395","0.38626069300062393","0.05293931992080914","0","","","","","","","","",""
"","html-keyboard-response","165","447645","0.0-91.0-1.0","""event"",""trial"",""time""
""fullscreenenter"",""0"",""2898""
","
","
","""event"",""trial"",""time""
""fullscreenenter"",""0"",""2898""
","
","null","<p></p>","null","","","","","","","","","","","","","","","","","","","","","","","",""
"","do_recog","166","450286","0.0-92.0-0.0","""event"",""trial"",""time""
""fullscreenenter"",""0"",""2898""
","
","
","""event"",""trial"",""time""
""fullscreenenter"",""0"",""2898""
","
","1122.5999999046326","","","","","","","","53","","","","303","probe-13","","","","","1","[object Object]","196","4","1","","","",""
"","html-keyboard-response","167","451290","0.0-92.0-1.0","""event"",""trial"",""time""
""fullscreenenter"",""0"",""2898""
","
","
","""event"",""trial"",""time""
""fullscreenenter"",""0"",""2898""
","
","null","<p></p>","null","","","","","","","","","","","","","","","","","","","","","","","",""
"","do_trial","168","454225","0.0-93.0-0.0","""event"",""trial"",""time""
""fullscreenenter"",""0"",""2898""
","
","
","""event"",""trial"",""time""
""fullscreenenter"",""0"",""2898""
","
","368.30000019073486","","","","","","","","51","0,1,0","6","blank","304","null","0.5245078201295788","0.3096344578865364","0.08033962041893872","0","","","","","","","","",""
"","html-keyboard-response","169","455241","0.0-93.0-1.0","""event"",""trial"",""time""
""fullscreenenter"",""0"",""2898""
","
","
","""event"",""trial"",""time""
""fullscreenenter"",""0"",""2898""
","
","null","<p></p>","null","","","","","","","","","","","","","","","","","","","","","","","",""
"","do_trial","170","458177","0.0-94.0-0.0","""event"",""trial"",""time""
""fullscreenenter"",""0"",""2898""
","
","
","""event"",""trial"",""time""
""fullscreenenter"",""0"",""2898""
","
","368","","","","","","","","51","1,0,1","6","blank","305","null","0.5425805417060644","0.30235301612991217","0.23209082290954774","1","","","","","","","","",""
"","html-keyboard-response","171","459182","0.0-94.0-1.0","""event"",""trial"",""time""
""fullscreenenter"",""0"",""2898""
","
","
","""event"",""trial"",""time""
""fullscreenenter"",""0"",""2898""
","
","null","<p></p>","null","","","","","","","","","","","","","","","","","","","","","","","",""
"","do_trial","172","462212","0.0-95.0-0.0","""event"",""trial"",""time""
""fullscreenenter"",""0"",""2898""
","
","
","""event"",""trial"",""time""
""fullscreenenter"",""0"",""2898""
","
","471.40000009536743","","","","","","","","49","0,1,0","6","blank","306","null","0.6380660280801188","0.2572123375936487","0.09358923921189946","0","","","","","","","","",""
"","html-keyboard-response","173","463217","0.0-95.0-1.0","""event"",""trial"",""time""
""fullscreenenter"",""0"",""2898""
","
","
","""event"",""trial"",""time""
""fullscreenenter"",""0"",""2898""
","
","null","<p></p>","null","","","","","","","","","","","","","","","","","","","","","","","",""
"","do_recog","174","465572","0.0-96.0-0.0","""event"",""trial"",""time""
""fullscreenenter"",""0"",""2898""
","
","
","""event"",""trial"",""time""
""fullscreenenter"",""0"",""2898""
","
","842","","","","","","","","53","","","","307","probe-80","","","","","1","[object Object]","118","2","1","","","",""
"","html-keyboard-response","175","466578","0.0-96.0-1.0","""event"",""trial"",""time""
""fullscreenenter"",""0"",""2898""
","
","
","""event"",""trial"",""time""
""fullscreenenter"",""0"",""2898""
","
","null","<p></p>","null","","","","","","","","","","","","","","","","","","","","","","","",""
"","do_trial","176","469778","0.0-97.0-0.0","""event"",""trial"",""time""
""fullscreenenter"",""0"",""2898""
","
","
","""event"",""trial"",""time""
""fullscreenenter"",""0"",""2898""
","
","632.5999999046326","","","","","","","","51","0,0,0","6","blank","308","null","0.5067419667068561","0.20230706113731145","0.14968504684635536","0","","","","","","","","",""
"","html-keyboard-response","177","470794","0.0-97.0-1.0","""event"",""trial"",""time""
""fullscreenenter"",""0"",""2898""
","
","
","""event"",""trial"",""time""
""fullscreenenter"",""0"",""2898""
","
","null","<p></p>","null","","","","","","","","","","","","","","","","","","","","","","","",""
"","break","178","473480","0.0-98.0-0.0","""event"",""trial"",""time""
""fullscreenenter"",""0"",""2898""
","
","
","""event"",""trial"",""time""
""fullscreenenter"",""0"",""2898""
","
","2684.2999997138977","<div class='center'><p>Time to take a quick break! You have 2 minutes to rest, but you can move on sooner if you'd like.</p><p> Press the <b>space bar</b> to continue.</p></div>","32","","","","","","","","","","","","","","","","","","","","","","","",""
"","do_recog","179","476526","0.0-98.0-1.0","""event"",""trial"",""time""
""fullscreenenter"",""0"",""2898""
","
","
","""event"",""trial"",""time""
""fullscreenenter"",""0"",""2898""
","
","1523.7000002861023","","","","","","","","53","","","","309","probe-49","","","","","1","[object Object]","34","0","1","","","",""
"","html-keyboard-response","180","477541","0.0-98.0-2.0","""event"",""trial"",""time""
""fullscreenenter"",""0"",""2898""
","
","
","""event"",""trial"",""time""
""fullscreenenter"",""0"",""2898""
","
","null","<p></p>","null","","","","","","","","","","","","","","","","","","","","","","","",""
"","do_trial","181","481125","0.0-99.0-0.0","""event"",""trial"",""time""
""fullscreenenter"",""0"",""2898""
","
","
","""event"",""trial"",""time""
""fullscreenenter"",""0"",""2898""
","
","1026.0999999046326","","","","","","","","49","1,1,1","6","blank","310","null","0.4838747576475588","0.3385670088799853","0.0856132952471341","1","","","","","","","","",""
"","html-keyboard-response","182","482146","0.0-99.0-1.0","""event"",""trial"",""time""
""fullscreenenter"",""0"",""2898""
","
","
","""event"",""trial"",""time""
""fullscreenenter"",""0"",""2898""
","
","null","<p></p>","null","","","","","","","","","","","","","","","","","","","","","","","",""
"","do_trial","183","484964","0.0-100.0-0.0","""event"",""trial"",""time""
""fullscreenenter"",""0"",""2898""
","
","
","""event"",""trial"",""time""
""fullscreenenter"",""0"",""2898""
","
","253.80000019073486","","","","","","","","49","0,1,0","6","blank","311","null","0.41427374434187586","0.19466953892107997","0.12642624759963883","0","","","","","","","","",""
"","html-keyboard-response","184","485967","0.0-100.0-1.0","""event"",""trial"",""time""
""fullscreenenter"",""0"",""2898""
","
","
","""event"",""trial"",""time""
""fullscreenenter"",""0"",""2898""
","
","null","<p></p>","null","","","","","","","","","","","","","","","","","","","","","","","",""
"","do_trial","185","488662","0.0-101.0-0.0","""event"",""trial"",""time""
""fullscreenenter"",""0"",""2898""
","
","
","""event"",""trial"",""time""
""fullscreenenter"",""0"",""2898""
","
","130.69999980926514","","","","","","","","49","1,1,0","6","blank","312","null","0.5200930768172121","0.282445266950153","0.17990507244773554","1","","","","","","","","",""
"","html-keyboard-response","186","489672","0.0-101.0-1.0","""event"",""trial"",""time""
""fullscreenenter"",""0"",""2898""
","
","
","""event"",""trial"",""time""
""fullscreenenter"",""0"",""2898""
","
","null","<p></p>","null","","","","","","","","","","","","","","","","","","","","","","","",""
"","do_recog","187","492936","0.0-102.0-0.0","""event"",""trial"",""time""
""fullscreenenter"",""0"",""2898""
","
","
","""event"",""trial"",""time""
""fullscreenenter"",""0"",""2898""
","
","1746.2999997138977","","","","","","","","56","","","","313","probe-252","","","","","0","[object Object]","null","null","1","","","",""
"","html-keyboard-response","188","493943","0.0-102.0-1.0","""event"",""trial"",""time""
""fullscreenenter"",""0"",""2898""
","
","
","""event"",""trial"",""time""
""fullscreenenter"",""0"",""2898""
","
","null","<p></p>","null","","","","","","","","","","","","","","","","","","","","","","","",""
"","do_trial","189","497720","0.0-103.0-0.0","""event"",""trial"",""time""
""fullscreenenter"",""0"",""2898""
","
","
","""event"",""trial"",""time""
""fullscreenenter"",""0"",""2898""
","
","1205.5","","","","","","","","49","0,1,0","6","blank","314","null","0.5341577496529439","0.24599170120776087","0.05954153964921973","0","","","","","","","","",""
"","html-keyboard-response","190","498726","0.0-103.0-1.0","""event"",""trial"",""time""
""fullscreenenter"",""0"",""2898""
","
","
","""event"",""trial"",""time""
""fullscreenenter"",""0"",""2898""
","
","null","<p></p>","null","","","","","","","","","","","","","","","","","","","","","","","",""
"","do_trial","191","501599","0.0-104.0-0.0","""event"",""trial"",""time""
""fullscreenenter"",""0"",""2898""
","
","
","""event"",""trial"",""time""
""fullscreenenter"",""0"",""2898""
","
","307.7000002861023","","","","","","","","51","0,0,0","6","blank","315","null","0.35180732705445555","0.2579662003977138","0.06890808792324886","0","","","","","","","","",""
"","html-keyboard-response","192","502604","0.0-104.0-1.0","""event"",""trial"",""time""
""fullscreenenter"",""0"",""2898""
","
","
","""event"",""trial"",""time""
""fullscreenenter"",""0"",""2898""
","
","null","<p></p>","null","","","","","","","","","","","","","","","","","","","","","","","",""
"","do_trial","193","505448","0.0-105.0-0.0","""event"",""trial"",""time""
""fullscreenenter"",""0"",""2898""
","
","
","""event"",""trial"",""time""
""fullscreenenter"",""0"",""2898""
","
","275.30000019073486","","","","","","","","50","0,0,1","6","blank","316","null","0.5229704501438287","0.36025271650594803","0.174744928832725","0","","","","","","","","",""
"","html-keyboard-response","194","506462","0.0-105.0-1.0","""event"",""trial"",""time""
""fullscreenenter"",""0"",""2898""
","
","
","""event"",""trial"",""time""
""fullscreenenter"",""0"",""2898""
","
","null","<p></p>","null","","","","","","","","","","","","","","","","","","","","","","","",""
"","do_recog","195","510951","0.0-106.0-0.0","""event"",""trial"",""time""
""fullscreenenter"",""0"",""2898""
","
","
","""event"",""trial"",""time""
""fullscreenenter"",""0"",""2898""
","
","2966.9000000953674","","","","","","","","55","","","","317","probe-194","","","","","1","[object Object]","158","3","0","","","",""
"","html-keyboard-response","196","511961","0.0-106.0-1.0","""event"",""trial"",""time""
""fullscreenenter"",""0"",""2898""
","
","
","""event"",""trial"",""time""
""fullscreenenter"",""0"",""2898""
","
","null","<p></p>","null","","","","","","","","","","","","","","","","","","","","","","","",""
"","do_trial","197","515080","0.0-107.0-0.0","""event"",""trial"",""time""
""fullscreenenter"",""0"",""2898""
","
","
","""event"",""trial"",""time""
""fullscreenenter"",""0"",""2898""
","
","548.4000000953674","","","","","","","","49","1,0,0","6","blank","318","null","0.4038534305241444","0.06123316694307548","0.07109733274908511","1","","","","","","","","",""
"","html-keyboard-response","198","516089","0.0-107.0-1.0","""event"",""trial"",""time""
""fullscreenenter"",""0"",""2898""
","
","
","""event"",""trial"",""time""
""fullscreenenter"",""0"",""2898""
","
","null","<p></p>","null","","","","","","","","","","","","","","","","","","","","","","","",""
"","do_recog","199","518843","0.0-108.0-0.0","""event"",""trial"",""time""
""fullscreenenter"",""0"",""2898""
","
","
","""event"",""trial"",""time""
""fullscreenenter"",""0"",""2898""
","
","1238","","","","","","","","53","","","","319","probe-22","","","","","1","[object Object]","195","4","1","","","",""
"","html-keyboard-response","200","519852","0.0-108.0-1.0","""event"",""trial"",""time""
""fullscreenenter"",""0"",""2898""
","
","
","""event"",""trial"",""time""
""fullscreenenter"",""0"",""2898""
","
","null","<p></p>","null","","","","","","","","","","","","","","","","","","","","","","","",""
"","do_trial","201","522859","0.0-109.0-0.0","""event"",""trial"",""time""
""fullscreenenter"",""0"",""2898""
","
","
","""event"",""trial"",""time""
""fullscreenenter"",""0"",""2898""
","
","444.6000003814697","","","","","","","","50","0,0,0","6","blank","320","null","0.2659363760832411","0.23820438218570877","0.11530389884421975","0","","","","","","","","",""
"","html-keyboard-response","202","523862","0.0-109.0-1.0","""event"",""trial"",""time""
""fullscreenenter"",""0"",""2898""
","
","
","""event"",""trial"",""time""
""fullscreenenter"",""0"",""2898""
","
","null","<p></p>","null","","","","","","","","","","","","","","","","","","","","","","","",""
"","do_trial","203","526694","0.0-110.0-0.0","""event"",""trial"",""time""
""fullscreenenter"",""0"",""2898""
","
","
","""event"",""trial"",""time""
""fullscreenenter"",""0"",""2898""
","
","261.09999990463257","","","","","","","","49","0,1,0","6","blank","321","null","0.5764036251982074","0.3957798019554143","0.05311372637531685","0","","","","","","","","",""
"","html-keyboard-response","204","527708","0.0-110.0-1.0","""event"",""trial"",""time""
""fullscreenenter"",""0"",""2898""
","
","
","""event"",""trial"",""time""
""fullscreenenter"",""0"",""2898""
","
","null","<p></p>","null","","","","","","","","","","","","","","","","","","","","","","","",""
"","do_trial","205","530548","0.0-111.0-0.0","""event"",""trial"",""time""
""fullscreenenter"",""0"",""2898""
","
","
","""event"",""trial"",""time""
""fullscreenenter"",""0"",""2898""
","
","285.40000009536743","","","","","","","","51","0,1,0","6","blank","322","null","0.5568255749192464","0.29279205685882753","0.21688807895423637","0","","","","","","","","",""
"","html-keyboard-response","206","531558","0.0-111.0-1.0","""event"",""trial"",""time""
""fullscreenenter"",""0"",""2898""
","
","
","""event"",""trial"",""time""
""fullscreenenter"",""0"",""2898""
","
","null","<p></p>","null","","","","","","","","","","","","","","","","","","","","","","","",""
"","do_recog","207","534104","0.0-112.0-0.0","""event"",""trial"",""time""
""fullscreenenter"",""0"",""2898""
","
","
","""event"",""trial"",""time""
""fullscreenenter"",""0"",""2898""
","
","1036.6000003814697","","","","","","","","53","","","","323","probe-56","","","","","1","[object Object]","73","1","1","","","",""
"","html-keyboard-response","208","535111","0.0-112.0-1.0","""event"",""trial"",""time""
""fullscreenenter"",""0"",""2898""
","
","
","""event"",""trial"",""time""
""fullscreenenter"",""0"",""2898""
","
","null","<p></p>","null","","","","","","","","","","","","","","","","","","","","","","","",""
"","do_trial","209","538120","0.0-113.0-0.0","""event"",""trial"",""time""
""fullscreenenter"",""0"",""2898""
","
","
","""event"",""trial"",""time""
""fullscreenenter"",""0"",""2898""
","
","434.69999980926514","","","","","","","","51","0,0,1","6","blank","324","null","0.5876277265342439","0.35198834246528243","0.2564559861168479","1","","","","","","","","",""
"","html-keyboard-response","210","539126","0.0-113.0-1.0","""event"",""trial"",""time""
""fullscreenenter"",""0"",""2898""
","
","
","""event"",""trial"",""time""
""fullscreenenter"",""0"",""2898""
","
","null","<p></p>","null","","","","","","","","","","","","","","","","","","","","","","","",""
"","do_trial","211","542056","0.0-114.0-0.0","""event"",""trial"",""time""
""fullscreenenter"",""0"",""2898""
","
","
","""event"",""trial"",""time""
""fullscreenenter"",""0"",""2898""
","
","354","","","","","","","","51","1,0,0","6","blank","325","null","0.6560054418354014","0.34516807408581895","0.18545676599952138","0","","","","","","","","",""
"","html-keyboard-response","212","543073","0.0-114.0-1.0","""event"",""trial"",""time""
""fullscreenenter"",""0"",""2898""
","
","
","""event"",""trial"",""time""
""fullscreenenter"",""0"",""2898""
","
","null","<p></p>","null","","","","","","","","","","","","","","","","","","","","","","","",""
"","do_trial","213","545959","0.0-115.0-0.0","""event"",""trial"",""time""
""fullscreenenter"",""0"",""2898""
","
","
","""event"",""trial"",""time""
""fullscreenenter"",""0"",""2898""
","
","313.59999990463257","","","","","","","","51","1,1,0","6","blank","326","null","0.6490051838404053","0.2613536123829259","0.17468694712755578","0","","","","","","","","",""
"","html-keyboard-response","214","546969","0.0-115.0-1.0","""event"",""trial"",""time""
""fullscreenenter"",""0"",""2898""
","
","
","""event"",""trial"",""time""
""fullscreenenter"",""0"",""2898""
","
","null","<p></p>","null","","","","","","","","","","","","","","","","","","","","","","","",""
"","do_trial","215","549817","0.0-116.0-0.0","""event"",""trial"",""time""
""fullscreenenter"",""0"",""2898""
","
","
","""event"",""trial"",""time""
""fullscreenenter"",""0"",""2898""
","
","274.19999980926514","","","","","","","","49","1,1,0","6","blank","327","null","0.7073765881740929","0.32183874761671966","0.22370018338927536","1","","","","","","","","",""
"","html-keyboard-response","216","550821","0.0-116.0-1.0","""event"",""trial"",""time""
""fullscreenenter"",""0"",""2898""
","
","
","""event"",""trial"",""time""
""fullscreenenter"",""0"",""2898""
","
","null","<p></p>","null","","","","","","","","","","","","","","","","","","","","","","","",""
"","do_trial","217","553691","0.0-117.0-0.0","""event"",""trial"",""time""
""fullscreenenter"",""0"",""2898""
","
","
","""event"",""trial"",""time""
""fullscreenenter"",""0"",""2898""
","
","312.8999996185303","","","","","","","","49","0,0,0","6","blank","328","null","0.5023705155666012","0.28498629668433556","0.08476734872758693","0","","","","","","","","",""
"","html-keyboard-response","218","554695","0.0-117.0-1.0","""event"",""trial"",""time""
""fullscreenenter"",""0"",""2898""
","
","
","""event"",""trial"",""time""
""fullscreenenter"",""0"",""2898""
","
","null","<p></p>","null","","","","","","","","","","","","","","","","","","","","","","","",""
"","do_trial","219","557564","0.0-118.0-0.0","""event"",""trial"",""time""
""fullscreenenter"",""0"",""2898""
","
","
","""event"",""trial"",""time""
""fullscreenenter"",""0"",""2898""
","
","316.90000009536743","","","","","","","","49","1,0,0","6","blank","329","null","0.6358031118702488","0.3204367697996828","0.11314380394655105","1","","","","","","","","",""
"","html-keyboard-response","220","558569","0.0-118.0-1.0","""event"",""trial"",""time""
""fullscreenenter"",""0"",""2898""
","
","
","""event"",""trial"",""time""
""fullscreenenter"",""0"",""2898""
","
","null","<p></p>","null","","","","","","","","","","","","","","","","","","","","","","","",""
"","do_recog","221","560914","0.0-119.0-0.0","""event"",""trial"",""time""
""fullscreenenter"",""0"",""2898""
","
","
","""event"",""trial"",""time""
""fullscreenenter"",""0"",""2898""
","
","826.6999998092651","","","","","","","","53","","","","330","probe-60","","","","","1","[object Object]","35","0","1","","","",""
"","html-keyboard-response","222","561930","0.0-119.0-1.0","""event"",""trial"",""time""
""fullscreenenter"",""0"",""2898""
","
","
","""event"",""trial"",""time""
""fullscreenenter"",""0"",""2898""
","
","null","<p></p>","null","","","","","","","","","","","","","","","","","","","","","","","",""
"","do_trial","223","564869","0.0-120.0-0.0","""event"",""trial"",""time""
""fullscreenenter"",""0"",""2898""
","
","
","""event"",""trial"",""time""
""fullscreenenter"",""0"",""2898""
","
","383","","","","","","","","49","1,0,0","6","blank","331","null","0.6293422209746702","0.40501494628809304","0.06418802673027368","1","","","","","","","","",""
"","html-keyboard-response","224","565880","0.0-120.0-1.0","""event"",""trial"",""time""
""fullscreenenter"",""0"",""2898""
","
","
","""event"",""trial"",""time""
""fullscreenenter"",""0"",""2898""
","
","null","<p></p>","null","","","","","","","","","","","","","","","","","","","","","","","",""
"","do_trial","225","568714","0.0-121.0-0.0","""event"",""trial"",""time""
""fullscreenenter"",""0"",""2898""
","
","
","""event"",""trial"",""time""
""fullscreenenter"",""0"",""2898""
","
","261.09999990463257","","","","","","","","49","1,0,0","6","blank","332","null","0.7849392962086179","0.23172618447858495","0.07821679802519828","1","","","","","","","","",""
"","html-keyboard-response","226","569720","0.0-121.0-1.0","""event"",""trial"",""time""
""fullscreenenter"",""0"",""2898""
","
","
","""event"",""trial"",""time""
""fullscreenenter"",""0"",""2898""
","
","null","<p></p>","null","","","","","","","","","","","","","","","","","","","","","","","",""
"","do_trial","227","572504","0.0-122.0-0.0","""event"",""trial"",""time""
""fullscreenenter"",""0"",""2898""
","
","
","""event"",""trial"",""time""
""fullscreenenter"",""0"",""2898""
","
","223.09999990463257","","","","","","","","49","1,0,1","6","blank","333","null","0.7081613948567255","0.2458372996620176","0.0691725011498152","1","","","","","","","","",""
"","html-keyboard-response","228","573506","0.0-122.0-1.0","""event"",""trial"",""time""
""fullscreenenter"",""0"",""2898""
","
","
","""event"",""trial"",""time""
""fullscreenenter"",""0"",""2898""
","
","null","<p></p>","null","","","","","","","","","","","","","","","","","","","","","","","",""
"","do_trial","229","576341","0.0-123.0-0.0","""event"",""trial"",""time""
""fullscreenenter"",""0"",""2898""
","
","
","""event"",""trial"",""time""
""fullscreenenter"",""0"",""2898""
","
","276.80000019073486","","","","","","","","49","1,0,0","6","blank","334","null","0.7720521727721884","0.26854294847518445","0.1099356237278093","1","","","","","","","","",""
"","html-keyboard-response","230","577347","0.0-123.0-1.0","""event"",""trial"",""time""
""fullscreenenter"",""0"",""2898""
","
","
","""event"",""trial"",""time""
""fullscreenenter"",""0"",""2898""
","
","null","<p></p>","null","","","","","","","","","","","","","","","","","","","","","","","",""
"","do_trial","231","580211","0.0-124.0-0.0","""event"",""trial"",""time""
""fullscreenenter"",""0"",""2898""
","
","
","""event"",""trial"",""time""
""fullscreenenter"",""0"",""2898""
","
","293.8999996185303","","","","","","","","49","1,0,0","6","blank","335","null","0.6704009385007943","0.2162491137016519","0.09053548643734827","1","","","","","","","","",""
"","html-keyboard-response","232","581216","0.0-124.0-1.0","""event"",""trial"",""time""
""fullscreenenter"",""0"",""2898""
","
","
","""event"",""trial"",""time""
""fullscreenenter"",""0"",""2898""
","
","null","<p></p>","null","","","","","","","","","","","","","","","","","","","","","","","",""
"","do_recog","233","583498","0.0-125.0-0.0","""event"",""trial"",""time""
""fullscreenenter"",""0"",""2898""
","
","
","""event"",""trial"",""time""
""fullscreenenter"",""0"",""2898""
","
","767.5999999046326","","","","","","","","53","","","","336","probe-41","","","","","1","[object Object]","33","0","1","","","",""
"","html-keyboard-response","234","584507","0.0-125.0-1.0","""event"",""trial"",""time""
""fullscreenenter"",""0"",""2898""
","
","
","""event"",""trial"",""time""
""fullscreenenter"",""0"",""2898""
","
","null","<p></p>","null","","","","","","","","","","","","","","","","","","","","","","","",""
"","do_trial","235","587466","0.0-126.0-0.0","""event"",""trial"",""time""
""fullscreenenter"",""0"",""2898""
","
","
","""event"",""trial"",""time""
""fullscreenenter"",""0"",""2898""
","
","391.6000003814697","","","","","","","","49","1,0,1","6","blank","337","null","0.7320677358650499","0.3338276020143384","0.17569344618365926","1","","","","","","","","",""
"","html-keyboard-response","236","588477","0.0-126.0-1.0","""event"",""trial"",""time""
""fullscreenenter"",""0"",""2898""
","
","
","""event"",""trial"",""time""
""fullscreenenter"",""0"",""2898""
","
","null","<p></p>","null","","","","","","","","","","","","","","","","","","","","","","","",""
"","do_trial","237","591367","0.0-127.0-0.0","""event"",""trial"",""time""
""fullscreenenter"",""0"",""2898""
","
","
","""event"",""trial"",""time""
""fullscreenenter"",""0"",""2898""
","
","329.90000009536743","","","","","","","","49","1,0,0","6","blank","338","null","0.6969429957762786","0.25665485996088205","0.2129098261205653","1","","","","","","","","",""
"","html-keyboard-response","238","592375","0.0-127.0-1.0","""event"",""trial"",""time""
""fullscreenenter"",""0"",""2898""
","
","
","""event"",""trial"",""time""
""fullscreenenter"",""0"",""2898""
","
","null","<p></p>","null","","","","","","","","","","","","","","","","","","","","","","","",""
"","do_recog","239","595862","0.0-128.0-0.0","""event"",""trial"",""time""
""fullscreenenter"",""0"",""2898""
","
","
","""event"",""trial"",""time""
""fullscreenenter"",""0"",""2898""
","
","1975.0999999046326","","","","","","","","53","","","","339","probe-107","","","","","1","[object Object]","113","2","1","","","",""
"","html-keyboard-response","240","596866","0.0-128.0-1.0","""event"",""trial"",""time""
""fullscreenenter"",""0"",""2898""
","
","
","""event"",""trial"",""time""
""fullscreenenter"",""0"",""2898""
","
","null","<p></p>","null","","","","","","","","","","","","","","","","","","","","","","","",""
"","do_trial","241","600040","0.0-129.0-0.0","""event"",""trial"",""time""
""fullscreenenter"",""0"",""2898""
","
","
","""event"",""trial"",""time""
""fullscreenenter"",""0"",""2898""
","
","615.0999999046326","","","","","","","","49","0,0,1","6","blank","340","null","0.5470585002859066","0.3273390824557827","0.21805934733302465","0","","","","","","","","",""
"","html-keyboard-response","242","601046","0.0-129.0-1.0","""event"",""trial"",""time""
""fullscreenenter"",""0"",""2898""
","
","
","""event"",""trial"",""time""
""fullscreenenter"",""0"",""2898""
","
","null","<p></p>","null","","","","","","","","","","","","","","","","","","","","","","","",""
"","do_trial","243","603933","0.0-130.0-0.0","""event"",""trial"",""time""
""fullscreenenter"",""0"",""2898""
","
","
","""event"",""trial"",""time""
""fullscreenenter"",""0"",""2898""
","
","320.69999980926514","","","","","","","","49","1,1,0","6","blank","341","null","0.5174831698126083","0.2143866724762092","0.09734477418518626","1","","","","","","","","",""
"","html-keyboard-response","244","604939","0.0-130.0-1.0","""event"",""trial"",""time""
""fullscreenenter"",""0"",""2898""
","
","
","""event"",""trial"",""time""
""fullscreenenter"",""0"",""2898""
","
","null","<p></p>","null","","","","","","","","","","","","","","","","","","","","","","","",""
"","do_trial","245","607801","0.0-131.0-0.0","""event"",""trial"",""time""
""fullscreenenter"",""0"",""2898""
","
","
","""event"",""trial"",""time""
""fullscreenenter"",""0"",""2898""
","
","303.09999990463257","","","","","","","","49","0,1,0","6","blank","342","null","0.3774646850325176","0.32879252366693906","0.11738642528525674","0","","","","","","","","",""
"","html-keyboard-response","246","608810","0.0-131.0-1.0","""event"",""trial"",""time""
""fullscreenenter"",""0"",""2898""
","
","
","""event"",""trial"",""time""
""fullscreenenter"",""0"",""2898""
","
","null","<p></p>","null","","","","","","","","","","","","","","","","","","","","","","","",""
"","do_trial","247","611376","0.0-132.0-0.0","""event"",""trial"",""time""
""fullscreenenter"",""0"",""2898""
","
","
","""event"",""trial"",""time""
""fullscreenenter"",""0"",""2898""
","
","0.40000009536743164","","","","","","","","49","1,0,0","6","blank","343","null","0.42637350881268005","0.33069480323516354","0.14134274708344882","1","","","","","","","","",""
"","html-keyboard-response","248","612380","0.0-132.0-1.0","""event"",""trial"",""time""
""fullscreenenter"",""0"",""2898""
","
","
","""event"",""trial"",""time""
""fullscreenenter"",""0"",""2898""
","
","null","<p></p>","null","","","","","","","","","","","","","","","","","","","","","","","",""
"","do_recog","249","615015","0.0-133.0-0.0","""event"",""trial"",""time""
""fullscreenenter"",""0"",""2898""
","
","
","""event"",""trial"",""time""
""fullscreenenter"",""0"",""2898""
","
","1118.1000003814697","","","","","","","","53","","","","344","probe-109","","","","","1","[object Object]","115","2","1","","","",""
"","html-keyboard-response","250","616022","0.0-133.0-1.0","""event"",""trial"",""time""
""fullscreenenter"",""0"",""2898""
","
","
","""event"",""trial"",""time""
""fullscreenenter"",""0"",""2898""
","
","null","<p></p>","null","","","","","","","","","","","","","","","","","","","","","","","",""
"","do_trial","251","619018","0.0-134.0-0.0","""event"",""trial"",""time""
""fullscreenenter"",""0"",""2898""
","
","
","""event"",""trial"",""time""
""fullscreenenter"",""0"",""2898""
","
","446.5","","","","","","","","49","0,0,0","6","blank","345","null","0.3781217987952731","0.39873117840684463","0.15752710265871028","0","","","","","","","","",""
"","html-keyboard-response","252","620035","0.0-134.0-1.0","""event"",""trial"",""time""
""fullscreenenter"",""0"",""2898""
","
","
","""event"",""trial"",""time""
""fullscreenenter"",""0"",""2898""
","
","null","<p></p>","null","","","","","","","","","","","","","","","","","","","","","","","",""
"","do_trial","253","622874","0.0-135.0-0.0","""event"",""trial"",""time""
""fullscreenenter"",""0"",""2898""
","
","
","""event"",""trial"",""time""
""fullscreenenter"",""0"",""2898""
","
","273.40000009536743","","","","","","","","49","1,1,0","6","blank","346","null","0.3395771323929186","0.5015151162478533","0.09673458940842146","1","","","","","","","","",""
"","html-keyboard-response","254","623879","0.0-135.0-1.0","""event"",""trial"",""time""
""fullscreenenter"",""0"",""2898""
","
","
","""event"",""trial"",""time""
""fullscreenenter"",""0"",""2898""
","
","null","<p></p>","null","","","","","","","","","","","","","","","","","","","","","","","",""
"","do_recog","255","627356","0.0-136.0-0.0","""event"",""trial"",""time""
""fullscreenenter"",""0"",""2898""
","
","
","""event"",""trial"",""time""
""fullscreenenter"",""0"",""2898""
","
","1963.3000001907349","","","","","","","","56","","","","347","probe-186","","","","","1","[object Object]","152","3","0","","","",""
"","html-keyboard-response","256","628369","0.0-136.0-1.0","""event"",""trial"",""time""
""fullscreenenter"",""0"",""2898""
","
","
","""event"",""trial"",""time""
""fullscreenenter"",""0"",""2898""
","
","null","<p></p>","null","","","","","","","","","","","","","","","","","","","","","","","",""
"","do_trial","257","631324","0.0-137.0-0.0","""event"",""trial"",""time""
""fullscreenenter"",""0"",""2898""
","
","
","""event"",""trial"",""time""
""fullscreenenter"",""0"",""2898""
","
","383.30000019073486","","","","","","","","51","0,1,1","6","blank","348","null","0.14214154159634373","0.45379275864070634","0.27293302589133117","1","","","","","","","","",""
"","html-keyboard-response","258","632334","0.0-137.0-1.0","""event"",""trial"",""time""
""fullscreenenter"",""0"",""2898""
","
","
","""event"",""trial"",""time""
""fullscreenenter"",""0"",""2898""
","
","null","<p></p>","null","","","","","","","","","","","","","","","","","","","","","","","",""
"","break","259","633954","0.0-138.0-0.0","""event"",""trial"",""time""
""fullscreenenter"",""0"",""2898""
","
","
","""event"",""trial"",""time""
""fullscreenenter"",""0"",""2898""
","
","1618.6999998092651","<div class='center'><p>Time to take a quick break! You have 2 minutes to rest, but you can move on sooner if you'd like.</p><p> Press the <b>space bar</b> to continue.</p></div>","32","","","","","","","","","","","","","","","","","","","","","","","",""
"","do_trial","260","636942","0.0-138.0-1.0","""event"",""trial"",""time""
""fullscreenenter"",""0"",""2898""
","
","
","""event"",""trial"",""time""
""fullscreenenter"",""0"",""2898""
","
","430.09999990463257","","","","","","","","49","0,1,0","6","blank","349","null","0.17017612272209884","0.5585820542498953","0.2780953791847833","0","","","","","","","","",""
"","html-keyboard-response","261","637946","0.0-138.0-2.0","""event"",""trial"",""time""
""fullscreenenter"",""0"",""2898""
","
","
","""event"",""trial"",""time""
""fullscreenenter"",""0"",""2898""
","
","null","<p></p>","null","","","","","","","","","","","","","","","","","","","","","","","",""
"","do_trial","262","640587","0.0-139.0-0.0","""event"",""trial"",""time""
""fullscreenenter"",""0"",""2898""
","
","
","""event"",""trial"",""time""
""fullscreenenter"",""0"",""2898""
","
","88.40000009536743","","","","","","","","49","0,0,0","6","blank","350","null","0.1863702587235566","0.5893542626210493","0.19326281107723908","0","","","","","","","","",""
"","html-keyboard-response","263","641597","0.0-139.0-1.0","""event"",""trial"",""time""
""fullscreenenter"",""0"",""2898""
","
","
","""event"",""trial"",""time""
""fullscreenenter"",""0"",""2898""
","
","null","<p></p>","null","","","","","","","","","","","","","","","","","","","","","","","",""
"","do_trial","264","644464","0.0-140.0-0.0","""event"",""trial"",""time""
""fullscreenenter"",""0"",""2898""
","
","
","""event"",""trial"",""time""
""fullscreenenter"",""0"",""2898""
","
","304","","","","","","","","51","0,1,0","6","blank","351","null","0.16588900892609115","0.5249912359594948","0.19112507430240755","0","","","","","","","","",""
"","html-keyboard-response","265","645466","0.0-140.0-1.0","""event"",""trial"",""time""
""fullscreenenter"",""0"",""2898""
","
","
","""event"",""trial"",""time""
""fullscreenenter"",""0"",""2898""
","
","null","<p></p>","null","","","","","","","","","","","","","","","","","","","","","","","",""
"","do_recog","266","648139","0.0-141.0-0.0","""event"",""trial"",""time""
""fullscreenenter"",""0"",""2898""
","
","
","""event"",""trial"",""time""
""fullscreenenter"",""0"",""2898""
","
","1156.6999998092651","","","","","","","","53","","","","352","probe-91","","","","","1","[object Object]","153","3","1","","","",""
"","html-keyboard-response","267","649153","0.0-141.0-1.0","""event"",""trial"",""time""
""fullscreenenter"",""0"",""2898""
","
","
","""event"",""trial"",""time""
""fullscreenenter"",""0"",""2898""
","
","null","<p></p>","null","","","","","","","","","","","","","","","","","","","","","","","",""
"","do_trial","268","652154","0.0-142.0-0.0","""event"",""trial"",""time""
""fullscreenenter"",""0"",""2898""
","
","
","""event"",""trial"",""time""
""fullscreenenter"",""0"",""2898""
","
","444.69999980926514","","","","","","","","51","1,1,0","6","blank","353","null","0.22674084732036137","0.6142244841102984","0.22785182567855417","0","","","","","","","","",""
"","html-keyboard-response","269","653166","0.0-142.0-1.0","""event"",""trial"",""time""
""fullscreenenter"",""0"",""2898""
","
","
","""event"",""trial"",""time""
""fullscreenenter"",""0"",""2898""
","
","null","<p></p>","null","","","","","","","","","","","","","","","","","","","","","","","",""
"","do_trial","270","656142","0.0-143.0-0.0","""event"",""trial"",""time""
""fullscreenenter"",""0"",""2898""
","
","
","""event"",""trial"",""time""
""fullscreenenter"",""0"",""2898""
","
","427.19999980926514","","","","","","","","51","1,1,0","6","blank","354","null","0.23293940789281473","0.5928452804288646","0.17884159761679919","0","","","","","","","","",""
"","html-keyboard-response","271","657148","0.0-143.0-1.0","""event"",""trial"",""time""
""fullscreenenter"",""0"",""2898""
","
","
","""event"",""trial"",""time""
""fullscreenenter"",""0"",""2898""
","
","null","<p></p>","null","","","","","","","","","","","","","","","","","","","","","","","",""
"","do_trial","272","659916","0.0-144.0-0.0","""event"",""trial"",""time""
""fullscreenenter"",""0"",""2898""
","
","
","""event"",""trial"",""time""
""fullscreenenter"",""0"",""2898""
","
","209.39999961853027","","","","","","","","50","0,1,0","6","blank","355","null","0.24326675788104019","0.5535583699169648","0.1857550815205873","1","","","","","","","","",""
"","html-keyboard-response","273","660919","0.0-144.0-1.0","""event"",""trial"",""time""
""fullscreenenter"",""0"",""2898""
","
","
","""event"",""trial"",""time""
""fullscreenenter"",""0"",""2898""
","
","null","<p></p>","null","","","","","","","","","","","","","","","","","","","","","","","",""
"","do_trial","274","663774","0.0-145.0-0.0","""event"",""trial"",""time""
""fullscreenenter"",""0"",""2898""
","
","
","""event"",""trial"",""time""
""fullscreenenter"",""0"",""2898""
","
","293.90000009536743","","","","","","","","50","0,1,0","6","blank","356","null","0.26011512502866013","0.49242184273378076","0.10761210503125802","1","","","","","","","","",""
"","html-keyboard-response","275","664779","0.0-145.0-1.0","""event"",""trial"",""time""
""fullscreenenter"",""0"",""2898""
","
","
","""event"",""trial"",""time""
""fullscreenenter"",""0"",""2898""
","
","null","<p></p>","null","","","","","","","","","","","","","","","","","","","","","","","",""
"","do_trial","276","667602","0.0-146.0-0.0","""event"",""trial"",""time""
""fullscreenenter"",""0"",""2898""
","
","
","""event"",""trial"",""time""
""fullscreenenter"",""0"",""2898""
","
","261.40000009536743","","","","","","","","50","0,0,0","6","blank","357","null","0.16818920330049636","0.4596010706569076","0.17876147802371273","0","","","","","","","","",""
