"success","trial_type","trial_index","time_elapsed","internal_node_id","interactions","blur_events","focus_events","fullscreenenter_events","fullscreenexit_events","rt","stimulus","key_press","subject_id","participant_id","age","gender","prompt","response","choice_outcomes","context_n","context_img_id","trial_n","probe_img_id","pR_red","pR_white","pR_black","outcome","is_valid","image_to_show","probed_trial","probed_context","correct","probe","probed_trial_n","probed_context_n","context_im"
"true","fullscreen","0","3248","0.0-0.0","""event"",""trial"",""time""
""fullscreenenter"",""0"",""2271""
","
","
","""event"",""trial"",""time""
""fullscreenenter"",""0"",""2271""
","
","","","","","","","","","","","","","","","","","","","","","","","","","","",""
"","pavlovia","1","3263","0.0-1.0","""event"",""trial"",""time""
""fullscreenenter"",""0"",""2271""
","
","
","""event"",""trial"",""time""
""fullscreenenter"",""0"",""2271""
","
","","","","","","","","","","","","","","","","","","","","","","","","","","",""
"","welc_back","2","13167","0.0-2.0","""event"",""trial"",""time""
""fullscreenenter"",""0"",""2271""
","
","
","""event"",""trial"",""time""
""fullscreenenter"",""0"",""2271""
","
","null","run_exp/static/audio/clip_29_welcome_back.m4a","null","524","928","15","Male","<div class='center'><p>Welcome to day 2!</p><p> Yesterday, you were the head captain of a pirate ship. You asked your fellow pirates to rob other ships of their gold across six different islands.</p></div>","","","","","","","","","","","","","","","","","","",""
"","html-keyboard-response","3","13978","0.0-3.0","""event"",""trial"",""time""
""fullscreenenter"",""0"",""2271""
""fullscreenexit"",""4"",""27375""
","
","
","""event"",""trial"",""time""
""fullscreenenter"",""0"",""2271""
","""event"",""trial"",""time""
""fullscreenexit"",""4"",""27375""
","803.5","<div class='center'><p>Welcome to day 2!</p><p> Yesterday, you were the head captain of a pirate ship. You asked your fellow pirates to rob other ships of their gold across six different islands.</p><p><b>[Press the space bar to continue]</b></p></div>","32","","","","","","","","","","","","","","","","","","","","","","","",""
"","day_1_summary_goal","4","31454","0.0-4.0","""event"",""trial"",""time""
""fullscreenenter"",""0"",""2271""
""fullscreenexit"",""4"",""27375""
""blur"",""5"",""43472""
""focus"",""5"",""7434977""
","""event"",""trial"",""time""
""blur"",""5"",""43472""
","""event"",""trial"",""time""
""focus"",""5"",""7434977""
","""event"",""trial"",""time""
""fullscreenenter"",""0"",""2271""
","""event"",""trial"",""time""
""fullscreenexit"",""4"",""27375""
","null","run_exp/static/audio/clip_30_goal_of_game.m4a","null","","","","","<div class='center'><p>Today, like yesterday, you get to pick which pirate you want to rob the next ship.</p><p>If the pirate is successful in robbing a ship, you get gold coins that look like this: </p><p><img src='run_exp/static/images/tutorial/reward.png' height='150'></p><p> If they were not successful in robbing the ship, then you will get no gold coins and you'll see a big red x like this: </p><p><img src='run_exp/static/images/tutorial/reward_no.png' height='150'></p></div>","","","","","","","","","","","","","","","","","","",""
"","html-keyboard-response","5","7436556","0.0-5.0","""event"",""trial"",""time""
""fullscreenenter"",""0"",""2271""
""fullscreenexit"",""4"",""27375""
""blur"",""5"",""43472""
""focus"",""5"",""7434977""
","""event"",""trial"",""time""
""blur"",""5"",""43472""
","""event"",""trial"",""time""
""focus"",""5"",""7434977""
","""event"",""trial"",""time""
""fullscreenenter"",""0"",""2271""
","""event"",""trial"",""time""
""fullscreenexit"",""4"",""27375""
","35358.300000000745","<div class='center'><p>Today, like yesterday, you get to pick which pirate you want to rob the next ship.</p><p>If the pirate is successful in robbing a ship, you get gold coins that look like this: </p><p><img src='run_exp/static/images/tutorial/reward.png' height='150'></p><p> If they were not successful in robbing the ship, then you will get no gold coins and you'll see a big red x like this: </p><p><img src='run_exp/static/images/tutorial/reward_no.png' height='150'></p><p><b>[Press the space bar to continue]</b></p></div>","32","","","","","","","","","","","","","","","","","","","","","","","",""
"","day_1_summary_pick","6","7451493","0.0-6.0","""event"",""trial"",""time""
""fullscreenenter"",""0"",""2271""
""fullscreenexit"",""4"",""27375""
""blur"",""5"",""43472""
""focus"",""5"",""7434977""
","""event"",""trial"",""time""
""blur"",""5"",""43472""
","""event"",""trial"",""time""
""focus"",""5"",""7434977""
","""event"",""trial"",""time""
""fullscreenenter"",""0"",""2271""
","""event"",""trial"",""time""
""fullscreenexit"",""4"",""27375""
","null","run_exp/static/audio/clip_31_how_to_pick_a_pirate.m4a","null","","","","","<div class='center'><p>Also, just like yesterday, you will use the 1,2,3 keys on your keyboard to pick a pirate. Press '1' to choose red beard, '2' to choose white beard, and '3' to choose black beard . You only have 3 seconds to pick a pirate, so please make a choice quickly!</p></div>","","","","","","","","","","","","","","","","","","",""
"","html-keyboard-response","7","7451568","0.0-7.0","""event"",""trial"",""time""
""fullscreenenter"",""0"",""2271""
""fullscreenexit"",""4"",""27375""
""blur"",""5"",""43472""
""focus"",""5"",""7434977""
","""event"",""trial"",""time""
""blur"",""5"",""43472""
","""event"",""trial"",""time""
""focus"",""5"",""7434977""
","""event"",""trial"",""time""
""fullscreenenter"",""0"",""2271""
","""event"",""trial"",""time""
""fullscreenexit"",""4"",""27375""
","72.79999999701977","<div class='center'><p>Also, just like yesterday, you will use the 1,2,3 keys on your keyboard to pick a pirate. Press '1' to choose red beard, '2' to choose white beard, and '3' to choose black beard . You only have 3 seconds to pick a pirate, so please make a choice quickly!</p><p><b>[Press the space bar to continue]</b></p></div>","32","","","","","","","","","","","","","","","","","","","","","","","",""
"","test_phase_begin","8","7482254","0.0-8.0","""event"",""trial"",""time""
""fullscreenenter"",""0"",""2271""
""fullscreenexit"",""4"",""27375""
""blur"",""5"",""43472""
""focus"",""5"",""7434977""
","""event"",""trial"",""time""
""blur"",""5"",""43472""
","""event"",""trial"",""time""
""focus"",""5"",""7434977""
","""event"",""trial"",""time""
""fullscreenenter"",""0"",""2271""
","""event"",""trial"",""time""
""fullscreenexit"",""4"",""27375""
","null","run_exp/static/audio/clip_32_final_place.m4a","null","","","","","<div class='center'><p>You’ve arrived at the final island of your journey! Unfortunately, it’s very foggy out, so you won’t be able to see it in the distance like the other islands you've visited.</p><p>You’ll still be deciding which pirate you want to rob a ship like before. However, because of the fog, you also won’t be able to see the ship.</p><p>This means you do not have to remember the ships you rob on this island.</p><p>Unlike yesterday, you won't be visiting multiple islands today. You will stay on this island for the entire game. This game will last ~30 minutes.</p></div>","","","","","","","","","","","","","","","","","","",""
"","html-keyboard-response","9","7483650","0.0-9.0","""event"",""trial"",""time""
""fullscreenenter"",""0"",""2271""
""fullscreenexit"",""4"",""27375""
""blur"",""5"",""43472""
""focus"",""5"",""7434977""
","""event"",""trial"",""time""
""blur"",""5"",""43472""
","""event"",""trial"",""time""
""focus"",""5"",""7434977""
","""event"",""trial"",""time""
""fullscreenenter"",""0"",""2271""
","""event"",""trial"",""time""
""fullscreenexit"",""4"",""27375""
","1393.3999999985099","<div class='center'><p>You’ve arrived at the final island of your journey! Unfortunately, it’s very foggy out, so you won’t be able to see it in the distance like the other islands you've visited.</p><p>You’ll still be deciding which pirate you want to rob a ship like before. However, because of the fog, you also won’t be able to see the ship.</p><p>This means you do not have to remember the ships you rob on this island.</p><p>Unlike yesterday, you won't be visiting multiple islands today. You will stay on this island for the entire game. This game will last ~30 minutes.</p><p><b>[Press the space bar to continue]</b></p></div>","32","","","","","","","","","","","","","","","","","","","","","","","",""
"","explain_probe_1","10","7491547","0.0-10.0","""event"",""trial"",""time""
""fullscreenenter"",""0"",""2271""
""fullscreenexit"",""4"",""27375""
""blur"",""5"",""43472""
""focus"",""5"",""7434977""
","""event"",""trial"",""time""
""blur"",""5"",""43472""
","""event"",""trial"",""time""
""focus"",""5"",""7434977""
","""event"",""trial"",""time""
""fullscreenenter"",""0"",""2271""
","""event"",""trial"",""time""
""fullscreenexit"",""4"",""27375""
","null","run_exp/static/audio/clip_33_recognition_1.m4a","null","","","","","<div class='center'><p> Sometimes you’ll be shown a ship, and you will be asked if you saw this ship on a past island.</p><p> Here is an example of what you will see.</p><p><img src='run_exp/static/images/tutorial/example_recog_trial.png' height='500'></p></div>","","","","","","","","","","","","","","","","","","",""
"","html-keyboard-response","11","7492261","0.0-11.0","""event"",""trial"",""time""
""fullscreenenter"",""0"",""2271""
""fullscreenexit"",""4"",""27375""
""blur"",""5"",""43472""
""focus"",""5"",""7434977""
","""event"",""trial"",""time""
""blur"",""5"",""43472""
","""event"",""trial"",""time""
""focus"",""5"",""7434977""
","""event"",""trial"",""time""
""fullscreenenter"",""0"",""2271""
","""event"",""trial"",""time""
""fullscreenexit"",""4"",""27375""
","708.4000000022352","<div class='center'><p> Sometimes you’ll be shown a ship, and you will be asked if you saw this ship on a past island.</p><p> Here is an example of what you will see.</p><p><img src='run_exp/static/images/tutorial/example_recog_trial.png' height='500'></p><p><b>[Press the space bar to continue]</b></p></div>","32","","","","","","","","","","","","","","","","","","","","","","","",""
"","explain_probe_2","12","7514127","0.0-12.0","""event"",""trial"",""time""
""fullscreenenter"",""0"",""2271""
""fullscreenexit"",""4"",""27375""
""blur"",""5"",""43472""
""focus"",""5"",""7434977""
","""event"",""trial"",""time""
""blur"",""5"",""43472""
","""event"",""trial"",""time""
""focus"",""5"",""7434977""
","""event"",""trial"",""time""
""fullscreenenter"",""0"",""2271""
","""event"",""trial"",""time""
""fullscreenexit"",""4"",""27375""
","null","run_exp/static/audio/clip_34_recognition_2.m4a","null","","","","","<div class='center'><p> You will press the 5, 6, 7, 8 keys on your keyboard to respond.</p><p>If you are sure you saw the ship, press <b>5</b> on your keyboard.</p><p> If you think you saw it before but aren't sure, then press <b>6</b>.</p><p> If you think you have <b>not</b> seen it before but aren't sure, then press <b>7</b>.</p><p> If you are sure you did <b>not</b> see the ship before, then press <b>8</b>.</p><p><img src='run_exp/static/images/tutorial/example_recog_trial.png' height='500'></p></div>","","","","","","","","","","","","","","","","","","",""
"","html-keyboard-response","13","7514334","0.0-13.0","""event"",""trial"",""time""
""fullscreenenter"",""0"",""2271""
""fullscreenexit"",""4"",""27375""
""blur"",""5"",""43472""
""focus"",""5"",""7434977""
","""event"",""trial"",""time""
""blur"",""5"",""43472""
","""event"",""trial"",""time""
""focus"",""5"",""7434977""
","""event"",""trial"",""time""
""fullscreenenter"",""0"",""2271""
","""event"",""trial"",""time""
""fullscreenexit"",""4"",""27375""
","204.39999999850988","<div class='center'><p> You will press the 5, 6, 7, 8 keys on your keyboard to respond.</p><p>If you are sure you saw the ship, press <b>5</b> on your keyboard.</p><p> If you think you saw it before but aren't sure, then press <b>6</b>.</p><p> If you think you have <b>not</b> seen it before but aren't sure, then press <b>7</b>.</p><p> If you are sure you did <b>not</b> see the ship before, then press <b>8</b>.</p><p><img src='run_exp/static/images/tutorial/example_recog_trial.png' height='500'></p><p><b>[Press the space bar to continue]</b></p></div>","32","","","","","","","","","","","","","","","","","","","","","","","",""
"","explain_outcome","14","7531787","0.0-14.0","""event"",""trial"",""time""
""fullscreenenter"",""0"",""2271""
""fullscreenexit"",""4"",""27375""
""blur"",""5"",""43472""
""focus"",""5"",""7434977""
","""event"",""trial"",""time""
""blur"",""5"",""43472""
","""event"",""trial"",""time""
""focus"",""5"",""7434977""
","""event"",""trial"",""time""
""fullscreenenter"",""0"",""2271""
","""event"",""trial"",""time""
""fullscreenexit"",""4"",""27375""
","null","run_exp/static/audio/clip_35_recognition_3.m4a","null","","","","","<div class='center'><p> If you remember correctly, then you’ll get a gold coin like this: </p><p><img src='run_exp/static/images/tutorial/reward_small.png' height='200'></p><p>If you do not remember correctly, then you'll see a red x like this: </p><p><img src='run_exp/static/images/tutorial/reward_no.png' height='200'></p><p>Importantly, when you are shown a ship, take the time to remind yourself which island you saw it on. This will help you in the next part of the study.</p></div>","","","","","","","","","","","","","","","","","","",""
"","html-keyboard-response","15","7532520","0.0-15.0","""event"",""trial"",""time""
""fullscreenenter"",""0"",""2271""
""fullscreenexit"",""4"",""27375""
""blur"",""5"",""43472""
""focus"",""5"",""7434977""
""blur"",""16"",""7538212""
""focus"",""16"",""7542152""
","""event"",""trial"",""time""
""blur"",""5"",""43472""
""blur"",""16"",""7538212""
","""event"",""trial"",""time""
""focus"",""5"",""7434977""
""focus"",""16"",""7542152""
","""event"",""trial"",""time""
""fullscreenenter"",""0"",""2271""
","""event"",""trial"",""time""
""fullscreenexit"",""4"",""27375""
","724.8000000007451","<div class='center'><p> If you remember correctly, then you’ll get a gold coin like this: </p><p><img src='run_exp/static/images/tutorial/reward_small.png' height='200'></p><p>If you do not remember correctly, then you'll see a red x like this: </p><p><img src='run_exp/static/images/tutorial/reward_no.png' height='200'></p><p>Importantly, when you are shown a ship, take the time to remind yourself which island you saw it on. This will help you in the next part of the study.</p><p><b>[Press the space bar to continue]</b></p></div>","32","","","","","","","","","","","","","","","","","","","","","","","",""
"","begin_test_phase","16","7548604","0.0-16.0","""event"",""trial"",""time""
""fullscreenenter"",""0"",""2271""
""fullscreenexit"",""4"",""27375""
""blur"",""5"",""43472""
""focus"",""5"",""7434977""
""blur"",""16"",""7538212""
""focus"",""16"",""7542152""
","""event"",""trial"",""time""
""blur"",""5"",""43472""
""blur"",""16"",""7538212""
","""event"",""trial"",""time""
""focus"",""5"",""7434977""
""focus"",""16"",""7542152""
","""event"",""trial"",""time""
""fullscreenenter"",""0"",""2271""
","""event"",""trial"",""time""
""fullscreenexit"",""4"",""27375""
","null","run_exp/static/audio/clip_36_begin_final.m4a","null","","","","","<div class='center'><p>Let's go over the important points again. Your job is to: </p><p>1. Pick the pirate who is best at robbing ships and will bring you back gold coins. </p><p>2. Correctly remember whether or not you saw a ship before. If you did see the ship before, remind yourself on which island you saw it. </p></div>","","","","","","","","","","","","","","","","","","",""
"","html-keyboard-response","17","7548778","0.0-17.0","""event"",""trial"",""time""
""fullscreenenter"",""0"",""2271""
""fullscreenexit"",""4"",""27375""
""blur"",""5"",""43472""
""focus"",""5"",""7434977""
""blur"",""16"",""7538212""
""focus"",""16"",""7542152""
","""event"",""trial"",""time""
""blur"",""5"",""43472""
""blur"",""16"",""7538212""
","""event"",""trial"",""time""
""focus"",""5"",""7434977""
""focus"",""16"",""7542152""
","""event"",""trial"",""time""
""fullscreenenter"",""0"",""2271""
","""event"",""trial"",""time""
""fullscreenexit"",""4"",""27375""
","0.6000000014901161","<div class='center'><p>Let's go over the important points again. Your job is to: </p><p>1. Pick the pirate who is best at robbing ships and will bring you back gold coins. </p><p>2. Correctly remember whether or not you saw a ship before. If you did see the ship before, remind yourself on which island you saw it. </p><p><b>[Press the space bar to continue]</b></p></div>","32","","","","","","","","","","","","","","","","","","","","","","","",""
"","do_welcome","18","7552796","0.0-18.0","""event"",""trial"",""time""
""fullscreenenter"",""0"",""2271""
""fullscreenexit"",""4"",""27375""
""blur"",""5"",""43472""
""focus"",""5"",""7434977""
""blur"",""16"",""7538212""
""focus"",""16"",""7542152""
","""event"",""trial"",""time""
""blur"",""5"",""43472""
""blur"",""16"",""7538212""
","""event"",""trial"",""time""
""focus"",""5"",""7434977""
""focus"",""16"",""7542152""
","""event"",""trial"",""time""
""fullscreenenter"",""0"",""2271""
","""event"",""trial"",""time""
""fullscreenexit"",""4"",""27375""
","null","","","","","","","","null","","","","","","","","","","","","","","","","","",""
"","do_trial","19","7556417","0.0-19.0-0.0","""event"",""trial"",""time""
""fullscreenenter"",""0"",""2271""
""fullscreenexit"",""4"",""27375""
""blur"",""5"",""43472""
""focus"",""5"",""7434977""
""blur"",""16"",""7538212""
""focus"",""16"",""7542152""
","""event"",""trial"",""time""
""blur"",""5"",""43472""
""blur"",""16"",""7538212""
","""event"",""trial"",""time""
""focus"",""5"",""7434977""
""focus"",""16"",""7542152""
","""event"",""trial"",""time""
""fullscreenenter"",""0"",""2271""
","""event"",""trial"",""time""
""fullscreenexit"",""4"",""27375""
","1012.6000000014901","","","","","","","","49","0,0,1","6","blank","230","null","0.08699123150237069","0.23389377337075473","0.6155644735728157","0","","","","","","","","",""
"","html-keyboard-response","20","7557424","0.0-19.0-1.0","""event"",""trial"",""time""
""fullscreenenter"",""0"",""2271""
""fullscreenexit"",""4"",""27375""
""blur"",""5"",""43472""
""focus"",""5"",""7434977""
""blur"",""16"",""7538212""
""focus"",""16"",""7542152""
","""event"",""trial"",""time""
""blur"",""5"",""43472""
""blur"",""16"",""7538212""
","""event"",""trial"",""time""
""focus"",""5"",""7434977""
""focus"",""16"",""7542152""
","""event"",""trial"",""time""
""fullscreenenter"",""0"",""2271""
","""event"",""trial"",""time""
""fullscreenexit"",""4"",""27375""
","null","<p></p>","null","","","","","","","","","","","","","","","","","","","","","","","",""
"","do_trial","21","7560386","0.0-20.0-0.0","""event"",""trial"",""time""
""fullscreenenter"",""0"",""2271""
""fullscreenexit"",""4"",""27375""
""blur"",""5"",""43472""
""focus"",""5"",""7434977""
""blur"",""16"",""7538212""
""focus"",""16"",""7542152""
","""event"",""trial"",""time""
""blur"",""5"",""43472""
""blur"",""16"",""7538212""
","""event"",""trial"",""time""
""focus"",""5"",""7434977""
""focus"",""16"",""7542152""
","""event"",""trial"",""time""
""fullscreenenter"",""0"",""2271""
","""event"",""trial"",""time""
""fullscreenexit"",""4"",""27375""
","342","","","","","","","","49","0,0,1","6","blank","231","null","0.11510079557511609","0.24310961145896018","0.5071709884705927","0","","","","","","","","",""
"","html-keyboard-response","22","7561391","0.0-20.0-1.0","""event"",""trial"",""time""
""fullscreenenter"",""0"",""2271""
""fullscreenexit"",""4"",""27375""
""blur"",""5"",""43472""
""focus"",""5"",""7434977""
""blur"",""16"",""7538212""
""focus"",""16"",""7542152""
","""event"",""trial"",""time""
""blur"",""5"",""43472""
""blur"",""16"",""7538212""
","""event"",""trial"",""time""
""focus"",""5"",""7434977""
""focus"",""16"",""7542152""
","""event"",""trial"",""time""
""fullscreenenter"",""0"",""2271""
","""event"",""trial"",""time""
""fullscreenexit"",""4"",""27375""
","null","<p></p>","null","","","","","","","","","","","","","","","","","","","","","","","",""
"","do_trial","23","7564070","0.0-21.0-0.0","""event"",""trial"",""time""
""fullscreenenter"",""0"",""2271""
""fullscreenexit"",""4"",""27375""
""blur"",""5"",""43472""
""focus"",""5"",""7434977""
""blur"",""16"",""7538212""
""focus"",""16"",""7542152""
","""event"",""trial"",""time""
""blur"",""5"",""43472""
""blur"",""16"",""7538212""
","""event"",""trial"",""time""
""focus"",""5"",""7434977""
""focus"",""16"",""7542152""
","""event"",""trial"",""time""
""fullscreenenter"",""0"",""2271""
","""event"",""trial"",""time""
""fullscreenexit"",""4"",""27375""
","73.79999999701977","","","","","","","","50","0,0,1","6","blank","232","null","0.1430559319924667","0.19592144952005502","0.4329490391341912","0","","","","","","","","",""
"","html-keyboard-response","24","7565078","0.0-21.0-1.0","""event"",""trial"",""time""
""fullscreenenter"",""0"",""2271""
""fullscreenexit"",""4"",""27375""
""blur"",""5"",""43472""
""focus"",""5"",""7434977""
""blur"",""16"",""7538212""
""focus"",""16"",""7542152""
","""event"",""trial"",""time""
""blur"",""5"",""43472""
""blur"",""16"",""7538212""
","""event"",""trial"",""time""
""focus"",""5"",""7434977""
""focus"",""16"",""7542152""
","""event"",""trial"",""time""
""fullscreenenter"",""0"",""2271""
","""event"",""trial"",""time""
""fullscreenexit"",""4"",""27375""
","null","<p></p>","null","","","","","","","","","","","","","","","","","","","","","","","",""
"","do_trial","25","7567762","0.0-22.0-0.0","""event"",""trial"",""time""
""fullscreenenter"",""0"",""2271""
""fullscreenexit"",""4"",""27375""
""blur"",""5"",""43472""
""focus"",""5"",""7434977""
""blur"",""16"",""7538212""
""focus"",""16"",""7542152""
","""event"",""trial"",""time""
""blur"",""5"",""43472""
""blur"",""16"",""7538212""
","""event"",""trial"",""time""
""focus"",""5"",""7434977""
""focus"",""16"",""7542152""
","""event"",""trial"",""time""
""fullscreenenter"",""0"",""2271""
","""event"",""trial"",""time""
""fullscreenexit"",""4"",""27375""
","78.39999999850988","","","","","","","","50","0,0,1","6","blank","233","null","0.18234391745664663","0.11377660299343077","0.5631255437625636","0","","","","","","","","",""
"","html-keyboard-response","26","7568766","0.0-22.0-1.0","""event"",""trial"",""time""
""fullscreenenter"",""0"",""2271""
""fullscreenexit"",""4"",""27375""
""blur"",""5"",""43472""
""focus"",""5"",""7434977""
""blur"",""16"",""7538212""
""focus"",""16"",""7542152""
","""event"",""trial"",""time""
""blur"",""5"",""43472""
""blur"",""16"",""7538212""
","""event"",""trial"",""time""
""focus"",""5"",""7434977""
""focus"",""16"",""7542152""
","""event"",""trial"",""time""
""fullscreenenter"",""0"",""2271""
","""event"",""trial"",""time""
""fullscreenexit"",""4"",""27375""
","null","<p></p>","null","","","","","","","","","","","","","","","","","","","","","","","",""
"","do_trial","27","7571367","0.0-23.0-0.0","""event"",""trial"",""time""
""fullscreenenter"",""0"",""2271""
""fullscreenexit"",""4"",""27375""
""blur"",""5"",""43472""
""focus"",""5"",""7434977""
""blur"",""16"",""7538212""
""focus"",""16"",""7542152""
","""event"",""trial"",""time""
""blur"",""5"",""43472""
""blur"",""16"",""7538212""
","""event"",""trial"",""time""
""focus"",""5"",""7434977""
""focus"",""16"",""7542152""
","""event"",""trial"",""time""
""fullscreenenter"",""0"",""2271""
","""event"",""trial"",""time""
""fullscreenexit"",""4"",""27375""
","5","","","","","","","","51","0,0,1","6","blank","234","null","0.2789643632699263","0.23986880399427662","0.748853566930027","1","","","","","","","","",""
"","html-keyboard-response","28","7572370","0.0-23.0-1.0","""event"",""trial"",""time""
""fullscreenenter"",""0"",""2271""
""fullscreenexit"",""4"",""27375""
""blur"",""5"",""43472""
""focus"",""5"",""7434977""
""blur"",""16"",""7538212""
""focus"",""16"",""7542152""
","""event"",""trial"",""time""
""blur"",""5"",""43472""
""blur"",""16"",""7538212""
","""event"",""trial"",""time""
""focus"",""5"",""7434977""
""focus"",""16"",""7542152""
","""event"",""trial"",""time""
""fullscreenenter"",""0"",""2271""
","""event"",""trial"",""time""
""fullscreenexit"",""4"",""27375""
","null","<p></p>","null","","","","","","","","","","","","","","","","","","","","","","","",""
"","do_trial","29","7575092","0.0-24.0-0.0","""event"",""trial"",""time""
""fullscreenenter"",""0"",""2271""
""fullscreenexit"",""4"",""27375""
""blur"",""5"",""43472""
""focus"",""5"",""7434977""
""blur"",""16"",""7538212""
""focus"",""16"",""7542152""
","""event"",""trial"",""time""
""blur"",""5"",""43472""
""blur"",""16"",""7538212""
","""event"",""trial"",""time""
""focus"",""5"",""7434977""
""focus"",""16"",""7542152""
","""event"",""trial"",""time""
""fullscreenenter"",""0"",""2271""
","""event"",""trial"",""time""
""fullscreenexit"",""4"",""27375""
","102.69999999925494","","","","","","","","51","0,0,1","6","blank","235","null","0.29816403185534307","0.3549623822341472","0.7079142148803058","1","","","","","","","","",""
"","html-keyboard-response","30","7576095","0.0-24.0-1.0","""event"",""trial"",""time""
""fullscreenenter"",""0"",""2271""
""fullscreenexit"",""4"",""27375""
""blur"",""5"",""43472""
""focus"",""5"",""7434977""
""blur"",""16"",""7538212""
""focus"",""16"",""7542152""
","""event"",""trial"",""time""
""blur"",""5"",""43472""
""blur"",""16"",""7538212""
","""event"",""trial"",""time""
""focus"",""5"",""7434977""
""focus"",""16"",""7542152""
","""event"",""trial"",""time""
""fullscreenenter"",""0"",""2271""
","""event"",""trial"",""time""
""fullscreenexit"",""4"",""27375""
","null","<p></p>","null","","","","","","","","","","","","","","","","","","","","","","","",""
"","do_trial","31","7578707","0.0-25.0-0.0","""event"",""trial"",""time""
""fullscreenenter"",""0"",""2271""
""fullscreenexit"",""4"",""27375""
""blur"",""5"",""43472""
""focus"",""5"",""7434977""
""blur"",""16"",""7538212""
""focus"",""16"",""7542152""
","""event"",""trial"",""time""
""blur"",""5"",""43472""
""blur"",""16"",""7538212""
","""event"",""trial"",""time""
""focus"",""5"",""7434977""
""focus"",""16"",""7542152""
","""event"",""trial"",""time""
""fullscreenenter"",""0"",""2271""
","""event"",""trial"",""time""
""fullscreenexit"",""4"",""27375""
","0.6000000014901161","","","","","","","","51","0,0,1","6","blank","236","null","0.14672490282621847","0.37694169517781684","0.5735758332971465","1","","","","","","","","",""
"","html-keyboard-response","32","7579710","0.0-25.0-1.0","""event"",""trial"",""time""
""fullscreenenter"",""0"",""2271""
""fullscreenexit"",""4"",""27375""
""blur"",""5"",""43472""
""focus"",""5"",""7434977""
""blur"",""16"",""7538212""
""focus"",""16"",""7542152""
","""event"",""trial"",""time""
""blur"",""5"",""43472""
""blur"",""16"",""7538212""
","""event"",""trial"",""time""
""focus"",""5"",""7434977""
""focus"",""16"",""7542152""
","""event"",""trial"",""time""
""fullscreenenter"",""0"",""2271""
","""event"",""trial"",""time""
""fullscreenexit"",""4"",""27375""
","null","<p></p>","null","","","","","","","","","","","","","","","","","","","","","","","",""
"","do_trial","33","7582311","0.0-26.0-0.0","""event"",""trial"",""time""
""fullscreenenter"",""0"",""2271""
""fullscreenexit"",""4"",""27375""
""blur"",""5"",""43472""
""focus"",""5"",""7434977""
""blur"",""16"",""7538212""
""focus"",""16"",""7542152""
","""event"",""trial"",""time""
""blur"",""5"",""43472""
""blur"",""16"",""7538212""
","""event"",""trial"",""time""
""focus"",""5"",""7434977""
""focus"",""16"",""7542152""
","""event"",""trial"",""time""
""fullscreenenter"",""0"",""2271""
","""event"",""trial"",""time""
""fullscreenexit"",""4"",""27375""
","0.5999999977648258","","","","","","","","51","0,0,1","6","blank","237","null","0.11266095739588221","0.3630813841457949","0.5316038406723148","1","","","","","","","","",""
"","html-keyboard-response","34","7583316","0.0-26.0-1.0","""event"",""trial"",""time""
""fullscreenenter"",""0"",""2271""
""fullscreenexit"",""4"",""27375""
""blur"",""5"",""43472""
""focus"",""5"",""7434977""
""blur"",""16"",""7538212""
""focus"",""16"",""7542152""
","""event"",""trial"",""time""
""blur"",""5"",""43472""
""blur"",""16"",""7538212""
","""event"",""trial"",""time""
""focus"",""5"",""7434977""
""focus"",""16"",""7542152""
","""event"",""trial"",""time""
""fullscreenenter"",""0"",""2271""
","""event"",""trial"",""time""
""fullscreenexit"",""4"",""27375""
","null","<p></p>","null","","","","","","","","","","","","","","","","","","","","","","","",""
"","do_trial","35","7585954","0.0-27.0-0.0","""event"",""trial"",""time""
""fullscreenenter"",""0"",""2271""
""fullscreenexit"",""4"",""27375""
""blur"",""5"",""43472""
""focus"",""5"",""7434977""
""blur"",""16"",""7538212""
""focus"",""16"",""7542152""
","""event"",""trial"",""time""
""blur"",""5"",""43472""
""blur"",""16"",""7538212""
","""event"",""trial"",""time""
""focus"",""5"",""7434977""
""focus"",""16"",""7542152""
","""event"",""trial"",""time""
""fullscreenenter"",""0"",""2271""
","""event"",""trial"",""time""
""fullscreenexit"",""4"",""27375""
","40.30000000074506","","","","","","","","51","0,0,0","6","blank","238","null","0.09017315722583945","0.34730776071752045","0.5014116086224485","0","","","","","","","","",""
"","html-keyboard-response","36","7586958","0.0-27.0-1.0","""event"",""trial"",""time""
""fullscreenenter"",""0"",""2271""
""fullscreenexit"",""4"",""27375""
""blur"",""5"",""43472""
""focus"",""5"",""7434977""
""blur"",""16"",""7538212""
""focus"",""16"",""7542152""
","""event"",""trial"",""time""
""blur"",""5"",""43472""
""blur"",""16"",""7538212""
","""event"",""trial"",""time""
""focus"",""5"",""7434977""
""focus"",""16"",""7542152""
","""event"",""trial"",""time""
""fullscreenenter"",""0"",""2271""
","""event"",""trial"",""time""
""fullscreenexit"",""4"",""27375""
","null","<p></p>","null","","","","","","","","","","","","","","","","","","","","","","","",""
"","do_trial","37","7589564","0.0-28.0-0.0","""event"",""trial"",""time""
""fullscreenenter"",""0"",""2271""
""fullscreenexit"",""4"",""27375""
""blur"",""5"",""43472""
""focus"",""5"",""7434977""
""blur"",""16"",""7538212""
""focus"",""16"",""7542152""
","""event"",""trial"",""time""
""blur"",""5"",""43472""
""blur"",""16"",""7538212""
","""event"",""trial"",""time""
""focus"",""5"",""7434977""
""focus"",""16"",""7542152""
","""event"",""trial"",""time""
""fullscreenenter"",""0"",""2271""
","""event"",""trial"",""time""
""fullscreenexit"",""4"",""27375""
","0.4000000022351742","","","","","","","","51","0,0,1","6","blank","239","null","0.05820886934758319","0.19269699840337645","0.6815181883960643","1","","","","","","","","",""
"","html-keyboard-response","38","7590567","0.0-28.0-1.0","""event"",""trial"",""time""
""fullscreenenter"",""0"",""2271""
""fullscreenexit"",""4"",""27375""
""blur"",""5"",""43472""
""focus"",""5"",""7434977""
""blur"",""16"",""7538212""
""focus"",""16"",""7542152""
","""event"",""trial"",""time""
""blur"",""5"",""43472""
""blur"",""16"",""7538212""
","""event"",""trial"",""time""
""focus"",""5"",""7434977""
""focus"",""16"",""7542152""
","""event"",""trial"",""time""
""fullscreenenter"",""0"",""2271""
","""event"",""trial"",""time""
""fullscreenexit"",""4"",""27375""
","null","<p></p>","null","","","","","","","","","","","","","","","","","","","","","","","",""
"","do_trial","39","7593174","0.0-29.0-0.0","""event"",""trial"",""time""
""fullscreenenter"",""0"",""2271""
""fullscreenexit"",""4"",""27375""
""blur"",""5"",""43472""
""focus"",""5"",""7434977""
""blur"",""16"",""7538212""
""focus"",""16"",""7542152""
","""event"",""trial"",""time""
""blur"",""5"",""43472""
""blur"",""16"",""7538212""
","""event"",""trial"",""time""
""focus"",""5"",""7434977""
""focus"",""16"",""7542152""
","""event"",""trial"",""time""
""fullscreenenter"",""0"",""2271""
","""event"",""trial"",""time""
""fullscreenexit"",""4"",""27375""
","0.5","","","","","","","","51","0,0,1","6","blank","240","null","0.08243984508193948","0.23862998140297653","0.6536416178220905","1","","","","","","","","",""
"","html-keyboard-response","40","7594177","0.0-29.0-1.0","""event"",""trial"",""time""
""fullscreenenter"",""0"",""2271""
""fullscreenexit"",""4"",""27375""
""blur"",""5"",""43472""
""focus"",""5"",""7434977""
""blur"",""16"",""7538212""
""focus"",""16"",""7542152""
","""event"",""trial"",""time""
""blur"",""5"",""43472""
""blur"",""16"",""7538212""
","""event"",""trial"",""time""
""focus"",""5"",""7434977""
""focus"",""16"",""7542152""
","""event"",""trial"",""time""
""fullscreenenter"",""0"",""2271""
","""event"",""trial"",""time""
""fullscreenexit"",""4"",""27375""
","null","<p></p>","null","","","","","","","","","","","","","","","","","","","","","","","",""
"","do_trial","41","7596876","0.0-30.0-0.0","""event"",""trial"",""time""
""fullscreenenter"",""0"",""2271""
""fullscreenexit"",""4"",""27375""
""blur"",""5"",""43472""
""focus"",""5"",""7434977""
""blur"",""16"",""7538212""
""focus"",""16"",""7542152""
","""event"",""trial"",""time""
""blur"",""5"",""43472""
""blur"",""16"",""7538212""
","""event"",""trial"",""time""
""focus"",""5"",""7434977""
""focus"",""16"",""7542152""
","""event"",""trial"",""time""
""fullscreenenter"",""0"",""2271""
","""event"",""trial"",""time""
""fullscreenexit"",""4"",""27375""
","97.89999999850988","","","","","","","","51","0,0,0","6","blank","241","null","0.18688441935632802","0.2841472602755321","0.7174240586086161","0","","","","","","","","",""
"","html-keyboard-response","42","7597879","0.0-30.0-1.0","""event"",""trial"",""time""
""fullscreenenter"",""0"",""2271""
""fullscreenexit"",""4"",""27375""
""blur"",""5"",""43472""
""focus"",""5"",""7434977""
""blur"",""16"",""7538212""
""focus"",""16"",""7542152""
","""event"",""trial"",""time""
""blur"",""5"",""43472""
""blur"",""16"",""7538212""
","""event"",""trial"",""time""
""focus"",""5"",""7434977""
""focus"",""16"",""7542152""
","""event"",""trial"",""time""
""fullscreenenter"",""0"",""2271""
","""event"",""trial"",""time""
""fullscreenexit"",""4"",""27375""
","null","<p></p>","null","","","","","","","","","","","","","","","","","","","","","","","",""
"","do_trial","43","7600499","0.0-31.0-0.0","""event"",""trial"",""time""
""fullscreenenter"",""0"",""2271""
""fullscreenexit"",""4"",""27375""
""blur"",""5"",""43472""
""focus"",""5"",""7434977""
""blur"",""16"",""7538212""
""focus"",""16"",""7542152""
","""event"",""trial"",""time""
""blur"",""5"",""43472""
""blur"",""16"",""7538212""
","""event"",""trial"",""time""
""focus"",""5"",""7434977""
""focus"",""16"",""7542152""
","""event"",""trial"",""time""
""fullscreenenter"",""0"",""2271""
","""event"",""trial"",""time""
""fullscreenexit"",""4"",""27375""
","18","","","","","","","","51","0,0,1","6","blank","242","null","0.5507192632405787","0.3524325301159761","0.5109180096705753","1","","","","","","","","",""
"","html-keyboard-response","44","7601509","0.0-31.0-1.0","""event"",""trial"",""time""
""fullscreenenter"",""0"",""2271""
""fullscreenexit"",""4"",""27375""
""blur"",""5"",""43472""
""focus"",""5"",""7434977""
""blur"",""16"",""7538212""
""focus"",""16"",""7542152""
","""event"",""trial"",""time""
""blur"",""5"",""43472""
""blur"",""16"",""7538212""
","""event"",""trial"",""time""
""focus"",""5"",""7434977""
""focus"",""16"",""7542152""
","""event"",""trial"",""time""
""fullscreenenter"",""0"",""2271""
","""event"",""trial"",""time""
""fullscreenexit"",""4"",""27375""
","null","<p></p>","null","","","","","","","","","","","","","","","","","","","","","","","",""
"","do_trial","45","7604104","0.0-32.0-0.0","""event"",""trial"",""time""
""fullscreenenter"",""0"",""2271""
""fullscreenexit"",""4"",""27375""
""blur"",""5"",""43472""
""focus"",""5"",""7434977""
""blur"",""16"",""7538212""
""focus"",""16"",""7542152""
","""event"",""trial"",""time""
""blur"",""5"",""43472""
""blur"",""16"",""7538212""
","""event"",""trial"",""time""
""focus"",""5"",""7434977""
""focus"",""16"",""7542152""
","""event"",""trial"",""time""
""fullscreenenter"",""0"",""2271""
","""event"",""trial"",""time""
""fullscreenexit"",""4"",""27375""
","0.5","","","","","","","","51","0,1,0","6","blank","243","null","0.6414312536020467","0.134856986398143","0.40968595038144506","0","","","","","","","","",""
"","html-keyboard-response","46","7605108","0.0-32.0-1.0","""event"",""trial"",""time""
""fullscreenenter"",""0"",""2271""
""fullscreenexit"",""4"",""27375""
""blur"",""5"",""43472""
""focus"",""5"",""7434977""
""blur"",""16"",""7538212""
""focus"",""16"",""7542152""
","""event"",""trial"",""time""
""blur"",""5"",""43472""
""blur"",""16"",""7538212""
","""event"",""trial"",""time""
""focus"",""5"",""7434977""
""focus"",""16"",""7542152""
","""event"",""trial"",""time""
""fullscreenenter"",""0"",""2271""
","""event"",""trial"",""time""
""fullscreenexit"",""4"",""27375""
","null","<p></p>","null","","","","","","","","","","","","","","","","","","","","","","","",""
"","do_trial","47","7607708","0.0-33.0-0.0","""event"",""trial"",""time""
""fullscreenenter"",""0"",""2271""
""fullscreenexit"",""4"",""27375""
""blur"",""5"",""43472""
""focus"",""5"",""7434977""
""blur"",""16"",""7538212""
""focus"",""16"",""7542152""
","""event"",""trial"",""time""
""blur"",""5"",""43472""
""blur"",""16"",""7538212""
","""event"",""trial"",""time""
""focus"",""5"",""7434977""
""focus"",""16"",""7542152""
","""event"",""trial"",""time""
""fullscreenenter"",""0"",""2271""
","""event"",""trial"",""time""
""fullscreenexit"",""4"",""27375""
","0.3999999985098839","","","","","","","","50","1,0,1","6","blank","244","null","0.6184100112248454","0.15354567823054868","0.34963776831942567","0","","","","","","","","",""
"","html-keyboard-response","48","7608712","0.0-33.0-1.0","""event"",""trial"",""time""
""fullscreenenter"",""0"",""2271""
""fullscreenexit"",""4"",""27375""
""blur"",""5"",""43472""
""focus"",""5"",""7434977""
""blur"",""16"",""7538212""
""focus"",""16"",""7542152""
","""event"",""trial"",""time""
""blur"",""5"",""43472""
""blur"",""16"",""7538212""
","""event"",""trial"",""time""
""focus"",""5"",""7434977""
""focus"",""16"",""7542152""
","""event"",""trial"",""time""
""fullscreenenter"",""0"",""2271""
","""event"",""trial"",""time""
""fullscreenexit"",""4"",""27375""
","null","<p></p>","null","","","","","","","","","","","","","","","","","","","","","","","",""
"","do_trial","49","7611397","0.0-34.0-0.0","""event"",""trial"",""time""
""fullscreenenter"",""0"",""2271""
""fullscreenexit"",""4"",""27375""
""blur"",""5"",""43472""
""focus"",""5"",""7434977""
""blur"",""16"",""7538212""
""focus"",""16"",""7542152""
","""event"",""trial"",""time""
""blur"",""5"",""43472""
""blur"",""16"",""7538212""
","""event"",""trial"",""time""
""focus"",""5"",""7434977""
""focus"",""16"",""7542152""
","""event"",""trial"",""time""
""fullscreenenter"",""0"",""2271""
","""event"",""trial"",""time""
""fullscreenexit"",""4"",""27375""
","85.30000000074506","","","","","","","","49","0,1,1","6","blank","245","null","0.5723243559006412","0.22274115416791596","0.4053240772641374","0","","","","","","","","",""
"","html-keyboard-response","50","7612402","0.0-34.0-1.0","""event"",""trial"",""time""
""fullscreenenter"",""0"",""2271""
""fullscreenexit"",""4"",""27375""
""blur"",""5"",""43472""
""focus"",""5"",""7434977""
""blur"",""16"",""7538212""
""focus"",""16"",""7542152""
","""event"",""trial"",""time""
""blur"",""5"",""43472""
""blur"",""16"",""7538212""
","""event"",""trial"",""time""
""focus"",""5"",""7434977""
""focus"",""16"",""7542152""
","""event"",""trial"",""time""
""fullscreenenter"",""0"",""2271""
","""event"",""trial"",""time""
""fullscreenexit"",""4"",""27375""
","null","<p></p>","null","","","","","","","","","","","","","","","","","","","","","","","",""
"","do_recog","51","7618423","0.0-35.0-0.0","""event"",""trial"",""time""
""fullscreenenter"",""0"",""2271""
""fullscreenexit"",""4"",""27375""
""blur"",""5"",""43472""
""focus"",""5"",""7434977""
""blur"",""16"",""7538212""
""focus"",""16"",""7542152""
","""event"",""trial"",""time""
""blur"",""5"",""43472""
""blur"",""16"",""7538212""
","""event"",""trial"",""time""
""focus"",""5"",""7434977""
""focus"",""16"",""7542152""
","""event"",""trial"",""time""
""fullscreenenter"",""0"",""2271""
","""event"",""trial"",""time""
""fullscreenexit"",""4"",""27375""
","null","","","","","","","","null","","","","246","probe-239","","","","","0","[object Object]","null","null","0","","","",""
"","html-keyboard-response","52","7619429","0.0-35.0-1.0","""event"",""trial"",""time""
""fullscreenenter"",""0"",""2271""
""fullscreenexit"",""4"",""27375""
""blur"",""5"",""43472""
""focus"",""5"",""7434977""
""blur"",""16"",""7538212""
""focus"",""16"",""7542152""
","""event"",""trial"",""time""
""blur"",""5"",""43472""
""blur"",""16"",""7538212""
","""event"",""trial"",""time""
""focus"",""5"",""7434977""
""focus"",""16"",""7542152""
","""event"",""trial"",""time""
""fullscreenenter"",""0"",""2271""
","""event"",""trial"",""time""
""fullscreenexit"",""4"",""27375""
","null","<p></p>","null","","","","","","","","","","","","","","","","","","","","","","","",""
"","do_trial","53","7625541","0.0-36.0-0.0","""event"",""trial"",""time""
""fullscreenenter"",""0"",""2271""
""fullscreenexit"",""4"",""27375""
""blur"",""5"",""43472""
""focus"",""5"",""7434977""
""blur"",""16"",""7538212""
""focus"",""16"",""7542152""
","""event"",""trial"",""time""
""blur"",""5"",""43472""
""blur"",""16"",""7538212""
","""event"",""trial"",""time""
""focus"",""5"",""7434977""
""focus"",""16"",""7542152""
","""event"",""trial"",""time""
""fullscreenenter"",""0"",""2271""
","""event"",""trial"",""time""
""fullscreenexit"",""4"",""27375""
","null","","","","","","","","null","0,0,0","6","blank","247","null","0.6335288313285404","0.2486791737529494","0.3171888234366126","","","","","","","","","",""
"","html-keyboard-response","54","7626544","0.0-36.0-1.0","""event"",""trial"",""time""
""fullscreenenter"",""0"",""2271""
""fullscreenexit"",""4"",""27375""
""blur"",""5"",""43472""
""focus"",""5"",""7434977""
""blur"",""16"",""7538212""
""focus"",""16"",""7542152""
","""event"",""trial"",""time""
""blur"",""5"",""43472""
""blur"",""16"",""7538212""
","""event"",""trial"",""time""
""focus"",""5"",""7434977""
""focus"",""16"",""7542152""
","""event"",""trial"",""time""
""fullscreenenter"",""0"",""2271""
","""event"",""trial"",""time""
""fullscreenexit"",""4"",""27375""
","null","<p></p>","null","","","","","","","","","","","","","","","","","","","","","","","",""
"","do_trial","55","7629726","0.0-37.0-0.0","""event"",""trial"",""time""
""fullscreenenter"",""0"",""2271""
""fullscreenexit"",""4"",""27375""
""blur"",""5"",""43472""
""focus"",""5"",""7434977""
""blur"",""16"",""7538212""
""focus"",""16"",""7542152""
","""event"",""trial"",""time""
""blur"",""5"",""43472""
""blur"",""16"",""7538212""
","""event"",""trial"",""time""
""focus"",""5"",""7434977""
""focus"",""16"",""7542152""
","""event"",""trial"",""time""
""fullscreenenter"",""0"",""2271""
","""event"",""trial"",""time""
""fullscreenexit"",""4"",""27375""
","575.5","","","","","","","","51","0,0,0","6","blank","248","null","0.595167716122098","0.12793872692708663","0.3536766723994991","0","","","","","","","","",""
"","html-keyboard-response","56","7630728","0.0-37.0-1.0","""event"",""trial"",""time""
""fullscreenenter"",""0"",""2271""
""fullscreenexit"",""4"",""27375""
""blur"",""5"",""43472""
""focus"",""5"",""7434977""
""blur"",""16"",""7538212""
""focus"",""16"",""7542152""
","""event"",""trial"",""time""
""blur"",""5"",""43472""
""blur"",""16"",""7538212""
","""event"",""trial"",""time""
""focus"",""5"",""7434977""
""focus"",""16"",""7542152""
","""event"",""trial"",""time""
""fullscreenenter"",""0"",""2271""
","""event"",""trial"",""time""
""fullscreenexit"",""4"",""27375""
","null","<p></p>","null","","","","","","","","","","","","","","","","","","","","","","","",""
"","do_recog","57","7633894","0.0-38.0-0.0","""event"",""trial"",""time""
""fullscreenenter"",""0"",""2271""
""fullscreenexit"",""4"",""27375""
""blur"",""5"",""43472""
""focus"",""5"",""7434977""
""blur"",""16"",""7538212""
""focus"",""16"",""7542152""
","""event"",""trial"",""time""
""blur"",""5"",""43472""
""blur"",""16"",""7538212""
","""event"",""trial"",""time""
""focus"",""5"",""7434977""
""focus"",""16"",""7542152""
","""event"",""trial"",""time""
""fullscreenenter"",""0"",""2271""
","""event"",""trial"",""time""
""fullscreenexit"",""4"",""27375""
","1653.300000000745","","","","","","","","53","","","","249","probe-145","","","","","1","[object Object]","116","2","1","","","",""
"","html-keyboard-response","58","7634898","0.0-38.0-1.0","""event"",""trial"",""time""
""fullscreenenter"",""0"",""2271""
""fullscreenexit"",""4"",""27375""
""blur"",""5"",""43472""
""focus"",""5"",""7434977""
""blur"",""16"",""7538212""
""focus"",""16"",""7542152""
","""event"",""trial"",""time""
""blur"",""5"",""43472""
""blur"",""16"",""7538212""
","""event"",""trial"",""time""
""focus"",""5"",""7434977""
""focus"",""16"",""7542152""
","""event"",""trial"",""time""
""fullscreenenter"",""0"",""2271""
","""event"",""trial"",""time""
""fullscreenexit"",""4"",""27375""
","null","<p></p>","null","","","","","","","","","","","","","","","","","","","","","","","",""
"","do_trial","59","7638524","0.0-39.0-0.0","""event"",""trial"",""time""
""fullscreenenter"",""0"",""2271""
""fullscreenexit"",""4"",""27375""
""blur"",""5"",""43472""
""focus"",""5"",""7434977""
""blur"",""16"",""7538212""
""focus"",""16"",""7542152""
","""event"",""trial"",""time""
""blur"",""5"",""43472""
""blur"",""16"",""7538212""
","""event"",""trial"",""time""
""focus"",""5"",""7434977""
""focus"",""16"",""7542152""
","""event"",""trial"",""time""
""fullscreenenter"",""0"",""2271""
","""event"",""trial"",""time""
""fullscreenexit"",""4"",""27375""
","1006.9000000022352","","","","","","","","51","1,0,1","6","blank","250","null","0.628231435307584","0.07467953116977855","0.28280198381259763","1","","","","","","","","",""
"","html-keyboard-response","60","7639526","0.0-39.0-1.0","""event"",""trial"",""time""
""fullscreenenter"",""0"",""2271""
""fullscreenexit"",""4"",""27375""
""blur"",""5"",""43472""
""focus"",""5"",""7434977""
""blur"",""16"",""7538212""
""focus"",""16"",""7542152""
","""event"",""trial"",""time""
""blur"",""5"",""43472""
""blur"",""16"",""7538212""
","""event"",""trial"",""time""
""focus"",""5"",""7434977""
""focus"",""16"",""7542152""
","""event"",""trial"",""time""
""fullscreenenter"",""0"",""2271""
","""event"",""trial"",""time""
""fullscreenexit"",""4"",""27375""
","null","<p></p>","null","","","","","","","","","","","","","","","","","","","","","","","",""
"","do_recog","61","7642243","0.0-40.0-0.0","""event"",""trial"",""time""
""fullscreenenter"",""0"",""2271""
""fullscreenexit"",""4"",""27375""
""blur"",""5"",""43472""
""focus"",""5"",""7434977""
""blur"",""16"",""7538212""
""focus"",""16"",""7542152""
","""event"",""trial"",""time""
""blur"",""5"",""43472""
""blur"",""16"",""7538212""
","""event"",""trial"",""time""
""focus"",""5"",""7434977""
""focus"",""16"",""7542152""
","""event"",""trial"",""time""
""fullscreenenter"",""0"",""2271""
","""event"",""trial"",""time""
""fullscreenexit"",""4"",""27375""
","1202.699999999255","","","","","","","","53","","","","251","probe-64","","","","","1","[object Object]","78","1","1","","","",""
"","html-keyboard-response","62","7643245","0.0-40.0-1.0","""event"",""trial"",""time""
""fullscreenenter"",""0"",""2271""
""fullscreenexit"",""4"",""27375""
""blur"",""5"",""43472""
""focus"",""5"",""7434977""
""blur"",""16"",""7538212""
""focus"",""16"",""7542152""
","""event"",""trial"",""time""
""blur"",""5"",""43472""
""blur"",""16"",""7538212""
","""event"",""trial"",""time""
""focus"",""5"",""7434977""
""focus"",""16"",""7542152""
","""event"",""trial"",""time""
""fullscreenenter"",""0"",""2271""
","""event"",""trial"",""time""
""fullscreenexit"",""4"",""27375""
","null","<p></p>","null","","","","","","","","","","","","","","","","","","","","","","","",""
"","do_trial","63","7646359","0.0-41.0-0.0","""event"",""trial"",""time""
""fullscreenenter"",""0"",""2271""
""fullscreenexit"",""4"",""27375""
""blur"",""5"",""43472""
""focus"",""5"",""7434977""
""blur"",""16"",""7538212""
""focus"",""16"",""7542152""
","""event"",""trial"",""time""
""blur"",""5"",""43472""
""blur"",""16"",""7538212""
","""event"",""trial"",""time""
""focus"",""5"",""7434977""
""focus"",""16"",""7542152""
","""event"",""trial"",""time""
""fullscreenenter"",""0"",""2271""
","""event"",""trial"",""time""
""fullscreenexit"",""4"",""27375""
","507.1000000014901","","","","","","","","51","1,0,1","6","blank","252","null","0.5344156079121738","0.07700015881925391","0.2250363337612993","1","","","","","","","","",""
"","html-keyboard-response","64","7647362","0.0-41.0-1.0","""event"",""trial"",""time""
""fullscreenenter"",""0"",""2271""
""fullscreenexit"",""4"",""27375""
""blur"",""5"",""43472""
""focus"",""5"",""7434977""
""blur"",""16"",""7538212""
""focus"",""16"",""7542152""
","""event"",""trial"",""time""
""blur"",""5"",""43472""
""blur"",""16"",""7538212""
","""event"",""trial"",""time""
""focus"",""5"",""7434977""
""focus"",""16"",""7542152""
","""event"",""trial"",""time""
""fullscreenenter"",""0"",""2271""
","""event"",""trial"",""time""
""fullscreenexit"",""4"",""27375""
","null","<p></p>","null","","","","","","","","","","","","","","","","","","","","","","","",""
"","do_trial","65","7649967","0.0-42.0-0.0","""event"",""trial"",""time""
""fullscreenenter"",""0"",""2271""
""fullscreenexit"",""4"",""27375""
""blur"",""5"",""43472""
""focus"",""5"",""7434977""
""blur"",""16"",""7538212""
""focus"",""16"",""7542152""
","""event"",""trial"",""time""
""blur"",""5"",""43472""
""blur"",""16"",""7538212""
","""event"",""trial"",""time""
""focus"",""5"",""7434977""
""focus"",""16"",""7542152""
","""event"",""trial"",""time""
""fullscreenenter"",""0"",""2271""
","""event"",""trial"",""time""
""fullscreenexit"",""4"",""27375""
","0.8000000007450581","","","","","","","","51","1,0,0","6","blank","253","null","0.616506645006279","0.10472708084820337","0.22672924446963424","0","","","","","","","","",""
"","html-keyboard-response","66","7650970","0.0-42.0-1.0","""event"",""trial"",""time""
""fullscreenenter"",""0"",""2271""
""fullscreenexit"",""4"",""27375""
""blur"",""5"",""43472""
""focus"",""5"",""7434977""
""blur"",""16"",""7538212""
""focus"",""16"",""7542152""
","""event"",""trial"",""time""
""blur"",""5"",""43472""
""blur"",""16"",""7538212""
","""event"",""trial"",""time""
""focus"",""5"",""7434977""
""focus"",""16"",""7542152""
","""event"",""trial"",""time""
""fullscreenenter"",""0"",""2271""
","""event"",""trial"",""time""
""fullscreenexit"",""4"",""27375""
","null","<p></p>","null","","","","","","","","","","","","","","","","","","","","","","","",""
"","do_trial","67","7653604","0.0-43.0-0.0","""event"",""trial"",""time""
""fullscreenenter"",""0"",""2271""
""fullscreenexit"",""4"",""27375""
""blur"",""5"",""43472""
""focus"",""5"",""7434977""
""blur"",""16"",""7538212""
""focus"",""16"",""7542152""
","""event"",""trial"",""time""
""blur"",""5"",""43472""
""blur"",""16"",""7538212""
","""event"",""trial"",""time""
""focus"",""5"",""7434977""
""focus"",""16"",""7542152""
","""event"",""trial"",""time""
""fullscreenenter"",""0"",""2271""
","""event"",""trial"",""time""
""fullscreenexit"",""4"",""27375""
","35.100000001490116","","","","","","","","51","1,0,1","6","blank","254","null","0.5247530618007434","0.16077903272225985","0.17901824571628322","1","","","","","","","","",""
"","html-keyboard-response","68","7654607","0.0-43.0-1.0","""event"",""trial"",""time""
""fullscreenenter"",""0"",""2271""
""fullscreenexit"",""4"",""27375""
""blur"",""5"",""43472""
""focus"",""5"",""7434977""
""blur"",""16"",""7538212""
""focus"",""16"",""7542152""
","""event"",""trial"",""time""
""blur"",""5"",""43472""
""blur"",""16"",""7538212""
","""event"",""trial"",""time""
""focus"",""5"",""7434977""
""focus"",""16"",""7542152""
","""event"",""trial"",""time""
""fullscreenenter"",""0"",""2271""
","""event"",""trial"",""time""
""fullscreenexit"",""4"",""27375""
","null","<p></p>","null","","","","","","","","","","","","","","","","","","","","","","","",""
"","do_trial","69","7657223","0.0-44.0-0.0","""event"",""trial"",""time""
""fullscreenenter"",""0"",""2271""
""fullscreenexit"",""4"",""27375""
""blur"",""5"",""43472""
""focus"",""5"",""7434977""
""blur"",""16"",""7538212""
""focus"",""16"",""7542152""
","""event"",""trial"",""time""
""blur"",""5"",""43472""
""blur"",""16"",""7538212""
","""event"",""trial"",""time""
""focus"",""5"",""7434977""
""focus"",""16"",""7542152""
","""event"",""trial"",""time""
""fullscreenenter"",""0"",""2271""
","""event"",""trial"",""time""
""fullscreenexit"",""4"",""27375""
","0.30000000074505806","","","","","","","","51","0,0,0","6","blank","255","null","0.6971789474135112","0.053520366953458326","0.24352829797559902","0","","","","","","","","",""
"","html-keyboard-response","70","7658225","0.0-44.0-1.0","""event"",""trial"",""time""
""fullscreenenter"",""0"",""2271""
""fullscreenexit"",""4"",""27375""
""blur"",""5"",""43472""
""focus"",""5"",""7434977""
""blur"",""16"",""7538212""
""focus"",""16"",""7542152""
","""event"",""trial"",""time""
""blur"",""5"",""43472""
""blur"",""16"",""7538212""
","""event"",""trial"",""time""
""focus"",""5"",""7434977""
""focus"",""16"",""7542152""
","""event"",""trial"",""time""
""fullscreenenter"",""0"",""2271""
","""event"",""trial"",""time""
""fullscreenexit"",""4"",""27375""
","null","<p></p>","null","","","","","","","","","","","","","","","","","","","","","","","",""
"","do_trial","71","7660971","0.0-45.0-0.0","""event"",""trial"",""time""
""fullscreenenter"",""0"",""2271""
""fullscreenexit"",""4"",""27375""
""blur"",""5"",""43472""
""focus"",""5"",""7434977""
""blur"",""16"",""7538212""
""focus"",""16"",""7542152""
","""event"",""trial"",""time""
""blur"",""5"",""43472""
""blur"",""16"",""7538212""
","""event"",""trial"",""time""
""focus"",""5"",""7434977""
""focus"",""16"",""7542152""
","""event"",""trial"",""time""
""fullscreenenter"",""0"",""2271""
","""event"",""trial"",""time""
""fullscreenexit"",""4"",""27375""
","150.69999999925494","","","","","","","","51","1,0,1","6","blank","256","null","0.5617408982247802","0.07509168196726583","0.3483621653904546","1","","","","","","","","",""
"","html-keyboard-response","72","7661974","0.0-45.0-1.0","""event"",""trial"",""time""
""fullscreenenter"",""0"",""2271""
""fullscreenexit"",""4"",""27375""
""blur"",""5"",""43472""
""focus"",""5"",""7434977""
""blur"",""16"",""7538212""
""focus"",""16"",""7542152""
","""event"",""trial"",""time""
""blur"",""5"",""43472""
""blur"",""16"",""7538212""
","""event"",""trial"",""time""
""focus"",""5"",""7434977""
""focus"",""16"",""7542152""
","""event"",""trial"",""time""
""fullscreenenter"",""0"",""2271""
","""event"",""trial"",""time""
""fullscreenexit"",""4"",""27375""
","null","<p></p>","null","","","","","","","","","","","","","","","","","","","","","","","",""
"","do_trial","73","7664584","0.0-46.0-0.0","""event"",""trial"",""time""
""fullscreenenter"",""0"",""2271""
""fullscreenexit"",""4"",""27375""
""blur"",""5"",""43472""
""focus"",""5"",""7434977""
""blur"",""16"",""7538212""
""focus"",""16"",""7542152""
","""event"",""trial"",""time""
""blur"",""5"",""43472""
""blur"",""16"",""7538212""
","""event"",""trial"",""time""
""focus"",""5"",""7434977""
""focus"",""16"",""7542152""
","""event"",""trial"",""time""
""fullscreenenter"",""0"",""2271""
","""event"",""trial"",""time""
""fullscreenexit"",""4"",""27375""
","2.800000000745058","","","","","","","","51","1,0,1","6","blank","257","null","0.5517265058746185","0.12675510117938935","0.3166264383328696","1","","","","","","","","",""
"","html-keyboard-response","74","7665587","0.0-46.0-1.0","""event"",""trial"",""time""
""fullscreenenter"",""0"",""2271""
""fullscreenexit"",""4"",""27375""
""blur"",""5"",""43472""
""focus"",""5"",""7434977""
""blur"",""16"",""7538212""
""focus"",""16"",""7542152""
","""event"",""trial"",""time""
""blur"",""5"",""43472""
""blur"",""16"",""7538212""
","""event"",""trial"",""time""
""focus"",""5"",""7434977""
""focus"",""16"",""7542152""
","""event"",""trial"",""time""
""fullscreenenter"",""0"",""2271""
","""event"",""trial"",""time""
""fullscreenexit"",""4"",""27375""
","null","<p></p>","null","","","","","","","","","","","","","","","","","","","","","","","",""
"","do_recog","75","7668311","0.0-47.0-0.0","""event"",""trial"",""time""
""fullscreenenter"",""0"",""2271""
""fullscreenexit"",""4"",""27375""
""blur"",""5"",""43472""
""focus"",""5"",""7434977""
""blur"",""16"",""7538212""
""focus"",""16"",""7542152""
","""event"",""trial"",""time""
""blur"",""5"",""43472""
""blur"",""16"",""7538212""
","""event"",""trial"",""time""
""focus"",""5"",""7434977""
""focus"",""16"",""7542152""
","""event"",""trial"",""time""
""fullscreenenter"",""0"",""2271""
","""event"",""trial"",""time""
""fullscreenexit"",""4"",""27375""
","1214.6000000014901","","","","","","","","53","","","","258","probe-91","","","","","1","[object Object]","74","1","1","","","",""
"","html-keyboard-response","76","7669314","0.0-47.0-1.0","""event"",""trial"",""time""
""fullscreenenter"",""0"",""2271""
""fullscreenexit"",""4"",""27375""
""blur"",""5"",""43472""
""focus"",""5"",""7434977""
""blur"",""16"",""7538212""
""focus"",""16"",""7542152""
","""event"",""trial"",""time""
""blur"",""5"",""43472""
""blur"",""16"",""7538212""
","""event"",""trial"",""time""
""focus"",""5"",""7434977""
""focus"",""16"",""7542152""
","""event"",""trial"",""time""
""fullscreenenter"",""0"",""2271""
","""event"",""trial"",""time""
""fullscreenexit"",""4"",""27375""
","null","<p></p>","null","","","","","","","","","","","","","","","","","","","","","","","",""
"","do_trial","77","7672265","0.0-48.0-0.0","""event"",""trial"",""time""
""fullscreenenter"",""0"",""2271""
""fullscreenexit"",""4"",""27375""
""blur"",""5"",""43472""
""focus"",""5"",""7434977""
""blur"",""16"",""7538212""
""focus"",""16"",""7542152""
","""event"",""trial"",""time""
""blur"",""5"",""43472""
""blur"",""16"",""7538212""
","""event"",""trial"",""time""
""focus"",""5"",""7434977""
""focus"",""16"",""7542152""
","""event"",""trial"",""time""
""fullscreenenter"",""0"",""2271""
","""event"",""trial"",""time""
""fullscreenexit"",""4"",""27375""
","348.69999999925494","","","","","","","","51","1,1,0","6","blank","259","null","0.5358697410006263","0.15349326671862332","0.25647569525045805","0","","","","","","","","",""
"","html-keyboard-response","78","7673267","0.0-48.0-1.0","""event"",""trial"",""time""
""fullscreenenter"",""0"",""2271""
""fullscreenexit"",""4"",""27375""
""blur"",""5"",""43472""
""focus"",""5"",""7434977""
""blur"",""16"",""7538212""
""focus"",""16"",""7542152""
","""event"",""trial"",""time""
""blur"",""5"",""43472""
""blur"",""16"",""7538212""
","""event"",""trial"",""time""
""focus"",""5"",""7434977""
""focus"",""16"",""7542152""
","""event"",""trial"",""time""
""fullscreenenter"",""0"",""2271""
","""event"",""trial"",""time""
""fullscreenexit"",""4"",""27375""
","null","<p></p>","null","","","","","","","","","","","","","","","","","","","","","","","",""
"","do_trial","79","7675872","0.0-49.0-0.0","""event"",""trial"",""time""
""fullscreenenter"",""0"",""2271""
""fullscreenexit"",""4"",""27375""
""blur"",""5"",""43472""
""focus"",""5"",""7434977""
""blur"",""16"",""7538212""
""focus"",""16"",""7542152""
","""event"",""trial"",""time""
""blur"",""5"",""43472""
""blur"",""16"",""7538212""
","""event"",""trial"",""time""
""focus"",""5"",""7434977""
""focus"",""16"",""7542152""
","""event"",""trial"",""time""
""fullscreenenter"",""0"",""2271""
","""event"",""trial"",""time""
""fullscreenexit"",""4"",""27375""
","0.8999999985098839","","","","","","","","51","0,0,0","6","blank","260","null","0.5750028527976498","0.051587856326334516","0.147438969429436","0","","","","","","","","",""
"","html-keyboard-response","80","7676875","0.0-49.0-1.0","""event"",""trial"",""time""
""fullscreenenter"",""0"",""2271""
""fullscreenexit"",""4"",""27375""
""blur"",""5"",""43472""
""focus"",""5"",""7434977""
""blur"",""16"",""7538212""
""focus"",""16"",""7542152""
","""event"",""trial"",""time""
""blur"",""5"",""43472""
""blur"",""16"",""7538212""
","""event"",""trial"",""time""
""focus"",""5"",""7434977""
""focus"",""16"",""7542152""
","""event"",""trial"",""time""
""fullscreenenter"",""0"",""2271""
","""event"",""trial"",""time""
""fullscreenexit"",""4"",""27375""
","null","<p></p>","null","","","","","","","","","","","","","","","","","","","","","","","",""
"","do_trial","81","7679513","0.0-50.0-0.0","""event"",""trial"",""time""
""fullscreenenter"",""0"",""2271""
""fullscreenexit"",""4"",""27375""
""blur"",""5"",""43472""
""focus"",""5"",""7434977""
""blur"",""16"",""7538212""
""focus"",""16"",""7542152""
","""event"",""trial"",""time""
""blur"",""5"",""43472""
""blur"",""16"",""7538212""
","""event"",""trial"",""time""
""focus"",""5"",""7434977""
""focus"",""16"",""7542152""
","""event"",""trial"",""time""
""fullscreenenter"",""0"",""2271""
","""event"",""trial"",""time""
""fullscreenexit"",""4"",""27375""
","37.099999997764826","","","","","","","","51","0,0,0","6","blank","261","null","0.36746287290993407","0.10914679215961","0.2728165354899504","0","","","","","","","","",""
"","html-keyboard-response","82","7680519","0.0-50.0-1.0","""event"",""trial"",""time""
""fullscreenenter"",""0"",""2271""
""fullscreenexit"",""4"",""27375""
""blur"",""5"",""43472""
""focus"",""5"",""7434977""
""blur"",""16"",""7538212""
""focus"",""16"",""7542152""
","""event"",""trial"",""time""
""blur"",""5"",""43472""
""blur"",""16"",""7538212""
","""event"",""trial"",""time""
""focus"",""5"",""7434977""
""focus"",""16"",""7542152""
","""event"",""trial"",""time""
""fullscreenenter"",""0"",""2271""
","""event"",""trial"",""time""
""fullscreenexit"",""4"",""27375""
","null","<p></p>","null","","","","","","","","","","","","","","","","","","","","","","","",""
"","do_recog","83","7683201","0.0-51.0-0.0","""event"",""trial"",""time""
""fullscreenenter"",""0"",""2271""
""fullscreenexit"",""4"",""27375""
""blur"",""5"",""43472""
""focus"",""5"",""7434977""
""blur"",""16"",""7538212""
""focus"",""16"",""7542152""
","""event"",""trial"",""time""
""blur"",""5"",""43472""
""blur"",""16"",""7538212""
","""event"",""trial"",""time""
""focus"",""5"",""7434977""
""focus"",""16"",""7542152""
","""event"",""trial"",""time""
""fullscreenenter"",""0"",""2271""
","""event"",""trial"",""time""
""fullscreenexit"",""4"",""27375""
","1162.0999999977648","","","","","","","","53","","","","262","probe-41","","","","","1","[object Object]","71","1","1","","","",""
"","html-keyboard-response","84","7684207","0.0-51.0-1.0","""event"",""trial"",""time""
""fullscreenenter"",""0"",""2271""
""fullscreenexit"",""4"",""27375""
""blur"",""5"",""43472""
""focus"",""5"",""7434977""
""blur"",""16"",""7538212""
""focus"",""16"",""7542152""
","""event"",""trial"",""time""
""blur"",""5"",""43472""
""blur"",""16"",""7538212""
","""event"",""trial"",""time""
""focus"",""5"",""7434977""
""focus"",""16"",""7542152""
","""event"",""trial"",""time""
""fullscreenenter"",""0"",""2271""
","""event"",""trial"",""time""
""fullscreenexit"",""4"",""27375""
","null","<p></p>","null","","","","","","","","","","","","","","","","","","","","","","","",""
"","do_trial","85","7687106","0.0-52.0-0.0","""event"",""trial"",""time""
""fullscreenenter"",""0"",""2271""
""fullscreenexit"",""4"",""27375""
""blur"",""5"",""43472""
""focus"",""5"",""7434977""
""blur"",""16"",""7538212""
""focus"",""16"",""7542152""
","""event"",""trial"",""time""
""blur"",""5"",""43472""
""blur"",""16"",""7538212""
","""event"",""trial"",""time""
""focus"",""5"",""7434977""
""focus"",""16"",""7542152""
","""event"",""trial"",""time""
""fullscreenenter"",""0"",""2271""
","""event"",""trial"",""time""
""fullscreenexit"",""4"",""27375""
","289.80000000074506","","","","","","","","50","1,0,0","6","blank","263","null","0.3245140816538771","0.05245811543265505","0.3919020987613715","0","","","","","","","","",""
"","html-keyboard-response","86","7688110","0.0-52.0-1.0","""event"",""trial"",""time""
""fullscreenenter"",""0"",""2271""
""fullscreenexit"",""4"",""27375""
""blur"",""5"",""43472""
""focus"",""5"",""7434977""
""blur"",""16"",""7538212""
""focus"",""16"",""7542152""
","""event"",""trial"",""time""
""blur"",""5"",""43472""
""blur"",""16"",""7538212""
","""event"",""trial"",""time""
""focus"",""5"",""7434977""
""focus"",""16"",""7542152""
","""event"",""trial"",""time""
""fullscreenenter"",""0"",""2271""
","""event"",""trial"",""time""
""fullscreenexit"",""4"",""27375""
","null","<p></p>","null","","","","","","","","","","","","","","","","","","","","","","","",""
"","do_trial","87","7690719","0.0-53.0-0.0","""event"",""trial"",""time""
""fullscreenenter"",""0"",""2271""
""fullscreenexit"",""4"",""27375""
""blur"",""5"",""43472""
""focus"",""5"",""7434977""
""blur"",""16"",""7538212""
""focus"",""16"",""7542152""
","""event"",""trial"",""time""
""blur"",""5"",""43472""
""blur"",""16"",""7538212""
","""event"",""trial"",""time""
""focus"",""5"",""7434977""
""focus"",""16"",""7542152""
","""event"",""trial"",""time""
""fullscreenenter"",""0"",""2271""
","""event"",""trial"",""time""
""fullscreenexit"",""4"",""27375""
","0.3999999985098839","","","","","","","","50","1,0,0","6","blank","264","null","0.5480986298077782","0.16941883702771662","0.25994564147323784","0","","","","","","","","",""
"","html-keyboard-response","88","7691723","0.0-53.0-1.0","""event"",""trial"",""time""
""fullscreenenter"",""0"",""2271""
""fullscreenexit"",""4"",""27375""
""blur"",""5"",""43472""
""focus"",""5"",""7434977""
""blur"",""16"",""7538212""
""focus"",""16"",""7542152""
","""event"",""trial"",""time""
""blur"",""5"",""43472""
""blur"",""16"",""7538212""
","""event"",""trial"",""time""
""focus"",""5"",""7434977""
""focus"",""16"",""7542152""
","""event"",""trial"",""time""
""fullscreenenter"",""0"",""2271""
","""event"",""trial"",""time""
""fullscreenexit"",""4"",""27375""
","null","<p></p>","null","","","","","","","","","","","","","","","","","","","","","","","",""
"","do_recog","89","7694212","0.0-54.0-0.0","""event"",""trial"",""time""
""fullscreenenter"",""0"",""2271""
""fullscreenexit"",""4"",""27375""
""blur"",""5"",""43472""
""focus"",""5"",""7434977""
""blur"",""16"",""7538212""
""focus"",""16"",""7542152""
","""event"",""trial"",""time""
""blur"",""5"",""43472""
""blur"",""16"",""7538212""
","""event"",""trial"",""time""
""focus"",""5"",""7434977""
""focus"",""16"",""7542152""
","""event"",""trial"",""time""
""fullscreenenter"",""0"",""2271""
","""event"",""trial"",""time""
""fullscreenexit"",""4"",""27375""
","970","","","","","","","","53","","","","265","probe-132","","","","","1","[object Object]","156","3","1","","","",""
"","html-keyboard-response","90","7695215","0.0-54.0-1.0","""event"",""trial"",""time""
""fullscreenenter"",""0"",""2271""
""fullscreenexit"",""4"",""27375""
""blur"",""5"",""43472""
""focus"",""5"",""7434977""
""blur"",""16"",""7538212""
""focus"",""16"",""7542152""
","""event"",""trial"",""time""
""blur"",""5"",""43472""
""blur"",""16"",""7538212""
","""event"",""trial"",""time""
""focus"",""5"",""7434977""
""focus"",""16"",""7542152""
","""event"",""trial"",""time""
""fullscreenenter"",""0"",""2271""
","""event"",""trial"",""time""
""fullscreenexit"",""4"",""27375""
","null","<p></p>","null","","","","","","","","","","","","","","","","","","","","","","","",""
"","do_trial","91","7697945","0.0-55.0-0.0","""event"",""trial"",""time""
""fullscreenenter"",""0"",""2271""
""fullscreenexit"",""4"",""27375""
""blur"",""5"",""43472""
""focus"",""5"",""7434977""
""blur"",""16"",""7538212""
""focus"",""16"",""7542152""
","""event"",""trial"",""time""
""blur"",""5"",""43472""
""blur"",""16"",""7538212""
","""event"",""trial"",""time""
""focus"",""5"",""7434977""
""focus"",""16"",""7542152""
","""event"",""trial"",""time""
""fullscreenenter"",""0"",""2271""
","""event"",""trial"",""time""
""fullscreenexit"",""4"",""27375""
","131.19999999925494","","","","","","","","49","1,0,0","6","blank","266","null","0.5283405506944105","0.05412570580723438","0.36190229772887395","1","","","","","","","","",""
"","html-keyboard-response","92","7698947","0.0-55.0-1.0","""event"",""trial"",""time""
""fullscreenenter"",""0"",""2271""
""fullscreenexit"",""4"",""27375""
""blur"",""5"",""43472""
""focus"",""5"",""7434977""
""blur"",""16"",""7538212""
""focus"",""16"",""7542152""
","""event"",""trial"",""time""
""blur"",""5"",""43472""
""blur"",""16"",""7538212""
","""event"",""trial"",""time""
""focus"",""5"",""7434977""
""focus"",""16"",""7542152""
","""event"",""trial"",""time""
""fullscreenenter"",""0"",""2271""
","""event"",""trial"",""time""
""fullscreenexit"",""4"",""27375""
","null","<p></p>","null","","","","","","","","","","","","","","","","","","","","","","","",""
"","do_recog","93","7701066","0.0-56.0-0.0","""event"",""trial"",""time""
""fullscreenenter"",""0"",""2271""
""fullscreenexit"",""4"",""27375""
""blur"",""5"",""43472""
""focus"",""5"",""7434977""
""blur"",""16"",""7538212""
""focus"",""16"",""7542152""
","""event"",""trial"",""time""
""blur"",""5"",""43472""
""blur"",""16"",""7538212""
","""event"",""trial"",""time""
""focus"",""5"",""7434977""
""focus"",""16"",""7542152""
","""event"",""trial"",""time""
""fullscreenenter"",""0"",""2271""
","""event"",""trial"",""time""
""fullscreenexit"",""4"",""27375""
","607.1999999992549","","","","","","","","53","","","","267","probe-231","","","","","0","[object Object]","null","null","0","","","",""
"","html-keyboard-response","94","7702069","0.0-56.0-1.0","""event"",""trial"",""time""
""fullscreenenter"",""0"",""2271""
""fullscreenexit"",""4"",""27375""
""blur"",""5"",""43472""
""focus"",""5"",""7434977""
""blur"",""16"",""7538212""
""focus"",""16"",""7542152""
","""event"",""trial"",""time""
""blur"",""5"",""43472""
""blur"",""16"",""7538212""
","""event"",""trial"",""time""
""focus"",""5"",""7434977""
""focus"",""16"",""7542152""
","""event"",""trial"",""time""
""fullscreenenter"",""0"",""2271""
","""event"",""trial"",""time""
""fullscreenexit"",""4"",""27375""
","null","<p></p>","null","","","","","","","","","","","","","","","","","","","","","","","",""
"","do_trial","95","7704717","0.0-57.0-0.0","""event"",""trial"",""time""
""fullscreenenter"",""0"",""2271""
""fullscreenexit"",""4"",""27375""
""blur"",""5"",""43472""
""focus"",""5"",""7434977""
""blur"",""16"",""7538212""
""focus"",""16"",""7542152""
","""event"",""trial"",""time""
""blur"",""5"",""43472""
""blur"",""16"",""7538212""
","""event"",""trial"",""time""
""focus"",""5"",""7434977""
""focus"",""16"",""7542152""
","""event"",""trial"",""time""
""fullscreenenter"",""0"",""2271""
","""event"",""trial"",""time""
""fullscreenexit"",""4"",""27375""
","45.80000000074506","","","","","","","","49","1,1,0","6","blank","268","null","0.6291965723747753","0.23068864005240394","0.2900200120860965","1","","","","","","","","",""
"","html-keyboard-response","96","7705719","0.0-57.0-1.0","""event"",""trial"",""time""
""fullscreenenter"",""0"",""2271""
""fullscreenexit"",""4"",""27375""
""blur"",""5"",""43472""
""focus"",""5"",""7434977""
""blur"",""16"",""7538212""
""focus"",""16"",""7542152""
","""event"",""trial"",""time""
""blur"",""5"",""43472""
""blur"",""16"",""7538212""
","""event"",""trial"",""time""
""focus"",""5"",""7434977""
""focus"",""16"",""7542152""
","""event"",""trial"",""time""
""fullscreenenter"",""0"",""2271""
","""event"",""trial"",""time""
""fullscreenexit"",""4"",""27375""
","null","<p></p>","null","","","","","","","","","","","","","","","","","","","","","","","",""
"","break","97","7706463","0.0-58.0-0.0","""event"",""trial"",""time""
""fullscreenenter"",""0"",""2271""
""fullscreenexit"",""4"",""27375""
""blur"",""5"",""43472""
""focus"",""5"",""7434977""
""blur"",""16"",""7538212""
""focus"",""16"",""7542152""
","""event"",""trial"",""time""
""blur"",""5"",""43472""
""blur"",""16"",""7538212""
","""event"",""trial"",""time""
""focus"",""5"",""7434977""
""focus"",""16"",""7542152""
","""event"",""trial"",""time""
""fullscreenenter"",""0"",""2271""
","""event"",""trial"",""time""
""fullscreenexit"",""4"",""27375""
","741.8000000007451","<div class='center'><p>Time to take a quick break! You have 2 minutes to rest, but you can move on sooner if you'd like.</p><p> Press the <b>space bar</b> to continue.</p></div>","32","","","","","","","","","","","","","","","","","","","","","","","",""
"","do_trial","98","7709437","0.0-58.0-1.0","""event"",""trial"",""time""
""fullscreenenter"",""0"",""2271""
""fullscreenexit"",""4"",""27375""
""blur"",""5"",""43472""
""focus"",""5"",""7434977""
""blur"",""16"",""7538212""
""focus"",""16"",""7542152""
","""event"",""trial"",""time""
""blur"",""5"",""43472""
""blur"",""16"",""7538212""
","""event"",""trial"",""time""
""focus"",""5"",""7434977""
""focus"",""16"",""7542152""
","""event"",""trial"",""time""
""fullscreenenter"",""0"",""2271""
","""event"",""trial"",""time""
""fullscreenexit"",""4"",""27375""
","374.4000000022352","","","","","","","","49","1,1,1","6","blank","269","null","0.7182367346487355","0.1665376231971591","0.2594319331944407","1","","","","","","","","",""
"","html-keyboard-response","99","7710440","0.0-58.0-2.0","""event"",""trial"",""time""
""fullscreenenter"",""0"",""2271""
""fullscreenexit"",""4"",""27375""
""blur"",""5"",""43472""
""focus"",""5"",""7434977""
""blur"",""16"",""7538212""
""focus"",""16"",""7542152""
","""event"",""trial"",""time""
""blur"",""5"",""43472""
""blur"",""16"",""7538212""
","""event"",""trial"",""time""
""focus"",""5"",""7434977""
""focus"",""16"",""7542152""
","""event"",""trial"",""time""
""fullscreenenter"",""0"",""2271""
","""event"",""trial"",""time""
""fullscreenexit"",""4"",""27375""
","null","<p></p>","null","","","","","","","","","","","","","","","","","","","","","","","",""
"","do_trial","100","7713045","0.0-59.0-0.0","""event"",""trial"",""time""
""fullscreenenter"",""0"",""2271""
""fullscreenexit"",""4"",""27375""
""blur"",""5"",""43472""
""focus"",""5"",""7434977""
""blur"",""16"",""7538212""
""focus"",""16"",""7542152""
","""event"",""trial"",""time""
""blur"",""5"",""43472""
""blur"",""16"",""7538212""
","""event"",""trial"",""time""
""focus"",""5"",""7434977""
""focus"",""16"",""7542152""
","""event"",""trial"",""time""
""fullscreenenter"",""0"",""2271""
","""event"",""trial"",""time""
""fullscreenexit"",""4"",""27375""
","0.4000000022351742","","","","","","","","49","0,1,0","6","blank","270","null","0.603144103169228","0.21152061005457676","0.23268299290959404","0","","","","","","","","",""
"","html-keyboard-response","101","7714047","0.0-59.0-1.0","""event"",""trial"",""time""
""fullscreenenter"",""0"",""2271""
""fullscreenexit"",""4"",""27375""
""blur"",""5"",""43472""
""focus"",""5"",""7434977""
""blur"",""16"",""7538212""
""focus"",""16"",""7542152""
","""event"",""trial"",""time""
""blur"",""5"",""43472""
""blur"",""16"",""7538212""
","""event"",""trial"",""time""
""focus"",""5"",""7434977""
""focus"",""16"",""7542152""
","""event"",""trial"",""time""
""fullscreenenter"",""0"",""2271""
","""event"",""trial"",""time""
""fullscreenexit"",""4"",""27375""
","null","<p></p>","null","","","","","","","","","","","","","","","","","","","","","","","",""
"","do_trial","102","7716647","0.0-60.0-0.0","""event"",""trial"",""time""
""fullscreenenter"",""0"",""2271""
""fullscreenexit"",""4"",""27375""
""blur"",""5"",""43472""
""focus"",""5"",""7434977""
""blur"",""16"",""7538212""
""focus"",""16"",""7542152""
","""event"",""trial"",""time""
""blur"",""5"",""43472""
""blur"",""16"",""7538212""
","""event"",""trial"",""time""
""focus"",""5"",""7434977""
""focus"",""16"",""7542152""
","""event"",""trial"",""time""
""fullscreenenter"",""0"",""2271""
","""event"",""trial"",""time""
""fullscreenexit"",""4"",""27375""
","0.5","","","","","","","","51","1,0,0","6","blank","271","null","0.6695140450811888","0.15853666586669538","0.18437157926778205","0","","","","","","","","",""
"","html-keyboard-response","103","7717649","0.0-60.0-1.0","""event"",""trial"",""time""
""fullscreenenter"",""0"",""2271""
""fullscreenexit"",""4"",""27375""
""blur"",""5"",""43472""
""focus"",""5"",""7434977""
""blur"",""16"",""7538212""
""focus"",""16"",""7542152""
","""event"",""trial"",""time""
""blur"",""5"",""43472""
""blur"",""16"",""7538212""
","""event"",""trial"",""time""
""focus"",""5"",""7434977""
""focus"",""16"",""7542152""
","""event"",""trial"",""time""
""fullscreenenter"",""0"",""2271""
","""event"",""trial"",""time""
""fullscreenexit"",""4"",""27375""
","null","<p></p>","null","","","","","","","","","","","","","","","","","","","","","","","",""
"","do_recog","104","7720490","0.0-61.0-0.0","""event"",""trial"",""time""
""fullscreenenter"",""0"",""2271""
""fullscreenexit"",""4"",""27375""
""blur"",""5"",""43472""
""focus"",""5"",""7434977""
""blur"",""16"",""7538212""
""focus"",""16"",""7542152""
","""event"",""trial"",""time""
""blur"",""5"",""43472""
""blur"",""16"",""7538212""
","""event"",""trial"",""time""
""focus"",""5"",""7434977""
""focus"",""16"",""7542152""
","""event"",""trial"",""time""
""fullscreenenter"",""0"",""2271""
","""event"",""trial"",""time""
""fullscreenexit"",""4"",""27375""
","1330.699999999255","","","","","","","","53","","","","272","probe-214","","","","","1","[object Object]","111","2","1","","","",""
"","html-keyboard-response","105","7721493","0.0-61.0-1.0","""event"",""trial"",""time""
""fullscreenenter"",""0"",""2271""
""fullscreenexit"",""4"",""27375""
""blur"",""5"",""43472""
""focus"",""5"",""7434977""
""blur"",""16"",""7538212""
""focus"",""16"",""7542152""
","""event"",""trial"",""time""
""blur"",""5"",""43472""
""blur"",""16"",""7538212""
","""event"",""trial"",""time""
""focus"",""5"",""7434977""
""focus"",""16"",""7542152""
","""event"",""trial"",""time""
""fullscreenenter"",""0"",""2271""
","""event"",""trial"",""time""
""fullscreenexit"",""4"",""27375""
","null","<p></p>","null","","","","","","","","","","","","","","","","","","","","","","","",""
"","do_trial","106","7724089","0.0-62.0-0.0","""event"",""trial"",""time""
""fullscreenenter"",""0"",""2271""
""fullscreenexit"",""4"",""27375""
""blur"",""5"",""43472""
""focus"",""5"",""7434977""
""blur"",""16"",""7538212""
""focus"",""16"",""7542152""
","""event"",""trial"",""time""
""blur"",""5"",""43472""
""blur"",""16"",""7538212""
","""event"",""trial"",""time""
""focus"",""5"",""7434977""
""focus"",""16"",""7542152""
","""event"",""trial"",""time""
""fullscreenenter"",""0"",""2271""
","""event"",""trial"",""time""
""fullscreenexit"",""4"",""27375""
","0.3999999985098839","","","","","","","","50","1,0,0","6","blank","273","null","0.6881846750138053","0.08659978761290389","0.19621106341358155","0","","","","","","","","",""
"","html-keyboard-response","107","7725091","0.0-62.0-1.0","""event"",""trial"",""time""
""fullscreenenter"",""0"",""2271""
""fullscreenexit"",""4"",""27375""
""blur"",""5"",""43472""
""focus"",""5"",""7434977""
""blur"",""16"",""7538212""
""focus"",""16"",""7542152""
","""event"",""trial"",""time""
""blur"",""5"",""43472""
""blur"",""16"",""7538212""
","""event"",""trial"",""time""
""focus"",""5"",""7434977""
""focus"",""16"",""7542152""
","""event"",""trial"",""time""
""fullscreenenter"",""0"",""2271""
","""event"",""trial"",""time""
""fullscreenexit"",""4"",""27375""
","null","<p></p>","null","","","","","","","","","","","","","","","","","","","","","","","",""
"","do_trial","108","7727692","0.0-63.0-0.0","""event"",""trial"",""time""
""fullscreenenter"",""0"",""2271""
""fullscreenexit"",""4"",""27375""
""blur"",""5"",""43472""
""focus"",""5"",""7434977""
""blur"",""16"",""7538212""
""focus"",""16"",""7542152""
","""event"",""trial"",""time""
""blur"",""5"",""43472""
""blur"",""16"",""7538212""
","""event"",""trial"",""time""
""focus"",""5"",""7434977""
""focus"",""16"",""7542152""
","""event"",""trial"",""time""
""fullscreenenter"",""0"",""2271""
","""event"",""trial"",""time""
""fullscreenexit"",""4"",""27375""
","2","","","","","","","","50","1,0,0","6","blank","274","null","0.555742045049971","0.08935518457631515","0.14935855112301505","0","","","","","","","","",""
"","html-keyboard-response","109","7728694","0.0-63.0-1.0","""event"",""trial"",""time""
""fullscreenenter"",""0"",""2271""
""fullscreenexit"",""4"",""27375""
""blur"",""5"",""43472""
""focus"",""5"",""7434977""
""blur"",""16"",""7538212""
""focus"",""16"",""7542152""
","""event"",""trial"",""time""
""blur"",""5"",""43472""
""blur"",""16"",""7538212""
","""event"",""trial"",""time""
""focus"",""5"",""7434977""
""focus"",""16"",""7542152""
","""event"",""trial"",""time""
""fullscreenenter"",""0"",""2271""
","""event"",""trial"",""time""
""fullscreenexit"",""4"",""27375""
","null","<p></p>","null","","","","","","","","","","","","","","","","","","","","","","","",""
"","do_trial","110","7731406","0.0-64.0-0.0","""event"",""trial"",""time""
""fullscreenenter"",""0"",""2271""
""fullscreenexit"",""4"",""27375""
""blur"",""5"",""43472""
""focus"",""5"",""7434977""
""blur"",""16"",""7538212""
""focus"",""16"",""7542152""
","""event"",""trial"",""time""
""blur"",""5"",""43472""
""blur"",""16"",""7538212""
","""event"",""trial"",""time""
""focus"",""5"",""7434977""
""focus"",""16"",""7542152""
","""event"",""trial"",""time""
""fullscreenenter"",""0"",""2271""
","""event"",""trial"",""time""
""fullscreenexit"",""4"",""27375""
","111.70000000298023","","","","","","","","50","1,0,1","6","blank","275","null","0.5460380250001888","0.09164737899649754","0.17329517153482477","0","","","","","","","","",""
"","html-keyboard-response","111","7732409","0.0-64.0-1.0","""event"",""trial"",""time""
""fullscreenenter"",""0"",""2271""
""fullscreenexit"",""4"",""27375""
""blur"",""5"",""43472""
""focus"",""5"",""7434977""
""blur"",""16"",""7538212""
""focus"",""16"",""7542152""
","""event"",""trial"",""time""
""blur"",""5"",""43472""
""blur"",""16"",""7538212""
","""event"",""trial"",""time""
""focus"",""5"",""7434977""
""focus"",""16"",""7542152""
","""event"",""trial"",""time""
""fullscreenenter"",""0"",""2271""
","""event"",""trial"",""time""
""fullscreenexit"",""4"",""27375""
","null","<p></p>","null","","","","","","","","","","","","","","","","","","","","","","","",""
"","do_trial","112","7735101","0.0-65.0-0.0","""event"",""trial"",""time""
""fullscreenenter"",""0"",""2271""
""fullscreenexit"",""4"",""27375""
""blur"",""5"",""43472""
""focus"",""5"",""7434977""
""blur"",""16"",""7538212""
""focus"",""16"",""7542152""
","""event"",""trial"",""time""
""blur"",""5"",""43472""
""blur"",""16"",""7538212""
","""event"",""trial"",""time""
""focus"",""5"",""7434977""
""focus"",""16"",""7542152""
","""event"",""trial"",""time""
""fullscreenenter"",""0"",""2271""
","""event"",""trial"",""time""
""fullscreenexit"",""4"",""27375""
","93.10000000149012","","","","","","","","51","1,0,0","6","blank","276","null","0.47919017615954645","0.19333224668982418","0.2549742761731853","0","","","","","","","","",""
"","html-keyboard-response","113","7736104","0.0-65.0-1.0","""event"",""trial"",""time""
""fullscreenenter"",""0"",""2271""
""fullscreenexit"",""4"",""27375""
""blur"",""5"",""43472""
""focus"",""5"",""7434977""
""blur"",""16"",""7538212""
""focus"",""16"",""7542152""
""blur"",""114"",""7737405""
""focus"",""114"",""7737408""
","""event"",""trial"",""time""
""blur"",""5"",""43472""
""blur"",""16"",""7538212""
""blur"",""114"",""7737405""
","""event"",""trial"",""time""
""focus"",""5"",""7434977""
""focus"",""16"",""7542152""
""focus"",""114"",""7737408""
","""event"",""trial"",""time""
""fullscreenenter"",""0"",""2271""
","""event"",""trial"",""time""
""fullscreenexit"",""4"",""27375""
","null","<p></p>","null","","","","","","","","","","","","","","","","","","","","","","","",""
"","do_trial","114","7738808","0.0-66.0-0.0","""event"",""trial"",""time""
""fullscreenenter"",""0"",""2271""
""fullscreenexit"",""4"",""27375""
""blur"",""5"",""43472""
""focus"",""5"",""7434977""
""blur"",""16"",""7538212""
""focus"",""16"",""7542152""
""blur"",""114"",""7737405""
""focus"",""114"",""7737408""
","""event"",""trial"",""time""
""blur"",""5"",""43472""
""blur"",""16"",""7538212""
""blur"",""114"",""7737405""
","""event"",""trial"",""time""
""focus"",""5"",""7434977""
""focus"",""16"",""7542152""
""focus"",""114"",""7737408""
","""event"",""trial"",""time""
""fullscreenenter"",""0"",""2271""
","""event"",""trial"",""time""
""fullscreenexit"",""4"",""27375""
","102.5","","","","","","","","51","0,1,0","6","blank","277","null","0.6192503121462507","0.07600925421492066","0.31083322107259126","0","","","","","","","","",""
"","html-keyboard-response","115","7739810","0.0-66.0-1.0","""event"",""trial"",""time""
""fullscreenenter"",""0"",""2271""
""fullscreenexit"",""4"",""27375""
""blur"",""5"",""43472""
""focus"",""5"",""7434977""
""blur"",""16"",""7538212""
""focus"",""16"",""7542152""
""blur"",""114"",""7737405""
""focus"",""114"",""7737408""
","""event"",""trial"",""time""
""blur"",""5"",""43472""
""blur"",""16"",""7538212""
""blur"",""114"",""7737405""
","""event"",""trial"",""time""
""focus"",""5"",""7434977""
""focus"",""16"",""7542152""
""focus"",""114"",""7737408""
","""event"",""trial"",""time""
""fullscreenenter"",""0"",""2271""
","""event"",""trial"",""time""
""fullscreenexit"",""4"",""27375""
","null","<p></p>","null","","","","","","","","","","","","","","","","","","","","","","","",""
"","do_recog","116","7742086","0.0-67.0-0.0","""event"",""trial"",""time""
""fullscreenenter"",""0"",""2271""
""fullscreenexit"",""4"",""27375""
""blur"",""5"",""43472""
""focus"",""5"",""7434977""
""blur"",""16"",""7538212""
""focus"",""16"",""7542152""
""blur"",""114"",""7737405""
""focus"",""114"",""7737408""
","""event"",""trial"",""time""
""blur"",""5"",""43472""
""blur"",""16"",""7538212""
""blur"",""114"",""7737405""
","""event"",""trial"",""time""
""focus"",""5"",""7434977""
""focus"",""16"",""7542152""
""focus"",""114"",""7737408""
","""event"",""trial"",""time""
""fullscreenenter"",""0"",""2271""
","""event"",""trial"",""time""
""fullscreenexit"",""4"",""27375""
","767.5","","","","","","","","53","","","","278","probe-254","","","","","0","[object Object]","null","null","0","","","",""
"","html-keyboard-response","117","7743088","0.0-67.0-1.0","""event"",""trial"",""time""
""fullscreenenter"",""0"",""2271""
""fullscreenexit"",""4"",""27375""
""blur"",""5"",""43472""
""focus"",""5"",""7434977""
""blur"",""16"",""7538212""
""focus"",""16"",""7542152""
""blur"",""114"",""7737405""
""focus"",""114"",""7737408""
","""event"",""trial"",""time""
""blur"",""5"",""43472""
""blur"",""16"",""7538212""
""blur"",""114"",""7737405""
","""event"",""trial"",""time""
""focus"",""5"",""7434977""
""focus"",""16"",""7542152""
""focus"",""114"",""7737408""
","""event"",""trial"",""time""
""fullscreenenter"",""0"",""2271""
","""event"",""trial"",""time""
""fullscreenexit"",""4"",""27375""
","null","<p></p>","null","","","","","","","","","","","","","","","","","","","","","","","",""
"","do_trial","118","7745692","0.0-68.0-0.0","""event"",""trial"",""time""
""fullscreenenter"",""0"",""2271""
""fullscreenexit"",""4"",""27375""
""blur"",""5"",""43472""
""focus"",""5"",""7434977""
""blur"",""16"",""7538212""
""focus"",""16"",""7542152""
""blur"",""114"",""7737405""
""focus"",""114"",""7737408""
","""event"",""trial"",""time""
""blur"",""5"",""43472""
""blur"",""16"",""7538212""
""blur"",""114"",""7737405""
","""event"",""trial"",""time""
""focus"",""5"",""7434977""
""focus"",""16"",""7542152""
""focus"",""114"",""7737408""
","""event"",""trial"",""time""
""fullscreenenter"",""0"",""2271""
","""event"",""trial"",""time""
""fullscreenexit"",""4"",""27375""
","2.300000000745058","","","","","","","","49","1,0,0","6","blank","279","null","0.7572931304905239","0.06574452787916206","0.36965840985788573","1","","","","","","","","",""
"","html-keyboard-response","119","7746694","0.0-68.0-1.0","""event"",""trial"",""time""
""fullscreenenter"",""0"",""2271""
""fullscreenexit"",""4"",""27375""
""blur"",""5"",""43472""
""focus"",""5"",""7434977""
""blur"",""16"",""7538212""
""focus"",""16"",""7542152""
""blur"",""114"",""7737405""
""focus"",""114"",""7737408""
","""event"",""trial"",""time""
""blur"",""5"",""43472""
""blur"",""16"",""7538212""
""blur"",""114"",""7737405""
","""event"",""trial"",""time""
""focus"",""5"",""7434977""
""focus"",""16"",""7542152""
""focus"",""114"",""7737408""
","""event"",""trial"",""time""
""fullscreenenter"",""0"",""2271""
","""event"",""trial"",""time""
""fullscreenexit"",""4"",""27375""
","null","<p></p>","null","","","","","","","","","","","","","","","","","","","","","","","",""
"","do_trial","120","7749292","0.0-69.0-0.0","""event"",""trial"",""time""
""fullscreenenter"",""0"",""2271""
""fullscreenexit"",""4"",""27375""
""blur"",""5"",""43472""
""focus"",""5"",""7434977""
""blur"",""16"",""7538212""
""focus"",""16"",""7542152""
""blur"",""114"",""7737405""
""focus"",""114"",""7737408""
","""event"",""trial"",""time""
""blur"",""5"",""43472""
""blur"",""16"",""7538212""
""blur"",""114"",""7737405""
","""event"",""trial"",""time""
""focus"",""5"",""7434977""
""focus"",""16"",""7542152""
""focus"",""114"",""7737408""
","""event"",""trial"",""time""
""fullscreenenter"",""0"",""2271""
","""event"",""trial"",""time""
""fullscreenexit"",""4"",""27375""
","1.800000000745058","","","","","","","","49","1,0,0","6","blank","280","null","0.7769546087124853","0.06635837073286675","0.3464247601478646","1","","","","","","","","",""
"","html-keyboard-response","121","7750295","0.0-69.0-1.0","""event"",""trial"",""time""
""fullscreenenter"",""0"",""2271""
""fullscreenexit"",""4"",""27375""
""blur"",""5"",""43472""
""focus"",""5"",""7434977""
""blur"",""16"",""7538212""
""focus"",""16"",""7542152""
""blur"",""114"",""7737405""
""focus"",""114"",""7737408""
","""event"",""trial"",""time""
""blur"",""5"",""43472""
""blur"",""16"",""7538212""
""blur"",""114"",""7737405""
","""event"",""trial"",""time""
""focus"",""5"",""7434977""
""focus"",""16"",""7542152""
""focus"",""114"",""7737408""
","""event"",""trial"",""time""
""fullscreenenter"",""0"",""2271""
","""event"",""trial"",""time""
""fullscreenexit"",""4"",""27375""
","null","<p></p>","null","","","","","","","","","","","","","","","","","","","","","","","",""
"","do_trial","122","7752910","0.0-70.0-0.0","""event"",""trial"",""time""
""fullscreenenter"",""0"",""2271""
""fullscreenexit"",""4"",""27375""
""blur"",""5"",""43472""
""focus"",""5"",""7434977""
""blur"",""16"",""7538212""
""focus"",""16"",""7542152""
""blur"",""114"",""7737405""
""focus"",""114"",""7737408""
","""event"",""trial"",""time""
""blur"",""5"",""43472""
""blur"",""16"",""7538212""
""blur"",""114"",""7737405""
","""event"",""trial"",""time""
""focus"",""5"",""7434977""
""focus"",""16"",""7542152""
""focus"",""114"",""7737408""
","""event"",""trial"",""time""
""fullscreenenter"",""0"",""2271""
","""event"",""trial"",""time""
""fullscreenexit"",""4"",""27375""
","0.5","","","","","","","","49","1,0,1","6","blank","281","null","0.6321171512228448","0.06282615651742987","0.23904438991875535","1","","","","","","","","",""
"","html-keyboard-response","123","7753912","0.0-70.0-1.0","""event"",""trial"",""time""
""fullscreenenter"",""0"",""2271""
""fullscreenexit"",""4"",""27375""
""blur"",""5"",""43472""
""focus"",""5"",""7434977""
""blur"",""16"",""7538212""
""focus"",""16"",""7542152""
""blur"",""114"",""7737405""
""focus"",""114"",""7737408""
","""event"",""trial"",""time""
""blur"",""5"",""43472""
""blur"",""16"",""7538212""
""blur"",""114"",""7737405""
","""event"",""trial"",""time""
""focus"",""5"",""7434977""
""focus"",""16"",""7542152""
""focus"",""114"",""7737408""
","""event"",""trial"",""time""
""fullscreenenter"",""0"",""2271""
","""event"",""trial"",""time""
""fullscreenexit"",""4"",""27375""
","null","<p></p>","null","","","","","","","","","","","","","","","","","","","","","","","",""
"","do_trial","124","7756514","0.0-71.0-0.0","""event"",""trial"",""time""
""fullscreenenter"",""0"",""2271""
""fullscreenexit"",""4"",""27375""
""blur"",""5"",""43472""
""focus"",""5"",""7434977""
""blur"",""16"",""7538212""
""focus"",""16"",""7542152""
""blur"",""114"",""7737405""
""focus"",""114"",""7737408""
","""event"",""trial"",""time""
""blur"",""5"",""43472""
""blur"",""16"",""7538212""
""blur"",""114"",""7737405""
","""event"",""trial"",""time""
""focus"",""5"",""7434977""
""focus"",""16"",""7542152""
""focus"",""114"",""7737408""
","""event"",""trial"",""time""
""fullscreenenter"",""0"",""2271""
","""event"",""trial"",""time""
""fullscreenexit"",""4"",""27375""
","0.4000000022351742","","","","","","","","49","1,0,0","6","blank","282","null","0.6755592835828281","0.07594899192212196","0.1376475906651692","1","","","","","","","","",""
"","html-keyboard-response","125","7757517","0.0-71.0-1.0","""event"",""trial"",""time""
""fullscreenenter"",""0"",""2271""
""fullscreenexit"",""4"",""27375""
""blur"",""5"",""43472""
""focus"",""5"",""7434977""
""blur"",""16"",""7538212""
""focus"",""16"",""7542152""
""blur"",""114"",""7737405""
""focus"",""114"",""7737408""
","""event"",""trial"",""time""
""blur"",""5"",""43472""
""blur"",""16"",""7538212""
""blur"",""114"",""7737405""
","""event"",""trial"",""time""
""focus"",""5"",""7434977""
""focus"",""16"",""7542152""
""focus"",""114"",""7737408""
","""event"",""trial"",""time""
""fullscreenenter"",""0"",""2271""
","""event"",""trial"",""time""
""fullscreenexit"",""4"",""27375""
","null","<p></p>","null","","","","","","","","","","","","","","","","","","","","","","","",""
"","do_recog","126","7759798","0.0-72.0-0.0","""event"",""trial"",""time""
""fullscreenenter"",""0"",""2271""
""fullscreenexit"",""4"",""27375""
""blur"",""5"",""43472""
""focus"",""5"",""7434977""
""blur"",""16"",""7538212""
""focus"",""16"",""7542152""
""blur"",""114"",""7737405""
""focus"",""114"",""7737408""
","""event"",""trial"",""time""
""blur"",""5"",""43472""
""blur"",""16"",""7538212""
""blur"",""114"",""7737405""
","""event"",""trial"",""time""
""focus"",""5"",""7434977""
""focus"",""16"",""7542152""
""focus"",""114"",""7737408""
","""event"",""trial"",""time""
""fullscreenenter"",""0"",""2271""
","""event"",""trial"",""time""
""fullscreenexit"",""4"",""27375""
","769.0999999977648","","","","","","","","53","","","","283","probe-128","","","","","1","[object Object]","158","3","1","","","",""
"","html-keyboard-response","127","7760803","0.0-72.0-1.0","""event"",""trial"",""time""
""fullscreenenter"",""0"",""2271""
""fullscreenexit"",""4"",""27375""
""blur"",""5"",""43472""
""focus"",""5"",""7434977""
""blur"",""16"",""7538212""
""focus"",""16"",""7542152""
""blur"",""114"",""7737405""
""focus"",""114"",""7737408""
","""event"",""trial"",""time""
""blur"",""5"",""43472""
""blur"",""16"",""7538212""
""blur"",""114"",""7737405""
","""event"",""trial"",""time""
""focus"",""5"",""7434977""
""focus"",""16"",""7542152""
""focus"",""114"",""7737408""
","""event"",""trial"",""time""
""fullscreenenter"",""0"",""2271""
","""event"",""trial"",""time""
""fullscreenexit"",""4"",""27375""
","null","<p></p>","null","","","","","","","","","","","","","","","","","","","","","","","",""
"","do_trial","128","7763534","0.0-73.0-0.0","""event"",""trial"",""time""
""fullscreenenter"",""0"",""2271""
""fullscreenexit"",""4"",""27375""
""blur"",""5"",""43472""
""focus"",""5"",""7434977""
""blur"",""16"",""7538212""
""focus"",""16"",""7542152""
""blur"",""114"",""7737405""
""focus"",""114"",""7737408""
","""event"",""trial"",""time""
""blur"",""5"",""43472""
""blur"",""16"",""7538212""
""blur"",""114"",""7737405""
","""event"",""trial"",""time""
""focus"",""5"",""7434977""
""focus"",""16"",""7542152""
""focus"",""114"",""7737408""
","""event"",""trial"",""time""
""fullscreenenter"",""0"",""2271""
","""event"",""trial"",""time""
""fullscreenexit"",""4"",""27375""
","123","","","","","","","","49","1,0,0","6","blank","284","null","0.6421469647128215","0.08102376848753182","0.29381884679579245","1","","","","","","","","",""
"","html-keyboard-response","129","7764537","0.0-73.0-1.0","""event"",""trial"",""time""
""fullscreenenter"",""0"",""2271""
""fullscreenexit"",""4"",""27375""
""blur"",""5"",""43472""
""focus"",""5"",""7434977""
""blur"",""16"",""7538212""
""focus"",""16"",""7542152""
""blur"",""114"",""7737405""
""focus"",""114"",""7737408""
","""event"",""trial"",""time""
""blur"",""5"",""43472""
""blur"",""16"",""7538212""
""blur"",""114"",""7737405""
","""event"",""trial"",""time""
""focus"",""5"",""7434977""
""focus"",""16"",""7542152""
""focus"",""114"",""7737408""
","""event"",""trial"",""time""
""fullscreenenter"",""0"",""2271""
","""event"",""trial"",""time""
""fullscreenexit"",""4"",""27375""
","null","<p></p>","null","","","","","","","","","","","","","","","","","","","","","","","",""
"","do_recog","130","7766874","0.0-74.0-0.0","""event"",""trial"",""time""
""fullscreenenter"",""0"",""2271""
""fullscreenexit"",""4"",""27375""
""blur"",""5"",""43472""
""focus"",""5"",""7434977""
""blur"",""16"",""7538212""
""focus"",""16"",""7542152""
