"success","trial_type","trial_index","time_elapsed","internal_node_id","interactions","blur_events","focus_events","fullscreenenter_events","fullscreenexit_events","rt","stimulus","key_press","subject_id","participant_id","age","gender","prompt","response","choice_outcomes","context_n","context_img_id","trial_n","probe_img_id","pR_red","pR_white","pR_black","outcome","is_valid","image_to_show","probed_trial","probed_context","correct","probe","probed_trial_n","probed_context_n","context_im"
"true","fullscreen","0","4064","0.0-0.0","""event"",""trial"",""time""
""fullscreenenter"",""0"",""3085""
","
","
","""event"",""trial"",""time""
""fullscreenenter"",""0"",""3085""
","
","","","","","","","","","","","","","","","","","","","","","","","","","","",""
"","pavlovia","1","4066","0.0-1.0","""event"",""trial"",""time""
""fullscreenenter"",""0"",""3085""
","
","
","""event"",""trial"",""time""
""fullscreenenter"",""0"",""3085""
","
","","","","","","","","","","","","","","","","","","","","","","","","","","",""
"","welc_back","2","13834","0.0-2.0","""event"",""trial"",""time""
""fullscreenenter"",""0"",""3085""
","
","
","""event"",""trial"",""time""
""fullscreenenter"",""0"",""3085""
","
","null","run_exp/static/audio/clip_29_welcome_back.m4a","null","1305","1302","15","Male","<div class='center'><p>Welcome to day 2!</p><p> Yesterday, you were the head captain of a pirate ship. You asked your fellow pirates to rob other ships of their gold across six different islands.</p></div>","","","","","","","","","","","","","","","","","","",""
"","html-keyboard-response","3","15423","0.0-3.0","""event"",""trial"",""time""
""fullscreenenter"",""0"",""3085""
","
","
","""event"",""trial"",""time""
""fullscreenenter"",""0"",""3085""
","
","1588","<div class='center'><p>Welcome to day 2!</p><p> Yesterday, you were the head captain of a pirate ship. You asked your fellow pirates to rob other ships of their gold across six different islands.</p><p><b>[Press the space bar to continue]</b></p></div>","32","","","","","","","","","","","","","","","","","","","","","","","",""
"","day_1_summary_goal","4","32614","0.0-4.0","""event"",""trial"",""time""
""fullscreenenter"",""0"",""3085""
","
","
","""event"",""trial"",""time""
""fullscreenenter"",""0"",""3085""
","
","null","run_exp/static/audio/clip_30_goal_of_game.m4a","null","","","","","<div class='center'><p>Today, like yesterday, you get to pick which pirate you want to rob the next ship.</p><p>If the pirate is successful in robbing a ship, you get gold coins that look like this: </p><p><img src='run_exp/static/images/tutorial/reward.png' height='150'></p><p> If they were not successful in robbing the ship, then you will get no gold coins and you'll see a big red x like this: </p><p><img src='run_exp/static/images/tutorial/reward_no.png' height='150'></p></div>","","","","","","","","","","","","","","","","","","",""
"","html-keyboard-response","5","32968","0.0-5.0","""event"",""trial"",""time""
""fullscreenenter"",""0"",""3085""
","
","
","""event"",""trial"",""time""
""fullscreenenter"",""0"",""3085""
","
","352.70000000298023","<div class='center'><p>Today, like yesterday, you get to pick which pirate you want to rob the next ship.</p><p>If the pirate is successful in robbing a ship, you get gold coins that look like this: </p><p><img src='run_exp/static/images/tutorial/reward.png' height='150'></p><p> If they were not successful in robbing the ship, then you will get no gold coins and you'll see a big red x like this: </p><p><img src='run_exp/static/images/tutorial/reward_no.png' height='150'></p><p><b>[Press the space bar to continue]</b></p></div>","32","","","","","","","","","","","","","","","","","","","","","","","",""
"","day_1_summary_pick","6","47654","0.0-6.0","""event"",""trial"",""time""
""fullscreenenter"",""0"",""3085""
","
","
","""event"",""trial"",""time""
""fullscreenenter"",""0"",""3085""
","
","null","run_exp/static/audio/clip_31_how_to_pick_a_pirate.m4a","null","","","","","<div class='center'><p>Also, just like yesterday, you will use the 1,2,3 keys on your keyboard to pick a pirate. Press '1' to choose red beard, '2' to choose white beard, and '3' to choose black beard . You only have 3 seconds to pick a pirate, so please make a choice quickly!</p></div>","","","","","","","","","","","","","","","","","","",""
"","html-keyboard-response","7","48140","0.0-7.0","""event"",""trial"",""time""
""fullscreenenter"",""0"",""3085""
","
","
","""event"",""trial"",""time""
""fullscreenenter"",""0"",""3085""
","
","485","<div class='center'><p>Also, just like yesterday, you will use the 1,2,3 keys on your keyboard to pick a pirate. Press '1' to choose red beard, '2' to choose white beard, and '3' to choose black beard . You only have 3 seconds to pick a pirate, so please make a choice quickly!</p><p><b>[Press the space bar to continue]</b></p></div>","32","","","","","","","","","","","","","","","","","","","","","","","",""
"","test_phase_begin","8","78534","0.0-8.0","""event"",""trial"",""time""
""fullscreenenter"",""0"",""3085""
","
","
","""event"",""trial"",""time""
""fullscreenenter"",""0"",""3085""
","
","null","run_exp/static/audio/clip_32_final_place.m4a","null","","","","","<div class='center'><p>You’ve arrived at the final island of your journey! Unfortunately, it’s very foggy out, so you won’t be able to see it in the distance like the other islands you've visited.</p><p>You’ll still be deciding which pirate you want to rob a ship like before. However, because of the fog, you also won’t be able to see the ship.</p><p>This means you do not have to remember the ships you rob on this island.</p><p>Unlike yesterday, you won't be visiting multiple islands today. You will stay on this island for the entire game. This game will last ~30 minutes.</p></div>","","","","","","","","","","","","","","","","","","",""
"","html-keyboard-response","9","79038","0.0-9.0","""event"",""trial"",""time""
""fullscreenenter"",""0"",""3085""
","
","
","""event"",""trial"",""time""
""fullscreenenter"",""0"",""3085""
","
","502.6000000014901","<div class='center'><p>You’ve arrived at the final island of your journey! Unfortunately, it’s very foggy out, so you won’t be able to see it in the distance like the other islands you've visited.</p><p>You’ll still be deciding which pirate you want to rob a ship like before. However, because of the fog, you also won’t be able to see the ship.</p><p>This means you do not have to remember the ships you rob on this island.</p><p>Unlike yesterday, you won't be visiting multiple islands today. You will stay on this island for the entire game. This game will last ~30 minutes.</p><p><b>[Press the space bar to continue]</b></p></div>","32","","","","","","","","","","","","","","","","","","","","","","","",""
"","explain_probe_1","10","86754","0.0-10.0","""event"",""trial"",""time""
""fullscreenenter"",""0"",""3085""
","
","
","""event"",""trial"",""time""
""fullscreenenter"",""0"",""3085""
","
","null","run_exp/static/audio/clip_33_recognition_1.m4a","null","","","","","<div class='center'><p> Sometimes you’ll be shown a ship, and you will be asked if you saw this ship on a past island.</p><p> Here is an example of what you will see.</p><p><img src='run_exp/static/images/tutorial/example_recog_trial.png' height='500'></p></div>","","","","","","","","","","","","","","","","","","",""
"","html-keyboard-response","11","88623","0.0-11.0","""event"",""trial"",""time""
""fullscreenenter"",""0"",""3085""
","
","
","""event"",""trial"",""time""
""fullscreenenter"",""0"",""3085""
","
","1868.2999999970198","<div class='center'><p> Sometimes you’ll be shown a ship, and you will be asked if you saw this ship on a past island.</p><p> Here is an example of what you will see.</p><p><img src='run_exp/static/images/tutorial/example_recog_trial.png' height='500'></p><p><b>[Press the space bar to continue]</b></p></div>","32","","","","","","","","","","","","","","","","","","","","","","","",""
"","explain_probe_2","12","110334","0.0-12.0","""event"",""trial"",""time""
""fullscreenenter"",""0"",""3085""
","
","
","""event"",""trial"",""time""
""fullscreenenter"",""0"",""3085""
","
","null","run_exp/static/audio/clip_34_recognition_2.m4a","null","","","","","<div class='center'><p> You will press the 5, 6, 7, 8 keys on your keyboard to respond.</p><p>If you are sure you saw the ship, press <b>5</b> on your keyboard.</p><p> If you think you saw it before but aren't sure, then press <b>6</b>.</p><p> If you think you have <b>not</b> seen it before but aren't sure, then press <b>7</b>.</p><p> If you are sure you did <b>not</b> see the ship before, then press <b>8</b>.</p><p><img src='run_exp/static/images/tutorial/example_recog_trial.png' height='500'></p></div>","","","","","","","","","","","","","","","","","","",""
"","html-keyboard-response","13","110667","0.0-13.0","""event"",""trial"",""time""
""fullscreenenter"",""0"",""3085""
","
","
","""event"",""trial"",""time""
""fullscreenenter"",""0"",""3085""
","
","332.6000000014901","<div class='center'><p> You will press the 5, 6, 7, 8 keys on your keyboard to respond.</p><p>If you are sure you saw the ship, press <b>5</b> on your keyboard.</p><p> If you think you saw it before but aren't sure, then press <b>6</b>.</p><p> If you think you have <b>not</b> seen it before but aren't sure, then press <b>7</b>.</p><p> If you are sure you did <b>not</b> see the ship before, then press <b>8</b>.</p><p><img src='run_exp/static/images/tutorial/example_recog_trial.png' height='500'></p><p><b>[Press the space bar to continue]</b></p></div>","32","","","","","","","","","","","","","","","","","","","","","","","",""
"","explain_outcome","14","127854","0.0-14.0","""event"",""trial"",""time""
""fullscreenenter"",""0"",""3085""
","
","
","""event"",""trial"",""time""
""fullscreenenter"",""0"",""3085""
","
","null","run_exp/static/audio/clip_35_recognition_3.m4a","null","","","","","<div class='center'><p> If you remember correctly, then you’ll get a gold coin like this: </p><p><img src='run_exp/static/images/tutorial/reward_small.png' height='200'></p><p>If you do not remember correctly, then you'll see a red x like this: </p><p><img src='run_exp/static/images/tutorial/reward_no.png' height='200'></p><p>Importantly, when you are shown a ship, take the time to remind yourself which island you saw it on. This will help you in the next part of the study.</p></div>","","","","","","","","","","","","","","","","","","",""
"","html-keyboard-response","15","128200","0.0-15.0","""event"",""trial"",""time""
""fullscreenenter"",""0"",""3085""
","
","
","""event"",""trial"",""time""
""fullscreenenter"",""0"",""3085""
","
","344.6000000014901","<div class='center'><p> If you remember correctly, then you’ll get a gold coin like this: </p><p><img src='run_exp/static/images/tutorial/reward_small.png' height='200'></p><p>If you do not remember correctly, then you'll see a red x like this: </p><p><img src='run_exp/static/images/tutorial/reward_no.png' height='200'></p><p>Importantly, when you are shown a ship, take the time to remind yourself which island you saw it on. This will help you in the next part of the study.</p><p><b>[Press the space bar to continue]</b></p></div>","32","","","","","","","","","","","","","","","","","","","","","","","",""
"","begin_test_phase","16","143994","0.0-16.0","""event"",""trial"",""time""
""fullscreenenter"",""0"",""3085""
","
","
","""event"",""trial"",""time""
""fullscreenenter"",""0"",""3085""
","
","null","run_exp/static/audio/clip_36_begin_final.m4a","null","","","","","<div class='center'><p>Let's go over the important points again. Your job is to: </p><p>1. Pick the pirate who is best at robbing ships and will bring you back gold coins. </p><p>2. Correctly remember whether or not you saw a ship before. If you did see the ship before, remind yourself on which island you saw it. </p></div>","","","","","","","","","","","","","","","","","","",""
"","html-keyboard-response","17","144226","0.0-17.0","""event"",""trial"",""time""
""fullscreenenter"",""0"",""3085""
","
","
","""event"",""trial"",""time""
""fullscreenenter"",""0"",""3085""
","
","204.69999999552965","<div class='center'><p>Let's go over the important points again. Your job is to: </p><p>1. Pick the pirate who is best at robbing ships and will bring you back gold coins. </p><p>2. Correctly remember whether or not you saw a ship before. If you did see the ship before, remind yourself on which island you saw it. </p><p><b>[Press the space bar to continue]</b></p></div>","32","","","","","","","","","","","","","","","","","","","","","","","",""
"","do_welcome","18","148239","0.0-18.0","""event"",""trial"",""time""
""fullscreenenter"",""0"",""3085""
","
","
","""event"",""trial"",""time""
""fullscreenenter"",""0"",""3085""
","
","null","","","","","","","","null","","","","","","","","","","","","","","","","","",""
"","do_trial","19","154287","0.0-19.0-0.0","""event"",""trial"",""time""
""fullscreenenter"",""0"",""3085""
","
","
","""event"",""trial"",""time""
""fullscreenenter"",""0"",""3085""
","
","null","","","","","","","","null","1,1,1","6","blank","230","null","0.2623962296182339","0.6926207906774269","0.16308649219585789","","","","","","","","","",""
"","html-keyboard-response","20","155293","0.0-19.0-1.0","""event"",""trial"",""time""
""fullscreenenter"",""0"",""3085""
","
","
","""event"",""trial"",""time""
""fullscreenenter"",""0"",""3085""
","
","null","<p></p>","null","","","","","","","","","","","","","","","","","","","","","","","",""
"","do_trial","21","158473","0.0-20.0-0.0","""event"",""trial"",""time""
""fullscreenenter"",""0"",""3085""
","
","
","""event"",""trial"",""time""
""fullscreenenter"",""0"",""3085""
","
","640","","","","","","","","49","0,0,0","6","blank","231","null","0.33141008216581475","0.7186226372505723","0.16570414928705737","0","","","","","","","","",""
"","html-keyboard-response","22","159477","0.0-20.0-1.0","""event"",""trial"",""time""
""fullscreenenter"",""0"",""3085""
","
","
","""event"",""trial"",""time""
""fullscreenenter"",""0"",""3085""
","
","null","<p></p>","null","","","","","","","","","","","","","","","","","","","","","","","",""
"","do_trial","23","162258","0.0-21.0-0.0","""event"",""trial"",""time""
""fullscreenenter"",""0"",""3085""
","
","
","""event"",""trial"",""time""
""fullscreenenter"",""0"",""3085""
","
","246","","","","","","","","50","0,1,0","6","blank","232","null","0.3565971597435776","0.7489856285573001","0.055177457285087675","1","","","","","","","","",""
"","html-keyboard-response","24","163271","0.0-21.0-1.0","""event"",""trial"",""time""
""fullscreenenter"",""0"",""3085""
","
","
","""event"",""trial"",""time""
""fullscreenenter"",""0"",""3085""
","
","null","<p></p>","null","","","","","","","","","","","","","","","","","","","","","","","",""
"","do_trial","25","165828","0.0-22.0-0.0","""event"",""trial"",""time""
""fullscreenenter"",""0"",""3085""
","
","
","""event"",""trial"",""time""
""fullscreenenter"",""0"",""3085""
","
","23.69999999552965","","","","","","","","50","0,0,0","6","blank","233","null","0.3898707527150081","0.7242682366851065","0.14607114789065812","0","","","","","","","","",""
"","html-keyboard-response","26","166840","0.0-22.0-1.0","""event"",""trial"",""time""
""fullscreenenter"",""0"",""3085""
","
","
","""event"",""trial"",""time""
""fullscreenenter"",""0"",""3085""
","
","null","<p></p>","null","","","","","","","","","","","","","","","","","","","","","","","",""
"","do_trial","27","169401","0.0-23.0-0.0","""event"",""trial"",""time""
""fullscreenenter"",""0"",""3085""
","
","
","""event"",""trial"",""time""
""fullscreenenter"",""0"",""3085""
","
","24.30000000447035","","","","","","","","50","0,0,0","6","blank","234","null","0.31166473980559467","0.5374585124559303","0.16621911248384394","0","","","","","","","","",""
"","html-keyboard-response","28","170408","0.0-23.0-1.0","""event"",""trial"",""time""
""fullscreenenter"",""0"",""3085""
","
","
","""event"",""trial"",""time""
""fullscreenenter"",""0"",""3085""
","
","null","<p></p>","null","","","","","","","","","","","","","","","","","","","","","","","",""
"","do_trial","29","173050","0.0-24.0-0.0","""event"",""trial"",""time""
""fullscreenenter"",""0"",""3085""
","
","
","""event"",""trial"",""time""
""fullscreenenter"",""0"",""3085""
","
","111","","","","","","","","50","1,0,0","6","blank","235","null","0.32608012144096654","0.6392292617746401","0.11654676310880996","0","","","","","","","","",""
"","html-keyboard-response","30","174066","0.0-24.0-1.0","""event"",""trial"",""time""
""fullscreenenter"",""0"",""3085""
","
","
","""event"",""trial"",""time""
""fullscreenenter"",""0"",""3085""
","
","null","<p></p>","null","","","","","","","","","","","","","","","","","","","","","","","",""
"","do_trial","31","176622","0.0-25.0-0.0","""event"",""trial"",""time""
""fullscreenenter"",""0"",""3085""
","
","
","""event"",""trial"",""time""
""fullscreenenter"",""0"",""3085""
","
","12.200000002980232","","","","","","","","51","0,1,0","6","blank","236","null","0.3175501360889162","0.5825838821848501","0.07594230405305614","0","","","","","","","","",""
"","html-keyboard-response","32","177625","0.0-25.0-1.0","""event"",""trial"",""time""
""fullscreenenter"",""0"",""3085""
","
","
","""event"",""trial"",""time""
""fullscreenenter"",""0"",""3085""
","
","null","<p></p>","null","","","","","","","","","","","","","","","","","","","","","","","",""
"","do_trial","33","180270","0.0-26.0-0.0","""event"",""trial"",""time""
""fullscreenenter"",""0"",""3085""
","
","
","""event"",""trial"",""time""
""fullscreenenter"",""0"",""3085""
","
","104.59999999403954","","","","","","","","51","1,0,0","6","blank","237","null","0.36233959871518795","0.5291028714790154","0.20363136844401514","0","","","","","","","","",""
"","html-keyboard-response","34","181278","0.0-26.0-1.0","""event"",""trial"",""time""
""fullscreenenter"",""0"",""3085""
","
","
","""event"",""trial"",""time""
""fullscreenenter"",""0"",""3085""
","
","null","<p></p>","null","","","","","","","","","","","","","","","","","","","","","","","",""
"","do_trial","35","183879","0.0-27.0-0.0","""event"",""trial"",""time""
""fullscreenenter"",""0"",""3085""
","
","
","""event"",""trial"",""time""
""fullscreenenter"",""0"",""3085""
","
","58.399999998509884","","","","","","","","49","0,0,1","6","blank","238","null","0.43459989960989354","0.36446124881532466","0.2340762009229375","0","","","","","","","","",""
"","html-keyboard-response","36","184885","0.0-27.0-1.0","""event"",""trial"",""time""
""fullscreenenter"",""0"",""3085""
","
","
","""event"",""trial"",""time""
""fullscreenenter"",""0"",""3085""
","
","null","<p></p>","null","","","","","","","","","","","","","","","","","","","","","","","",""
"","do_trial","37","187428","0.0-28.0-0.0","""event"",""trial"",""time""
""fullscreenenter"",""0"",""3085""
","
","
","""event"",""trial"",""time""
""fullscreenenter"",""0"",""3085""
","
","0","","","","","","","","50","1,0,0","6","blank","239","null","0.43853224991338857","0.6287125631319471","0.13479267322280158","0","","","","","","","","",""
"","html-keyboard-response","38","188431","0.0-28.0-1.0","""event"",""trial"",""time""
""fullscreenenter"",""0"",""3085""
","
","
","""event"",""trial"",""time""
""fullscreenenter"",""0"",""3085""
","
","null","<p></p>","null","","","","","","","","","","","","","","","","","","","","","","","",""
"","do_trial","39","191008","0.0-29.0-0.0","""event"",""trial"",""time""
""fullscreenenter"",""0"",""3085""
","
","
","""event"",""trial"",""time""
""fullscreenenter"",""0"",""3085""
","
","33.099999994039536","","","","","","","","51","1,0,0","6","blank","240","null","0.3951217020939408","0.6116424825409262","0.18833121099214625","0","","","","","","","","",""
"","html-keyboard-response","40","192017","0.0-29.0-1.0","""event"",""trial"",""time""
""fullscreenenter"",""0"",""3085""
","
","
","""event"",""trial"",""time""
""fullscreenenter"",""0"",""3085""
","
","null","<p></p>","null","","","","","","","","","","","","","","","","","","","","","","","",""
"","do_recog","41","198036","0.0-30.0-0.0","""event"",""trial"",""time""
""fullscreenenter"",""0"",""3085""
","
","
","""event"",""trial"",""time""
""fullscreenenter"",""0"",""3085""
","
","null","","","","","","","","null","","","","241","probe-214","","","","","1","[object Object]","30","0","0","","","",""
"","html-keyboard-response","42","199041","0.0-30.0-1.0","""event"",""trial"",""time""
""fullscreenenter"",""0"",""3085""
","
","
","""event"",""trial"",""time""
""fullscreenenter"",""0"",""3085""
","
","null","<p></p>","null","","","","","","","","","","","","","","","","","","","","","","","",""
"","do_trial","43","202278","0.0-31.0-0.0","""event"",""trial"",""time""
""fullscreenenter"",""0"",""3085""
","
","
","""event"",""trial"",""time""
""fullscreenenter"",""0"",""3085""
","
","694.3000000044703","","","","","","","","50","0,0,0","6","blank","242","null","0.3475550040581607","0.6753967175032469","0.14834735541597904","0","","","","","","","","",""
"","html-keyboard-response","44","203288","0.0-31.0-1.0","""event"",""trial"",""time""
""fullscreenenter"",""0"",""3085""
","
","
","""event"",""trial"",""time""
""fullscreenenter"",""0"",""3085""
","
","null","<p></p>","null","","","","","","","","","","","","","","","","","","","","","","","",""
"","do_recog","45","206409","0.0-32.0-0.0","""event"",""trial"",""time""
""fullscreenenter"",""0"",""3085""
","
","
","""event"",""trial"",""time""
""fullscreenenter"",""0"",""3085""
","
","1607.2000000029802","","","","","","","","56","","","","243","probe-255","","","","","0","[object Object]","null","null","1","","","",""
"","html-keyboard-response","46","207423","0.0-32.0-1.0","""event"",""trial"",""time""
""fullscreenenter"",""0"",""3085""
","
","
","""event"",""trial"",""time""
""fullscreenenter"",""0"",""3085""
","
","null","<p></p>","null","","","","","","","","","","","","","","","","","","","","","","","",""
"","do_trial","47","210707","0.0-33.0-0.0","""event"",""trial"",""time""
""fullscreenenter"",""0"",""3085""
","
","
","""event"",""trial"",""time""
""fullscreenenter"",""0"",""3085""
","
","739.6000000014901","","","","","","","","50","0,1,1","6","blank","244","null","0.45403915382249055","0.5568162446550715","0.1682606978042416","1","","","","","","","","",""
"","html-keyboard-response","48","211713","0.0-33.0-1.0","""event"",""trial"",""time""
""fullscreenenter"",""0"",""3085""
","
","
","""event"",""trial"",""time""
""fullscreenenter"",""0"",""3085""
","
","null","<p></p>","null","","","","","","","","","","","","","","","","","","","","","","","",""
"","do_recog","49","214878","0.0-34.0-0.0","""event"",""trial"",""time""
""fullscreenenter"",""0"",""3085""
","
","
","""event"",""trial"",""time""
""fullscreenenter"",""0"",""3085""
","
","1653","","","","","","","","55","","","","245","probe-172","","","","","1","[object Object]","157","3","0","","","",""
"","html-keyboard-response","50","215883","0.0-34.0-1.0","""event"",""trial"",""time""
""fullscreenenter"",""0"",""3085""
","
","
","""event"",""trial"",""time""
""fullscreenenter"",""0"",""3085""
","
","null","<p></p>","null","","","","","","","","","","","","","","","","","","","","","","","",""
"","do_trial","51","219184","0.0-35.0-0.0","""event"",""trial"",""time""
""fullscreenenter"",""0"",""3085""
","
","
","""event"",""trial"",""time""
""fullscreenenter"",""0"",""3085""
","
","755.3000000044703","","","","","","","","49","1,1,0","6","blank","246","null","0.397577557924595","0.34071204044764763","0.1284196608386569","1","","","","","","","","",""
"","html-keyboard-response","52","220194","0.0-35.0-1.0","""event"",""trial"",""time""
""fullscreenenter"",""0"",""3085""
","
","
","""event"",""trial"",""time""
""fullscreenenter"",""0"",""3085""
","
","null","<p></p>","null","","","","","","","","","","","","","","","","","","","","","","","",""
"","do_trial","53","223023","0.0-36.0-0.0","""event"",""trial"",""time""
""fullscreenenter"",""0"",""3085""
","
","
","""event"",""trial"",""time""
""fullscreenenter"",""0"",""3085""
","
","284.20000000298023","","","","","","","","49","0,0,0","6","blank","247","null","0.5071114008330502","0.324161909936327","0.15775421093116004","0","","","","","","","","",""
"","html-keyboard-response","54","224027","0.0-36.0-1.0","""event"",""trial"",""time""
""fullscreenenter"",""0"",""3085""
","
","
","""event"",""trial"",""time""
""fullscreenenter"",""0"",""3085""
","
","null","<p></p>","null","","","","","","","","","","","","","","","","","","","","","","","",""
"","do_trial","55","226656","0.0-37.0-0.0","""event"",""trial"",""time""
""fullscreenenter"",""0"",""3085""
","
","
","""event"",""trial"",""time""
""fullscreenenter"",""0"",""3085""
","
","91.40000000596046","","","","","","","","50","1,1,0","6","blank","248","null","0.6247580696165506","0.4384847123801972","0.20884004734617712","1","","","","","","","","",""
"","html-keyboard-response","56","227662","0.0-37.0-1.0","""event"",""trial"",""time""
""fullscreenenter"",""0"",""3085""
","
","
","""event"",""trial"",""time""
""fullscreenenter"",""0"",""3085""
","
","null","<p></p>","null","","","","","","","","","","","","","","","","","","","","","","","",""
"","do_trial","57","230319","0.0-38.0-0.0","""event"",""trial"",""time""
""fullscreenenter"",""0"",""3085""
","
","
","""event"",""trial"",""time""
""fullscreenenter"",""0"",""3085""
","
","115.5","","","","","","","","50","0,0,0","6","blank","249","null","0.6642056931848179","0.4227167648096354","0.18431459599606975","0","","","","","","","","",""
"","html-keyboard-response","58","231324","0.0-38.0-1.0","""event"",""trial"",""time""
""fullscreenenter"",""0"",""3085""
","
","
","""event"",""trial"",""time""
""fullscreenenter"",""0"",""3085""
","
","null","<p></p>","null","","","","","","","","","","","","","","","","","","","","","","","",""
"","do_trial","59","233939","0.0-39.0-0.0","""event"",""trial"",""time""
""fullscreenenter"",""0"",""3085""
","
","
","""event"",""trial"",""time""
""fullscreenenter"",""0"",""3085""
","
","69.19999998807907","","","","","","","","49","1,1,0","6","blank","250","null","0.6665910313062058","0.531408690795507","0.22021105005949607","1","","","","","","","","",""
"","html-keyboard-response","60","234951","0.0-39.0-1.0","""event"",""trial"",""time""
""fullscreenenter"",""0"",""3085""
","
","
","""event"",""trial"",""time""
""fullscreenenter"",""0"",""3085""
","
","null","<p></p>","null","","","","","","","","","","","","","","","","","","","","","","","",""
"","do_recog","61","237758","0.0-40.0-0.0","""event"",""trial"",""time""
""fullscreenenter"",""0"",""3085""
","
","
","""event"",""trial"",""time""
""fullscreenenter"",""0"",""3085""
","
","1301.3999999910593","","","","","","","","56","","","","251","probe-212","","","","","1","[object Object]","70","1","0","","","",""
"","html-keyboard-response","62","238765","0.0-40.0-1.0","""event"",""trial"",""time""
""fullscreenenter"",""0"",""3085""
","
","
","""event"",""trial"",""time""
""fullscreenenter"",""0"",""3085""
","
","null","<p></p>","null","","","","","","","","","","","","","","","","","","","","","","","",""
"","do_trial","63","241938","0.0-41.0-0.0","""event"",""trial"",""time""
""fullscreenenter"",""0"",""3085""
","
","
","""event"",""trial"",""time""
""fullscreenenter"",""0"",""3085""
","
","642","","","","","","","","51","0,0,0","6","blank","252","null","0.5945412176018554","0.488818077395786","0.10295391163753155","0","","","","","","","","",""
"","html-keyboard-response","64","242954","0.0-41.0-1.0","""event"",""trial"",""time""
""fullscreenenter"",""0"",""3085""
","
","
","""event"",""trial"",""time""
""fullscreenenter"",""0"",""3085""
","
","null","<p></p>","null","","","","","","","","","","","","","","","","","","","","","","","",""
"","do_recog","65","246181","0.0-42.0-0.0","""event"",""trial"",""time""
""fullscreenenter"",""0"",""3085""
","
","
","""event"",""trial"",""time""
""fullscreenenter"",""0"",""3085""
","
","1721.7000000029802","","","","","","","","54","","","","253","probe-55","","","","","1","[object Object]","110","2","1","","","",""
"","html-keyboard-response","66","247183","0.0-42.0-1.0","""event"",""trial"",""time""
""fullscreenenter"",""0"",""3085""
","
","
","""event"",""trial"",""time""
""fullscreenenter"",""0"",""3085""
","
","null","<p></p>","null","","","","","","","","","","","","","","","","","","","","","","","",""
"","do_trial","67","250221","0.0-43.0-0.0","""event"",""trial"",""time""
""fullscreenenter"",""0"",""3085""
","
","
","""event"",""trial"",""time""
""fullscreenenter"",""0"",""3085""
","
","495.80000001192093","","","","","","","","49","1,1,0","6","blank","254","null","0.55818646416457","0.45444066044121423","0.07362142832318988","1","","","","","","","","",""
"","html-keyboard-response","68","251230","0.0-43.0-1.0","""event"",""trial"",""time""
""fullscreenenter"",""0"",""3085""
","
","
","""event"",""trial"",""time""
""fullscreenenter"",""0"",""3085""
","
","null","<p></p>","null","","","","","","","","","","","","","","","","","","","","","","","",""
"","do_recog","69","254200","0.0-44.0-0.0","""event"",""trial"",""time""
""fullscreenenter"",""0"",""3085""
","
","
","""event"",""trial"",""time""
""fullscreenenter"",""0"",""3085""
","
","1454.8999999910593","","","","","","","","53","","","","255","probe-168","","","","","1","[object Object]","111","2","1","","","",""
"","html-keyboard-response","70","255210","0.0-44.0-1.0","""event"",""trial"",""time""
""fullscreenenter"",""0"",""3085""
","
","
","""event"",""trial"",""time""
""fullscreenenter"",""0"",""3085""
","
","null","<p></p>","null","","","","","","","","","","","","","","","","","","","","","","","",""
"","do_trial","71","258564","0.0-45.0-0.0","""event"",""trial"",""time""
""fullscreenenter"",""0"",""3085""
","
","
","""event"",""trial"",""time""
""fullscreenenter"",""0"",""3085""
","
","810.3999999910593","","","","","","","","50","1,0,0","6","blank","256","null","0.6253854363645618","0.3497144707584191","0.07480984636726139","0","","","","","","","","",""
"","html-keyboard-response","72","259571","0.0-45.0-1.0","""event"",""trial"",""time""
""fullscreenenter"",""0"",""3085""
","
","
","""event"",""trial"",""time""
""fullscreenenter"",""0"",""3085""
","
","null","<p></p>","null","","","","","","","","","","","","","","","","","","","","","","","",""
"","do_trial","73","262208","0.0-46.0-0.0","""event"",""trial"",""time""
""fullscreenenter"",""0"",""3085""
","
","
","""event"",""trial"",""time""
""fullscreenenter"",""0"",""3085""
","
","93.5","","","","","","","","49","1,1,0","6","blank","257","null","0.6886059804779643","0.41879132228629395","0.07949563668015386","1","","","","","","","","",""
"","html-keyboard-response","74","263217","0.0-46.0-1.0","""event"",""trial"",""time""
""fullscreenenter"",""0"",""3085""
","
","
","""event"",""trial"",""time""
""fullscreenenter"",""0"",""3085""
","
","null","<p></p>","null","","","","","","","","","","","","","","","","","","","","","","","",""
"","do_trial","75","265993","0.0-47.0-0.0","""event"",""trial"",""time""
""fullscreenenter"",""0"",""3085""
","
","
","""event"",""trial"",""time""
""fullscreenenter"",""0"",""3085""
","
","234.59999999403954","","","","","","","","49","1,1,0","6","blank","258","null","0.6445764045881949","0.38885937830058515","0.0824960401696609","1","","","","","","","","",""
"","html-keyboard-response","76","266998","0.0-47.0-1.0","""event"",""trial"",""time""
""fullscreenenter"",""0"",""3085""
","
","
","""event"",""trial"",""time""
""fullscreenenter"",""0"",""3085""
","
","null","<p></p>","null","","","","","","","","","","","","","","","","","","","","","","","",""
"","do_trial","77","269825","0.0-48.0-0.0","""event"",""trial"",""time""
""fullscreenenter"",""0"",""3085""
","
","
","""event"",""trial"",""time""
""fullscreenenter"",""0"",""3085""
","
","293.79999999701977","","","","","","","","49","0,0,0","6","blank","259","null","0.7081384458906791","0.44476042332421084","0.07160668797078729","0","","","","","","","","",""
"","html-keyboard-response","78","270830","0.0-48.0-1.0","""event"",""trial"",""time""
""fullscreenenter"",""0"",""3085""
","
","
","""event"",""trial"",""time""
""fullscreenenter"",""0"",""3085""
","
","null","<p></p>","null","","","","","","","","","","","","","","","","","","","","","","","",""
"","do_trial","79","273426","0.0-49.0-0.0","""event"",""trial"",""time""
""fullscreenenter"",""0"",""3085""
","
","
","""event"",""trial"",""time""
""fullscreenenter"",""0"",""3085""
","
","54.5","","","","","","","","49","1,0,0","6","blank","260","null","0.6503282021081114","0.46006694753461785","0.09296652141256932","1","","","","","","","","",""
"","html-keyboard-response","80","274440","0.0-49.0-1.0","""event"",""trial"",""time""
""fullscreenenter"",""0"",""3085""
","
","
","""event"",""trial"",""time""
""fullscreenenter"",""0"",""3085""
","
","null","<p></p>","null","","","","","","","","","","","","","","","","","","","","","","","",""
"","do_trial","81","277049","0.0-50.0-0.0","""event"",""trial"",""time""
""fullscreenenter"",""0"",""3085""
","
","
","""event"",""trial"",""time""
""fullscreenenter"",""0"",""3085""
","
","63.5","","","","","","","","49","1,1,0","6","blank","261","null","0.5517711322441068","0.27262842024417017","0.060065675162045445","1","","","","","","","","",""
"","html-keyboard-response","82","278053","0.0-50.0-1.0","""event"",""trial"",""time""
""fullscreenenter"",""0"",""3085""
","
","
","""event"",""trial"",""time""
""fullscreenenter"",""0"",""3085""
","
","null","<p></p>","null","","","","","","","","","","","","","","","","","","","","","","","",""
"","do_recog","83","280721","0.0-51.0-0.0","""event"",""trial"",""time""
""fullscreenenter"",""0"",""3085""
","
","
","""event"",""trial"",""time""
""fullscreenenter"",""0"",""3085""
","
","1155.7999999970198","","","","","","","","56","","","","262","probe-244","","","","","0","[object Object]","null","null","1","","","",""
"","html-keyboard-response","84","281729","0.0-51.0-1.0","""event"",""trial"",""time""
""fullscreenenter"",""0"",""3085""
","
","
","""event"",""trial"",""time""
""fullscreenenter"",""0"",""3085""
","
","null","<p></p>","null","","","","","","","","","","","","","","","","","","","","","","","",""
"","do_trial","85","284553","0.0-52.0-0.0","""event"",""trial"",""time""
""fullscreenenter"",""0"",""3085""
","
","
","""event"",""trial"",""time""
""fullscreenenter"",""0"",""3085""
","
","282.70000000298023","","","","","","","","49","1,0,0","6","blank","263","null","0.5972877563632099","0.39808043437334995","0.08898370531486531","1","","","","","","","","",""
"","html-keyboard-response","86","285561","0.0-52.0-1.0","""event"",""trial"",""time""
""fullscreenenter"",""0"",""3085""
","
","
","""event"",""trial"",""time""
""fullscreenenter"",""0"",""3085""
","
","null","<p></p>","null","","","","","","","","","","","","","","","","","","","","","","","",""
"","do_recog","87","288886","0.0-53.0-0.0","""event"",""trial"",""time""
""fullscreenenter"",""0"",""3085""
","
","
","""event"",""trial"",""time""
""fullscreenenter"",""0"",""3085""
","
","1815.2000000029802","","","","","","","","54","","","","264","probe-206","","","","","1","[object Object]","195","4","1","","","",""
"","html-keyboard-response","88","289890","0.0-53.0-1.0","""event"",""trial"",""time""
""fullscreenenter"",""0"",""3085""
","
","
","""event"",""trial"",""time""
""fullscreenenter"",""0"",""3085""
","
","null","<p></p>","null","","","","","","","","","","","","","","","","","","","","","","","",""
"","do_trial","89","292952","0.0-54.0-0.0","""event"",""trial"",""time""
""fullscreenenter"",""0"",""3085""
","
","
","""event"",""trial"",""time""
""fullscreenenter"",""0"",""3085""
","
","529.2999999970198","","","","","","","","49","0,0,0","6","blank","265","null","0.5525282268617113","0.4124594574519514","0.0524335555345498","0","","","","","","","","",""
"","html-keyboard-response","90","293961","0.0-54.0-1.0","""event"",""trial"",""time""
""fullscreenenter"",""0"",""3085""
","
","
","""event"",""trial"",""time""
""fullscreenenter"",""0"",""3085""
","
","null","<p></p>","null","","","","","","","","","","","","","","","","","","","","","","","",""
"","do_trial","91","296724","0.0-55.0-0.0","""event"",""trial"",""time""
""fullscreenenter"",""0"",""3085""
","
","
","""event"",""trial"",""time""
""fullscreenenter"",""0"",""3085""
","
","224.59999999403954","","","","","","","","49","1,0,1","6","blank","266","null","0.6480286619014046","0.373043021831134","0.19083298134824092","1","","","","","","","","",""
"","html-keyboard-response","92","297733","0.0-55.0-1.0","""event"",""trial"",""time""
""fullscreenenter"",""0"",""3085""
","
","
","""event"",""trial"",""time""
""fullscreenenter"",""0"",""3085""
","
","null","<p></p>","null","","","","","","","","","","","","","","","","","","","","","","","",""
"","do_trial","93","300522","0.0-56.0-0.0","""event"",""trial"",""time""
""fullscreenenter"",""0"",""3085""
","
","
","""event"",""trial"",""time""
""fullscreenenter"",""0"",""3085""
","
","255.20000000298023","","","","","","","","49","0,0,0","6","blank","267","null","0.5521210251540196","0.37610435331268216","0.22025495845045065","0","","","","","","","","",""
"","html-keyboard-response","94","301532","0.0-56.0-1.0","""event"",""trial"",""time""
""fullscreenenter"",""0"",""3085""
","
","
","""event"",""trial"",""time""
""fullscreenenter"",""0"",""3085""
","
","null","<p></p>","null","","","","","","","","","","","","","","","","","","","","","","","",""
"","do_trial","95","304075","0.0-57.0-0.0","""event"",""trial"",""time""
""fullscreenenter"",""0"",""3085""
","
","
","""event"",""trial"",""time""
""fullscreenenter"",""0"",""3085""
","
","0","","","","","","","","49","1,1,0","6","blank","268","null","0.6728982100118881","0.206913960609704","0.08477402587255488","1","","","","","","","","",""
"","html-keyboard-response","96","305084","0.0-57.0-1.0","""event"",""trial"",""time""
""fullscreenenter"",""0"",""3085""
","
","
","""event"",""trial"",""time""
""fullscreenenter"",""0"",""3085""
","
","null","<p></p>","null","","","","","","","","","","","","","","","","","","","","","","","",""
"","break","97","311955","0.0-58.0-0.0","""event"",""trial"",""time""
""fullscreenenter"",""0"",""3085""
","
","
","""event"",""trial"",""time""
""fullscreenenter"",""0"",""3085""
","
","6870.29999999702","<div class='center'><p>Time to take a quick break! You have 2 minutes to rest, but you can move on sooner if you'd like.</p><p> Press the <b>space bar</b> to continue.</p></div>","32","","","","","","","","","","","","","","","","","","","","","","","",""
"","do_trial","98","315373","0.0-58.0-1.0","""event"",""trial"",""time""
""fullscreenenter"",""0"",""3085""
","
","
","""event"",""trial"",""time""
""fullscreenenter"",""0"",""3085""
","
","878.6000000089407","","","","","","","","49","1,0,0","6","blank","269","null","0.7182124973271644","0.19105195137924344","0.16243568317321422","1","","","","","","","","",""
"","html-keyboard-response","99","316384","0.0-58.0-2.0","""event"",""trial"",""time""
""fullscreenenter"",""0"",""3085""
","
","
","""event"",""trial"",""time""
""fullscreenenter"",""0"",""3085""
","
","null","<p></p>","null","","","","","","","","","","","","","","","","","","","","","","","",""
"","do_trial","100","319038","0.0-59.0-0.0","""event"",""trial"",""time""
""fullscreenenter"",""0"",""3085""
","
","
","""event"",""trial"",""time""
""fullscreenenter"",""0"",""3085""
","
","118.70000000298023","","","","","","","","49","0,0,0","6","blank","270","null","0.6636340491577797","0.23995539791717438","0.09158685478979937","0","","","","","","","","",""
"","html-keyboard-response","101","320046","0.0-59.0-1.0","""event"",""trial"",""time""
""fullscreenenter"",""0"",""3085""
","
","
","""event"",""trial"",""time""
""fullscreenenter"",""0"",""3085""
","
","null","<p></p>","null","","","","","","","","","","","","","","","","","","","","","","","",""
"","do_trial","102","322752","0.0-60.0-0.0","""event"",""trial"",""time""
""fullscreenenter"",""0"",""3085""
","
","
","""event"",""trial"",""time""
""fullscreenenter"",""0"",""3085""
","
","166.90000000596046","","","","","","","","49","0,1,0","6","blank","271","null","0.6282044407444745","0.31530131203228656","0.12644161919093688","0","","","","","","","","",""
"","html-keyboard-response","103","323754","0.0-60.0-1.0","""event"",""trial"",""time""
""fullscreenenter"",""0"",""3085""
","
","
","""event"",""trial"",""time""
""fullscreenenter"",""0"",""3085""
","
","null","<p></p>","null","","","","","","","","","","","","","","","","","","","","","","","",""
"","do_recog","104","326666","0.0-61.0-0.0","""event"",""trial"",""time""
""fullscreenenter"",""0"",""3085""
","
","
","""event"",""trial"",""time""
""fullscreenenter"",""0"",""3085""
","
","1396.199999988079","","","","","","","","53","","","","272","probe-215","","","","","1","[object Object]","198","4","1","","","",""
"","html-keyboard-response","105","327674","0.0-61.0-1.0","""event"",""trial"",""time""
""fullscreenenter"",""0"",""3085""
","
","
","""event"",""trial"",""time""
""fullscreenenter"",""0"",""3085""
","
","null","<p></p>","null","","","","","","","","","","","","","","","","","","","","","","","",""
"","do_trial","106","330578","0.0-62.0-0.0","""event"",""trial"",""time""
""fullscreenenter"",""0"",""3085""
","
","
","""event"",""trial"",""time""
""fullscreenenter"",""0"",""3085""
","
","371.70000000298023","","","","","","","","49","1,1,0","6","blank","273","null","0.7535089217575113","0.2668651663440505","0.0965600046813579","1","","","","","","","","",""
"","html-keyboard-response","107","331586","0.0-62.0-1.0","""event"",""trial"",""time""
""fullscreenenter"",""0"",""3085""
","
","
","""event"",""trial"",""time""
""fullscreenenter"",""0"",""3085""
","
","null","<p></p>","null","","","","","","","","","","","","","","","","","","","","","","","",""
"","do_trial","108","334317","0.0-63.0-0.0","""event"",""trial"",""time""
""fullscreenenter"",""0"",""3085""
","
","
","""event"",""trial"",""time""
""fullscreenenter"",""0"",""3085""
","
","188.20000000298023","","","","","","","","49","1,0,0","6","blank","274","null","0.7164212241241802","0.4555249189627597","0.20287042182631015","1","","","","","","","","",""
"","html-keyboard-response","109","335327","0.0-63.0-1.0","""event"",""trial"",""time""
""fullscreenenter"",""0"",""3085""
","
","
","""event"",""trial"",""time""
""fullscreenenter"",""0"",""3085""
","
","null","<p></p>","null","","","","","","","","","","","","","","","","","","","","","","","",""
"","do_trial","110","338041","0.0-64.0-0.0","""event"",""trial"",""time""
""fullscreenenter"",""0"",""3085""
","
","
","""event"",""trial"",""time""
""fullscreenenter"",""0"",""3085""
","
","169.40000000596046","","","","","","","","49","1,1,0","6","blank","275","null","0.6440007871146913","0.4884925026773217","0.0881783929927248","1","","","","","","","","",""
"","html-keyboard-response","111","339045","0.0-64.0-1.0","""event"",""trial"",""time""
""fullscreenenter"",""0"",""3085""
","
","
","""event"",""trial"",""time""
""fullscreenenter"",""0"",""3085""
","
","null","<p></p>","null","","","","","","","","","","","","","","","","","","","","","","","",""
"","do_trial","112","341939","0.0-65.0-0.0","""event"",""trial"",""time""
""fullscreenenter"",""0"",""3085""
","
","
","""event"",""trial"",""time""
""fullscreenenter"",""0"",""3085""
","
","363.29999999701977","","","","","","","","49","1,1,1","6","blank","276","null","0.6025690423952593","0.5488990876237994","0.20234400188663557","1","","","","","","","","",""
"","html-keyboard-response","113","342951","0.0-65.0-1.0","""event"",""trial"",""time""
""fullscreenenter"",""0"",""3085""
","
","
","""event"",""trial"",""time""
""fullscreenenter"",""0"",""3085""
","
","null","<p></p>","null","","","","","","","","","","","","","","","","","","","","","","","",""
"","do_recog","114","345667","0.0-66.0-0.0","""event"",""trial"",""time""
""fullscreenenter"",""0"",""3085""
","
","
","""event"",""trial"",""time""
""fullscreenenter"",""0"",""3085""
","
","1198.199999988079","","","","","","","","56","","","","277","probe-209","","","","","1","[object Object]","76","1","0","","","",""
"","html-keyboard-response","115","346679","0.0-66.0-1.0","""event"",""trial"",""time""
""fullscreenenter"",""0"",""3085""
","
","
","""event"",""trial"",""time""
""fullscreenenter"",""0"",""3085""
","
","null","<p></p>","null","","","","","","","","","","","","","","","","","","","","","","","",""
"","do_trial","116","349658","0.0-67.0-0.0","""event"",""trial"",""time""
""fullscreenenter"",""0"",""3085""
","
","
","""event"",""trial"",""time""
""fullscreenenter"",""0"",""3085""
","
","443.69999998807907","","","","","","","","49","0,0,0","6","blank","278","null","0.6511183258268832","0.4502732930030824","0.10489965740301767","0","","","","","","","","",""
"","html-keyboard-response","117","350668","0.0-67.0-1.0","""event"",""trial"",""time""
""fullscreenenter"",""0"",""3085""
","
","
","""event"",""trial"",""time""
""fullscreenenter"",""0"",""3085""
","
","null","<p></p>","null","","","","","","","","","","","","","","","","","","","","","","","",""
"","do_trial","118","353284","0.0-68.0-0.0","""event"",""trial"",""time""
""fullscreenenter"",""0"",""3085""
","
","
","""event"",""trial"",""time""
""fullscreenenter"",""0"",""3085""
","
","73.79999999701977","","","","","","","","49","1,0,0","6","blank","279","null","0.7162946367482228","0.3314666491273148","0.07613126804741925","1","","","","","","","","",""
"","html-keyboard-response","119","354287","0.0-68.0-1.0","""event"",""trial"",""time""
""fullscreenenter"",""0"",""3085""
","
","
","""event"",""trial"",""time""
""fullscreenenter"",""0"",""3085""
","
","null","<p></p>","null","","","","","","","","","","","","","","","","","","","","","","","",""
"","do_trial","120","356829","0.0-69.0-0.0","""event"",""trial"",""time""
""fullscreenenter"",""0"",""3085""
","
","
","""event"",""trial"",""time""
""fullscreenenter"",""0"",""3085""
","
","5.0999999940395355","","","","","","","","49","1,0,0","6","blank","280","null","0.7067656787112446","0.339315098476136","0.2435110857440796","1","","","","","","","","",""
"","html-keyboard-response","121","357834","0.0-69.0-1.0","""event"",""trial"",""time""
""fullscreenenter"",""0"",""3085""
","
","
","""event"",""trial"",""time""
""fullscreenenter"",""0"",""3085""
","
","null","<p></p>","null","","","","","","","","","","","","","","","","","","","","","","","",""
"","do_trial","122","360366","0.0-70.0-0.0","""event"",""trial"",""time""
""fullscreenenter"",""0"",""3085""
","
","
","""event"",""trial"",""time""
""fullscreenenter"",""0"",""3085""
","
","0","","","","","","","","49","0,0,0","6","blank","281","null","0.6836698658301343","0.20271362286430086","0.05409796758529318","0","","","","","","","","",""
"","html-keyboard-response","123","361374","0.0-70.0-1.0","""event"",""trial"",""time""
""fullscreenenter"",""0"",""3085""
","
","
","""event"",""trial"",""time""
""fullscreenenter"",""0"",""3085""
","
","null","<p></p>","null","","","","","","","","","","","","","","","","","","","","","","","",""
"","do_recog","124","364721","0.0-71.0-0.0","""event"",""trial"",""time""
""fullscreenenter"",""0"",""3085""
","
","
","""event"",""trial"",""time""
""fullscreenenter"",""0"",""3085""
","
","1833.4000000059605","","","","","","","","55","","","","282","probe-246","","","","","0","[object Object]","null","null","1","","","",""
"","html-keyboard-response","125","365726","0.0-71.0-1.0","""event"",""trial"",""time""
""fullscreenenter"",""0"",""3085""
","
","
","""event"",""trial"",""time""
""fullscreenenter"",""0"",""3085""
","
","null","<p></p>","null","","","","","","","","","","","","","","","","","","","","","","","",""
"","do_trial","126","368601","0.0-72.0-0.0","""event"",""trial"",""time""
""fullscreenenter"",""0"",""3085""
","
","
","""event"",""trial"",""time""
""fullscreenenter"",""0"",""3085""
","
","340.1000000089407","","","","","","","","49","0,0,0","6","blank","283","null","0.6012224334761495","0.21321599762385898","0.10339857312592603","0","","","","","","","","",""
"","html-keyboard-response","127","369613","0.0-72.0-1.0","""event"",""trial"",""time""
""fullscreenenter"",""0"",""3085""
","
","
","""event"",""trial"",""time""
""fullscreenenter"",""0"",""3085""
","
","null","<p></p>","null","","","","","","","","","","","","","","","","","","","","","","","",""
"","do_trial","128","372442","0.0-73.0-0.0","""event"",""trial"",""time""
""fullscreenenter"",""0"",""3085""
","
","
","""event"",""trial"",""time""
""fullscreenenter"",""0"",""3085""
","
","286.90000000596046","","","","","","","","49","0,0,0","6","blank","284","null","0.5704488468487715","0.14919562808445563","0.05714912139041018","0","","","","","","","","",""
"","html-keyboard-response","129","373447","0.0-73.0-1.0","""event"",""trial"",""time""
""fullscreenenter"",""0"",""3085""
","
","
","""event"",""trial"",""time""
""fullscreenenter"",""0"",""3085""
","
","null","<p></p>","null","","","","","","","","","","","","","","","","","","","","","","","",""
"","do_trial","130","376077","0.0-74.0-0.0","""event"",""trial"",""time""
""fullscreenenter"",""0"",""3085""
","
","
","""event"",""trial"",""time""
""fullscreenenter"",""0"",""3085""
","
","85.70000000298023","","","","","","","","49","1,1,0","6","blank","285","null","0.5540417736915184","0.2406123984872838","0.05494218230465313","1","","","","","","","","",""
"","html-keyboard-response","131","377083","0.0-74.0-1.0","""event"",""trial"",""time""
""fullscreenenter"",""0"",""3085""
","
","
","""event"",""trial"",""time""
""fullscreenenter"",""0"",""3085""
","
","null","<p></p>","null","","","","","","","","","","","","","","","","","","","","","","","",""
"","do_recog","132","380380","0.0-75.0-0.0","""event"",""trial"",""time""
""fullscreenenter"",""0"",""3085""
","
","
","""event"",""trial"",""time""
""fullscreenenter"",""0"",""3085""
","
","1786.2999999970198","","","","","","","","56","","","","286","probe-124","","","","","1","[object Object]","155","3","0","","","",""
"","html-keyboard-response","133","381386","0.0-75.0-1.0","""event"",""trial"",""time""
""fullscreenenter"",""0"",""3085""
","
","
","""event"",""trial"",""time""
""fullscreenenter"",""0"",""3085""
","
","null","<p></p>","null","","","","","","","","","","","","","","","","","","","","","","","",""
"","do_trial","134","384097","0.0-76.0-0.0","""event"",""trial"",""time""
""fullscreenenter"",""0"",""3085""
","
","
","""event"",""trial"",""time""
""fullscreenenter"",""0"",""3085""
","
","179.09999999403954","","","","","","","","49","1,0,1","6","blank","287","null","0.592562222460475","0.24601286737635156","0.08090370985259548","1","","","","","","","","",""
"","html-keyboard-response","135","385104","0.0-76.0-1.0","""event"",""trial"",""time""
""fullscreenenter"",""0"",""3085""
","
","
","""event"",""trial"",""time""
""fullscreenenter"",""0"",""3085""
","
","null","<p></p>","null","","","","","","","","","","","","","","","","","","","","","","","",""
"","do_recog","136","388922","0.0-77.0-0.0","""event"",""trial"",""time""
""fullscreenenter"",""0"",""3085""
","
","
","""event"",""trial"",""time""
""fullscreenenter"",""0"",""3085""
","
","2302.4000000059605","","","","","","","","55","","","","288","probe-38","","","","","1","[object Object]","197","4","0","","","",""
"","html-keyboard-response","137","389932","0.0-77.0-1.0","""event"",""trial"",""time""
""fullscreenenter"",""0"",""3085""
","
","
","""event"",""trial"",""time""
""fullscreenenter"",""0"",""3085""
","
","null","<p></p>","null","","","","","","","","","","","","","","","","","","","","","","","",""
"","do_trial","138","392718","0.0-78.0-0.0","""event"",""trial"",""time""
""fullscreenenter"",""0"",""3085""
","
","
","""event"",""trial"",""time""
""fullscreenenter"",""0"",""3085""
","
","246.59999999403954","","","","","","","","49","0,0,0","6","blank","289","null","0.6862014553662013","0.3159770998671361","0.06026502906240174","0","","","","","","","","",""
"","html-keyboard-response","139","393723","0.0-78.0-1.0","""event"",""trial"",""time""
""fullscreenenter"",""0"",""3085""
","
","
","""event"",""trial"",""time""
""fullscreenenter"",""0"",""3085""
","
","null","<p></p>","null","","","","","","","","","","","","","","","","","","","","","","","",""
"","do_trial","140","396377","0.0-79.0-0.0","""event"",""trial"",""time""
""fullscreenenter"",""0"",""3085""
","
","
","""event"",""trial"",""time""
""fullscreenenter"",""0"",""3085""
","
","115.59999999403954","","","","","","","","49","1,1,0","6","blank","290","null","0.5936719269825527","0.37524819643384816","0.27233783650170174","1","","","","","","","","",""
"","html-keyboard-response","141","397385","0.0-79.0-1.0","""event"",""trial"",""time""
""fullscreenenter"",""0"",""3085""
","
","
","""event"",""trial"",""time""
""fullscreenenter"",""0"",""3085""
","
","null","<p></p>","null","","","","","","","","","","","","","","","","","","","","","","","",""
"","do_trial","142","400120","0.0-80.0-0.0","""event"",""trial"",""time""
""fullscreenenter"",""0"",""3085""
","
","
","""event"",""trial"",""time""
""fullscreenenter"",""0"",""3085""
","
","190.70000000298023","","","","","","","","49","0,1,0","6","blank","291","null","0.7272511214518141","0.3493804363137254","0.17090649593856644","0","","","","","","","","",""
"","html-keyboard-response","143","401132","0.0-80.0-1.0","""event"",""trial"",""time""
""fullscreenenter"",""0"",""3085""
","
","
","""event"",""trial"",""time""
""fullscreenenter"",""0"",""3085""
","
","null","<p></p>","null","","","","","","","","","","","","","","","","","","","","","","","",""
"","do_trial","144","403857","0.0-81.0-0.0","""event"",""trial"",""time""
""fullscreenenter"",""0"",""3085""
","
","
","""event"",""trial"",""time""
""fullscreenenter"",""0"",""3085""
","
","187.80000001192093","","","","","","","","49","1,1,0","6","blank","292","null","0.6430027193735702","0.4025768057859693","0.11581192646439842","1","","","","","","","","",""
"","html-keyboard-response","145","404866","0.0-81.0-1.0","""event"",""trial"",""time""
""fullscreenenter"",""0"",""3085""
","
","
","""event"",""trial"",""time""
""fullscreenenter"",""0"",""3085""
","
","null","<p></p>","null","","","","","","","","","","","","","","","","","","","","","","","",""
"","do_trial","146","407646","0.0-82.0-0.0","""event"",""trial"",""time""
""fullscreenenter"",""0"",""3085""
","
","
","""event"",""trial"",""time""
""fullscreenenter"",""0"",""3085""
","
","243.6000000089407","","","","","","","","49","1,1,0","6","blank","293","null","0.6311694416804389","0.39900956414852545","0.08909779024852738","1","","","","","","","","",""
"","html-keyboard-response","147","408650","0.0-82.0-1.0","""event"",""trial"",""time""
""fullscreenenter"",""0"",""3085""
","
","
","""event"",""trial"",""time""
""fullscreenenter"",""0"",""3085""
","
","null","<p></p>","null","","","","","","","","","","","","","","","","","","","","","","","",""
"","do_trial","148","411405","0.0-83.0-0.0","""event"",""trial"",""time""
""fullscreenenter"",""0"",""3085""
","
","
","""event"",""trial"",""time""
""fullscreenenter"",""0"",""3085""
","
","209.09999999403954","","","","","","","","49","0,1,0","6","blank","294","null","0.5754533051220685","0.37784712252025393","0.22307238421336575","0","","","","","","","","",""
"","html-keyboard-response","149","412409","0.0-83.0-1.0","""event"",""trial"",""time""
""fullscreenenter"",""0"",""3085""
","
","
","""event"",""trial"",""time""
""fullscreenenter"",""0"",""3085""
","
","null","<p></p>","null","","","","","","","","","","","","","","","","","","","","","","","",""
"","do_recog","150","415581","0.0-84.0-0.0","""event"",""trial"",""time""
""fullscreenenter"",""0"",""3085""
","
","
","""event"",""trial"",""time""
""fullscreenenter"",""0"",""3085""
","
","1658.0999999940395","","","","","","","","56","","","","295","probe-08","","","","","1","[object Object]","118","2","0","","","",""
"","html-keyboard-response","151","416585","0.0-84.0-1.0","""event"",""trial"",""time""
""fullscreenenter"",""0"",""3085""
","
","
","""event"",""trial"",""time""
""fullscreenenter"",""0"",""3085""
","
","null","<p></p>","null","","","","","","","","","","","","","","","","","","","","","","","",""
"","do_trial","152","419537","0.0-85.0-0.0","""event"",""trial"",""time""
""fullscreenenter"",""0"",""3085""
","
","
","""event"",""trial"",""time""
""fullscreenenter"",""0"",""3085""
","
","413.20000000298023","","","","","","","","49","0,0,1","6","blank","296","null","0.5073948030923683","0.2408364317295397","0.3608002632591066","0","","","","","","","","",""
"","html-keyboard-response","153","420540","0.0-85.0-1.0","""event"",""trial"",""time""
""fullscreenenter"",""0"",""3085""
","
","
","""event"",""trial"",""time""
""fullscreenenter"",""0"",""3085""
","
","null","<p></p>","null","","","","","","","","","","","","","","","","","","","","","","","",""
"","do_recog","154","424054","0.0-86.0-0.0","""event"",""trial"",""time""
""fullscreenenter"",""0"",""3085""
","
","
","""event"",""trial"",""time""
""fullscreenenter"",""0"",""3085""
","
","2004.7000000029802","","","","","","","","54","","","","297","probe-187","","","","","1","[object Object]","117","2","1","","","",""
"","html-keyboard-response","155","425061","0.0-86.0-1.0","""event"",""trial"",""time""
""fullscreenenter"",""0"",""3085""
","
","
","""event"",""trial"",""time""
""fullscreenenter"",""0"",""3085""
","
","null","<p></p>","null","","","","","","","","","","","","","","","","","","","","","","","",""
"","do_trial","156","427879","0.0-87.0-0.0","""event"",""trial"",""time""
""fullscreenenter"",""0"",""3085""
","
","
","""event"",""trial"",""time""
""fullscreenenter"",""0"",""3085""
","
","280","","","","","","","","49","1,0,0","6","blank","298","null","0.42326231124818925","0.25225333157784136","0.4661151805846546","1","","","","","","","","",""
"","html-keyboard-response","157","428886","0.0-87.0-1.0","""event"",""trial"",""time""
""fullscreenenter"",""0"",""3085""
","
","
","""event"",""trial"",""time""
""fullscreenenter"",""0"",""3085""
","
","null","<p></p>","null","","","","","","","","","","","","","","","","","","","","","","","",""
"","do_recog","158","432335","0.0-88.0-0.0","""event"",""trial"",""time""
""fullscreenenter"",""0"",""3085""
","
","
","""event"",""trial"",""time""
""fullscreenenter"",""0"",""3085""
","
","1936.9000000059605","","","","","","","","55","","","","299","probe-251","","","","","0","[object Object]","null","null","1","","","",""
"","html-keyboard-response","159","433343","0.0-88.0-1.0","""event"",""trial"",""time""
""fullscreenenter"",""0"",""3085""
","
","
","""event"",""trial"",""time""
""fullscreenenter"",""0"",""3085""
","
","null","<p></p>","null","","","","","","","","","","","","","","","","","","","","","","","",""
"","do_trial","160","436199","0.0-89.0-0.0","""event"",""trial"",""time""
""fullscreenenter"",""0"",""3085""
","
","
","""event"",""trial"",""time""
""fullscreenenter"",""0"",""3085""
","
","321.40000000596046","","","","","","","","49","0,0,0","6","blank","300","null","0.40847866925199044","0.21512943745931887","0.4505875714486529","0","","","","","","","","",""
"","html-keyboard-response","161","437207","0.0-89.0-1.0","""event"",""trial"",""time""
""fullscreenenter"",""0"",""3085""
","
","
","""event"",""trial"",""time""
""fullscreenenter"",""0"",""3085""
","
","null","<p></p>","null","","","","","","","","","","","","","","","","","","","","","","","",""
"","do_trial","162","439926","0.0-90.0-0.0","""event"",""trial"",""time""
""fullscreenenter"",""0"",""3085""
","
","
","""event"",""trial"",""time""
""fullscreenenter"",""0"",""3085""
","
","186.09999999403954","","","","","","","","49","0,0,0","6","blank","301","null","0.26215804207516313","0.2057107322373049","0.4235229332792061","0","","","","","","","","",""
"","html-keyboard-response","163","440934","0.0-90.0-1.0","""event"",""trial"",""time""
""fullscreenenter"",""0"",""3085""
","
","
","""event"",""trial"",""time""
""fullscreenenter"",""0"",""3085""
","
","null","<p></p>","null","","","","","","","","","","","","","","","","","","","","","","","",""
"","do_trial","164","443768","0.0-91.0-0.0","""event"",""trial"",""time""
""fullscreenenter"",""0"",""3085""
","
","
","""event"",""trial"",""time""
""fullscreenenter"",""0"",""3085""
","
","298.70000000298023","","","","","","","","49","0,0,1","6","blank","302","null","0.333577295217267","0.11657411770581337","0.42326022726261114","0","","","","","","","","",""
"","html-keyboard-response","165","444778","0.0-91.0-1.0","""event"",""trial"",""time""
""fullscreenenter"",""0"",""3085""
","
","
","""event"",""trial"",""time""
""fullscreenenter"",""0"",""3085""
","
","null","<p></p>","null","","","","","","","","","","","","","","","","","","","","","","","",""
"","do_trial","166","447315","0.0-92.0-0.0","""event"",""trial"",""time""
""fullscreenenter"",""0"",""3085""
","
","
","""event"",""trial"",""time""
""fullscreenenter"",""0"",""3085""
","
","0.09999999403953552","","","","","","","","50","0,0,0","6","blank","303","null","0.3888313583652643","0.19842004994484821","0.5656904471660232","0","","","","","","","","",""
"","html-keyboard-response","167","448321","0.0-92.0-1.0","""event"",""trial"",""time""
""fullscreenenter"",""0"",""3085""
","
","
","""event"",""trial"",""time""
""fullscreenenter"",""0"",""3085""
","
","null","<p></p>","null","","","","","","","","","","","","","","","","","","","","","","","",""
"","do_trial","168","450972","0.0-93.0-0.0","""event"",""trial"",""time""
""fullscreenenter"",""0"",""3085""
","
","
","""event"",""trial"",""time""
""fullscreenenter"",""0"",""3085""
","
","109.59999999403954","","","","","","","","51","0,0,0","6","blank","304","null","0.4561375156097268","0.07625490261911402","0.44328121585881114","0","","","","","","","","",""
"","html-keyboard-response","169","451975","0.0-93.0-1.0","""event"",""trial"",""time""
""fullscreenenter"",""0"",""3085""
","
","
","""event"",""trial"",""time""
""fullscreenenter"",""0"",""3085""
","
","null","<p></p>","null","","","","","","","","","","","","","","","","","","","","","","","",""
"","do_recog","170","454794","0.0-94.0-0.0","""event"",""trial"",""time""
""fullscreenenter"",""0"",""3085""
","
","
","""event"",""trial"",""time""
""fullscreenenter"",""0"",""3085""
","
","1313.5","","","","","","","","53","","","","305","probe-216","","","","","1","[object Object]","77","1","1","","","",""
"","html-keyboard-response","171","455798","0.0-94.0-1.0","""event"",""trial"",""time""
""fullscreenenter"",""0"",""3085""
","
","
","""event"",""trial"",""time""
""fullscreenenter"",""0"",""3085""
","
","null","<p></p>","null","","","","","","","","","","","","","","","","","","","","","","","",""
"","do_trial","172","458714","0.0-95.0-0.0","""event"",""trial"",""time""
""fullscreenenter"",""0"",""3085""
","
","
","""event"",""trial"",""time""
""fullscreenenter"",""0"",""3085""
","
","383.6000000089407","","","","","","","","51","0,1,1","6","blank","306","null","0.4272728967112365","0.1900553015715234","0.42179800325493516","1","","","","","","","","",""
"","html-keyboard-response","173","459720","0.0-95.0-1.0","""event"",""trial"",""time""
""fullscreenenter"",""0"",""3085""
","
","
","""event"",""trial"",""time""
""fullscreenenter"",""0"",""3085""
","
","null","<p></p>","null","","","","","","","","","","","","","","","","","","","","","","","",""
"","do_trial","174","462420","0.0-96.0-0.0","""event"",""trial"",""time""
""fullscreenenter"",""0"",""3085""
","
","
","""event"",""trial"",""time""
""fullscreenenter"",""0"",""3085""
","
","155.5","","","","","","","","51","1,0,0","6","blank","307","null","0.3833790580284767","0.10533731224507427","0.547584437824549","0","","","","","","","","",""
"","html-keyboard-response","175","463435","0.0-96.0-1.0","""event"",""trial"",""time""
""fullscreenenter"",""0"",""3085""
","
","
","""event"",""trial"",""time""
""fullscreenenter"",""0"",""3085""
","
","null","<p></p>","null","","","","","","","","","","","","","","","","","","","","","","","",""
"","do_trial","176","466162","0.0-97.0-0.0","""event"",""trial"",""time""
""fullscreenenter"",""0"",""3085""
","
","
","""event"",""trial"",""time""
""fullscreenenter"",""0"",""3085""
","
","187","","","","","","","","51","0,1,0","6","blank","308","null","0.24087160645268596","0.19345565061337433","0.40225615665832515","0","","","","","","","","",""
"","html-keyboard-response","177","467175","0.0-97.0-1.0","""event"",""trial"",""time""
""fullscreenenter"",""0"",""3085""
","
","
","""event"",""trial"",""time""
""fullscreenenter"",""0"",""3085""
","
","null","<p></p>","null","","","","","","","","","","","","","","","","","","","","","","","",""
"","break","178","468452","0.0-98.0-0.0","""event"",""trial"",""time""
""fullscreenenter"",""0"",""3085""
","
","
","""event"",""trial"",""time""
""fullscreenenter"",""0"",""3085""
","
","1276.2999999970198","<div class='center'><p>Time to take a quick break! You have 2 minutes to rest, but you can move on sooner if you'd like.</p><p> Press the <b>space bar</b> to continue.</p></div>","32","","","","","","","","","","","","","","","","","","","","","","","",""
"","do_trial","179","471518","0.0-98.0-1.0","""event"",""trial"",""time""
""fullscreenenter"",""0"",""3085""
","
","
","""event"",""trial"",""time""
""fullscreenenter"",""0"",""3085""
","
","520.8999999910593","","","","","","","","50","1,0,0","6","blank","309","null","0.292029153581869","0.3004173631701756","0.4715104571364441","0","","","","","","","","",""
"","html-keyboard-response","180","472519","0.0-98.0-2.0","""event"",""trial"",""time""
""fullscreenenter"",""0"",""3085""
","
","
","""event"",""trial"",""time""
""fullscreenenter"",""0"",""3085""
","
","null","<p></p>","null","","","","","","","","","","","","","","","","","","","","","","","",""
"","do_trial","181","475129","0.0-99.0-0.0","""event"",""trial"",""time""
""fullscreenenter"",""0"",""3085""
","
","
","""event"",""trial"",""time""
""fullscreenenter"",""0"",""3085""
","
","70.5","","","","","","","","49","1,1,0","6","blank","310","null","0.3589957957447896","0.3675642266209996","0.45666564759344674","1","","","","","","","","",""
"","html-keyboard-response","182","476138","0.0-99.0-1.0","""event"",""trial"",""time""
""fullscreenenter"",""0"",""3085""
","
","
","""event"",""trial"",""time""
""fullscreenenter"",""0"",""3085""
","
","null","<p></p>","null","","","","","","","","","","","","","","","","","","","","","","","",""
"","do_recog","183","478741","0.0-100.0-0.0","""event"",""trial"",""time""
""fullscreenenter"",""0"",""3085""
","
","
","""event"",""trial"",""time""
""fullscreenenter"",""0"",""3085""
","
","1097.7000000029802","","","","","","","","53","","","","311","probe-91","","","","","1","[object Object]","112","2","1","","","",""
"","html-keyboard-response","184","479745","0.0-100.0-1.0","""event"",""trial"",""time""
""fullscreenenter"",""0"",""3085""
","
","
","""event"",""trial"",""time""
""fullscreenenter"",""0"",""3085""
","
","null","<p></p>","null","","","","","","","","","","","","","","","","","","","","","","","",""
"","do_trial","185","482635","0.0-101.0-0.0","""event"",""trial"",""time""
""fullscreenenter"",""0"",""3085""
","
","
","""event"",""trial"",""time""
""fullscreenenter"",""0"",""3085""
","
","351.5","","","","","","","","49","0,0,1","6","blank","312","null","0.32881049416352026","0.26459540145189914","0.47093269909728674","0","","","","","","","","",""
"","html-keyboard-response","186","483640","0.0-101.0-1.0","""event"",""trial"",""time""
""fullscreenenter"",""0"",""3085""
","
","
","""event"",""trial"",""time""
""fullscreenenter"",""0"",""3085""
","
","null","<p></p>","null","","","","","","","","","","","","","","","","","","","","","","","",""
"","do_recog","187","486451","0.0-102.0-0.0","""event"",""trial"",""time""
""fullscreenenter"",""0"",""3085""
","
","
","""event"",""trial"",""time""
""fullscreenenter"",""0"",""3085""
","
","1304.5999999940395","","","","","","","","56","","","","313","probe-250","","","","","0","[object Object]","null","null","1","","","",""
"","html-keyboard-response","188","487466","0.0-102.0-1.0","""event"",""trial"",""time""
""fullscreenenter"",""0"",""3085""
","
","
","""event"",""trial"",""time""
""fullscreenenter"",""0"",""3085""
","
","null","<p></p>","null","","","","","","","","","","","","","","","","","","","","","","","",""
"","do_trial","189","490288","0.0-103.0-0.0","""event"",""trial"",""time""
""fullscreenenter"",""0"",""3085""
","
","
","""event"",""trial"",""time""
""fullscreenenter"",""0"",""3085""
","
","284.5","","","","","","","","49","0,1,1","6","blank","314","null","0.37666318263805926","0.16225786486080362","0.5797853002111386","0","","","","","","","","",""
"","html-keyboard-response","190","491294","0.0-103.0-1.0","""event"",""trial"",""time""
""fullscreenenter"",""0"",""3085""
","
","
","""event"",""trial"",""time""
""fullscreenenter"",""0"",""3085""
","
","null","<p></p>","null","","","","","","","","","","","","","","","","","","","","","","","",""
"","do_trial","191","493854","0.0-104.0-0.0","""event"",""trial"",""time""
""fullscreenenter"",""0"",""3085""
","
","
","""event"",""trial"",""time""
""fullscreenenter"",""0"",""3085""
","
","24.599999994039536","","","","","","","","50","0,0,1","6","blank","315","null","0.35801712084081666","0.11961560021428612","0.6351392497267504","0","","","","","","","","",""
"","html-keyboard-response","192","494861","0.0-104.0-1.0","""event"",""trial"",""time""
""fullscreenenter"",""0"",""3085""
","
","
","""event"",""trial"",""time""
""fullscreenenter"",""0"",""3085""
","
","null","<p></p>","null","","","","","","","","","","","","","","","","","","","","","","","",""
"","do_trial","193","497650","0.0-105.0-0.0","""event"",""trial"",""time""
""fullscreenenter"",""0"",""3085""
","
","
","""event"",""trial"",""time""
""fullscreenenter"",""0"",""3085""
","
","255.5","","","","","","","","49","1,0,1","6","blank","316","null","0.18581932575451057","0.0586915180090679","0.6126600812740595","1","","","","","","","","",""
"","html-keyboard-response","194","498659","0.0-105.0-1.0","""event"",""trial"",""time""
""fullscreenenter"",""0"",""3085""
","
","
","""event"",""trial"",""time""
""fullscreenenter"",""0"",""3085""
","
","null","<p></p>","null","","","","","","","","","","","","","","","","","","","","","","","",""
"","do_trial","195","501250","0.0-106.0-0.0","""event"",""trial"",""time""
""fullscreenenter"",""0"",""3085""
","
","
","""event"",""trial"",""time""
""fullscreenenter"",""0"",""3085""
","
","59.70000000298023","","","","","","","","49","0,0,1","6","blank","317","null","0.1920440674361613","0.10341150111811208","0.585273390736073","0","","","","","","","","",""
"","html-keyboard-response","196","502252","0.0-106.0-1.0","""event"",""trial"",""time""
""fullscreenenter"",""0"",""3085""
","
","
","""event"",""trial"",""time""
""fullscreenenter"",""0"",""3085""
","
","null","<p></p>","null","","","","","","","","","","","","","","","","","","","","","","","",""
"","do_trial","197","504824","0.0-107.0-0.0","""event"",""trial"",""time""
""fullscreenenter"",""0"",""3085""
","
","
","""event"",""trial"",""time""
""fullscreenenter"",""0"",""3085""
","
","35.900000005960464","","","","","","","","49","0,1,1","6","blank","318","null","0.13208824205158584","0.2601521285515812","0.46998309829226514","0","","","","","","","","",""
"","html-keyboard-response","198","505827","0.0-107.0-1.0","""event"",""trial"",""time""
""fullscreenenter"",""0"",""3085""
","
","
","""event"",""trial"",""time""
""fullscreenenter"",""0"",""3085""
","
","null","<p></p>","null","","","","","","","","","","","","","","","","","","","","","","","",""
"","do_trial","199","509134","0.0-108.0-0.0","""event"",""trial"",""time""
""fullscreenenter"",""0"",""3085""
","
","
","""event"",""trial"",""time""
""fullscreenenter"",""0"",""3085""
","
","768.8999999910593","","","","","","","","51","0,0,0","6","blank","319","null","0.0703218653588492","0.22175003247308525","0.37115283748139327","0","","","","","","","","",""
"","html-keyboard-response","200","510142","0.0-108.0-1.0","""event"",""trial"",""time""
""fullscreenenter"",""0"",""3085""
","
","
","""event"",""trial"",""time""
""fullscreenenter"",""0"",""3085""
","
","null","<p></p>","null","","","","","","","","","","","","","","","","","","","","","","","",""
"","do_recog","201","513863","0.0-109.0-0.0","""event"",""trial"",""time""
""fullscreenenter"",""0"",""3085""
","
","
","""event"",""trial"",""time""
""fullscreenenter"",""0"",""3085""
","
","2208.0999999940395","","","","","","","","56","","","","320","probe-05","","","","","1","[object Object]","75","1","0","","","",""
"","html-keyboard-response","202","514870","0.0-109.0-1.0","""event"",""trial"",""time""
""fullscreenenter"",""0"",""3085""
","
","
","""event"",""trial"",""time""
""fullscreenenter"",""0"",""3085""
","
","null","<p></p>","null","","","","","","","","","","","","","","","","","","","","","","","",""
"","do_trial","203","517803","0.0-110.0-0.0","""event"",""trial"",""time""
""fullscreenenter"",""0"",""3085""
","
","
","""event"",""trial"",""time""
""fullscreenenter"",""0"",""3085""
","
","393.09999999403954","","","","","","","","50","0,0,0","6","blank","321","null","0.08601250768355648","0.1647075404150927","0.5015692479809968","0","","","","","","","","",""
"","html-keyboard-response","204","518813","0.0-110.0-1.0","""event"",""trial"",""time""
""fullscreenenter"",""0"",""3085""
","
","
","""event"",""trial"",""time""
""fullscreenenter"",""0"",""3085""
","
","null","<p></p>","null","","","","","","","","","","","","","","","","","","","","","","","",""
"","do_trial","205","521398","0.0-111.0-0.0","""event"",""trial"",""time""
""fullscreenenter"",""0"",""3085""
","
","
","""event"",""trial"",""time""
""fullscreenenter"",""0"",""3085""
","
","48.6000000089407","","","","","","","","49","0,1,0","6","blank","322","null","0.20354268306768475","0.13181965963224748","0.6252578714649542","0","","","","","","","","",""
"","html-keyboard-response","206","522411","0.0-111.0-1.0","""event"",""trial"",""time""
""fullscreenenter"",""0"",""3085""
","
","
","""event"",""trial"",""time""
""fullscreenenter"",""0"",""3085""
","
","null","<p></p>","null","","","","","","","","","","","","","","","","","","","","","","","",""
"","do_trial","207","525249","0.0-112.0-0.0","""event"",""trial"",""time""
""fullscreenenter"",""0"",""3085""
","
","
","""event"",""trial"",""time""
""fullscreenenter"",""0"",""3085""
","
","296.5","","","","","","","","51","1,0,1","6","blank","323","null","0.1960994517489623","0.19916148115864707","0.6227104551319135","1","","","","","","","","",""
"","html-keyboard-response","208","526263","0.0-112.0-1.0","""event"",""trial"",""time""
""fullscreenenter"",""0"",""3085""
","
","
","""event"",""trial"",""time""
""fullscreenenter"",""0"",""3085""
","
","null","<p></p>","null","","","","","","","","","","","","","","","","","","","","","","","",""
"","do_trial","209","528941","0.0-113.0-0.0","""event"",""trial"",""time""
""fullscreenenter"",""0"",""3085""
","
","
","""event"",""trial"",""time""
""fullscreenenter"",""0"",""3085""
","
","139.8999999910593","","","","","","","","51","1,0,1","6","blank","324","null","0.2915896657979563","0.053015218175259254","0.8691742419473576","1","","","","","","","","",""
"","html-keyboard-response","210","529957","0.0-113.0-1.0","""event"",""trial"",""time""
""fullscreenenter"",""0"",""3085""
","
","
","""event"",""trial"",""time""
""fullscreenenter"",""0"",""3085""
","
","null","<p></p>","null","","","","","","","","","","","","","","","","","","","","","","","",""
"","do_trial","211","532566","0.0-114.0-0.0","""event"",""trial"",""time""
""fullscreenenter"",""0"",""3085""
","
","
","""event"",""trial"",""time""
""fullscreenenter"",""0"",""3085""
","
","63.1000000089407","","","","","","","","51","1,1,1","6","blank","325","null","0.2473075208926732","0.13336410899180098","0.8385277216322545","1","","","","","","","","",""
"","html-keyboard-response","212","533575","0.0-114.0-1.0","""event"",""trial"",""time""
""fullscreenenter"",""0"",""3085""
","
","
","""event"",""trial"",""time""
""fullscreenenter"",""0"",""3085""
","
","null","<p></p>","null","","","","","","","","","","","","","","","","","","","","","","","",""
"","do_recog","213","537563","0.0-115.0-0.0","""event"",""trial"",""time""
""fullscreenenter"",""0"",""3085""
","
","
","""event"",""trial"",""time""
""fullscreenenter"",""0"",""3085""
","
","2473.6000000089407","","","","","","","","54","","","","326","probe-77","","","","","1","[object Object]","190","4","1","","","",""
"","html-keyboard-response","214","538565","0.0-115.0-1.0","""event"",""trial"",""time""
""fullscreenenter"",""0"",""3085""
","
","
","""event"",""trial"",""time""
""fullscreenenter"",""0"",""3085""
","
","null","<p></p>","null","","","","","","","","","","","","","","","","","","","","","","","",""
"","do_trial","215","541894","0.0-116.0-0.0","""event"",""trial"",""time""
""fullscreenenter"",""0"",""3085""
","
","
","""event"",""trial"",""time""
""fullscreenenter"",""0"",""3085""
","
","791.2999999970198","","","","","","","","49","0,0,1","6","blank","327","null","0.2581221585824144","0.14162545826068437","0.6365926887364884","0","","","","","","","","",""
"","html-keyboard-response","216","542909","0.0-116.0-1.0","""event"",""trial"",""time""
""fullscreenenter"",""0"",""3085""
","
","
","""event"",""trial"",""time""
""fullscreenenter"",""0"",""3085""
","
","null","<p></p>","null","","","","","","","","","","","","","","","","","","","","","","","",""
"","do_trial","217","546112","0.0-117.0-0.0","""event"",""trial"",""time""
""fullscreenenter"",""0"",""3085""
","
","
","""event"",""trial"",""time""
""fullscreenenter"",""0"",""3085""
","
","663.2000000029802","","","","","","","","51","0,0,1","6","blank","328","null","0.12252923419333019","0.06412063968430848","0.5805209719182497","1","","","","","","","","",""
"","html-keyboard-response","218","547121","0.0-117.0-1.0","""event"",""trial"",""time""
""fullscreenenter"",""0"",""3085""
","
","
","""event"",""trial"",""time""
""fullscreenenter"",""0"",""3085""
","
","null","<p></p>","null","","","","","","","","","","","","","","","","","","","","","","","",""
"","do_trial","219","549761","0.0-118.0-0.0","""event"",""trial"",""time""
""fullscreenenter"",""0"",""3085""
","
","
","""event"",""trial"",""time""
""fullscreenenter"",""0"",""3085""
","
","106","","","","","","","","51","1,0,1","6","blank","329","null","0.22252839483924416","0.10064315955404006","0.5508314571795228","1","","","","","","","","",""
"","html-keyboard-response","220","550770","0.0-118.0-1.0","""event"",""trial"",""time""
""fullscreenenter"",""0"",""3085""
","
","
","""event"",""trial"",""time""
""fullscreenenter"",""0"",""3085""
","
","null","<p></p>","null","","","","","","","","","","","","","","","","","","","","","","","",""
"","do_trial","221","553369","0.0-119.0-0.0","""event"",""trial"",""time""
""fullscreenenter"",""0"",""3085""
","
","
","""event"",""trial"",""time""
""fullscreenenter"",""0"",""3085""
","
","55","","","","","","","","51","0,0,0","6","blank","330","null","0.2042642636322157","0.1674321563153438","0.6237120917645735","0","","","","","","","","",""
"","html-keyboard-response","222","554374","0.0-119.0-1.0","""event"",""trial"",""time""
""fullscreenenter"",""0"",""3085""
","
","
","""event"",""trial"",""time""
""fullscreenenter"",""0"",""3085""
","
","null","<p></p>","null","","","","","","","","","","","","","","","","","","","","","","","",""
"","do_trial","223","557002","0.0-120.0-0.0","""event"",""trial"",""time""
""fullscreenenter"",""0"",""3085""
","
","
","""event"",""trial"",""time""
""fullscreenenter"",""0"",""3085""
","
","96","","","","","","","","51","0,0,1","6","blank","331","null","0.187402178286154","0.06258132184433314","0.6753733523483497","1","","","","","","","","",""
"","html-keyboard-response","224","558009","0.0-120.0-1.0","""event"",""trial"",""time""
""fullscreenenter"",""0"",""3085""
","
","
","""event"",""trial"",""time""
""fullscreenenter"",""0"",""3085""
","
","null","<p></p>","null","","","","","","","","","","","","","","","","","","","","","","","",""
"","do_trial","225","560825","0.0-121.0-0.0","""event"",""trial"",""time""
""fullscreenenter"",""0"",""3085""
","
","
","""event"",""trial"",""time""
""fullscreenenter"",""0"",""3085""
","
","272.79999999701977","","","","","","","","51","0,0,1","6","blank","332","null","0.2785967436794444","0.056310175160353436","0.6965691763357654","1","","","","","","","","",""
"","html-keyboard-response","226","561830","0.0-121.0-1.0","""event"",""trial"",""time""
""fullscreenenter"",""0"",""3085""
","
","
","""event"",""trial"",""time""
""fullscreenenter"",""0"",""3085""
","
","null","<p></p>","null","","","","","","","","","","","","","","","","","","","","","","","",""
"","do_trial","227","564631","0.0-122.0-0.0","""event"",""trial"",""time""
""fullscreenenter"",""0"",""3085""
","
","
","""event"",""trial"",""time""
""fullscreenenter"",""0"",""3085""
","
","267.79999999701977","","","","","","","","51","0,0,0","6","blank","333","null","0.23550962606655795","0.17539254555758427","0.63045091528863","0","","","","","","","","",""
"","html-keyboard-response","228","565646","0.0-122.0-1.0","""event"",""trial"",""time""
""fullscreenenter"",""0"",""3085""
","
","
","""event"",""trial"",""time""
""fullscreenenter"",""0"",""3085""
","
","null","<p></p>","null","","","","","","","","","","","","","","","","","","","","","","","",""
"","do_recog","229","568425","0.0-123.0-0.0","""event"",""trial"",""time""
""fullscreenenter"",""0"",""3085""
","
","
","""event"",""trial"",""time""
""fullscreenenter"",""0"",""3085""
","
","1267.1000000089407","","","","","","","","56","","","","334","probe-35","","","","","1","[object Object]","74","1","0","","","",""
"","html-keyboard-response","230","569431","0.0-123.0-1.0","""event"",""trial"",""time""
""fullscreenenter"",""0"",""3085""
","
","
","""event"",""trial"",""time""
""fullscreenenter"",""0"",""3085""
","
","null","<p></p>","null","","","","","","","","","","","","","","","","","","","","","","","",""
"","do_trial","231","572362","0.0-124.0-0.0","""event"",""trial"",""time""
""fullscreenenter"",""0"",""3085""
","
","
","""event"",""trial"",""time""
""fullscreenenter"",""0"",""3085""
","
","396.20000000298023","","","","","","","","51","0,1,1","6","blank","335","null","0.22799571048004133","0.30455961083844624","0.5276472272022763","1","","","","","","","","",""
"","html-keyboard-response","232","573370","0.0-124.0-1.0","""event"",""trial"",""time""
""fullscreenenter"",""0"",""3085""
","
","
","""event"",""trial"",""time""
""fullscreenenter"",""0"",""3085""
","
","null","<p></p>","null","","","","","","","","","","","","","","","","","","","","","","","",""
"","do_recog","233","576547","0.0-125.0-0.0","""event"",""trial"",""time""
""fullscreenenter"",""0"",""3085""
","
","
","""event"",""trial"",""time""
""fullscreenenter"",""0"",""3085""
","
","1661.1000000089407","","","","","","","","53","","","","336","probe-10","","","","","1","[object Object]","153","3","1","","","",""
"","html-keyboard-response","234","577550","0.0-125.0-1.0","""event"",""trial"",""time""
""fullscreenenter"",""0"",""3085""
","
","
","""event"",""trial"",""time""
""fullscreenenter"",""0"",""3085""
","
","null","<p></p>","null","","","","","","","","","","","","","","","","","","","","","","","",""
"","do_trial","235","580416","0.0-126.0-0.0","""event"",""trial"",""time""
""fullscreenenter"",""0"",""3085""
","
","
","""event"",""trial"",""time""
""fullscreenenter"",""0"",""3085""
","
","323.90000000596046","","","","","","","","51","0,0,1","6","blank","337","null","0.25218401459014034","0.15220130967491327","0.5993658286907926","1","","","","","","","","",""
"","html-keyboard-response","236","581421","0.0-126.0-1.0","""event"",""trial"",""time""
""fullscreenenter"",""0"",""3085""
","
","
","""event"",""trial"",""time""
""fullscreenenter"",""0"",""3085""
","
","null","<p></p>","null","","","","","","","","","","","","","","","","","","","","","","","",""
"","do_recog","237","584317","0.0-127.0-0.0","""event"",""trial"",""time""
""fullscreenenter"",""0"",""3085""
","
","
","""event"",""trial"",""time""
""fullscreenenter"",""0"",""3085""
","
","1379.0999999940395","","","","","","","","56","","","","338","probe-125","","","","","1","[object Object]","39","0","0","","","",""
"","html-keyboard-response","238","585322","0.0-127.0-1.0","""event"",""trial"",""time""
""fullscreenenter"",""0"",""3085""
","
","
","""event"",""trial"",""time""
""fullscreenenter"",""0"",""3085""
","
","null","<p></p>","null","","","","","","","","","","","","","","","","","","","","","","","",""
"","do_trial","239","588104","0.0-128.0-0.0","""event"",""trial"",""time""
""fullscreenenter"",""0"",""3085""
","
","
","""event"",""trial"",""time""
""fullscreenenter"",""0"",""3085""
","
","245.40000000596046","","","","","","","","51","1,0,0","6","blank","339","null","0.4070044854288157","0.06568645543637089","0.6305011256900607","0","","","","","","","","",""
"","html-keyboard-response","240","589108","0.0-128.0-1.0","""event"",""trial"",""time""
""fullscreenenter"",""0"",""3085""
","
","
","""event"",""trial"",""time""
""fullscreenenter"",""0"",""3085""
","
","null","<p></p>","null","","","","","","","","","","","","","","","","","","","","","","","",""
"","do_trial","241","591916","0.0-129.0-0.0","""event"",""trial"",""time""
""fullscreenenter"",""0"",""3085""
","
","
","""event"",""trial"",""time""
""fullscreenenter"",""0"",""3085""
","
","263.19999998807907","","","","","","","","51","0,0,1","6","blank","340","null","0.28880138594561894","0.11973657840436118","0.6634290124489892","1","","","","","","","","",""
"","html-keyboard-response","242","592923","0.0-129.0-1.0","""event"",""trial"",""time""
""fullscreenenter"",""0"",""3085""
","
","
","""event"",""trial"",""time""
""fullscreenenter"",""0"",""3085""
","
","null","<p></p>","null","","","","","","","","","","","","","","","","","","","","","","","",""
"","do_trial","243","595728","0.0-130.0-0.0","""event"",""trial"",""time""
""fullscreenenter"",""0"",""3085""
","
","
","""event"",""trial"",""time""
""fullscreenenter"",""0"",""3085""
","
","272.1000000089407","","","","","","","","51","1,1,0","6","blank","341","null","0.2133553664600602","0.24136149147881292","0.6711708743839034","0","","","","","","","","",""
"","html-keyboard-response","244","596736","0.0-130.0-1.0","""event"",""trial"",""time""
""fullscreenenter"",""0"",""3085""
","
","
","""event"",""trial"",""time""
""fullscreenenter"",""0"",""3085""
","
","null","<p></p>","null","","","","","","","","","","","","","","","","","","","","","","","",""
"","do_trial","245","599415","0.0-131.0-0.0","""event"",""trial"",""time""
""fullscreenenter"",""0"",""3085""
","
","
","""event"",""trial"",""time""
""fullscreenenter"",""0"",""3085""
","
","147.59999999403954","","","","","","","","51","1,0,1","6","blank","342","null","0.33099004637646956","0.23009245388848112","0.5313656675118833","1","","","","","","","","",""
"","html-keyboard-response","246","600430","0.0-131.0-1.0","""event"",""trial"",""time""
""fullscreenenter"",""0"",""3085""
","
","
","""event"",""trial"",""time""
""fullscreenenter"",""0"",""3085""
","
","null","<p></p>","null","","","","","","","","","","","","","","","","","","","","","","","",""
"","do_trial","247","603292","0.0-132.0-0.0","""event"",""trial"",""time""
""fullscreenenter"",""0"",""3085""
","
","
","""event"",""trial"",""time""
""fullscreenenter"",""0"",""3085""
","
","320.90000000596046","","","","","","","","51","0,0,1","6","blank","343","null","0.17433548161212933","0.12024017304307678","0.5676529368686056","1","","","","","","","","",""
"","html-keyboard-response","248","604296","0.0-132.0-1.0","""event"",""trial"",""time""
""fullscreenenter"",""0"",""3085""
","
","
","""event"",""trial"",""time""
""fullscreenenter"",""0"",""3085""
","
","null","<p></p>","null","","","","","","","","","","","","","","","","","","","","","","","",""
"","do_trial","249","606891","0.0-133.0-0.0","""event"",""trial"",""time""
""fullscreenenter"",""0"",""3085""
","
","
","""event"",""trial"",""time""
""fullscreenenter"",""0"",""3085""
","
","62.900000005960464","","","","","","","","51","1,0,0","6","blank","344","null","0.16435455474419006","0.08680773784214658","0.49271588582847237","0","","","","","","","","",""
"","html-keyboard-response","250","607896","0.0-133.0-1.0","""event"",""trial"",""time""
""fullscreenenter"",""0"",""3085""
","
","
","""event"",""trial"",""time""
""fullscreenenter"",""0"",""3085""
","
","null","<p></p>","null","","","","","","","","","","","","","","","","","","","","","","","",""
"","do_recog","251","611386","0.0-134.0-0.0","""event"",""trial"",""time""
""fullscreenenter"",""0"",""3085""
","
","
","""event"",""trial"",""time""
""fullscreenenter"",""0"",""3085""
","
","1974.5999999940395","","","","","","","","53","","","","345","probe-156","","","","","1","[object Object]","193","4","1","","","",""
"","html-keyboard-response","252","612390","0.0-134.0-1.0","""event"",""trial"",""time""
""fullscreenenter"",""0"",""3085""
","
","
","""event"",""trial"",""time""
""fullscreenenter"",""0"",""3085""
","
","null","<p></p>","null","","","","","","","","","","","","","","","","","","","","","","","",""
"","do_trial","253","615313","0.0-135.0-0.0","""event"",""trial"",""time""
""fullscreenenter"",""0"",""3085""
","
","
","""event"",""trial"",""time""
""fullscreenenter"",""0"",""3085""
","
","379.69999998807907","","","","","","","","51","0,0,1","6","blank","346","null","0.24994540855563813","0.11517130267527498","0.5063233355107566","1","","","","","","","","",""
"","html-keyboard-response","254","616326","0.0-135.0-1.0","""event"",""trial"",""time""
""fullscreenenter"",""0"",""3085""
","
","
","""event"",""trial"",""time""
""fullscreenenter"",""0"",""3085""
","
","null","<p></p>","null","","","","","","","","","","","","","","","","","","","","","","","",""
"","do_trial","255","619072","0.0-136.0-0.0","""event"",""trial"",""time""
""fullscreenenter"",""0"",""3085""
","
","
","""event"",""trial"",""time""
""fullscreenenter"",""0"",""3085""
","
","205.8999999910593","","","","","","","","51","1,1,0","6","blank","347","null","0.21596850884025498","0.49510820938925393","0.4005894793698912","0","","","","","","","","",""
"","html-keyboard-response","256","620079","0.0-136.0-1.0","""event"",""trial"",""time""
""fullscreenenter"",""0"",""3085""
","
","
","""event"",""trial"",""time""
""fullscreenenter"",""0"",""3085""
","
","null","<p></p>","null","","","","","","","","","","","","","","","","","","","","","","","",""
"","do_trial","257","622797","0.0-137.0-0.0","""event"",""trial"",""time""
""fullscreenenter"",""0"",""3085""
","
","
","""event"",""trial"",""time""
""fullscreenenter"",""0"",""3085""
","
","172.40000000596046","","","","","","","","51","1,1,0","6","blank","348","null","0.28733720834849874","0.5273675232839122","0.33290138689613946","0","","","","","","","","",""
"","html-keyboard-response","258","623800","0.0-137.0-1.0","""event"",""trial"",""time""
""fullscreenenter"",""0"",""3085""
","
","
","""event"",""trial"",""time""
""fullscreenenter"",""0"",""3085""
","
","null","<p></p>","null","","","","","","","","","","","","","","","","","","","","","","","",""
"","break","259","628860","0.0-138.0-0.0","""event"",""trial"",""time""
""fullscreenenter"",""0"",""3085""
","
","
","""event"",""trial"",""time""
""fullscreenenter"",""0"",""3085""
","
","5059.800000011921","<div class='center'><p>Time to take a quick break! You have 2 minutes to rest, but you can move on sooner if you'd like.</p><p> Press the <b>space bar</b> to continue.</p></div>","32","","","","","","","","","","","","","","","","","","","","","","","",""
"","do_trial","260","632784","0.0-138.0-1.0","""event"",""trial"",""time""
""fullscreenenter"",""0"",""3085""
","
","
","""event"",""trial"",""time""
""fullscreenenter"",""0"",""3085""
","
","1378.8999999910593","","","","","","","","50","0,1,1","6","blank","349","null","0.2534612114632973","0.5771757474155009","0.1875446744460154","1","","","","","","","","",""
"","html-keyboard-response","261","633801","0.0-138.0-2.0","""event"",""trial"",""time""
""fullscreenenter"",""0"",""3085""
","
","
","""event"",""trial"",""time""
""fullscreenenter"",""0"",""3085""
","
","null","<p></p>","null","","","","","","","","","","","","","","","","","","","","","","","",""
"","do_recog","262","636576","0.0-139.0-0.0","""event"",""trial"",""time""
""fullscreenenter"",""0"",""3085""
","
","
","""event"",""trial"",""time""
""fullscreenenter"",""0"",""3085""
","
","1263.7999999970198","","","","","","","","53","","","","350","probe-128","","","","","1","[object Object]","38","0","1","","","",""
"","html-keyboard-response","263","637583","0.0-139.0-1.0","""event"",""trial"",""time""
""fullscreenenter"",""0"",""3085""
","
","
","""event"",""trial"",""time""
""fullscreenenter"",""0"",""3085""
","
","null","<p></p>","null","","","","","","","","","","","","","","","","","","","","","","","",""
"","do_trial","264","640382","0.0-140.0-0.0","""event"",""trial"",""time""
""fullscreenenter"",""0"",""3085""
","
","
","""event"",""trial"",""time""
""fullscreenenter"",""0"",""3085""
","
","255.79999999701977","","","","","","","","50","0,0,0","6","blank","351","null","0.34281592042200887","0.6453718170608075","0.1373786326562753","0","","","","","","","","",""
"","html-keyboard-response","265","641390","0.0-140.0-1.0","""event"",""trial"",""time""
""fullscreenenter"",""0"",""3085""
","
","
","""event"",""trial"",""time""
""fullscreenenter"",""0"",""3085""
","
","null","<p></p>","null","","","","","","","","","","","","","","","","","","","","","","","",""
"","do_recog","266","644334","0.0-141.0-0.0","""event"",""trial"",""time""
""fullscreenenter"",""0"",""3085""
","
","
","""event"",""trial"",""time""
""fullscreenenter"",""0"",""3085""
","
","1432.3999999910593","","","","","","","","53","","","","352","probe-09","","","","","1","[object Object]","151","3","1","","","",""
"","html-keyboard-response","267","645340","0.0-141.0-1.0","""event"",""trial"",""time""
""fullscreenenter"",""0"",""3085""
","
","
","""event"",""trial"",""time""
""fullscreenenter"",""0"",""3085""
","
","null","<p></p>","null","","","","","","","","","","","","","","","","","","","","","","","",""
"","do_trial","268","648019","0.0-142.0-0.0","""event"",""trial"",""time""
""fullscreenenter"",""0"",""3085""
","
","
","""event"",""trial"",""time""
""fullscreenenter"",""0"",""3085""
","
","137.90000000596046","","","","","","","","50","1,0,0","6","blank","353","null","0.40630566877187974","0.5360046112483701","0.21317212740861124","0","","","","","","","","",""
"","html-keyboard-response","269","649023","0.0-142.0-1.0","""event"",""trial"",""time""
""fullscreenenter"",""0"",""3085""
","
","
","""event"",""trial"",""time""
""fullscreenenter"",""0"",""3085""
","
","null","<p></p>","null","","","","","","","","","","","","","","","","","","","","","","","",""
"","do_trial","270","651952","0.0-143.0-0.0","""event"",""trial"",""time""
""fullscreenenter"",""0"",""3085""
","
","
","""event"",""trial"",""time""
""fullscreenenter"",""0"",""3085""
","
","394.1000000089407","","","","","","","","50","0,1,0","6","blank","354","null","0.30228833867693483","0.6469382343882868","0.2446419815571823","1","","","","","","","","",""
"","html-keyboard-response","271","652960","0.0-143.0-1.0","""event"",""trial"",""time""
""fullscreenenter"",""0"",""3085""
","
","
","""event"",""trial"",""time""
""fullscreenenter"",""0"",""3085""
","
","null","<p></p>","null","","","","","","","","","","","","","","","","","","","","","","","",""
"","do_trial","272","655593","0.0-144.0-0.0","""event"",""trial"",""time""
""fullscreenenter"",""0"",""3085""
","
","
","""event"",""trial"",""time""
""fullscreenenter"",""0"",""3085""
","
","98.09999999403954","","","","","","","","50","0,1,0","6","blank","355","null","0.25863869545301843","0.6873245845455115","0.13296350430485893","1","","","","","","","","",""
"","html-keyboard-response","273","656596","0.0-144.0-1.0","""event"",""trial"",""time""
""fullscreenenter"",""0"",""3085""
","
","
","""event"",""trial"",""time""
""fullscreenenter"",""0"",""3085""
","
","null","<p></p>","null","","","","","","","","","","","","","","","","","","","","","","","",""
"","do_trial","274","659335","0.0-145.0-0.0","""event"",""trial"",""time""
""fullscreenenter"",""0"",""3085""
","
","
","""event"",""trial"",""time""
""fullscreenenter"",""0"",""3085""
","
","202.19999998807907","","","","","","","","50","0,0,0","6","blank","356","null","0.1972606389444237","0.5465067098937058","0.07684179316402107","0","","","","","","","","",""
"","html-keyboard-response","275","660349","0.0-145.0-1.0","""event"",""trial"",""time""
""fullscreenenter"",""0"",""3085""
","
","
","""event"",""trial"",""time""
""fullscreenenter"",""0"",""3085""
","
","null","<p></p>","null","","","","","","","","","","","","","","","","","","","","","","","",""
"","do_trial","276","663212","0.0-146.0-0.0","""event"",""trial"",""time""
""fullscreenenter"",""0"",""3085""
","
","
","""event"",""trial"",""time""
""fullscreenenter"",""0"",""3085""
","
","316.90000000596046","","","","","","","","50","0,1,0","6","blank","357","null","0.31335877796987005","0.6765446778054593","0.05436746874522455","1","","","","","","","","",""
