success,trial_type,trial_index,time_elapsed,internal_node_id,rt,stimulus,subject_id,key_press,response,choice_outcomes,context_n,context_img_id,trial_n,probe_img_id,pR_red,pR_white,pR_black,outcome,is_valid,image_to_show,probed_trial,probed_context,correct,context_id
TRUE,fullscreen,0,3993,0.0-0.0,,,,,,,,,,,,,,,,,,,,
,pavlovia,1,4002,0.0-1.0,,,,,,,,,,,,,,,,,,,,
,html-keyboard-response,2,8360,0.0-2.0,4355.7,"<div class='center'><p>Like yesterday,as the head captain of the ship, you have one important things to do: </p><b><p> Pick the pirate who you think will be most successful at robbing the next ship.</p></b><p>This is important in determining how much bonus money you’ll win.</p><br><p>The game will start by showing you the pirates. First pick a pirate using the <b> 1, 2, 3 </b> buttons on your keyboard. </p><p> Press <b>'1'</b> to choose red beard, <b>'2'</b> to choose white beard, and <b>'3'</b> to choose black beard</p><p> You only have 3 seconds to pick a pirate, so please make a choice quickly! If you are too slow, you’ll have to wait a bit during the time out.</p><p> Don’t feel rushed, but please do try to make a choice every time.</p><p>How good a pirate is at robbing a ship will change depending on the place they are in and how good the defenses are of the ship.</p><p><b>[Press the space bar to begin the practice game]</b></p></div>",60fde45e0ba6fd9b21d30c71,32,,,,,,,,,,,,,,,,
,html-keyboard-response,3,29074,0.0-3.0,20713.3,"<div class='center'><p>You’ve arrived at the final island of your journey! Unfortunately, it’s very foggy out, so you won’t be able to see it in the distance like the previous islands you've visited.</p><p>You’ll still be deciding which pirate you want to rob a ship like before. However, because of the fog, you also won’t be able to see the ship.</p><p>This means you do not have to remember the ships you rob on this island.</p><p><b>[Press the space bar to continue]</b></p></div>",,32,,,,,,,,,,,,,,,,
,html-keyboard-response,4,39843,0.0-4.0,10767.8,"<div class='center'><p> Sometimes you’ll be shown a ship, and you will be asked if you saw this ship on a past island.</p><p> Here is an example of what you will see.</p><p><b>[Press the space bar to continue]</b></p><p><img src='run_exp/static/images/tutorial/example_recog_trial.png' height='500'></p></div>",,32,,,,,,,,,,,,,,,,
,html-keyboard-response,5,49168,0.0-5.0,9323.6,"<div class='center'><p> You will press the 5, 6, 7, 8 buttons on your keyboard to respond.</p><p>If you are very sure saw the ship, press <b>5</b> on your keyboard.</p><p> If you think you  saw it before but are not sure, then press <b>6</b>.</p><p> If you think you have not seen it before but are not sure, then press <b>7</b>.</p><p> If you are sure you did not see the ship before, then press <b>8</b>.</p><p><b>[Press the space bar to continue]</b></p><p><img src='run_exp/static/images/tutorial/example_recog_trial.png' height='500'></p></div>",,32,,,,,,,,,,,,,,,,
,html-keyboard-response,6,65728,0.0-6.0,16558.5,"<div class='center'><p> If you remember correctly, then you’ll get a gold coin like this: </p><p><img src='run_exp/static/images/tutorial/reward_small.png' height='200'></p><p>If you do not remember correctly, then you'll see a red x like this: </p><p><img src='run_exp/static/images/tutorial/reward_no.png' height='200'></p><p>Importantly, when you are shown a ship, take the time to remind yourself which island you saw it on. This will help you in the next part of the study.</p><p><b>[Press the space bar to continue]</b></p></div>",,32,,,,,,,,,,,,,,,,
,html-keyboard-response,7,72189,0.0-7.0,6458.8,"<div class='center'><p>Let's go over the important points again. Your job is to: </p><p>1. Pick the pirate who is best at robbing ships and will bring you back gold coins. </p><p>2. Correctly remember whether or not you saw a ship before. If you did see the ship before, remind yourself on which island you saw the ship. </p><p><b>[Press the space bar to begin the next part of the study]</b></p></div>",,32,,,,,,,,,,,,,,,,
,do_welcome,8,73715,0.0-8.0,null,,,,null,,,,,,,,,,,,,,,
,do_trial,9,78233,0.0-9.0-0.0,1892.8,,,,49,"0,0,0",6,blank,230,null,0.349915952,0.086762347,0.593714698,0,,,,,,
,html-keyboard-response,10,79237,0.0-9.0-1.0,null,<p></p>,,null,,,,,,,,,,,,,,,,
,do_trial,11,82432,0.0-10.0-0.0,581.4000001,,,,49,"0,0,1",6,blank,231,null,0.341516858,0.143232151,0.753545515,0,,,,,,
,html-keyboard-response,12,83439,0.0-10.0-1.0,null,<p></p>,,null,,,,,,,,,,,,,,,,
,do_trial,13,86341,0.0-11.0-0.0,272.5,,,,51,"0,0,1",6,blank,232,null,0.371080411,0.087649044,0.855539531,1,,,,,,
,html-keyboard-response,14,87346,0.0-11.0-1.0,null,<p></p>,,null,,,,,,,,,,,,,,,,
,do_trial,15,90227,0.0-12.0-0.0,260,,,,51,"1,0,1",6,blank,233,null,0.295836472,0.113952049,0.709504436,1,,,,,,
,html-keyboard-response,16,91243,0.0-12.0-1.0,null,<p></p>,,null,,,,,,,,,,,,,,,,
,do_trial,17,93858,0.0-13.0-0.0,0.099999905,,,,51,"1,0,1",6,blank,234,null,0.187961369,0.106513951,0.572412205,1,,,,,,
,html-keyboard-response,18,94861,0.0-13.0-1.0,null,<p></p>,,null,,,,,,,,,,,,,,,,
,do_trial,19,97556,0.0-14.0-0.0,105.0999999,,,,51,"1,0,1",6,blank,235,null,0.201258227,0.096637779,0.659494971,1,,,,,,
,html-keyboard-response,20,98571,0.0-14.0-1.0,null,<p></p>,,null,,,,,,,,,,,,,,,,
,do_trial,21,101267,0.0-15.0-0.0,129.0999999,,,,51,"0,0,0",6,blank,236,null,0.226033884,0.14447205,0.632758152,0,,,,,,
,html-keyboard-response,22,102273,0.0-15.0-1.0,null,<p></p>,,null,,,,,,,,,,,,,,,,
,do_trial,23,104893,0.0-16.0-0.0,0,,,,51,"0,0,0",6,blank,237,null,0.329205837,0.15235726,0.625209481,0,,,,,,
,html-keyboard-response,24,105906,0.0-16.0-1.0,null,<p></p>,,null,,,,,,,,,,,,,,,,
,do_trial,25,108705,0.0-17.0-0.0,191.0999999,,,,51,"0,0,0",6,blank,238,null,0.346414215,0.300826461,0.606596323,0,,,,,,
,html-keyboard-response,26,109712,0.0-17.0-1.0,null,<p></p>,,null,,,,,,,,,,,,,,,,
,do_trial,27,112338,0.0-18.0-0.0,0.700000048,,,,51,"0,0,1",6,blank,239,null,0.460463203,0.227935823,0.594775514,1,,,,,,
,html-keyboard-response,28,113358,0.0-18.0-1.0,null,<p></p>,,null,,,,,,,,,,,,,,,,
,do_trial,29,116237,0.0-19.0-0.0,270,,,,51,"0,1,1",6,blank,240,null,0.370908047,0.227825353,0.769976406,1,,,,,,
,html-keyboard-response,30,117241,0.0-19.0-1.0,null,<p></p>,,null,,,,,,,,,,,,,,,,
,do_recog,31,123283,0.0-20.0-0.0,null,,,,null,,,,241,probe-92,,,,,1,[object Object],162,4,0,
,html-keyboard-response,32,124288,0.0-20.0-1.0,null,<p></p>,,null,,,,,,,,,,,,,,,,
,do_trial,33,127964,0.0-21.0-0.0,1051.7,,,,51,"0,1,1",6,blank,242,null,0.467092932,0.270282134,0.75004881,1,,,,,,
,html-keyboard-response,34,128974,0.0-21.0-1.0,null,<p></p>,,null,,,,,,,,,,,,,,,,
,do_trial,35,131806,0.0-22.0-0.0,213.5999999,,,,51,"0,0,0",6,blank,243,null,0.430046443,0.361221265,0.58243703,0,,,,,,
,html-keyboard-response,36,132815,0.0-22.0-1.0,null,<p></p>,,null,,,,,,,,,,,,,,,,
,do_trial,37,135924,0.0-23.0-0.0,550.8,,,,51,"1,0,1",6,blank,244,null,0.318496876,0.36820622,0.409569487,1,,,,,,
,html-keyboard-response,38,136935,0.0-23.0-1.0,null,<p></p>,,null,,,,,,,,,,,,,,,,
,do_trial,39,139821,0.0-24.0-0.0,274.9000001,,,,51,"0,0,1",6,blank,245,null,0.29244593,0.562287359,0.334027424,1,,,,,,
,html-keyboard-response,40,140836,0.0-24.0-1.0,null,<p></p>,,null,,,,,,,,,,,,,,,,
,do_trial,41,143647,0.0-25.0-0.0,195.8,,,,51,"0,0,0",6,blank,246,null,0.239874593,0.548869985,0.215884744,0,,,,,,
,html-keyboard-response,42,144661,0.0-25.0-1.0,null,<p></p>,,null,,,,,,,,,,,,,,,,
,do_recog,43,150685,0.0-26.0-0.0,null,,,,null,,,,247,probe-32,,,,,1,[object Object],129,3,0,
,html-keyboard-response,44,151696,0.0-26.0-1.0,null,<p></p>,,null,,,,,,,,,,,,,,,,
,do_trial,45,154526,0.0-27.0-0.0,212.8000002,,,,51,"0,0,0",6,blank,248,null,0.11483614,0.502214265,0.344593211,0,,,,,,
,html-keyboard-response,46,155539,0.0-27.0-1.0,null,<p></p>,,null,,,,,,,,,,,,,,,,
,do_trial,47,158368,0.0-28.0-0.0,208,,,,51,"0,0,0",6,blank,249,null,0.133379491,0.503304838,0.267568337,0,,,,,,
,html-keyboard-response,48,159384,0.0-28.0-1.0,null,<p></p>,,null,,,,,,,,,,,,,,,,
,do_recog,49,162351,0.0-29.0-0.0,1444.9,,,,56,,,,250,probe-52,,,,,1,[object Object],163,4,0,
,html-keyboard-response,50,163359,0.0-29.0-1.0,null,<p></p>,,null,,,,,,,,,,,,,,,,
,do_trial,51,166353,0.0-30.0-0.0,400.2,,,,51,"0,1,0",6,blank,251,null,0.189974494,0.502993445,0.283280348,0,,,,,,
,html-keyboard-response,52,167356,0.0-30.0-1.0,null,<p></p>,,null,,,,,,,,,,,,,,,,
,do_trial,53,170143,0.0-31.0-0.0,220.8000002,,,,51,"0,1,0",6,blank,252,null,0.243138726,0.492169083,0.323369973,0,,,,,,
,html-keyboard-response,54,171160,0.0-31.0-1.0,null,<p></p>,,null,,,,,,,,,,,,,,,,
,do_trial,55,174216,0.0-32.0-0.0,431.2,,,,51,"0,1,0",6,blank,253,null,0.257462283,0.652963013,0.245779938,0,,,,,,
,html-keyboard-response,56,175231,0.0-32.0-1.0,null,<p></p>,,null,,,,,,,,,,,,,,,,
,do_trial,57,178030,0.0-33.0-0.0,240.2,,,,50,"1,1,0",6,blank,254,null,0.254656296,0.590658257,0.125076395,1,,,,,,
,html-keyboard-response,58,179034,0.0-33.0-1.0,null,<p></p>,,null,,,,,,,,,,,,,,,,
,do_trial,59,181668,0.0-34.0-0.0,30.0999999,,,,50,"0,1,0",6,blank,255,null,0.090921551,0.432076242,0.055120504,1,,,,,,
,html-keyboard-response,60,182678,0.0-34.0-1.0,null,<p></p>,,null,,,,,,,,,,,,,,,,
,do_trial,61,185538,0.0-35.0-0.0,241.5,,,,50,"1,1,0",6,blank,256,null,0.208376737,0.428104871,0.072505486,1,,,,,,
,html-keyboard-response,62,186546,0.0-35.0-1.0,null,<p></p>,,null,,,,,,,,,,,,,,,,
,do_trial,63,189506,0.0-36.0-0.0,392,,,,50,"1,1,0",6,blank,257,null,0.18202687,0.46005604,0.16513646,1,,,,,,
,html-keyboard-response,64,190516,0.0-36.0-1.0,null,<p></p>,,null,,,,,,,,,,,,,,,,
,do_recog,65,195009,0.0-37.0-0.0,2984.5,,,,53,,,,258,probe-06,,,,,1,[object Object],202,5,1,
,html-keyboard-response,66,196024,0.0-37.0-1.0,null,<p></p>,,null,,,,,,,,,,,,,,,,
,do_trial,67,199612,0.0-38.0-0.0,961.8,,,,50,"0,0,0",6,blank,259,null,0.21060846,0.580722574,0.135638309,0,,,,,,
,html-keyboard-response,68,200621,0.0-38.0-1.0,null,<p></p>,,null,,,,,,,,,,,,,,,,
,do_recog,69,206658,0.0-39.0-0.0,null,,,,null,,,,260,probe-190,,,,,1,[object Object],204,5,0,
,html-keyboard-response,70,207670,0.0-39.0-1.0,null,<p></p>,,null,,,,,,,,,,,,,,,,
,do_trial,71,210698,0.0-40.0-0.0,422.4000001,,,,50,"0,0,1",6,blank,261,null,0.142354003,0.617499696,0.137380006,0,,,,,,
,html-keyboard-response,72,211718,0.0-40.0-1.0,null,<p></p>,,null,,,,,,,,,,,,,,,,
,do_trial,73,214712,0.0-41.0-0.0,373.8999999,,,,50,"0,1,0",6,blank,262,null,0.230459187,0.720214625,0.08686209,1,,,,,,
,html-keyboard-response,74,215727,0.0-41.0-1.0,null,<p></p>,,null,,,,,,,,,,,,,,,,
,do_trial,75,218640,0.0-42.0-0.0,309.3000002,,,,50,"0,0,1",6,blank,263,null,0.257528052,0.67985559,0.123241757,0,,,,,,
,html-keyboard-response,76,219642,0.0-42.0-1.0,null,<p></p>,,null,,,,,,,,,,,,,,,,
,do_trial,77,222680,0.0-43.0-0.0,415.5999999,,,,50,"1,0,0",6,blank,264,null,0.3647259,0.698216215,0.119898696,0,,,,,,
,html-keyboard-response,78,223687,0.0-43.0-1.0,null,<p></p>,,null,,,,,,,,,,,,,,,,
,do_trial,79,226676,0.0-44.0-0.0,380.9000001,,,,51,"0,0,0",6,blank,265,null,0.33717233,0.65192843,0.072262998,0,,,,,,
,html-keyboard-response,80,227684,0.0-44.0-1.0,null,<p></p>,,null,,,,,,,,,,,,,,,,
,do_trial,81,230525,0.0-45.0-0.0,228.9000001,,,,50,"1,1,0",6,blank,266,null,0.427009569,0.61800825,0.071842643,1,,,,,,
,html-keyboard-response,82,231533,0.0-45.0-1.0,null,<p></p>,,null,,,,,,,,,,,,,,,,
,do_recog,83,235580,0.0-46.0-0.0,2533.7,,,,53,,,,267,probe-96,,,,,1,[object Object],87,2,1,
,html-keyboard-response,84,236601,0.0-46.0-1.0,null,<p></p>,,null,,,,,,,,,,,,,,,,
,do_trial,85,240378,0.0-47.0-0.0,1206.9,,,,51,"0,0,0",6,blank,268,null,0.269039003,0.526436786,0.105415455,0,,,,,,
,html-keyboard-response,86,241380,0.0-47.0-1.0,null,<p></p>,,null,,,,,,,,,,,,,,,,
,do_recog,87,245202,0.0-48.0-0.0,2301.3,,,,53,,,,269,probe-223,,,,,1,[object Object],209,5,1,
,html-keyboard-response,88,246204,0.0-48.0-1.0,null,<p></p>,,null,,,,,,,,,,,,,,,,
,do_trial,89,249729,0.0-49.0-0.0,952.2,,,,50,"0,1,1",6,blank,270,null,0.168054735,0.589500751,0.074772306,1,,,,,,
,html-keyboard-response,90,250733,0.0-49.0-1.0,null,<p></p>,,null,,,,,,,,,,,,,,,,
,do_trial,91,253966,0.0-50.0-0.0,643,,,,50,"1,1,0",6,blank,271,null,0.203539254,0.58637426,0.080957333,1,,,,,,
,html-keyboard-response,92,254975,0.0-50.0-1.0,null,<p></p>,,null,,,,,,,,,,,,,,,,
,do_trial,93,258042,0.0-51.0-0.0,470.3999999,,,,50,"1,1,0",6,blank,272,null,0.214993301,0.584940686,0.298411029,1,,,,,,
,html-keyboard-response,94,259058,0.0-51.0-1.0,null,<p></p>,,null,,,,,,,,,,,,,,,,
,do_trial,95,262007,0.0-52.0-0.0,367,,,,50,"1,1,1",6,blank,273,null,0.258492055,0.456325852,0.346044987,1,,,,,,
,html-keyboard-response,96,263021,0.0-52.0-1.0,null,<p></p>,,null,,,,,,,,,,,,,,,,
,do_recog,97,266498,0.0-53.0-0.0,1965.2,,,,55,,,,274,probe-24,,,,,1,[object Object],206,5,0,
,html-keyboard-response,98,267504,0.0-53.0-1.0,null,<p></p>,,null,,,,,,,,,,,,,,,,
,do_trial,99,270502,0.0-54.0-0.0,416.1000001,,,,50,"1,0,1",6,blank,275,null,0.278984948,0.422657759,0.215651976,0,,,,,,
,html-keyboard-response,100,271505,0.0-54.0-1.0,null,<p></p>,,null,,,,,,,,,,,,,,,,
,do_recog,101,274866,0.0-55.0-0.0,1837.7,,,,55,,,,276,probe-74,,,,,1,[object Object],161,4,0,
,html-keyboard-response,102,275896,0.0-55.0-1.0,null,<p></p>,,null,,,,,,,,,,,,,,,,
,do_trial,103,278849,0.0-56.0-0.0,368.3,,,,50,"0,1,0",6,blank,277,null,0.299630797,0.633476901,0.320290785,1,,,,,,
,html-keyboard-response,104,279864,0.0-56.0-1.0,null,<p></p>,,null,,,,,,,,,,,,,,,,
,do_trial,105,283006,0.0-57.0-0.0,546.0999999,,,,50,"0,1,1",6,blank,278,null,0.293265453,0.674170361,0.177850172,1,,,,,,
,html-keyboard-response,106,284025,0.0-57.0-1.0,null,<p></p>,,null,,,,,,,,,,,,,,,,
,do_trial,107,286965,0.0-58.0-0.0,354,,,,50,"1,1,0",6,blank,279,null,0.350692772,0.612494028,0.148938202,1,,,,,,
,html-keyboard-response,108,287982,0.0-58.0-1.0,null,<p></p>,,null,,,,,,,,,,,,,,,,
,do_trial,109,290932,0.0-59.0-0.0,329.3,,,,50,"0,0,0",6,blank,280,null,0.352889842,0.576065557,0.072598561,0,,,,,,
,html-keyboard-response,110,291946,0.0-59.0-1.0,null,<p></p>,,null,,,,,,,,,,,,,,,,
,do_recog,111,295774,0.0-60.0-0.0,2314.1,,,,53,,,,281,probe-139,,,,,1,[object Object],82,2,1,
,html-keyboard-response,112,296783,0.0-60.0-1.0,null,<p></p>,,null,,,,,,,,,,,,,,,,
,do_trial,113,300739,0.0-61.0-0.0,1350.4,,,,50,"0,0,0",6,blank,282,null,0.296844095,0.561078614,0.11846842,0,,,,,,
,html-keyboard-response,114,301744,0.0-61.0-1.0,null,<p></p>,,null,,,,,,,,,,,,,,,,
,do_trial,115,304358,0.0-62.0-0.0,61.60000014,,,,50,"1,1,0",6,blank,283,null,0.228468407,0.662720974,0.130731755,1,,,,,,
,html-keyboard-response,116,305362,0.0-62.0-1.0,null,<p></p>,,null,,,,,,,,,,,,,,,,
,do_trial,117,308461,0.0-63.0-0.0,481.3,,,,50,"0,1,0",6,blank,284,null,0.218603164,0.713105227,0.109881085,1,,,,,,
,html-keyboard-response,118,309474,0.0-63.0-1.0,null,<p></p>,,null,,,,,,,,,,,,,,,,
,do_trial,119,312472,0.0-64.0-0.0,392.3,,,,50,"0,0,0",6,blank,285,null,0.238139597,0.616591432,0.084285049,0,,,,,,
,html-keyboard-response,120,313486,0.0-64.0-1.0,null,<p></p>,,null,,,,,,,,,,,,,,,,
,do_trial,121,316368,0.0-65.0-0.0,249.3,,,,50,"0,1,0",6,blank,286,null,0.285784094,0.703710213,0.082487252,1,,,,,,
,html-keyboard-response,122,317376,0.0-65.0-1.0,null,<p></p>,,null,,,,,,,,,,,,,,,,
,do_trial,123,320257,0.0-66.0-0.0,273.5999999,,,,50,"0,1,0",6,blank,287,null,0.38366267,0.638747591,0.15507384,1,,,,,,
,html-keyboard-response,124,321267,0.0-66.0-1.0,null,<p></p>,,null,,,,,,,,,,,,,,,,
,do_recog,125,325113,0.0-67.0-0.0,2321.6,,,,56,,,,288,probe-133,,,,,1,[object Object],169,4,0,
,html-keyboard-response,126,326117,0.0-67.0-1.0,null,<p></p>,,null,,,,,,,,,,,,,,,,
,do_trial,127,328953,0.0-68.0-0.0,222.5,,,,50,"0,1,0",6,blank,289,null,0.32704147,0.499416709,0.135081295,1,,,,,,
,html-keyboard-response,128,329969,0.0-68.0-1.0,null,<p></p>,,null,,,,,,,,,,,,,,,,
,do_recog,129,333935,0.0-69.0-0.0,2451,,,,53,,,,290,probe-73,,,,,1,[object Object],85,2,1,
,html-keyboard-response,130,334939,0.0-69.0-1.0,null,<p></p>,,null,,,,,,,,,,,,,,,,
,do_trial,131,338701,0.0-70.0-0.0,1141.9,,,,51,"0,1,0",6,blank,291,null,0.345742502,0.596612407,0.083123647,0,,,,,,
,html-keyboard-response,132,339710,0.0-70.0-1.0,null,<p></p>,,null,,,,,,,,,,,,,,,,
,do_recog,133,343266,0.0-71.0-0.0,2033.4,,,,56,,,,292,probe-205,,,,,1,[object Object],80,2,0,
,html-keyboard-response,134,344270,0.0-71.0-1.0,null,<p></p>,,null,,,,,,,,,,,,,,,,
,do_trial,135,347329,0.0-72.0-0.0,446.3999999,,,,50,"0,1,0",6,blank,293,null,0.299688619,0.503991153,0.05497666,1,,,,,,
,html-keyboard-response,136,348339,0.0-72.0-1.0,null,<p></p>,,null,,,,,,,,,,,,,,,,
,do_recog,137,351354,0.0-73.0-0.0,1495.8,,,,56,,,,294,probe-100,,,,,1,[object Object],122,3,0,
,html-keyboard-response,138,352358,0.0-73.0-1.0,null,<p></p>,,null,,,,,,,,,,,,,,,,
,do_trial,139,355204,0.0-74.0-0.0,281.9000001,,,,50,"1,0,0",6,blank,295,null,0.51406745,0.495141161,0.07747999,0,,,,,,
,html-keyboard-response,140,356218,0.0-74.0-1.0,null,<p></p>,,null,,,,,,,,,,,,,,,,
,do_trial,141,359274,0.0-75.0-0.0,441.3999999,,,,50,"0,0,0",6,blank,296,null,0.577117834,0.325607977,0.157725859,0,,,,,,
,html-keyboard-response,142,360277,0.0-75.0-1.0,null,<p></p>,,null,,,,,,,,,,,,,,,,
,do_trial,143,363314,0.0-76.0-0.0,422.7,,,,50,"1,0,0",6,blank,297,null,0.506787725,0.283227238,0.163479707,0,,,,,,
,html-keyboard-response,144,364341,0.0-76.0-1.0,null,<p></p>,,null,,,,,,,,,,,,,,,,
,do_trial,145,367308,0.0-77.0-0.0,355.8,,,,50,"0,0,0",6,blank,298,null,0.481567551,0.463308779,0.076498822,0,,,,,,
,html-keyboard-response,146,368320,0.0-77.0-1.0,null,<p></p>,,null,,,,,,,,,,,,,,,,
,do_trial,147,371281,0.0-78.0-0.0,344.5999999,,,,50,"0,0,0",6,blank,299,null,0.654068492,0.483517549,0.085270154,0,,,,,,
,html-keyboard-response,148,372294,0.0-78.0-1.0,null,<p></p>,,null,,,,,,,,,,,,,,,,
,do_trial,149,375225,0.0-79.0-0.0,318.3,,,,50,"1,0,0",6,blank,300,null,0.650130113,0.289224561,0.10782443,0,,,,,,
,html-keyboard-response,150,376231,0.0-79.0-1.0,null,<p></p>,,null,,,,,,,,,,,,,,,,
,do_trial,151,379126,0.0-80.0-0.0,340.5999999,,,,51,"1,0,0",6,blank,301,null,0.662490831,0.332324754,0.13615426,0,,,,,,
,html-keyboard-response,152,380136,0.0-80.0-1.0,null,<p></p>,,null,,,,,,,,,,,,,,,,
,do_recog,153,383616,0.0-81.0-0.0,1956.3,,,,56,,,,302,probe-63,,,,,1,[object Object],89,2,0,
,html-keyboard-response,154,384629,0.0-81.0-1.0,null,<p></p>,,null,,,,,,,,,,,,,,,,
,do_trial,155,387527,0.0-82.0-0.0,284,,,,49,"0,0,0",6,blank,303,null,0.55496848,0.415618419,0.067198749,0,,,,,,
,html-keyboard-response,156,388539,0.0-82.0-1.0,null,<p></p>,,null,,,,,,,,,,,,,,,,
,do_trial,157,391436,0.0-83.0-0.0,277.6999998,,,,49,"1,0,0",6,blank,304,null,0.577437093,0.462828389,0.196268699,1,,,,,,
,html-keyboard-response,158,392442,0.0-83.0-1.0,null,<p></p>,,null,,,,,,,,,,,,,,,,
,do_trial,159,395448,0.0-84.0-0.0,394.8,,,,49,"0,0,0",6,blank,305,null,0.516951029,0.407884431,0.144980292,0,,,,,,
,html-keyboard-response,160,396462,0.0-84.0-1.0,null,<p></p>,,null,,,,,,,,,,,,,,,,
,do_trial,161,399312,0.0-85.0-0.0,245.5,,,,49,"0,1,0",6,blank,306,null,0.584153827,0.42612442,0.207102685,0,,,,,,
,html-keyboard-response,162,400329,0.0-85.0-1.0,null,<p></p>,,null,,,,,,,,,,,,,,,,
,do_trial,163,403194,0.0-86.0-0.0,252,,,,49,"1,0,1",6,blank,307,null,0.563181731,0.233873745,0.23253993,1,,,,,,
,html-keyboard-response,164,404199,0.0-86.0-1.0,null,<p></p>,,null,,,,,,,,,,,,,,,,
,do_trial,165,407199,0.0-87.0-0.0,385.3,,,,49,"0,0,0",6,blank,308,null,0.571103501,0.104555323,0.250866364,0,,,,,,
,html-keyboard-response,166,408205,0.0-87.0-1.0,null,<p></p>,,null,,,,,,,,,,,,,,,,
,do_recog,167,411156,0.0-88.0-0.0,1424.9,,,,56,,,,309,probe-114,,,,,1,[object Object],203,5,0,
,html-keyboard-response,168,412162,0.0-88.0-1.0,null,<p></p>,,null,,,,,,,,,,,,,,,,
,do_trial,169,415396,0.0-89.0-0.0,610.7,,,,49,"0,0,1",6,blank,310,null,0.446618365,0.231972789,0.2108879,0,,,,,,
,html-keyboard-response,170,416406,0.0-89.0-1.0,null,<p></p>,,null,,,,,,,,,,,,,,,,
,do_trial,171,419286,0.0-90.0-0.0,273.8,,,,50,"0,0,0",6,blank,311,null,0.42381951,0.326197055,0.273816159,0,,,,,,
,html-keyboard-response,172,420297,0.0-90.0-1.0,null,<p></p>,,null,,,,,,,,,,,,,,,,
,do_trial,173,423136,0.0-91.0-0.0,235.5999999,,,,50,"1,0,1",6,blank,312,null,0.565400832,0.257704656,0.237444695,0,,,,,,
,html-keyboard-response,174,424142,0.0-91.0-1.0,null,<p></p>,,null,,,,,,,,,,,,,,,,
,do_recog,175,427569,0.0-92.0-0.0,1903.8,,,,53,,,,313,probe-94,,,,,1,[object Object],41,1,1,
,html-keyboard-response,176,428579,0.0-92.0-1.0,null,<p></p>,,null,,,,,,,,,,,,,,,,
,do_trial,177,431488,0.0-93.0-0.0,310.6000001,,,,50,"1,0,0",6,blank,314,null,0.625270499,0.280541811,0.129980482,0,,,,,,
,html-keyboard-response,178,432499,0.0-93.0-1.0,null,<p></p>,,null,,,,,,,,,,,,,,,,
,do_recog,179,435527,0.0-94.0-0.0,1515.9,,,,53,,,,315,probe-01,,,,,1,[object Object],49,1,1,
,html-keyboard-response,180,436543,0.0-94.0-1.0,null,<p></p>,,null,,,,,,,,,,,,,,,,
,do_trial,181,439428,0.0-95.0-0.0,328,,,,50,"0,0,0",6,blank,316,null,0.609659929,0.298861467,0.061129325,0,,,,,,
,html-keyboard-response,182,440432,0.0-95.0-1.0,null,<p></p>,,null,,,,,,,,,,,,,,,,
,do_recog,183,442916,0.0-96.0-0.0,964.3999999,,,,53,,,,317,probe-103,,,,,1,[object Object],205,5,1,
,html-keyboard-response,184,443926,0.0-96.0-1.0,null,<p></p>,,null,,,,,,,,,,,,,,,,
,do_trial,185,446985,0.0-97.0-0.0,455.8,,,,50,"0,0,0",6,blank,318,null,0.641945648,0.246457861,0.130735686,0,,,,,,
,html-keyboard-response,186,447997,0.0-97.0-1.0,null,<p></p>,,null,,,,,,,,,,,,,,,,
,do_trial,187,451096,0.0-98.0-0.0,507.6000001,,,,51,"0,0,0",6,blank,319,null,0.566160098,0.190876291,0.146988193,0,,,,,,
,html-keyboard-response,188,452102,0.0-98.0-1.0,null,<p></p>,,null,,,,,,,,,,,,,,,,
,do_recog,189,454835,0.0-99.0-0.0,1218.7,,,,53,,,,320,probe-122,,,,,1,[object Object],47,1,1,
,html-keyboard-response,190,455841,0.0-99.0-1.0,null,<p></p>,,null,,,,,,,,,,,,,,,,
,do_trial,191,458763,0.0-100.0-0.0,327.8999999,,,,50,"0,0,1",6,blank,321,null,0.377551234,0.226540314,0.094877039,0,,,,,,
,html-keyboard-response,192,459770,0.0-100.0-1.0,null,<p></p>,,null,,,,,,,,,,,,,,,,
,do_trial,193,462921,0.0-101.0-0.0,558,,,,50,"0,1,0",6,blank,322,null,0.429974482,0.314028973,0.163255073,1,,,,,,
,html-keyboard-response,194,463927,0.0-101.0-1.0,null,<p></p>,,null,,,,,,,,,,,,,,,,
,do_trial,195,466986,0.0-102.0-0.0,463.8,,,,50,"0,0,0",6,blank,323,null,0.371564674,0.249626052,0.354564462,0,,,,,,
,html-keyboard-response,196,468003,0.0-102.0-1.0,null,<p></p>,,null,,,,,,,,,,,,,,,,
,do_trial,197,470971,0.0-103.0-0.0,369.7,,,,50,"1,0,0",6,blank,324,null,0.492193943,0.192215422,0.251681043,0,,,,,,
,html-keyboard-response,198,471984,0.0-103.0-1.0,null,<p></p>,,null,,,,,,,,,,,,,,,,
,do_trial,199,475121,0.0-104.0-0.0,574.8999999,,,,50,"1,0,0",6,blank,325,null,0.425156619,0.325864179,0.346090704,0,,,,,,
,html-keyboard-response,200,476130,0.0-104.0-1.0,null,<p></p>,,null,,,,,,,,,,,,,,,,
,do_trial,201,479034,0.0-105.0-0.0,303.4000001,,,,51,"1,0,0",6,blank,326,null,0.675044381,0.344666731,0.317637828,0,,,,,,
,html-keyboard-response,202,480044,0.0-105.0-1.0,null,<p></p>,,null,,,,,,,,,,,,,,,,
,do_recog,203,482914,0.0-106.0-0.0,1358.2,,,,53,,,,327,probe-236,,,,,0,[object Object],null,null,0,
,html-keyboard-response,204,483919,0.0-106.0-1.0,null,<p></p>,,null,,,,,,,,,,,,,,,,
,do_trial,205,487120,0.0-107.0-0.0,600.2,,,,51,"1,0,0",6,blank,328,null,0.573677352,0.302229363,0.203076229,0,,,,,,
,html-keyboard-response,206,488128,0.0-107.0-1.0,null,<p></p>,,null,,,,,,,,,,,,,,,,
,do_trial,207,491237,0.0-108.0-0.0,498,,,,51,"1,0,0",6,blank,329,null,0.603274911,0.3277477,0.110082714,0,,,,,,
,html-keyboard-response,208,492247,0.0-108.0-1.0,null,<p></p>,,null,,,,,,,,,,,,,,,,
,do_trial,209,495403,0.0-109.0-0.0,553.6000001,,,,51,"1,0,0",6,blank,330,null,0.57055453,0.192024388,0.205460454,0,,,,,,
,html-keyboard-response,210,496418,0.0-109.0-1.0,null,<p></p>,,null,,,,,,,,,,,,,,,,
,do_recog,211,500084,0.0-110.0-0.0,2150.9,,,,56,,,,331,probe-147,,,,,1,[object Object],167,4,0,
,html-keyboard-response,212,501094,0.0-110.0-1.0,null,<p></p>,,null,,,,,,,,,,,,,,,,
,do_trial,213,504157,0.0-111.0-0.0,431.0999999,,,,51,"0,0,0",6,blank,332,null,0.482488569,0.243150383,0.139812636,0,,,,,,
,html-keyboard-response,214,505165,0.0-111.0-1.0,null,<p></p>,,null,,,,,,,,,,,,,,,,
,do_recog,215,508651,0.0-112.0-0.0,1960.2,,,,53,,,,333,probe-91,,,,,1,[object Object],168,4,1,
,html-keyboard-response,216,509661,0.0-112.0-1.0,null,<p></p>,,null,,,,,,,,,,,,,,,,
,do_trial,217,513305,0.0-113.0-0.0,1083.3,,,,51,"1,1,0",6,blank,334,null,0.480015624,0.245838076,0.176922927,0,,,,,,
,html-keyboard-response,218,514310,0.0-113.0-1.0,null,<p></p>,,null,,,,,,,,,,,,,,,,
,do_trial,219,517387,0.0-114.0-0.0,453.1000001,,,,51,"0,0,1",6,blank,335,null,0.638911817,0.357494311,0.111006862,1,,,,,,
,html-keyboard-response,220,518399,0.0-114.0-1.0,null,<p></p>,,null,,,,,,,,,,,,,,,,
,do_trial,221,521882,0.0-115.0-0.0,861.4000001,,,,51,"1,1,0",6,blank,336,null,0.704191164,0.329763291,0.10542216,0,,,,,,
,html-keyboard-response,222,522885,0.0-115.0-1.0,null,<p></p>,,null,,,,,,,,,,,,,,,,
,do_trial,223,526402,0.0-116.0-0.0,911.3,,,,51,"0,0,0",6,blank,337,null,0.666127431,0.480588883,0.111749247,0,,,,,,
,html-keyboard-response,224,527405,0.0-116.0-1.0,null,<p></p>,,null,,,,,,,,,,,,,,,,
,do_recog,225,530235,0.0-117.0-0.0,1313.8,,,,53,,,,338,probe-106,,,,,1,[object Object],200,5,1,
,html-keyboard-response,226,531249,0.0-117.0-1.0,null,<p></p>,,null,,,,,,,,,,,,,,,,
,do_trial,227,534344,0.0-118.0-0.0,474.8,,,,51,"1,0,0",6,blank,339,null,0.665019763,0.545179071,0.103643655,0,,,,,,
,html-keyboard-response,228,535360,0.0-118.0-1.0,null,<p></p>,,null,,,,,,,,,,,,,,,,
,do_trial,229,538360,0.0-119.0-0.0,375.8,,,,51,"1,0,0",6,blank,340,null,0.746977363,0.350088712,0.069175367,0,,,,,,
,html-keyboard-response,230,539365,0.0-119.0-1.0,null,<p></p>,,null,,,,,,,,,,,,,,,,
,do_trial,231,542264,0.0-120.0-0.0,276.8,,,,49,"1,0,0",6,blank,341,null,0.669437644,0.347304292,0.133842838,1,,,,,,
,html-keyboard-response,232,543278,0.0-120.0-1.0,null,<p></p>,,null,,,,,,,,,,,,,,,,
,do_trial,233,546258,0.0-121.0-0.0,364.1999998,,,,49,"1,0,0",6,blank,342,null,0.637275285,0.165140805,0.164589382,1,,,,,,
,html-keyboard-response,234,547265,0.0-121.0-1.0,null,<p></p>,,null,,,,,,,,,,,,,,,,
,do_trial,235,550150,0.0-122.0-0.0,269.5,,,,49,"1,0,0",6,blank,343,null,0.514183799,0.360288154,0.080063041,1,,,,,,
,html-keyboard-response,236,551155,0.0-122.0-1.0,null,<p></p>,,null,,,,,,,,,,,,,,,,
,do_trial,237,554165,0.0-123.0-0.0,389.2,,,,49,"0,0,0",6,blank,344,null,0.458189997,0.438103305,0.222313678,0,,,,,,
,html-keyboard-response,238,555171,0.0-123.0-1.0,null,<p></p>,,null,,,,,,,,,,,,,,,,
,do_trial,239,558252,0.0-124.0-0.0,475.8,,,,49,"1,0,0",6,blank,345,null,0.533072835,0.421397781,0.127321827,1,,,,,,
,html-keyboard-response,240,559266,0.0-124.0-1.0,null,<p></p>,,null,,,,,,,,,,,,,,,,
,do_recog,241,562769,0.0-125.0-0.0,1981.6,,,,56,,,,346,probe-209,,,,,1,[object Object],127,3,0,
,html-keyboard-response,242,563781,0.0-125.0-1.0,null,<p></p>,,null,,,,,,,,,,,,,,,,
,do_trial,243,566758,0.0-126.0-0.0,364.5999999,,,,49,"1,1,0",6,blank,347,null,0.360392088,0.540437276,0.17253233,1,,,,,,
,html-keyboard-response,244,567771,0.0-126.0-1.0,null,<p></p>,,null,,,,,,,,,,,,,,,,
,do_recog,245,570211,0.0-127.0-0.0,908.5,,,,53,,,,348,probe-46,,,,,1,[object Object],201,5,1,
,html-keyboard-response,246,571231,0.0-127.0-1.0,null,<p></p>,,null,,,,,,,,,,,,,,,,
,do_trial,247,574100,0.0-128.0-0.0,308,,,,49,"0,1,1",6,blank,349,null,0.396515502,0.604906813,0.198377578,0,,,,,,
,html-keyboard-response,248,575115,0.0-128.0-1.0,null,<p></p>,,null,,,,,,,,,,,,,,,,
,do_recog,249,578495,0.0-129.0-0.0,1865.7,,,,56,,,,350,probe-23,,,,,1,[object Object],126,3,0,
,html-keyboard-response,250,579503,0.0-129.0-1.0,null,<p></p>,,null,,,,,,,,,,,,,,,,
,do_trial,251,582434,0.0-130.0-0.0,350,,,,49,"0,1,1",6,blank,351,null,0.337385428,0.656260711,0.393836467,0,,,,,,
,html-keyboard-response,252,583436,0.0-130.0-1.0,null,<p></p>,,null,,,,,,,,,,,,,,,,
,do_trial,253,586682,0.0-131.0-0.0,627.8,,,,49,"0,0,1",6,blank,352,null,0.344138932,0.56705828,0.260482301,0,,,,,,
,html-keyboard-response,254,587697,0.0-131.0-1.0,null,<p></p>,,null,,,,,,,,,,,,,,,,
,do_recog,255,590732,0.0-132.0-0.0,1523,,,,53,,,,353,probe-85,,,,,1,[object Object],83,2,1,
,html-keyboard-response,256,591734,0.0-132.0-1.0,null,<p></p>,,null,,,,,,,,,,,,,,,,
,do_trial,257,594707,0.0-133.0-0.0,362.0999999,,,,49,"0,1,1",6,blank,354,null,0.191774941,0.676177488,0.177559232,0,,,,,,
,html-keyboard-response,258,595725,0.0-133.0-1.0,null,<p></p>,,null,,,,,,,,,,,,,,,,
,do_trial,259,598640,0.0-134.0-0.0,288.3,,,,49,"0,1,0",6,blank,355,null,0.113506161,0.641409833,0.184064616,0,,,,,,
,html-keyboard-response,260,599647,0.0-134.0-1.0,null,<p></p>,,null,,,,,,,,,,,,,,,,
,do_recog,261,602268,0.0-135.0-0.0,1109.8,,,,53,,,,356,probe-255,,,,,0,[object Object],null,null,0,
,html-keyboard-response,262,603282,0.0-135.0-1.0,null,<p></p>,,null,,,,,,,,,,,,,,,,
,do_trial,263,606457,0.0-136.0-0.0,559.6000001,,,,49,"0,0,0",6,blank,357,null,0.161576851,0.406050648,0.17206695,0,,,,,,
,html-keyboard-response,264,607465,0.0-136.0-1.0,null,<p></p>,,null,,,,,,,,,,,,,,,,
,do_trial,265,610385,0.0-137.0-0.0,324.7,,,,50,"0,1,0",6,blank,358,null,0.16743143,0.653519957,0.185393836,1,,,,,,
,html-keyboard-response,266,611393,0.0-137.0-1.0,null,<p></p>,,null,,,,,,,,,,,,,,,,
,do_recog,267,614891,0.0-138.0-0.0,1977.5,,,,56,,,,359,probe-128,,,,,1,[object Object],43,1,0,
,html-keyboard-response,268,615910,0.0-138.0-1.0,null,<p></p>,,null,,,,,,,,,,,,,,,,
,do_trial,269,619719,0.0-139.0-0.0,1187.4,,,,49,"0,1,1",6,blank,360,null,0.234240938,0.72576735,0.258327052,0,,,,,,
,html-keyboard-response,270,620723,0.0-139.0-1.0,null,<p></p>,,null,,,,,,,,,,,,,,,,
,do_trial,271,623759,0.0-140.0-0.0,469.5,,,,50,"0,1,0",6,blank,361,null,0.256379015,0.616519438,0.40999423,1,,,,,,
,html-keyboard-response,272,624764,0.0-140.0-1.0,null,<p></p>,,null,,,,,,,,,,,,,,,,
,do_trial,273,628187,0.0-141.0-0.0,800.8,,,,50,"1,1,0",6,blank,362,null,0.155224373,0.638009066,0.448553465,1,,,,,,
,html-keyboard-response,274,629202,0.0-141.0-1.0,null,<p></p>,,null,,,,,,,,,,,,,,,,
,do_trial,275,632152,0.0-142.0-0.0,350.8,,,,50,"0,1,0",6,blank,363,null,0.185589089,0.732967994,0.455890302,1,,,,,,
,html-keyboard-response,276,633163,0.0-142.0-1.0,null,<p></p>,,null,,,,,,,,,,,,,,,,
,do_trial,277,636284,0.0-143.0-0.0,503.3999999,,,,50,"0,1,1",6,blank,364,null,0.063722285,0.663946455,0.339327269,1,,,,,,
,html-keyboard-response,278,637301,0.0-143.0-1.0,null,<p></p>,,null,,,,,,,,,,,,,,,,
,do_trial,279,640352,0.0-144.0-0.0,442.0999999,,,,50,"0,1,0",6,blank,365,null,0.126147648,0.782419657,0.396400604,1,,,,,,
,html-keyboard-response,280,641361,0.0-144.0-1.0,null,<p></p>,,null,,,,,,,,,,,,,,,,
,do_recog,281,645528,0.0-145.0-0.0,2650.2,,,,56,,,,366,probe-137,,,,,1,[object Object],160,4,0,
,html-keyboard-response,282,646535,0.0-145.0-1.0,null,<p></p>,,null,,,,,,,,,,,,,,,,
,do_trial,283,649382,0.0-146.0-0.0,289,,,,50,"0,1,0",6,blank,367,null,0.096615819,0.643914722,0.277854374,1,,,,,,
,html-keyboard-response,284,650400,0.0-146.0-1.0,null,<p></p>,,null,,,,,,,,,,,,,,,,
,do_recog,285,653415,0.0-147.0-0.0,1489.1,,,,53,,,,368,probe-109,,,,,1,[object Object],45,1,1,
,html-keyboard-response,286,654418,0.0-147.0-1.0,null,<p></p>,,null,,,,,,,,,,,,,,,,
,do_trial,287,657404,0.0-148.0-0.0,368.8,,,,50,"0,0,0",6,blank,369,null,0.079935516,0.685646072,0.321565304,0,,,,,,
,html-keyboard-response,288,658415,0.0-148.0-1.0,null,<p></p>,,null,,,,,,,,,,,,,,,,
,do_trial,289,661321,0.0-149.0-0.0,295.8,,,,50,"0,1,0",6,blank,370,null,0.07329575,0.550435583,0.190496377,1,,,,,,
,html-keyboard-response,290,662338,0.0-149.0-1.0,null,<p></p>,,null,,,,,,,,,,,,,,,,
,do_trial,291,665356,0.0-150.0-0.0,406,,,,50,"1,1,0",6,blank,371,null,0.066550581,0.497139037,0.292412165,1,,,,,,
,html-keyboard-response,292,666366,0.0-150.0-1.0,null,<p></p>,,null,,,,,,,,,,,,,,,,
,do_trial,293,669257,0.0-151.0-0.0,258.3,,,,50,"0,0,0",6,blank,372,null,0.234731706,0.542600043,0.273770529,0,,,,,,
,html-keyboard-response,294,670274,0.0-151.0-1.0,null,<p></p>,,null,,,,,,,,,,,,,,,,
,do_trial,295,673157,0.0-152.0-0.0,284.7,,,,50,"0,0,1",6,blank,373,null,0.10637257,0.476396755,0.294084155,0,,,,,,
,html-keyboard-response,296,674160,0.0-152.0-1.0,null,<p></p>,,null,,,,,,,,,,,,,,,,
,do_recog,297,676831,0.0-153.0-0.0,1146.8,,,,53,,,,374,probe-217,,,,,1,[object Object],86,2,1,
,html-keyboard-response,298,677833,0.0-153.0-1.0,null,<p></p>,,null,,,,,,,,,,,,,,,,
,do_trial,299,680720,0.0-154.0-0.0,268.6000001,,,,50,"1,0,0",6,blank,375,null,0.125393607,0.494474604,0.284960631,0,,,,,,
,html-keyboard-response,300,681735,0.0-154.0-1.0,null,<p></p>,,null,,,,,,,,,,,,,,,,
,do_trial,301,684361,0.0-155.0-0.0,6.099999905,,,,50,"0,0,0",6,blank,376,null,0.105422329,0.377861399,0.294767674,0,,,,,,
,html-keyboard-response,302,685370,0.0-155.0-1.0,null,<p></p>,,null,,,,,,,,,,,,,,,,
,do_trial,303,688345,0.0-156.0-0.0,412.2,,,,51,"0,1,0",6,blank,377,null,0.121556817,0.629103607,0.281696133,0,,,,,,
,html-keyboard-response,304,689352,0.0-156.0-1.0,null,<p></p>,,null,,,,,,,,,,,,,,,,
,do_trial,305,692188,0.0-157.0-0.0,265.3999999,,,,50,"0,1,1",6,blank,378,null,0.05645377,0.541385126,0.27702845,1,,,,,,
,html-keyboard-response,306,693191,0.0-157.0-1.0,null,<p></p>,,null,,,,,,,,,,,,,,,,
,do_trial,307,696284,0.0-158.0-0.0,478.8,,,,50,"0,0,0",6,blank,379,null,0.050106415,0.590524677,0.328206865,0,,,,,,
,html-keyboard-response,308,697294,0.0-158.0-1.0,null,<p></p>,,null,,,,,,,,,,,,,,,,
,do_recog,309,700042,0.0-159.0-0.0,1223.5,,,,53,,,,380,probe-163,,,,,1,[object Object],125,3,1,
,html-keyboard-response,310,701046,0.0-159.0-1.0,null,<p></p>,,null,,,,,,,,,,,,,,,,
,do_trial,311,703964,0.0-160.0-0.0,305.8000002,,,,50,"0,0,0",6,blank,381,null,0.118089638,0.595273353,0.335491922,0,,,,,,
,html-keyboard-response,312,704972,0.0-160.0-1.0,null,<p></p>,,null,,,,,,,,,,,,,,,,
,do_trial,313,707766,0.0-161.0-0.0,240.7,,,,50,"0,0,1",6,blank,382,null,0.078038879,0.591031975,0.267503693,0,,,,,,
,html-keyboard-response,314,708777,0.0-161.0-1.0,null,<p></p>,,null,,,,,,,,,,,,,,,,
,do_trial,315,711389,0.0-162.0-0.0,0.099999905,,,,50,"0,0,1",6,blank,383,null,0.144053841,0.652830516,0.263445972,0,,,,,,
,html-keyboard-response,316,712395,0.0-162.0-1.0,null,<p></p>,,null,,,,,,,,,,,,,,,,
,do_recog,317,715361,0.0-163.0-0.0,1439.8,,,,53,,,,384,probe-186,,,,,1,[object Object],121,3,1,
,html-keyboard-response,318,716373,0.0-163.0-1.0,null,<p></p>,,null,,,,,,,,,,,,,,,,
,do_trial,319,719462,0.0-164.0-0.0,462.0999999,,,,50,"0,0,0",6,blank,385,null,0.086580139,0.671670202,0.264372511,0,,,,,,
,html-keyboard-response,320,720475,0.0-164.0-1.0,null,<p></p>,,null,,,,,,,,,,,,,,,,
,do_trial,321,723415,0.0-165.0-0.0,323.8,,,,50,"0,0,0",6,blank,386,null,0.144834013,0.619157625,0.288803597,0,,,,,,
,html-keyboard-response,322,724422,0.0-165.0-1.0,null,<p></p>,,null,,,,,,,,,,,,,,,,
,do_trial,323,727092,0.0-166.0-0.0,51.70000005,,,,49,"0,1,0",6,blank,387,null,0.069967815,0.496438166,0.327516798,0,,,,,,
,html-keyboard-response,324,728109,0.0-166.0-1.0,null,<p></p>,,null,,,,,,,,,,,,,,,,
,do_trial,325,730972,0.0-167.0-0.0,265.2,,,,49,"0,1,0",6,blank,388,null,0.0678093,0.47311397,0.371744773,0,,,,,,
,html-keyboard-response,326,731980,0.0-167.0-1.0,null,<p></p>,,null,,,,,,,,,,,,,,,,
,do_trial,327,734975,0.0-168.0-0.0,378.2,,,,49,"0,0,0",6,blank,389,null,0.137392523,0.393018238,0.368220151,0,,,,,,
,html-keyboard-response,328,735982,0.0-168.0-1.0,null,<p></p>,,null,,,,,,,,,,,,,,,,
,do_recog,329,738568,0.0-169.0-0.0,1065.3,,,,53,,,,390,probe-132,,,,,1,[object Object],123,3,1,
,html-keyboard-response,330,739581,0.0-169.0-1.0,null,<p></p>,,null,,,,,,,,,,,,,,,,
,do_trial,331,742411,0.0-170.0-0.0,242.5,,,,50,"0,1,0",6,blank,391,null,0.103564225,0.521713271,0.297499213,1,,,,,,
,html-keyboard-response,332,743422,0.0-170.0-1.0,null,<p></p>,,null,,,,,,,,,,,,,,,,
,do_recog,333,745998,0.0-171.0-0.0,1051.8,,,,53,,,,392,probe-14,,,,,1,[object Object],84,2,1,
,html-keyboard-response,334,747003,0.0-171.0-1.0,null,<p></p>,,null,,,,,,,,,,,,,,,,
,do_trial,335,749870,0.0-172.0-0.0,249.2,,,,50,"0,1,0",6,blank,393,null,0.068880675,0.561030432,0.282015847,1,,,,,,
,html-keyboard-response,336,750882,0.0-172.0-1.0,null,<p></p>,,null,,,,,,,,,,,,,,,,
,do_recog,337,753802,0.0-173.0-0.0,1396.2,,,,53,,,,394,probe-240,,,,,0,[object Object],null,null,0,
,html-keyboard-response,338,754806,0.0-173.0-1.0,null,<p></p>,,null,,,,,,,,,,,,,,,,
,do_trial,339,758239,0.0-174.0-0.0,820.5999999,,,,50,"0,0,0",6,blank,395,null,0.053001916,0.77736633,0.096702944,0,,,,,,
,html-keyboard-response,340,759249,0.0-174.0-1.0,null,<p></p>,,null,,,,,,,,,,,,,,,,
,do_recog,341,762011,0.0-175.0-0.0,1242.8,,,,56,,,,396,probe-66,,,,,1,[object Object],164,4,0,
,html-keyboard-response,342,763016,0.0-175.0-1.0,null,<p></p>,,null,,,,,,,,,,,,,,,,
,do_trial,343,766272,0.0-176.0-0.0,691.4000001,,,,50,"0,0,0",6,blank,397,null,0.07397257,0.702087142,0.256072498,0,,,,,,
,html-keyboard-response,344,767285,0.0-176.0-1.0,null,<p></p>,,null,,,,,,,,,,,,,,,,
,do_recog,345,770103,0.0-177.0-0.0,1304.6,,,,56,,,,398,probe-179,,,,,1,[object Object],120,3,0,
,html-keyboard-response,346,771111,0.0-177.0-1.0,null,<p></p>,,null,,,,,,,,,,,,,,,,
,do_trial,347,774011,0.0-178.0-0.0,289.5999999,,,,50,"0,1,1",6,blank,399,null,0.170827115,0.716108741,0.156204681,1,,,,,,
,html-keyboard-response,348,775015,0.0-178.0-1.0,null,<p></p>,,null,,,,,,,,,,,,,,,,
,do_recog,349,778089,0.0-179.0-0.0,1548.6,,,,56,,,,400,probe-156,,,,,1,[object Object],208,5,0,
,html-keyboard-response,350,779093,0.0-179.0-1.0,null,<p></p>,,null,,,,,,,,,,,,,,,,
,do_trial,351,781994,0.0-180.0-0.0,276,,,,50,"0,1,0",6,blank,401,null,0.082986993,0.835100552,0.190872021,1,,,,,,
,html-keyboard-response,352,783008,0.0-180.0-1.0,null,<p></p>,,null,,,,,,,,,,,,,,,,
,do_trial,353,786052,0.0-181.0-0.0,446.1000001,,,,50,"0,1,0",6,blank,402,null,0.070330285,0.827354509,0.395129521,1,,,,,,
,html-keyboard-response,354,787069,0.0-181.0-1.0,null,<p></p>,,null,,,,,,,,,,,,,,,,
,do_trial,355,790159,0.0-182.0-0.0,470,,,,50,"0,1,0",6,blank,403,null,0.125854974,0.605050614,0.356585721,1,,,,,,
,html-keyboard-response,356,791170,0.0-182.0-1.0,null,<p></p>,,null,,,,,,,,,,,,,,,,
,do_trial,357,794172,0.0-183.0-0.0,389.3999999,,,,50,"1,0,1",6,blank,404,null,0.334910533,0.37625945,0.338993664,0,,,,,,
,html-keyboard-response,358,795182,0.0-183.0-1.0,null,<p></p>,,null,,,,,,,,,,,,,,,,
,do_trial,359,798211,0.0-184.0-0.0,453.3999999,,,,50,"0,0,0",6,blank,405,null,0.46609914,0.473563595,0.164800974,0,,,,,,
,html-keyboard-response,360,799231,0.0-184.0-1.0,null,<p></p>,,null,,,,,,,,,,,,,,,,
,do_recog,361,802333,0.0-185.0-0.0,1581.3,,,,53,,,,406,probe-181,,,,,1,[object Object],81,2,1,
,html-keyboard-response,362,803343,0.0-185.0-1.0,null,<p></p>,,null,,,,,,,,,,,,,,,,
,do_trial,363,806271,0.0-186.0-0.0,313.4000001,,,,50,"0,0,0",6,blank,407,null,0.538354106,0.385859154,0.177259179,0,,,,,,
,html-keyboard-response,364,807283,0.0-186.0-1.0,null,<p></p>,,null,,,,,,,,,,,,,,,,
,do_trial,365,809876,0.0-187.0-0.0,0.100000143,,,,50,"1,0,1",6,blank,408,null,0.576306011,0.251924458,0.301550555,0,,,,,,
,html-keyboard-response,366,810893,0.0-187.0-1.0,null,<p></p>,,null,,,,,,,,,,,,,,,,
,do_trial,367,813687,0.0-188.0-0.0,182,,,,50,"1,0,0",6,blank,409,null,0.536084717,0.194049679,0.337449069,0,,,,,,
,html-keyboard-response,368,814697,0.0-188.0-1.0,null,<p></p>,,null,,,,,,,,,,,,,,,,
,do_trial,369,818138,0.0-189.0-0.0,816.2,,,,50,"1,0,0",6,blank,410,null,0.633346414,0.199628571,0.292756294,0,,,,,,
,html-keyboard-response,370,819147,0.0-189.0-1.0,null,<p></p>,,null,,,,,,,,,,,,,,,,
,do_trial,371,822014,0.0-190.0-0.0,255.2,,,,50,"0,0,0",6,blank,411,null,0.546320668,0.259371128,0.312778558,0,,,,,,
,html-keyboard-response,372,823022,0.0-190.0-1.0,null,<p></p>,,null,,,,,,,,,,,,,,,,
,do_recog,373,825548,0.0-191.0-0.0,1007.1,,,,53,,,,412,probe-158,,,,,1,[object Object],48,1,1,
,html-keyboard-response,374,826566,0.0-191.0-1.0,null,<p></p>,,null,,,,,,,,,,,,,,,,
,do_trial,375,829418,0.0-192.0-0.0,272.5,,,,50,"0,0,0",6,blank,413,null,0.448715224,0.188389768,0.236936158,0,,,,,,
,html-keyboard-response,376,830420,0.0-192.0-1.0,null,<p></p>,,null,,,,,,,,,,,,,,,,
,do_trial,377,833382,0.0-193.0-0.0,343.8,,,,50,"0,0,1",6,blank,414,null,0.51867019,0.095761933,0.248521836,0,,,,,,
,html-keyboard-response,378,834395,0.0-193.0-1.0,null,<p></p>,,null,,,,,,,,,,,,,,,,
,do_trial,379,837286,0.0-194.0-0.0,279.5,,,,49,"1,0,0",6,blank,415,null,0.482041013,0.137066479,0.241033916,1,,,,,,
,html-keyboard-response,380,838295,0.0-194.0-1.0,null,<p></p>,,null,,,,,,,,,,,,,,,,
,do_recog,381,840623,0.0-195.0-0.0,813,,,,53,,,,416,probe-219,,,,,1,[object Object],46,1,1,
,html-keyboard-response,382,841639,0.0-195.0-1.0,null,<p></p>,,null,,,,,,,,,,,,,,,,
,do_trial,383,844563,0.0-196.0-0.0,355.0999999,,,,49,"1,0,0",6,blank,417,null,0.507571146,0.089129449,0.276243672,1,,,,,,
,html-keyboard-response,384,845573,0.0-196.0-1.0,null,<p></p>,,null,,,,,,,,,,,,,,,,
,do_trial,385,848598,0.0-197.0-0.0,450,,,,49,"0,0,0",6,blank,418,null,0.546206313,0.135092696,0.208033165,0,,,,,,
,html-keyboard-response,386,849611,0.0-197.0-1.0,null,<p></p>,,null,,,,,,,,,,,,,,,,
,do_trial,387,852602,0.0-198.0-0.0,375.9000001,,,,49,"1,1,1",6,blank,419,null,0.407263419,0.21718541,0.381139404,1,,,,,,
,html-keyboard-response,388,853620,0.0-198.0-1.0,null,<p></p>,,null,,,,,,,,,,,,,,,,
,do_trial,389,856925,0.0-199.0-0.0,683,,,,49,"0,0,1",6,blank,420,null,0.433419594,0.156291251,0.410572201,0,,,,,,
,html-keyboard-response,390,857935,0.0-199.0-1.0,null,<p></p>,,null,,,,,,,,,,,,,,,,
,do_trial,391,861271,0.0-200.0-0.0,717.0999999,,,,49,"0,0,0",6,blank,421,null,0.646568954,0.185476762,0.313731843,0,,,,,,
,html-keyboard-response,392,862285,0.0-200.0-1.0,null,<p></p>,,null,,,,,,,,,,,,,,,,
,do_trial,393,865234,0.0-201.0-0.0,382.5,,,,49,"1,0,0",6,blank,422,null,0.59118113,0.201226071,0.303925817,1,,,,,,
,html-keyboard-response,394,866244,0.0-201.0-1.0,null,<p></p>,,null,,,,,,,,,,,,,,,,
,do_recog,395,868929,0.0-202.0-0.0,1173.5,,,,56,,,,423,probe-80,,,,,1,[object Object],207,5,0,
,html-keyboard-response,396,869936,0.0-202.0-1.0,null,<p></p>,,null,,,,,,,,,,,,,,,,
,do_trial,397,872921,0.0-203.0-0.0,365.8999999,,,,49,"1,1,0",6,blank,424,null,0.561999846,0.1551247,0.463261918,1,,,,,,
,html-keyboard-response,398,873924,0.0-203.0-1.0,null,<p></p>,,null,,,,,,,,,,,,,,,,
,do_trial,399,876867,0.0-204.0-0.0,389.8,,,,49,"1,0,0",6,blank,425,null,0.628643819,0.166514962,0.29389389,1,,,,,,
,html-keyboard-response,400,877871,0.0-204.0-1.0,null,<p></p>,,null,,,,,,,,,,,,,,,,
,do_trial,401,880943,0.0-205.0-0.0,446.7,,,,49,"1,1,0",6,blank,426,null,0.542255862,0.130771857,0.225041934,1,,,,,,
,html-keyboard-response,402,881949,0.0-205.0-1.0,null,<p></p>,,null,,,,,,,,,,,,,,,,
,do_recog,403,884347,0.0-206.0-0.0,880.5,,,,53,,,,427,probe-79,,,,,1,[object Object],40,1,1,
,html-keyboard-response,404,885352,0.0-206.0-1.0,null,<p></p>,,null,,,,,,,,,,,,,,,,
,do_trial,405,888281,0.0-207.0-0.0,320.8,,,,49,"0,0,0",6,blank,428,null,0.451976852,0.153163193,0.307597576,0,,,,,,
,html-keyboard-response,406,889288,0.0-207.0-1.0,null,<p></p>,,null,,,,,,,,,,,,,,,,
,do_recog,407,891836,0.0-208.0-0.0,1033.8,,,,56,,,,429,probe-02,,,,,1,[object Object],165,4,0,
,html-keyboard-response,408,892840,0.0-208.0-1.0,null,<p></p>,,null,,,,,,,,,,,,,,,,
,do_trial,409,895650,0.0-209.0-0.0,256,,,,49,"1,1,1",6,blank,430,null,0.493433036,0.196630738,0.228753677,1,,,,,,
,html-keyboard-response,410,896659,0.0-209.0-1.0,null,<p></p>,,null,,,,,,,,,,,,,,,,
,do_trial,411,899753,0.0-210.0-0.0,533.1000001,,,,49,"0,1,0",6,blank,431,null,0.596112136,0.100158736,0.204889623,0,,,,,,
,html-keyboard-response,412,900755,0.0-210.0-1.0,null,<p></p>,,null,,,,,,,,,,,,,,,,
,do_trial,413,903749,0.0-211.0-0.0,382.6000001,,,,49,"1,0,0",6,blank,432,null,0.676795453,0.0704898,0.164222884,1,,,,,,
,html-keyboard-response,414,904762,0.0-211.0-1.0,null,<p></p>,,null,,,,,,,,,,,,,,,,
,do_trial,415,907709,0.0-212.0-0.0,337.5999999,,,,49,"0,1,0",6,blank,433,null,0.723729979,0.245592823,0.204450668,0,,,,,,
,html-keyboard-response,416,908725,0.0-212.0-1.0,null,<p></p>,,null,,,,,,,,,,,,,,,,
,do_trial,417,911835,0.0-213.0-0.0,493.3999999,,,,49,"1,0,0",6,blank,434,null,0.824795448,0.263203832,0.273641094,1,,,,,,
,html-keyboard-response,418,912844,0.0-213.0-1.0,null,<p></p>,,null,,,,,,,,,,,,,,,,
,do_trial,419,915887,0.0-214.0-0.0,423.4000001,,,,49,"0,0,0",6,blank,435,null,0.82008757,0.20752267,0.262843362,0,,,,,,
,html-keyboard-response,420,916898,0.0-214.0-1.0,null,<p></p>,,null,,,,,,,,,,,,,,,,
,do_recog,421,919701,0.0-215.0-0.0,1278.4,,,,56,,,,436,probe-146,,,,,1,[object Object],166,4,0,
,html-keyboard-response,422,920716,0.0-215.0-1.0,null,<p></p>,,null,,,,,,,,,,,,,,,,
,do_trial,423,924111,0.0-216.0-0.0,812.9000001,,,,49,"0,0,0",6,blank,437,null,0.82189075,0.103009444,0.308835825,0,,,,,,
,html-keyboard-response,424,925117,0.0-216.0-1.0,null,<p></p>,,null,,,,,,,,,,,,,,,,
,do_trial,425,928039,0.0-217.0-0.0,306.8,,,,49,"1,0,0",6,blank,438,null,0.694692072,0.176521124,0.412601256,1,,,,,,
,html-keyboard-response,426,929046,0.0-217.0-1.0,null,<p></p>,,null,,,,,,,,,,,,,,,,
,do_trial,427,932091,0.0-218.0-0.0,434.5,,,,49,"1,0,0",6,blank,439,null,0.605725247,0.16343988,0.275081269,1,,,,,,
,html-keyboard-response,428,933102,0.0-218.0-1.0,null,<p></p>,,null,,,,,,,,,,,,,,,,
,do_recog,429,936237,0.0-219.0-0.0,1616.1,,,,53,,,,440,probe-39,,,,,1,[object Object],88,2,1,
,html-keyboard-response,430,937251,0.0-219.0-1.0,null,<p></p>,,null,,,,,,,,,,,,,,,,
,do_trial,431,940554,0.0-220.0-0.0,700.0999999,,,,49,"1,0,0",6,blank,441,null,0.595001568,0.059435342,0.286514721,1,,,,,,
,html-keyboard-response,432,941565,0.0-220.0-1.0,null,<p></p>,,null,,,,,,,,,,,,,,,,
,do_recog,433,944175,0.0-221.0-0.0,1096.8,,,,53,,,,442,probe-202,,,,,1,[object Object],44,1,1,
,html-keyboard-response,434,945189,0.0-221.0-1.0,null,<p></p>,,null,,,,,,,,,,,,,,,,
,do_trial,435,948346,0.0-222.0-0.0,534.4000001,,,,49,"1,0,0",6,blank,443,null,0.447988118,0.103126886,0.301510951,1,,,,,,
,html-keyboard-response,436,949363,0.0-222.0-1.0,null,<p></p>,,null,,,,,,,,,,,,,,,,
,do_recog,437,952160,0.0-223.0-0.0,1277.6,,,,53,,,,444,probe-165,,,,,1,[object Object],42,1,1,
,html-keyboard-response,438,953173,0.0-223.0-1.0,null,<p></p>,,null,,,,,,,,,,,,,,,,
,do_trial,439,956123,0.0-224.0-0.0,366.5999999,,,,49,"0,0,1",6,blank,445,null,0.553740444,0.119289139,0.293485058,0,,,,,,
,html-keyboard-response,440,957136,0.0-224.0-1.0,null,<p></p>,,null,,,,,,,,,,,,,,,,
,do_trial,441,960085,0.0-225.0-0.0,342.8,,,,49,"0,0,0",6,blank,446,null,0.537670767,0.203781551,0.103315697,0,,,,,,
,html-keyboard-response,442,961091,0.0-225.0-1.0,null,<p></p>,,null,,,,,,,,,,,,,,,,
,do_recog,443,963978,0.0-226.0-0.0,1366.9,,,,53,,,,447,probe-176,,,,,1,[object Object],128,3,1,
,html-keyboard-response,444,964995,0.0-226.0-1.0,null,<p></p>,,null,,,,,,,,,,,,,,,,
,do_trial,445,968187,0.0-227.0-0.0,588,,,,49,"0,0,1",6,blank,448,null,0.605377926,0.057038856,0.166876815,0,,,,,,
,html-keyboard-response,446,969190,0.0-227.0-1.0,null,<p></p>,,null,,,,,,,,,,,,,,,,
,do_recog,447,972416,0.0-228.0-0.0,1699.9,,,,53,,,,449,probe-248,,,,,0,[object Object],null,null,0,
,html-keyboard-response,448,973422,0.0-228.0-1.0,null,<p></p>,,null,,,,,,,,,,,,,,,,
,do_trial,449,976969,0.0-229.0-0.0,918.8999999,,,,49,"0,0,0",6,blank,450,null,0.619728448,0.182893238,0.093314851,0,,,,,,
,html-keyboard-response,450,977986,0.0-229.0-1.0,null,<p></p>,,null,,,,,,,,,,,,,,,,
,do_trial,451,981066,0.0-230.0-0.0,469.2,,,,49,"1,0,0",6,blank,451,null,0.757379605,0.074974648,0.204923557,1,,,,,,
,html-keyboard-response,452,982080,0.0-230.0-1.0,null,<p></p>,,null,,,,,,,,,,,,,,,,
,do_trial,453,985080,0.0-231.0-0.0,385.8,,,,49,"1,0,0",6,blank,452,null,0.696956903,0.058521912,0.202450862,1,,,,,,
,html-keyboard-response,454,986092,0.0-231.0-1.0,null,<p></p>,,null,,,,,,,,,,,,,,,,
,do_trial,455,989205,0.0-232.0-0.0,554.3999999,,,,49,"0,1,0",6,blank,453,null,0.708616181,0.131624512,0.117517052,0,,,,,,
,html-keyboard-response,456,990213,0.0-232.0-1.0,null,<p></p>,,null,,,,,,,,,,,,,,,,
,do_trial,457,993187,0.0-233.0-0.0,397.6000001,,,,49,"0,0,0",6,blank,454,null,0.737010546,0.197746197,0.205609552,0,,,,,,
,html-keyboard-response,458,994195,0.0-233.0-1.0,null,<p></p>,,null,,,,,,,,,,,,,,,,
,do_trial,459,997126,0.0-234.0-0.0,323.8,,,,49,"0,0,0",6,blank,455,null,0.53982215,0.379236252,0.194808377,0,,,,,,
,html-keyboard-response,460,998134,0.0-234.0-1.0,null,<p></p>,,null,,,,,,,,,,,,,,,,
,do_recog,461,1001553,0.0-235.0-0.0,1901.3,,,,55,,,,456,probe-239,,,,,0,[object Object],null,null,1,
,html-keyboard-response,462,1002557,0.0-235.0-1.0,null,<p></p>,,null,,,,,,,,,,,,,,,,
,do_trial,463,1005952,0.0-236.0-0.0,797.3,,,,49,"1,1,0",6,blank,457,null,0.388352137,0.499974725,0.322917892,1,,,,,,
,html-keyboard-response,464,1006969,0.0-236.0-1.0,null,<p></p>,,null,,,,,,,,,,,,,,,,
,do_trial,465,1010079,0.0-237.0-0.0,552,,,,49,"1,0,0",6,blank,458,null,0.269997187,0.409036837,0.467251542,1,,,,,,
,html-keyboard-response,466,1011083,0.0-237.0-1.0,null,<p></p>,,null,,,,,,,,,,,,,,,,
,do_trial,467,1014513,0.0-238.0-0.0,860,,,,49,"0,1,1",6,blank,459,null,0.225477351,0.464700789,0.522965304,0,,,,,,
,html-keyboard-response,468,1015529,0.0-238.0-1.0,null,<p></p>,,null,,,,,,,,,,,,,,,,
,do_trial,469,1018829,0.0-239.0-0.0,741.1999998,,,,49,"0,1,0",6,blank,460,null,0.340674074,0.607489475,0.459027436,0,,,,,,
,html-keyboard-response,470,1019837,0.0-239.0-1.0,null,<p></p>,,null,,,,,,,,,,,,,,,,
,do_recog,471,1023879,0.0-240.0-0.0,2528.2,,,,55,,,,461,probe-241,,,,,0,[object Object],null,null,1,
,html-keyboard-response,472,1024894,0.0-240.0-1.0,null,<p></p>,,null,,,,,,,,,,,,,,,,
,do_trial,473,1028205,0.0-241.0-0.0,743.8000002,,,,49,"0,1,0",6,blank,462,null,0.272659942,0.755820271,0.377418645,0,,,,,,
,html-keyboard-response,474,1029210,0.0-241.0-1.0,null,<p></p>,,null,,,,,,,,,,,,,,,,
,do_trial,475,1032123,0.0-242.0-0.0,289.8999999,,,,51,"0,1,0",6,blank,463,null,0.225880996,0.567014307,0.302846127,0,,,,,,
,html-keyboard-response,476,1033134,0.0-242.0-1.0,null,<p></p>,,null,,,,,,,,,,,,,,,,
,do_trial,477,1036260,0.0-243.0-0.0,514.4000001,,,,51,"0,0,0",6,blank,464,null,0.057767521,0.570679766,0.282027452,0,,,,,,
,html-keyboard-response,478,1037265,0.0-243.0-1.0,null,<p></p>,,null,,,,,,,,,,,,,,,,
,do_trial,479,1040160,0.0-244.0-0.0,280.6000001,,,,51,"0,1,1",6,blank,465,null,0.121212606,0.487414309,0.36938734,1,,,,,,
,html-keyboard-response,480,1041176,0.0-244.0-1.0,null,<p></p>,,null,,,,,,,,,,,,,,,,
,do_recog,481,1045142,0.0-245.0-0.0,2454.7,,,,56,,,,466,probe-252,,,,,0,[object Object],null,null,1,
,html-keyboard-response,482,1046151,0.0-245.0-1.0,null,<p></p>,,null,,,,,,,,,,,,,,,,
,do_trial,483,1049122,0.0-246.0-0.0,373.2,,,,51,"0,0,0",6,blank,467,null,0.178263964,0.656025302,0.348521772,0,,,,,,
,html-keyboard-response,484,1050136,0.0-246.0-1.0,null,<p></p>,,null,,,,,,,,,,,,,,,,
,do_recog,485,1053491,0.0-247.0-0.0,1846.6,,,,53,,,,468,probe-246,,,,,0,[object Object],null,null,0,
,html-keyboard-response,486,1054499,0.0-247.0-1.0,null,<p></p>,,null,,,,,,,,,,,,,,,,
,do_trial,487,1057529,0.0-248.0-0.0,415.8,,,,51,"0,1,1",6,blank,469,null,0.166561129,0.64072877,0.200215457,1,,,,,,
,html-keyboard-response,488,1058546,0.0-248.0-1.0,null,<p></p>,,null,,,,,,,,,,,,,,,,
,do_recog,489,1062019,0.0-249.0-0.0,1948.9,,,,56,,,,470,probe-234,,,,,0,[object Object],null,null,1,
,html-keyboard-response,490,1063028,0.0-249.0-1.0,null,<p></p>,,null,,,,,,,,,,,,,,,,
,do_trial,491,1065996,0.0-250.0-0.0,354.6000001,,,,51,"0,0,0",6,blank,471,null,0.189886583,0.677687474,0.151182294,0,,,,,,
,html-keyboard-response,492,1067010,0.0-250.0-1.0,null,<p></p>,,null,,,,,,,,,,,,,,,,
,do_recog,493,1069797,0.0-251.0-0.0,1269.5,,,,56,,,,472,probe-231,,,,,0,[object Object],null,null,1,
,html-keyboard-response,494,1070811,0.0-251.0-1.0,null,<p></p>,,null,,,,,,,,,,,,,,,,
,do_trial,495,1074231,0.0-252.0-0.0,862.7,,,,51,"0,0,0",6,blank,473,null,0.057900256,0.643536751,0.219856839,0,,,,,,
,html-keyboard-response,496,1075243,0.0-252.0-1.0,null,<p></p>,,null,,,,,,,,,,,,,,,,
,do_trial,497,1078360,0.0-253.0-0.0,522,,,,51,"0,0,0",6,blank,474,null,0.054834047,0.633094989,0.209317235,0,,,,,,
,html-keyboard-response,498,1079365,0.0-253.0-1.0,null,<p></p>,,null,,,,,,,,,,,,,,,,
,do_trial,499,1082347,0.0-254.0-0.0,428.1000001,,,,51,"0,0,0",6,blank,475,null,0.09867002,0.756900437,0.352784798,0,,,,,,
,html-keyboard-response,500,1083350,0.0-254.0-1.0,null,<p></p>,,null,,,,,,,,,,,,,,,,
,do_trial,501,1086226,0.0-255.0-0.0,270.7,,,,51,"0,0,0",6,blank,476,null,0.102649199,0.822950206,0.161895422,0,,,,,,
,html-keyboard-response,502,1087228,0.0-255.0-1.0,null,<p></p>,,null,,,,,,,,,,,,,,,,
,do_trial,503,1090131,0.0-256.0-0.0,333.1000001,,,,51,"0,1,0",6,blank,477,null,0.084710116,0.698509161,0.216544656,0,,,,,,
,html-keyboard-response,504,1091135,0.0-256.0-1.0,null,<p></p>,,null,,,,,,,,,,,,,,,,
,do_trial,505,1094167,0.0-257.0-0.0,418,,,,51,"0,1,0",6,blank,478,null,0.095663688,0.630330729,0.269634153,0,,,,,,
,html-keyboard-response,506,1095174,0.0-257.0-1.0,null,<p></p>,,null,,,,,,,,,,,,,,,,
,do_recog,507,1097952,0.0-258.0-0.0,1263.7,,,,56,,,,479,probe-243,,,,,0,[object Object],null,null,1,
,html-keyboard-response,508,1098964,0.0-258.0-1.0,null,<p></p>,,null,,,,,,,,,,,,,,,,
,do_pick_best_pirate,509,1101194,0.0-259.0-0.0,1216.7,,,,51,,,,,,,,,,,,,,,
,do_pick_best_pirate,510,1107685,0.0-260.0-0.0,5477.8,,,,49,,,,,,,,,,,,,,,
,do_pick_best_pirate,511,1110905,0.0-261.0-0.0,2196.4,,,,51,,,,,,,,,,,,,,,
,do_pick_best_pirate,512,1116590,0.0-262.0-0.0,4664.2,,,,50,,,,,,,,,,,,,,,
,do_pick_best_pirate,513,1120104,0.0-263.0-0.0,2489.8,,,,51,,,,,,,,,,,,,,,
,do_pick_best_pirate,514,1123329,0.0-264.0-0.0,2199.8,,,,49,,,,,,,,,,,,,,,
,html-keyboard-response,515,1127408,0.0-265.0-0.0,4077.2,<p>You are all done with the experiment!</p><p> You made $15 plus $2 in bonus payment!</p><p>Thank you for participating. You will recieve your payment within 3 days.<p><b>[Press the space bar to end the experiment]</b></p></div>,,32,,,,,,,,,,,,,,,,