success,trial_type,trial_index,time_elapsed,internal_node_id,rt,stimulus,subject_id,key_press,response,choice_outcomes,context_n,context_img_id,trial_n,probe_img_id,pR_red,pR_white,pR_black,outcome,is_valid,image_to_show,probed_trial,probed_context,correct,context_id
TRUE,fullscreen,0,3826,0.0-0.0,,,,,,,,,,,,,,,,,,,,
,pavlovia,1,3829,0.0-1.0,,,,,,,,,,,,,,,,,,,,
,html-keyboard-response,2,12267,0.0-2.0,8438.1,"<div class='center'><p>Like yesterday,as the head captain of the ship, you have one important things to do: </p><b><p> Pick the pirate who you think will be most successful at robbing the next ship.</p></b><p>This is important in determining how much bonus money you’ll win.</p><br><p>The game will start by showing you the pirates. First pick a pirate using the <b> 1, 2, 3 </b> buttons on your keyboard. </p><p> Press <b>'1'</b> to choose red beard, <b>'2'</b> to choose white beard, and <b>'3'</b> to choose black beard</p><p> You only have 3 seconds to pick a pirate, so please make a choice quickly! If you are too slow, you’ll have to wait a bit during the time out.</p><p> Don’t feel rushed, but please do try to make a choice every time.</p><p>How good a pirate is at robbing a ship will change depending on the place they are in and how good the defenses are of the ship.</p><p><b>[Press the space bar to begin the practice game]</b></p></div>",5e3f3ebc0fa771000bd26166,32,,,,,,,,,,,,,,,,
,html-keyboard-response,3,21425,0.0-3.0,9157.1,"<div class='center'><p>You’ve arrived at the final island of your journey! Unfortunately, it’s very foggy out, so you won’t be able to see it in the distance like the previous islands you've visited.</p><p>You’ll still be deciding which pirate you want to rob a ship like before. However, because of the fog, you also won’t be able to see the ship.</p><p>This means you do not have to remember the ships you rob on this island.</p><p><b>[Press the space bar to continue]</b></p></div>",,32,,,,,,,,,,,,,,,,
,html-keyboard-response,4,27854,0.0-4.0,6428.6,"<div class='center'><p> Sometimes you’ll be shown a ship, and you will be asked if you saw this ship on a past island.</p><p> Here is an example of what you will see.</p><p><b>[Press the space bar to continue]</b></p><p><img src='run_exp/static/images/tutorial/example_recog_trial.png' height='500'></p></div>",,32,,,,,,,,,,,,,,,,
,html-keyboard-response,5,34879,0.0-5.0,7023.7,"<div class='center'><p> You will press the 5, 6, 7, 8 buttons on your keyboard to respond.</p><p>If you are very sure saw the ship, press <b>5</b> on your keyboard.</p><p> If you think you  saw it before but are not sure, then press <b>6</b>.</p><p> If you think you have not seen it before but are not sure, then press <b>7</b>.</p><p> If you are sure you did not see the ship before, then press <b>8</b>.</p><p><b>[Press the space bar to continue]</b></p><p><img src='run_exp/static/images/tutorial/example_recog_trial.png' height='500'></p></div>",,32,,,,,,,,,,,,,,,,
,html-keyboard-response,6,36529,0.0-6.0,1649.6,"<div class='center'><p> If you remember correctly, then you’ll get a gold coin like this: </p><p><img src='run_exp/static/images/tutorial/reward_small.png' height='200'></p><p>If you do not remember correctly, then you'll see a red x like this: </p><p><img src='run_exp/static/images/tutorial/reward_no.png' height='200'></p><p>Importantly, when you are shown a ship, take the time to remind yourself which island you saw it on. This will help you in the next part of the study.</p><p><b>[Press the space bar to continue]</b></p></div>",,32,,,,,,,,,,,,,,,,
,html-keyboard-response,7,40036,0.0-7.0,3505.7,"<div class='center'><p>Let's go over the important points again. Your job is to: </p><p>1. Pick the pirate who is best at robbing ships and will bring you back gold coins. </p><p>2. Correctly remember whether or not you saw a ship before. If you did see the ship before, remind yourself on which island you saw the ship. </p><p><b>[Press the space bar to begin the next part of the study]</b></p></div>",,32,,,,,,,,,,,,,,,,
,do_welcome,8,41546,0.0-8.0,null,,,,null,,,,,,,,,,,,,,,
,do_trial,9,45345,0.0-9.0-0.0,1244.5,,,,49,"0,0,1",6,blank,230,null,0.087244383,0.573682677,0.422466935,0,,,,,,
,html-keyboard-response,10,46355,0.0-9.0-1.0,null,<p></p>,,null,,,,,,,,,,,,,,,,
,do_trial,11,49401,0.0-10.0-0.0,505.7,,,,50,"0,0,1",6,blank,231,null,0.171802834,0.482021514,0.44118091,0,,,,,,
,html-keyboard-response,12,50411,0.0-10.0-1.0,null,<p></p>,,null,,,,,,,,,,,,,,,,
,do_trial,13,53093,0.0-11.0-0.0,144.2,,,,51,"0,1,1",6,blank,232,null,0.142831704,0.581897923,0.305531576,1,,,,,,
,html-keyboard-response,14,54103,0.0-11.0-1.0,null,<p></p>,,null,,,,,,,,,,,,,,,,
,do_trial,15,57093,0.0-12.0-0.0,451.3,,,,51,"0,1,1",6,blank,233,null,0.089062528,0.554607951,0.262327849,1,,,,,,
,html-keyboard-response,16,58103,0.0-12.0-1.0,null,<p></p>,,null,,,,,,,,,,,,,,,,
,do_trial,17,61010,0.0-13.0-0.0,368.6,,,,49,"0,1,1",6,blank,234,null,0.098909373,0.506766065,0.35559718,0,,,,,,
,html-keyboard-response,18,62021,0.0-13.0-1.0,null,<p></p>,,null,,,,,,,,,,,,,,,,
,do_trial,19,64615,0.0-14.0-0.0,46.20000002,,,,50,"0,1,0",6,blank,235,null,0.059183983,0.623585092,0.115015945,1,,,,,,
,html-keyboard-response,20,65623,0.0-14.0-1.0,null,<p></p>,,null,,,,,,,,,,,,,,,,
,do_trial,21,68437,0.0-15.0-0.0,265,,,,50,"0,1,0",6,blank,236,null,0.159459829,0.645995848,0.058575363,1,,,,,,
,html-keyboard-response,22,69447,0.0-15.0-1.0,null,<p></p>,,null,,,,,,,,,,,,,,,,
,do_trial,23,72400,0.0-16.0-0.0,409.6,,,,50,"0,1,0",6,blank,237,null,0.152458335,0.685797887,0.165477639,1,,,,,,
,html-keyboard-response,24,73412,0.0-16.0-1.0,null,<p></p>,,null,,,,,,,,,,,,,,,,
,do_trial,25,76288,0.0-17.0-0.0,339.9,,,,51,"0,1,0",6,blank,238,null,0.069532776,0.569132339,0.201327745,0,,,,,,
,html-keyboard-response,26,77299,0.0-17.0-1.0,null,<p></p>,,null,,,,,,,,,,,,,,,,
,do_trial,27,80512,0.0-18.0-0.0,662.3,,,,50,"0,0,0",6,blank,239,null,0.246020614,0.533047841,0.221214754,0,,,,,,
,html-keyboard-response,28,81520,0.0-18.0-1.0,null,<p></p>,,null,,,,,,,,,,,,,,,,
,do_trial,29,84548,0.0-19.0-0.0,485.4,,,,51,"0,0,0",6,blank,240,null,0.292718802,0.364837749,0.123852311,0,,,,,,
,html-keyboard-response,30,85558,0.0-19.0-1.0,null,<p></p>,,null,,,,,,,,,,,,,,,,
,do_recog,31,91569,0.0-20.0-0.0,null,,,,null,,,,241,probe-198,,,,,1,[object Object],124,3,0,
,html-keyboard-response,32,92580,0.0-20.0-1.0,null,<p></p>,,null,,,,,,,,,,,,,,,,
,do_trial,33,98629,0.0-21.0-0.0,null,,,,null,"0,1,0",6,blank,242,null,0.198089211,0.34215668,0.105158196,,,,,,,
,html-keyboard-response,34,99641,0.0-21.0-1.0,null,<p></p>,,null,,,,,,,,,,,,,,,,
,do_recog,35,103107,0.0-22.0-0.0,1955.7,,,,56,,,,243,probe-28,,,,,1,[object Object],207,5,0,
,html-keyboard-response,36,104117,0.0-22.0-1.0,null,<p></p>,,null,,,,,,,,,,,,,,,,
,do_trial,37,107879,0.0-23.0-0.0,1215.4,,,,50,"0,1,1",6,blank,244,null,0.276058338,0.382820747,0.469481454,1,,,,,,
,html-keyboard-response,38,108889,0.0-23.0-1.0,null,<p></p>,,null,,,,,,,,,,,,,,,,
,do_recog,39,112077,0.0-24.0-0.0,1682.7,,,,55,,,,245,probe-151,,,,,1,[object Object],205,5,0,
,html-keyboard-response,40,113086,0.0-24.0-1.0,null,<p></p>,,null,,,,,,,,,,,,,,,,
,do_trial,41,116458,0.0-25.0-0.0,829.5,,,,50,"0,0,0",6,blank,246,null,0.297458306,0.243940252,0.379011773,0,,,,,,
,html-keyboard-response,42,117469,0.0-25.0-1.0,null,<p></p>,,null,,,,,,,,,,,,,,,,
,do_trial,43,120269,0.0-26.0-0.0,250.9,,,,51,"0,0,0",6,blank,247,null,0.16240992,0.110192211,0.465304205,0,,,,,,
,html-keyboard-response,44,121280,0.0-26.0-1.0,null,<p></p>,,null,,,,,,,,,,,,,,,,
,do_trial,45,124172,0.0-27.0-0.0,354.7,,,,49,"0,0,0",6,blank,248,null,0.130597567,0.222665186,0.50662702,0,,,,,,
,html-keyboard-response,46,125182,0.0-27.0-1.0,null,<p></p>,,null,,,,,,,,,,,,,,,,
,do_trial,47,128181,0.0-28.0-0.0,456.7,,,,49,"0,0,1",6,blank,249,null,0.112409304,0.225624448,0.469152403,0,,,,,,
,html-keyboard-response,48,129188,0.0-28.0-1.0,null,<p></p>,,null,,,,,,,,,,,,,,,,
,do_trial,49,132233,0.0-29.0-0.0,504.1,,,,50,"0,0,0",6,blank,250,null,0.128570424,0.104269614,0.308072291,0,,,,,,
,html-keyboard-response,50,133241,0.0-29.0-1.0,null,<p></p>,,null,,,,,,,,,,,,,,,,
,do_recog,51,136304,0.0-30.0-0.0,1546.5,,,,56,,,,251,probe-207,,,,,1,[object Object],164,4,0,
,html-keyboard-response,52,137315,0.0-30.0-1.0,null,<p></p>,,null,,,,,,,,,,,,,,,,
,do_trial,53,141139,0.0-31.0-0.0,1273.1,,,,51,"0,0,1",6,blank,252,null,0.119201551,0.213248829,0.4722488,1,,,,,,
,html-keyboard-response,54,142149,0.0-31.0-1.0,null,<p></p>,,null,,,,,,,,,,,,,,,,
,do_trial,55,145177,0.0-32.0-0.0,490.8,,,,49,"0,1,1",6,blank,253,null,0.156353959,0.314230682,0.51253078,0,,,,,,
,html-keyboard-response,56,146188,0.0-32.0-1.0,null,<p></p>,,null,,,,,,,,,,,,,,,,
,do_trial,57,149237,0.0-33.0-0.0,510.3,,,,50,"0,0,1",6,blank,254,null,0.231582848,0.095183219,0.508280978,0,,,,,,
,html-keyboard-response,58,150247,0.0-33.0-1.0,null,<p></p>,,null,,,,,,,,,,,,,,,,
,do_trial,59,153272,0.0-34.0-0.0,479,,,,49,"0,0,1",6,blank,255,null,0.061899976,0.112330741,0.770408056,0,,,,,,
,html-keyboard-response,60,154282,0.0-34.0-1.0,null,<p></p>,,null,,,,,,,,,,,,,,,,
,do_recog,61,160313,0.0-35.0-0.0,null,,,,null,,,,256,probe-163,,,,,1,[object Object],166,4,0,
,html-keyboard-response,62,161324,0.0-35.0-1.0,null,<p></p>,,null,,,,,,,,,,,,,,,,
,do_trial,63,166685,0.0-36.0-0.0,2823.6,,,,50,"0,0,1",6,blank,257,null,0.150056538,0.254990059,0.695607361,0,,,,,,
,html-keyboard-response,64,167695,0.0-36.0-1.0,null,<p></p>,,null,,,,,,,,,,,,,,,,
,do_recog,65,173707,0.0-37.0-0.0,null,,,,null,,,,258,probe-104,,,,,1,[object Object],48,1,0,
,html-keyboard-response,66,174719,0.0-37.0-1.0,null,<p></p>,,null,,,,,,,,,,,,,,,,
,do_trial,67,177954,0.0-38.0-0.0,700.8,,,,49,"0,1,1",6,blank,259,null,0.114603453,0.408785632,0.536783472,0,,,,,,
,html-keyboard-response,68,178965,0.0-38.0-1.0,null,<p></p>,,null,,,,,,,,,,,,,,,,
,do_recog,69,182447,0.0-39.0-0.0,1964.5,,,,55,,,,260,probe-89,,,,,1,[object Object],127,3,0,
,html-keyboard-response,70,183457,0.0-39.0-1.0,null,<p></p>,,null,,,,,,,,,,,,,,,,
,do_trial,71,187034,0.0-40.0-0.0,1028.1,,,,49,"0,1,0",6,blank,261,null,0.106868319,0.355522592,0.458865182,0,,,,,,
,html-keyboard-response,72,188043,0.0-40.0-1.0,null,<p></p>,,null,,,,,,,,,,,,,,,,
,do_trial,73,191228,0.0-41.0-0.0,647.5,,,,50,"0,0,1",6,blank,262,null,0.189051014,0.372477633,0.353689956,0,,,,,,
,html-keyboard-response,74,192239,0.0-41.0-1.0,null,<p></p>,,null,,,,,,,,,,,,,,,,
,do_trial,75,195377,0.0-42.0-0.0,603.9,,,,51,"0,0,1",6,blank,263,null,0.101429921,0.369988799,0.580302937,1,,,,,,
,html-keyboard-response,76,196387,0.0-42.0-1.0,null,<p></p>,,null,,,,,,,,,,,,,,,,
,do_trial,77,199404,0.0-43.0-0.0,468.7,,,,49,"0,0,0",6,blank,264,null,0.230042363,0.347274781,0.670043791,0,,,,,,
,html-keyboard-response,78,200413,0.0-43.0-1.0,null,<p></p>,,null,,,,,,,,,,,,,,,,
,do_trial,79,203427,0.0-44.0-0.0,469.9,,,,49,"0,0,0",6,blank,265,null,0.11744373,0.209093081,0.534305642,0,,,,,,
,html-keyboard-response,80,204438,0.0-44.0-1.0,null,<p></p>,,null,,,,,,,,,,,,,,,,
,do_trial,81,207780,0.0-45.0-0.0,799,,,,49,"0,0,0",6,blank,266,null,0.073119484,0.264064806,0.569022403,0,,,,,,
,html-keyboard-response,82,208791,0.0-45.0-1.0,null,<p></p>,,null,,,,,,,,,,,,,,,,
,do_trial,83,211714,0.0-46.0-0.0,376.2,,,,49,"0,0,0",6,blank,267,null,0.213720031,0.270712643,0.543670052,0,,,,,,
,html-keyboard-response,84,212723,0.0-46.0-1.0,null,<p></p>,,null,,,,,,,,,,,,,,,,
,do_recog,85,216164,0.0-47.0-0.0,1933.4,,,,53,,,,268,probe-43,,,,,1,[object Object],203,5,1,
,html-keyboard-response,86,217174,0.0-47.0-1.0,null,<p></p>,,null,,,,,,,,,,,,,,,,
,do_trial,87,221125,0.0-48.0-0.0,1411.5,,,,51,"0,0,0",6,blank,269,null,0.062886189,0.288003335,0.440291055,0,,,,,,
,html-keyboard-response,88,222133,0.0-48.0-1.0,null,<p></p>,,null,,,,,,,,,,,,,,,,
,do_recog,89,225954,0.0-49.0-0.0,2314.3,,,,55,,,,270,probe-145,,,,,1,[object Object],88,2,0,
,html-keyboard-response,90,226963,0.0-49.0-1.0,null,<p></p>,,null,,,,,,,,,,,,,,,,
,do_trial,91,230615,0.0-50.0-0.0,1112.3,,,,51,"0,0,1",6,blank,271,null,0.062613067,0.443172742,0.642621602,1,,,,,,
,html-keyboard-response,92,231623,0.0-50.0-1.0,null,<p></p>,,null,,,,,,,,,,,,,,,,
,do_trial,93,234607,0.0-51.0-0.0,441,,,,49,"0,0,1",6,blank,272,null,0.126404897,0.445955639,0.54308323,0,,,,,,
,html-keyboard-response,94,235616,0.0-51.0-1.0,null,<p></p>,,null,,,,,,,,,,,,,,,,
,do_trial,95,238618,0.0-52.0-0.0,458.9,,,,50,"1,0,1",6,blank,273,null,0.078850884,0.460271616,0.683786434,0,,,,,,
,html-keyboard-response,96,239630,0.0-52.0-1.0,null,<p></p>,,null,,,,,,,,,,,,,,,,
,do_trial,97,242626,0.0-53.0-0.0,459.5,,,,51,"0,1,1",6,blank,274,null,0.129986656,0.524205069,0.486845756,1,,,,,,
,html-keyboard-response,98,243635,0.0-53.0-1.0,null,<p></p>,,null,,,,,,,,,,,,,,,,
,do_trial,99,246571,0.0-54.0-0.0,388.4,,,,49,"0,1,1",6,blank,275,null,0.187453323,0.616022102,0.591048255,0,,,,,,
,html-keyboard-response,100,247583,0.0-54.0-1.0,null,<p></p>,,null,,,,,,,,,,,,,,,,
,do_trial,101,250695,0.0-55.0-0.0,564,,,,50,"0,0,1",6,blank,276,null,0.080452474,0.433188511,0.711574728,0,,,,,,
,html-keyboard-response,102,251708,0.0-55.0-1.0,null,<p></p>,,null,,,,,,,,,,,,,,,,
,do_recog,103,254878,0.0-56.0-0.0,1659.7,,,,56,,,,277,probe-38,,,,,1,[object Object],80,2,0,
,html-keyboard-response,104,255887,0.0-56.0-1.0,null,<p></p>,,null,,,,,,,,,,,,,,,,
,do_trial,105,259229,0.0-57.0-0.0,803.9,,,,49,"0,0,1",6,blank,278,null,0.144255881,0.381066449,0.724530081,0,,,,,,
,html-keyboard-response,106,260239,0.0-57.0-1.0,null,<p></p>,,null,,,,,,,,,,,,,,,,
,do_trial,107,263243,0.0-58.0-0.0,466.5,,,,49,"0,0,1",6,blank,279,null,0.234712273,0.286954043,0.735760291,0,,,,,,
,html-keyboard-response,108,264254,0.0-58.0-1.0,null,<p></p>,,null,,,,,,,,,,,,,,,,
,do_trial,109,267384,0.0-59.0-0.0,588.9,,,,50,"0,0,1",6,blank,280,null,0.293780814,0.305178021,0.542422712,0,,,,,,
,html-keyboard-response,110,268393,0.0-59.0-1.0,null,<p></p>,,null,,,,,,,,,,,,,,,,
,do_trial,111,271470,0.0-60.0-0.0,535.3,,,,51,"0,0,1",6,blank,281,null,0.169817616,0.457086133,0.547177437,1,,,,,,
,html-keyboard-response,112,272481,0.0-60.0-1.0,null,<p></p>,,null,,,,,,,,,,,,,,,,
,do_trial,113,275481,0.0-61.0-0.0,461.1,,,,50,"1,0,1",6,blank,282,null,0.052894725,0.32802278,0.662926496,0,,,,,,
,html-keyboard-response,114,276491,0.0-61.0-1.0,null,<p></p>,,null,,,,,,,,,,,,,,,,
,do_trial,115,279398,0.0-62.0-0.0,356.8,,,,51,"1,0,1",6,blank,283,null,0.100770227,0.315736914,0.760956085,1,,,,,,
,html-keyboard-response,116,280408,0.0-62.0-1.0,null,<p></p>,,null,,,,,,,,,,,,,,,,
,do_recog,117,283300,0.0-63.0-0.0,1385.1,,,,56,,,,284,probe-58,,,,,1,[object Object],121,3,0,
,html-keyboard-response,118,284309,0.0-63.0-1.0,null,<p></p>,,null,,,,,,,,,,,,,,,,
,do_trial,119,287996,0.0-64.0-0.0,1144.8,,,,50,"0,0,1",6,blank,285,null,0.058067855,0.115205175,0.656147497,0,,,,,,
,html-keyboard-response,120,289006,0.0-64.0-1.0,null,<p></p>,,null,,,,,,,,,,,,,,,,
,do_trial,121,292053,0.0-65.0-0.0,497.3,,,,51,"0,1,0",6,blank,286,null,0.050720172,0.301323999,0.527919635,0,,,,,,
,html-keyboard-response,122,293063,0.0-65.0-1.0,null,<p></p>,,null,,,,,,,,,,,,,,,,
,do_trial,123,295860,0.0-66.0-0.0,248.1,,,,49,"0,0,0",6,blank,287,null,0.115135341,0.194125971,0.463367074,0,,,,,,
,html-keyboard-response,124,296869,0.0-66.0-1.0,null,<p></p>,,null,,,,,,,,,,,,,,,,
,do_trial,125,299823,0.0-67.0-0.0,416.6,,,,51,"0,0,1",6,blank,288,null,0.065485117,0.284171122,0.47000221,1,,,,,,
,html-keyboard-response,126,300834,0.0-67.0-1.0,null,<p></p>,,null,,,,,,,,,,,,,,,,
,do_trial,127,303990,0.0-68.0-0.0,615,,,,51,"0,1,1",6,blank,289,null,0.251180359,0.364158675,0.545700677,1,,,,,,
,html-keyboard-response,128,305001,0.0-68.0-1.0,null,<p></p>,,null,,,,,,,,,,,,,,,,
,do_trial,129,308248,0.0-69.0-0.0,704.9,,,,49,"0,0,1",6,blank,290,null,0.230450229,0.362788463,0.520967299,0,,,,,,
,html-keyboard-response,130,309258,0.0-69.0-1.0,null,<p></p>,,null,,,,,,,,,,,,,,,,
,do_recog,131,312676,0.0-70.0-0.0,1908.9,,,,56,,,,291,probe-195,,,,,1,[object Object],83,2,0,
,html-keyboard-response,132,313684,0.0-70.0-1.0,null,<p></p>,,null,,,,,,,,,,,,,,,,
,do_trial,133,316801,0.0-71.0-0.0,574.3,,,,51,"1,0,1",6,blank,292,null,0.132637853,0.378711022,0.534422575,1,,,,,,
,html-keyboard-response,134,317809,0.0-71.0-1.0,null,<p></p>,,null,,,,,,,,,,,,,,,,
,do_trial,135,320774,0.0-72.0-0.0,415.1,,,,50,"1,0,0",6,blank,293,null,0.250004589,0.244035511,0.477885895,0,,,,,,
,html-keyboard-response,136,321782,0.0-72.0-1.0,null,<p></p>,,null,,,,,,,,,,,,,,,,
,do_trial,137,324548,0.0-73.0-0.0,222.7,,,,49,"0,0,1",6,blank,294,null,0.192670028,0.403684883,0.397251956,0,,,,,,
,html-keyboard-response,138,325557,0.0-73.0-1.0,null,<p></p>,,null,,,,,,,,,,,,,,,,
,do_trial,139,328387,0.0-74.0-0.0,286.2,,,,51,"0,0,0",6,blank,295,null,0.105999582,0.557527406,0.382418518,0,,,,,,
,html-keyboard-response,140,329397,0.0-74.0-1.0,null,<p></p>,,null,,,,,,,,,,,,,,,,
,do_trial,141,332208,0.0-75.0-0.0,266.6,,,,50,"1,1,1",6,blank,296,null,0.178759997,0.576916825,0.306436079,1,,,,,,
,html-keyboard-response,142,333217,0.0-75.0-1.0,null,<p></p>,,null,,,,,,,,,,,,,,,,
,do_trial,143,336387,0.0-76.0-0.0,625.2,,,,50,"1,0,0",6,blank,297,null,0.21930097,0.492349437,0.267561913,0,,,,,,
,html-keyboard-response,144,337398,0.0-76.0-1.0,null,<p></p>,,null,,,,,,,,,,,,,,,,
,do_recog,145,340930,0.0-77.0-0.0,2021.4,,,,53,,,,298,probe-63,,,,,1,[object Object],42,1,1,
,html-keyboard-response,146,341939,0.0-77.0-1.0,null,<p></p>,,null,,,,,,,,,,,,,,,,
,do_trial,147,344830,0.0-78.0-0.0,354,,,,50,"0,1,0",6,blank,299,null,0.141502604,0.560232557,0.263095275,1,,,,,,
,html-keyboard-response,148,345842,0.0-78.0-1.0,null,<p></p>,,null,,,,,,,,,,,,,,,,
,do_recog,149,349310,0.0-79.0-0.0,1955.9,,,,53,,,,300,probe-203,,,,,1,[object Object],40,1,1,
,html-keyboard-response,150,350321,0.0-79.0-1.0,null,<p></p>,,null,,,,,,,,,,,,,,,,
,do_trial,151,353601,0.0-80.0-0.0,730.7,,,,49,"0,0,0",6,blank,301,null,0.075560755,0.504264547,0.320674083,0,,,,,,
,html-keyboard-response,152,354611,0.0-80.0-1.0,null,<p></p>,,null,,,,,,,,,,,,,,,,
,do_trial,153,358135,0.0-81.0-0.0,974.5,,,,51,"0,0,0",6,blank,302,null,0.087939882,0.752153068,0.401450176,0,,,,,,
,html-keyboard-response,154,359146,0.0-81.0-1.0,null,<p></p>,,null,,,,,,,,,,,,,,,,
,do_trial,155,362194,0.0-82.0-0.0,511.1,,,,51,"0,1,0",6,blank,303,null,0.140872089,0.850391359,0.518545724,0,,,,,,
,html-keyboard-response,156,363205,0.0-82.0-1.0,null,<p></p>,,null,,,,,,,,,,,,,,,,
,do_trial,157,366442,0.0-83.0-0.0,696,,,,49,"1,1,0",6,blank,304,null,0.20830225,0.863725649,0.35713853,1,,,,,,
,html-keyboard-response,158,367451,0.0-83.0-1.0,null,<p></p>,,null,,,,,,,,,,,,,,,,
,do_trial,159,370794,0.0-84.0-0.0,799.3,,,,51,"1,1,1",6,blank,305,null,0.331870478,0.67139358,0.325848614,1,,,,,,
,html-keyboard-response,160,371804,0.0-84.0-1.0,null,<p></p>,,null,,,,,,,,,,,,,,,,
,do_trial,161,375051,0.0-85.0-0.0,711,,,,49,"0,1,1",6,blank,306,null,0.148573884,0.810182223,0.527083034,0,,,,,,
,html-keyboard-response,162,376066,0.0-85.0-1.0,null,<p></p>,,null,,,,,,,,,,,,,,,,
,do_trial,163,379343,0.0-86.0-0.0,737.3,,,,51,"0,1,1",6,blank,307,null,0.15242991,0.717231678,0.447250628,1,,,,,,
,html-keyboard-response,164,380352,0.0-86.0-1.0,null,<p></p>,,null,,,,,,,,,,,,,,,,
,do_recog,165,383680,0.0-87.0-0.0,1819.5,,,,53,,,,308,probe-45,,,,,1,[object Object],82,2,1,
,html-keyboard-response,166,384688,0.0-87.0-1.0,null,<p></p>,,null,,,,,,,,,,,,,,,,
,do_trial,167,387982,0.0-88.0-0.0,752.1,,,,51,"0,1,0",6,blank,309,null,0.066723832,0.606008769,0.392699021,0,,,,,,
,html-keyboard-response,168,388991,0.0-88.0-1.0,null,<p></p>,,null,,,,,,,,,,,,,,,,
,do_recog,169,392555,0.0-89.0-0.0,2051.2,,,,53,,,,310,probe-169,,,,,1,[object Object],120,3,1,
,html-keyboard-response,170,393566,0.0-89.0-1.0,null,<p></p>,,null,,,,,,,,,,,,,,,,
,do_trial,171,396678,0.0-90.0-0.0,564.9,,,,49,"0,1,0",6,blank,311,null,0.114755295,0.6631429,0.402989312,0,,,,,,
,html-keyboard-response,172,397691,0.0-90.0-1.0,null,<p></p>,,null,,,,,,,,,,,,,,,,
,do_trial,173,400835,0.0-91.0-0.0,597.1,,,,51,"1,0,0",6,blank,312,null,0.214469269,0.509995686,0.441723918,0,,,,,,
,html-keyboard-response,174,401844,0.0-91.0-1.0,null,<p></p>,,null,,,,,,,,,,,,,,,,
,do_trial,175,405612,0.0-92.0-0.0,1224.9,,,,51,"0,1,1",6,blank,313,null,0.171800204,0.480158858,0.42191405,1,,,,,,
,html-keyboard-response,176,406622,0.0-92.0-1.0,null,<p></p>,,null,,,,,,,,,,,,,,,,
,do_trial,177,409637,0.0-93.0-0.0,468.5,,,,49,"0,1,0",6,blank,314,null,0.216807816,0.532043354,0.367129144,0,,,,,,
,html-keyboard-response,178,410647,0.0-93.0-1.0,null,<p></p>,,null,,,,,,,,,,,,,,,,
,do_trial,179,413854,0.0-94.0-0.0,671,,,,51,"0,0,0",6,blank,315,null,0.140670868,0.580394959,0.239004126,0,,,,,,
,html-keyboard-response,180,414864,0.0-94.0-1.0,null,<p></p>,,null,,,,,,,,,,,,,,,,
,do_recog,181,418003,0.0-95.0-0.0,1624.6,,,,53,,,,316,probe-30,,,,,1,[object Object],81,2,1,
,html-keyboard-response,182,419013,0.0-95.0-1.0,null,<p></p>,,null,,,,,,,,,,,,,,,,
,do_trial,183,422202,0.0-96.0-0.0,643.6,,,,49,"1,1,1",6,blank,317,null,0.087482938,0.539916163,0.318481372,1,,,,,,
,html-keyboard-response,184,423212,0.0-96.0-1.0,null,<p></p>,,null,,,,,,,,,,,,,,,,
,do_recog,185,426663,0.0-97.0-0.0,1931.1,,,,56,,,,318,probe-147,,,,,1,[object Object],89,2,0,
,html-keyboard-response,186,427674,0.0-97.0-1.0,null,<p></p>,,null,,,,,,,,,,,,,,,,
,do_trial,187,430746,0.0-98.0-0.0,531.2,,,,49,"0,0,1",6,blank,319,null,0.303741682,0.366355181,0.425387858,0,,,,,,
,html-keyboard-response,188,431756,0.0-98.0-1.0,null,<p></p>,,null,,,,,,,,,,,,,,,,
,do_trial,189,435032,0.0-99.0-0.0,724.9,,,,49,"1,1,0",6,blank,320,null,0.190069816,0.54779736,0.42938159,1,,,,,,
,html-keyboard-response,190,436042,0.0-99.0-1.0,null,<p></p>,,null,,,,,,,,,,,,,,,,
,do_recog,191,440049,0.0-100.0-0.0,2497.1,,,,56,,,,321,probe-05,,,,,1,[object Object],163,4,0,
,html-keyboard-response,192,441058,0.0-100.0-1.0,null,<p></p>,,null,,,,,,,,,,,,,,,,
,do_trial,193,444385,0.0-101.0-0.0,789.1,,,,49,"1,0,0",6,blank,322,null,0.316141338,0.613433837,0.337925476,1,,,,,,
,html-keyboard-response,194,445395,0.0-101.0-1.0,null,<p></p>,,null,,,,,,,,,,,,,,,,
,do_trial,195,449050,0.0-102.0-0.0,1110.1,,,,50,"1,1,0",6,blank,323,null,0.188400091,0.709983044,0.205342251,1,,,,,,
,html-keyboard-response,196,450060,0.0-102.0-1.0,null,<p></p>,,null,,,,,,,,,,,,,,,,
,do_trial,197,452997,0.0-103.0-0.0,402.3,,,,51,"0,1,0",6,blank,324,null,0.122559405,0.758287639,0.153112001,0,,,,,,
,html-keyboard-response,198,454006,0.0-103.0-1.0,null,<p></p>,,null,,,,,,,,,,,,,,,,
,do_recog,199,457363,0.0-104.0-0.0,1847.9,,,,55,,,,325,probe-196,,,,,1,[object Object],168,4,0,
,html-keyboard-response,200,458372,0.0-104.0-1.0,null,<p></p>,,null,,,,,,,,,,,,,,,,
,do_trial,201,462008,0.0-105.0-0.0,1086.2,,,,50,"0,0,0",6,blank,326,null,0.141122805,0.514457811,0.11330459,0,,,,,,
,html-keyboard-response,202,463020,0.0-105.0-1.0,null,<p></p>,,null,,,,,,,,,,,,,,,,
,do_trial,203,465816,0.0-106.0-0.0,258.8,,,,51,"0,1,0",6,blank,327,null,0.250905691,0.522750081,0.1824387,0,,,,,,
,html-keyboard-response,204,466827,0.0-106.0-1.0,null,<p></p>,,null,,,,,,,,,,,,,,,,
,do_recog,205,470324,0.0-107.0-0.0,1981.4,,,,56,,,,328,probe-154,,,,,1,[object Object],126,3,0,
,html-keyboard-response,206,471333,0.0-107.0-1.0,null,<p></p>,,null,,,,,,,,,,,,,,,,
,do_trial,207,474800,0.0-108.0-0.0,926.3,,,,50,"0,1,1",6,blank,329,null,0.22880851,0.702713035,0.35495034,1,,,,,,
,html-keyboard-response,208,475809,0.0-108.0-1.0,null,<p></p>,,null,,,,,,,,,,,,,,,,
,do_trial,209,479509,0.0-109.0-0.0,1162.9,,,,51,"0,0,1",6,blank,330,null,0.099267252,0.663693636,0.391583269,1,,,,,,
,html-keyboard-response,210,480518,0.0-109.0-1.0,null,<p></p>,,null,,,,,,,,,,,,,,,,
,do_recog,211,484123,0.0-110.0-0.0,2088.4,,,,53,,,,331,probe-71,,,,,1,[object Object],43,1,1,
,html-keyboard-response,212,485133,0.0-110.0-1.0,null,<p></p>,,null,,,,,,,,,,,,,,,,
,do_trial,213,488912,0.0-111.0-0.0,1234.8,,,,49,"0,0,1",6,blank,332,null,0.153841402,0.823109807,0.247652687,0,,,,,,
,html-keyboard-response,214,489922,0.0-111.0-1.0,null,<p></p>,,null,,,,,,,,,,,,,,,,
,do_recog,215,493420,0.0-112.0-0.0,1983.3,,,,55,,,,333,probe-44,,,,,1,[object Object],160,4,0,
,html-keyboard-response,216,494430,0.0-112.0-1.0,null,<p></p>,,null,,,,,,,,,,,,,,,,
,do_trial,217,497380,0.0-113.0-0.0,415.9,,,,50,"0,1,0",6,blank,334,null,0.218663964,0.751731764,0.267944692,1,,,,,,
,html-keyboard-response,218,498392,0.0-113.0-1.0,null,<p></p>,,null,,,,,,,,,,,,,,,,
,do_trial,219,501564,0.0-114.0-0.0,629,,,,51,"0,0,1",6,blank,335,null,0.088484109,0.605177735,0.462414078,1,,,,,,
,html-keyboard-response,220,502574,0.0-114.0-1.0,null,<p></p>,,null,,,,,,,,,,,,,,,,
,do_recog,221,506051,0.0-115.0-0.0,1967.3,,,,53,,,,336,probe-96,,,,,1,[object Object],123,3,1,
,html-keyboard-response,222,507061,0.0-115.0-1.0,null,<p></p>,,null,,,,,,,,,,,,,,,,
,do_trial,223,509811,0.0-116.0-0.0,207.5,,,,49,"0,1,1",6,blank,337,null,0.102972441,0.616146096,0.487087969,0,,,,,,
,html-keyboard-response,224,510821,0.0-116.0-1.0,null,<p></p>,,null,,,,,,,,,,,,,,,,
,do_trial,225,513651,0.0-117.0-0.0,285.2,,,,51,"0,1,0",6,blank,338,null,0.240854278,0.686609559,0.3594628,0,,,,,,
,html-keyboard-response,226,514661,0.0-117.0-1.0,null,<p></p>,,null,,,,,,,,,,,,,,,,
,do_trial,227,517661,0.0-118.0-0.0,453.7,,,,50,"0,1,0",6,blank,339,null,0.136869102,0.660085824,0.348273206,1,,,,,,
,html-keyboard-response,228,518671,0.0-118.0-1.0,null,<p></p>,,null,,,,,,,,,,,,,,,,
,do_trial,229,521767,0.0-119.0-0.0,554.9,,,,49,"0,0,0",6,blank,340,null,0.088618121,0.748149523,0.265968365,0,,,,,,
,html-keyboard-response,230,522776,0.0-119.0-1.0,null,<p></p>,,null,,,,,,,,,,,,,,,,
,do_recog,231,526086,0.0-120.0-0.0,1799.2,,,,56,,,,341,probe-176,,,,,1,[object Object],129,3,0,
,html-keyboard-response,232,527098,0.0-120.0-1.0,null,<p></p>,,null,,,,,,,,,,,,,,,,
,do_trial,233,529941,0.0-121.0-0.0,298,,,,49,"0,0,0",6,blank,342,null,0.143075238,0.764493079,0.237107421,0,,,,,,
,html-keyboard-response,234,530953,0.0-121.0-1.0,null,<p></p>,,null,,,,,,,,,,,,,,,,
,do_trial,235,533904,0.0-122.0-0.0,410.7,,,,51,"0,0,0",6,blank,343,null,0.116503888,0.643761998,0.293706938,0,,,,,,
,html-keyboard-response,236,534914,0.0-122.0-1.0,null,<p></p>,,null,,,,,,,,,,,,,,,,
,do_trial,237,537834,0.0-123.0-0.0,378.4,,,,50,"0,0,0",6,blank,344,null,0.103268257,0.560164615,0.196389022,0,,,,,,
,html-keyboard-response,238,538846,0.0-123.0-1.0,null,<p></p>,,null,,,,,,,,,,,,,,,,
,do_trial,239,541614,0.0-124.0-0.0,218.7,,,,49,"0,1,0",6,blank,345,null,0.057317104,0.501406231,0.197758853,0,,,,,,
,html-keyboard-response,240,542624,0.0-124.0-1.0,null,<p></p>,,null,,,,,,,,,,,,,,,,
,do_trial,241,545424,0.0-125.0-0.0,252.9,,,,51,"0,0,0",6,blank,346,null,0.073658081,0.533494653,0.068870517,0,,,,,,
,html-keyboard-response,242,546431,0.0-125.0-1.0,null,<p></p>,,null,,,,,,,,,,,,,,,,
,do_trial,243,549573,0.0-126.0-0.0,605.2,,,,50,"1,0,0",6,blank,347,null,0.20652623,0.353227386,0.070313154,0,,,,,,
,html-keyboard-response,244,550584,0.0-126.0-1.0,null,<p></p>,,null,,,,,,,,,,,,,,,,
,do_recog,245,554113,0.0-127.0-0.0,2009,,,,56,,,,348,probe-39,,,,,1,[object Object],165,4,0,
,html-keyboard-response,246,555121,0.0-127.0-1.0,null,<p></p>,,null,,,,,,,,,,,,,,,,
,do_trial,247,558012,0.0-128.0-0.0,345.7,,,,49,"0,1,0",6,blank,349,null,0.392052666,0.380250063,0.143295894,0,,,,,,
,html-keyboard-response,248,559020,0.0-128.0-1.0,null,<p></p>,,null,,,,,,,,,,,,,,,,
,do_trial,249,561818,0.0-129.0-0.0,256.4,,,,51,"1,1,0",6,blank,350,null,0.48344229,0.394147962,0.079723764,0,,,,,,
,html-keyboard-response,250,562829,0.0-129.0-1.0,null,<p></p>,,null,,,,,,,,,,,,,,,,
,do_trial,251,565627,0.0-130.0-0.0,257.2,,,,50,"0,0,0",6,blank,351,null,0.518641193,0.463130423,0.08361144,0,,,,,,
,html-keyboard-response,252,566636,0.0-130.0-1.0,null,<p></p>,,null,,,,,,,,,,,,,,,,
,do_trial,253,569571,0.0-131.0-0.0,397.7,,,,49,"0,0,0",6,blank,352,null,0.522143217,0.367292239,0.079630636,0,,,,,,
,html-keyboard-response,254,570581,0.0-131.0-1.0,null,<p></p>,,null,,,,,,,,,,,,,,,,
,do_trial,255,573566,0.0-132.0-0.0,442.2,,,,51,"1,1,0",6,blank,353,null,0.560580758,0.427649532,0.050834315,0,,,,,,
,html-keyboard-response,256,574574,0.0-132.0-1.0,null,<p></p>,,null,,,,,,,,,,,,,,,,
,do_recog,257,577711,0.0-133.0-0.0,1630.2,,,,56,,,,354,probe-199,,,,,1,[object Object],209,5,0,
,html-keyboard-response,258,578722,0.0-133.0-1.0,null,<p></p>,,null,,,,,,,,,,,,,,,,
,do_trial,259,581734,0.0-134.0-0.0,463.3,,,,49,"1,0,0",6,blank,355,null,0.512839018,0.465417862,0.166147539,1,,,,,,
,html-keyboard-response,260,582746,0.0-134.0-1.0,null,<p></p>,,null,,,,,,,,,,,,,,,,
,do_trial,261,585840,0.0-135.0-0.0,556.1,,,,51,"0,1,0",6,blank,356,null,0.500495199,0.455735346,0.060567772,0,,,,,,
,html-keyboard-response,262,586849,0.0-135.0-1.0,null,<p></p>,,null,,,,,,,,,,,,,,,,
,do_trial,263,589789,0.0-136.0-0.0,396.5,,,,49,"1,0,0",6,blank,357,null,0.588677466,0.412274861,0.088200776,1,,,,,,
,html-keyboard-response,264,590800,0.0-136.0-1.0,null,<p></p>,,null,,,,,,,,,,,,,,,,
,do_trial,265,593736,0.0-137.0-0.0,400,,,,51,"0,1,0",6,blank,358,null,0.570476355,0.463808518,0.088051454,0,,,,,,
,html-keyboard-response,266,594744,0.0-137.0-1.0,null,<p></p>,,null,,,,,,,,,,,,,,,,
,do_trial,267,598163,0.0-138.0-0.0,884.4,,,,50,"0,0,0",6,blank,359,null,0.48968389,0.390397612,0.077447534,0,,,,,,
,html-keyboard-response,268,599173,0.0-138.0-1.0,null,<p></p>,,null,,,,,,,,,,,,,,,,
,do_trial,269,602141,0.0-139.0-0.0,428.3,,,,51,"0,0,1",6,blank,360,null,0.630955143,0.290464282,0.178038628,1,,,,,,
,html-keyboard-response,270,603152,0.0-139.0-1.0,null,<p></p>,,null,,,,,,,,,,,,,,,,
,do_recog,271,606337,0.0-140.0-0.0,1670,,,,56,,,,361,probe-108,,,,,1,[object Object],47,1,0,
,html-keyboard-response,272,607348,0.0-140.0-1.0,null,<p></p>,,null,,,,,,,,,,,,,,,,
,do_trial,273,610502,0.0-141.0-0.0,619,,,,49,"0,1,0",6,blank,362,null,0.624186235,0.340828657,0.099050938,0,,,,,,
,html-keyboard-response,274,611513,0.0-141.0-1.0,null,<p></p>,,null,,,,,,,,,,,,,,,,
,do_trial,275,614557,0.0-142.0-0.0,491.9,,,,51,"1,1,0",6,blank,363,null,0.600443838,0.323061649,0.140576574,0,,,,,,
,html-keyboard-response,276,615568,0.0-142.0-1.0,null,<p></p>,,null,,,,,,,,,,,,,,,,
,do_trial,277,618428,0.0-143.0-0.0,314.9,,,,50,"1,1,0",6,blank,364,null,0.641821254,0.320168277,0.058912779,1,,,,,,
,html-keyboard-response,278,619437,0.0-143.0-1.0,null,<p></p>,,null,,,,,,,,,,,,,,,,
,do_trial,279,622202,0.0-144.0-0.0,221.6,,,,49,"1,1,0",6,blank,365,null,0.462235044,0.440276267,0.218280909,1,,,,,,
,html-keyboard-response,280,623210,0.0-144.0-1.0,null,<p></p>,,null,,,,,,,,,,,,,,,,
,do_recog,281,626955,0.0-145.0-0.0,2241.8,,,,56,,,,366,probe-94,,,,,1,[object Object],161,4,0,
,html-keyboard-response,282,627965,0.0-145.0-1.0,null,<p></p>,,null,,,,,,,,,,,,,,,,
,do_trial,283,630952,0.0-146.0-0.0,439.1,,,,50,"0,0,1",6,blank,367,null,0.390651079,0.322508276,0.176729304,0,,,,,,
,html-keyboard-response,284,631962,0.0-146.0-1.0,null,<p></p>,,null,,,,,,,,,,,,,,,,
,do_recog,285,635258,0.0-147.0-0.0,1784,,,,56,,,,368,probe-87,,,,,1,[object Object],86,2,0,
,html-keyboard-response,286,636267,0.0-147.0-1.0,null,<p></p>,,null,,,,,,,,,,,,,,,,
,do_trial,287,639249,0.0-148.0-0.0,438.3,,,,49,"1,0,0",6,blank,369,null,0.592675385,0.375001155,0.248227621,1,,,,,,
,html-keyboard-response,288,640257,0.0-148.0-1.0,null,<p></p>,,null,,,,,,,,,,,,,,,,
,do_trial,289,643054,0.0-149.0-0.0,250.5,,,,51,"0,0,1",6,blank,370,null,0.528955404,0.263778584,0.146417361,1,,,,,,
,html-keyboard-response,290,644065,0.0-149.0-1.0,null,<p></p>,,null,,,,,,,,,,,,,,,,
,do_trial,291,646895,0.0-150.0-0.0,283.4,,,,51,"1,1,0",6,blank,371,null,0.62794386,0.161597655,0.189661141,0,,,,,,
,html-keyboard-response,292,647907,0.0-150.0-1.0,null,<p></p>,,null,,,,,,,,,,,,,,,,
,do_trial,293,650661,0.0-151.0-0.0,216.2,,,,49,"1,0,1",6,blank,372,null,0.642367394,0.234557455,0.134207542,1,,,,,,
,html-keyboard-response,294,651673,0.0-151.0-1.0,null,<p></p>,,null,,,,,,,,,,,,,,,,
,do_recog,295,654813,0.0-152.0-0.0,1621.8,,,,56,,,,373,probe-162,,,,,1,[object Object],169,4,0,
,html-keyboard-response,296,655822,0.0-152.0-1.0,null,<p></p>,,null,,,,,,,,,,,,,,,,
,do_trial,297,658871,0.0-153.0-0.0,502.2,,,,51,"1,1,0",6,blank,374,null,0.621540182,0.26794875,0.091244918,0,,,,,,
,html-keyboard-response,298,659882,0.0-153.0-1.0,null,<p></p>,,null,,,,,,,,,,,,,,,,
,do_trial,299,662725,0.0-154.0-0.0,293.2,,,,50,"1,0,0",6,blank,375,null,0.551034077,0.265049541,0.094347482,0,,,,,,
,html-keyboard-response,300,663735,0.0-154.0-1.0,null,<p></p>,,null,,,,,,,,,,,,,,,,
,do_trial,301,666551,0.0-155.0-0.0,266.1,,,,49,"1,0,0",6,blank,376,null,0.6312298,0.088735575,0.117257538,1,,,,,,
,html-keyboard-response,302,667552,0.0-155.0-1.0,null,<p></p>,,null,,,,,,,,,,,,,,,,
,do_trial,303,670410,0.0-156.0-0.0,310.6,,,,51,"0,0,0",6,blank,377,null,0.485050157,0.197010937,0.20563725,0,,,,,,
,html-keyboard-response,304,671420,0.0-156.0-1.0,null,<p></p>,,null,,,,,,,,,,,,,,,,
,do_recog,305,674779,0.0-157.0-0.0,1846.4,,,,56,,,,378,probe-170,,,,,1,[object Object],128,3,0,
,html-keyboard-response,306,675784,0.0-157.0-1.0,null,<p></p>,,null,,,,,,,,,,,,,,,,
,do_trial,307,679699,0.0-158.0-0.0,1377.7,,,,49,"1,1,0",6,blank,379,null,0.64400308,0.379743264,0.227649309,1,,,,,,
,html-keyboard-response,308,680710,0.0-158.0-1.0,null,<p></p>,,null,,,,,,,,,,,,,,,,
,do_recog,309,683960,0.0-159.0-0.0,1738.6,,,,56,,,,380,probe-29,,,,,1,[object Object],84,2,0,
,html-keyboard-response,310,684971,0.0-159.0-1.0,null,<p></p>,,null,,,,,,,,,,,,,,,,
,do_trial,311,688237,0.0-160.0-0.0,728.6,,,,51,"0,1,0",6,blank,381,null,0.670579708,0.293988078,0.052715413,0,,,,,,
,html-keyboard-response,312,689246,0.0-160.0-1.0,null,<p></p>,,null,,,,,,,,,,,,,,,,
,do_recog,313,692976,0.0-161.0-0.0,2220.7,,,,54,,,,382,probe-95,,,,,1,[object Object],46,1,1,
,html-keyboard-response,314,693987,0.0-161.0-1.0,null,<p></p>,,null,,,,,,,,,,,,,,,,
,do_trial,315,697534,0.0-162.0-0.0,999.5,,,,51,"0,0,0",6,blank,383,null,0.596311611,0.236428343,0.177966817,0,,,,,,
,html-keyboard-response,316,698544,0.0-162.0-1.0,null,<p></p>,,null,,,,,,,,,,,,,,,,
,do_trial,317,701439,0.0-163.0-0.0,359.4,,,,49,"0,0,0",6,blank,384,null,0.675630318,0.191743925,0.176352529,0,,,,,,
,html-keyboard-response,318,702449,0.0-163.0-1.0,null,<p></p>,,null,,,,,,,,,,,,,,,,
,do_recog,319,705791,0.0-164.0-0.0,1829.4,,,,56,,,,385,probe-34,,,,,1,[object Object],45,1,0,
,html-keyboard-response,320,706801,0.0-164.0-1.0,null,<p></p>,,null,,,,,,,,,,,,,,,,
,do_trial,321,710097,0.0-165.0-0.0,748.2,,,,49,"1,0,0",6,blank,386,null,0.70937738,0.354696676,0.104486697,1,,,,,,
,html-keyboard-response,322,711109,0.0-165.0-1.0,null,<p></p>,,null,,,,,,,,,,,,,,,,
,do_trial,323,714094,0.0-166.0-0.0,448.6,,,,51,"1,1,0",6,blank,387,null,0.622230342,0.219122986,0.060664619,0,,,,,,
,html-keyboard-response,324,715105,0.0-166.0-1.0,null,<p></p>,,null,,,,,,,,,,,,,,,,
,do_trial,325,718366,0.0-167.0-0.0,726.1,,,,50,"0,0,1",6,blank,388,null,0.617195803,0.170126449,0.060371286,0,,,,,,
,html-keyboard-response,326,719375,0.0-167.0-1.0,null,<p></p>,,null,,,,,,,,,,,,,,,,
,do_trial,327,722562,0.0-168.0-0.0,650.5,,,,49,"1,1,0",6,blank,389,null,0.638015115,0.277294523,0.150152992,1,,,,,,
,html-keyboard-response,328,723571,0.0-168.0-1.0,null,<p></p>,,null,,,,,,,,,,,,,,,,
,do_recog,329,726776,0.0-169.0-0.0,1693,,,,56,,,,390,probe-254,,,,,0,[object Object],null,null,1,
,html-keyboard-response,330,727786,0.0-169.0-1.0,null,<p></p>,,null,,,,,,,,,,,,,,,,
,do_trial,331,730893,0.0-170.0-0.0,561.5,,,,51,"1,0,1",6,blank,391,null,0.655418754,0.219904373,0.097184755,1,,,,,,
,html-keyboard-response,332,731904,0.0-170.0-1.0,null,<p></p>,,null,,,,,,,,,,,,,,,,
,do_trial,333,734948,0.0-171.0-0.0,495.4,,,,49,"0,0,0",6,blank,392,null,0.655893768,0.226099656,0.057206936,0,,,,,,
,html-keyboard-response,334,735958,0.0-171.0-1.0,null,<p></p>,,null,,,,,,,,,,,,,,,,
,do_trial,335,739141,0.0-172.0-0.0,638.2,,,,49,"1,1,0",6,blank,393,null,0.740531385,0.196876989,0.081295365,1,,,,,,
,html-keyboard-response,336,740150,0.0-172.0-1.0,null,<p></p>,,null,,,,,,,,,,,,,,,,
,do_trial,337,743024,0.0-173.0-0.0,330.2,,,,51,"0,1,0",6,blank,394,null,0.62052001,0.278499136,0.054334122,0,,,,,,
,html-keyboard-response,338,744035,0.0-173.0-1.0,null,<p></p>,,null,,,,,,,,,,,,,,,,
,do_trial,339,747223,0.0-174.0-0.0,648.5,,,,51,"1,1,0",6,blank,395,null,0.523337242,0.379163873,0.087819631,0,,,,,,
,html-keyboard-response,340,748233,0.0-174.0-1.0,null,<p></p>,,null,,,,,,,,,,,,,,,,
,do_recog,341,752186,0.0-175.0-0.0,2447.4,,,,54,,,,396,probe-138,,,,,1,[object Object],87,2,1,
,html-keyboard-response,342,753199,0.0-175.0-1.0,null,<p></p>,,null,,,,,,,,,,,,,,,,
,do_trial,343,756753,0.0-176.0-0.0,1003.3,,,,49,"0,0,1",6,blank,397,null,0.596502321,0.311735605,0.140611892,0,,,,,,
,html-keyboard-response,344,757764,0.0-176.0-1.0,null,<p></p>,,null,,,,,,,,,,,,,,,,
,do_recog,345,761531,0.0-177.0-0.0,2261.4,,,,54,,,,398,probe-211,,,,,1,[object Object],41,1,1,
,html-keyboard-response,346,762544,0.0-177.0-1.0,null,<p></p>,,null,,,,,,,,,,,,,,,,
,do_trial,347,767797,0.0-178.0-0.0,2702.1,,,,51,"0,1,0",6,blank,399,null,0.594309402,0.538431471,0.209534794,0,,,,,,
,html-keyboard-response,348,768806,0.0-178.0-1.0,null,<p></p>,,null,,,,,,,,,,,,,,,,
,do_recog,349,772522,0.0-179.0-0.0,2202.1,,,,56,,,,400,probe-48,,,,,1,[object Object],204,5,0,
,html-keyboard-response,350,773531,0.0-179.0-1.0,null,<p></p>,,null,,,,,,,,,,,,,,,,
,do_trial,351,776702,0.0-180.0-0.0,626.6,,,,49,"0,1,0",6,blank,401,null,0.487839481,0.478081355,0.169378586,0,,,,,,
,html-keyboard-response,352,777711,0.0-180.0-1.0,null,<p></p>,,null,,,,,,,,,,,,,,,,
,do_recog,353,781255,0.0-181.0-0.0,2029,,,,56,,,,402,probe-148,,,,,1,[object Object],208,5,0,
,html-keyboard-response,354,782265,0.0-181.0-1.0,null,<p></p>,,null,,,,,,,,,,,,,,,,
,do_trial,355,785388,0.0-182.0-0.0,585.2,,,,51,"0,0,0",6,blank,403,null,0.391829705,0.52213719,0.081961481,0,,,,,,
,html-keyboard-response,356,786397,0.0-182.0-1.0,null,<p></p>,,null,,,,,,,,,,,,,,,,
,do_recog,357,790473,0.0-183.0-0.0,2563,,,,55,,,,404,probe-03,,,,,1,[object Object],202,5,0,
,html-keyboard-response,358,791483,0.0-183.0-1.0,null,<p></p>,,null,,,,,,,,,,,,,,,,
,do_trial,359,794559,0.0-184.0-0.0,530.4,,,,49,"0,1,0",6,blank,405,null,0.410469993,0.671464814,0.073833299,0,,,,,,
,html-keyboard-response,360,795569,0.0-184.0-1.0,null,<p></p>,,null,,,,,,,,,,,,,,,,
,do_recog,361,798645,0.0-185.0-0.0,1570.8,,,,56,,,,406,probe-15,,,,,1,[object Object],201,5,0,
,html-keyboard-response,362,799656,0.0-185.0-1.0,null,<p></p>,,null,,,,,,,,,,,,,,,,
,do_trial,363,802607,0.0-186.0-0.0,401.2,,,,51,"0,1,0",6,blank,407,null,0.292836478,0.66112245,0.141060295,0,,,,,,
,html-keyboard-response,364,803617,0.0-186.0-1.0,null,<p></p>,,null,,,,,,,,,,,,,,,,
,do_trial,365,806649,0.0-187.0-0.0,486.4,,,,49,"0,0,0",6,blank,408,null,0.220087913,0.58271997,0.108619949,0,,,,,,
,html-keyboard-response,366,807659,0.0-187.0-1.0,null,<p></p>,,null,,,,,,,,,,,,,,,,
,do_trial,367,810783,0.0-188.0-0.0,579.8,,,,50,"0,1,0",6,blank,409,null,0.174503889,0.514599641,0.073148723,1,,,,,,
,html-keyboard-response,368,811793,0.0-188.0-1.0,null,<p></p>,,null,,,,,,,,,,,,,,,,
,do_recog,369,814841,0.0-189.0-0.0,1542.1,,,,56,,,,410,probe-16,,,,,1,[object Object],85,2,0,
,html-keyboard-response,370,815852,0.0-189.0-1.0,null,<p></p>,,null,,,,,,,,,,,,,,,,
,do_trial,371,819147,0.0-190.0-0.0,756.4,,,,51,"0,0,0",6,blank,411,null,0.229181625,0.413136284,0.137179142,0,,,,,,
,html-keyboard-response,372,820155,0.0-190.0-1.0,null,<p></p>,,null,,,,,,,,,,,,,,,,
,do_recog,373,823265,0.0-191.0-0.0,1592,,,,56,,,,412,probe-41,,,,,1,[object Object],206,5,0,
,html-keyboard-response,374,824275,0.0-191.0-1.0,null,<p></p>,,null,,,,,,,,,,,,,,,,
,do_trial,375,827759,0.0-192.0-0.0,939.2,,,,51,"0,0,0",6,blank,413,null,0.206361406,0.368387113,0.08470649,0,,,,,,
,html-keyboard-response,376,828770,0.0-192.0-1.0,null,<p></p>,,null,,,,,,,,,,,,,,,,
,do_trial,377,832079,0.0-193.0-0.0,773.4,,,,49,"0,1,0",6,blank,414,null,0.351273329,0.589935896,0.097114133,0,,,,,,
,html-keyboard-response,378,833089,0.0-193.0-1.0,null,<p></p>,,null,,,,,,,,,,,,,,,,
,do_trial,379,836212,0.0-194.0-0.0,582.7,,,,50,"0,0,0",6,blank,415,null,0.391487152,0.515726885,0.066891858,0,,,,,,
,html-keyboard-response,380,837224,0.0-194.0-1.0,null,<p></p>,,null,,,,,,,,,,,,,,,,
,do_trial,381,840626,0.0-195.0-0.0,865.1,,,,51,"1,1,0",6,blank,416,null,0.344542449,0.508836448,0.165060022,0,,,,,,
,html-keyboard-response,382,841636,0.0-195.0-1.0,null,<p></p>,,null,,,,,,,,,,,,,,,,
,do_trial,383,844680,0.0-196.0-0.0,510.2,,,,49,"0,1,0",6,blank,417,null,0.398474458,0.523122668,0.187484257,0,,,,,,
,html-keyboard-response,384,845690,0.0-196.0-1.0,null,<p></p>,,null,,,,,,,,,,,,,,,,
,do_recog,385,849342,0.0-197.0-0.0,2137.8,,,,53,,,,418,probe-40,,,,,1,[object Object],49,1,1,
,html-keyboard-response,386,850352,0.0-197.0-1.0,null,<p></p>,,null,,,,,,,,,,,,,,,,
,do_trial,387,853473,0.0-198.0-0.0,572.4,,,,50,"0,1,0",6,blank,419,null,0.33574689,0.514913758,0.171985608,1,,,,,,
,html-keyboard-response,388,854481,0.0-198.0-1.0,null,<p></p>,,null,,,,,,,,,,,,,,,,
,do_recog,389,858163,0.0-199.0-0.0,2175.4,,,,55,,,,420,probe-217,,,,,1,[object Object],122,3,0,
,html-keyboard-response,390,859175,0.0-199.0-1.0,null,<p></p>,,null,,,,,,,,,,,,,,,,
,do_trial,391,862298,0.0-200.0-0.0,581.2,,,,49,"0,1,1",6,blank,421,null,0.361087969,0.51208767,0.142625332,0,,,,,,
,html-keyboard-response,392,863307,0.0-200.0-1.0,null,<p></p>,,null,,,,,,,,,,,,,,,,
,do_recog,393,867071,0.0-201.0-0.0,2255.3,,,,53,,,,422,probe-181,,,,,1,[object Object],162,4,1,
,html-keyboard-response,394,868081,0.0-201.0-1.0,null,<p></p>,,null,,,,,,,,,,,,,,,,
,do_trial,395,871358,0.0-202.0-0.0,732,,,,50,"1,0,0",6,blank,423,null,0.359421993,0.474824206,0.077054208,0,,,,,,
,html-keyboard-response,396,872368,0.0-202.0-1.0,null,<p></p>,,null,,,,,,,,,,,,,,,,
,do_trial,397,875588,0.0-203.0-0.0,673.9,,,,51,"0,1,0",6,blank,424,null,0.351768019,0.586060419,0.069416307,0,,,,,,
,html-keyboard-response,398,876597,0.0-203.0-1.0,null,<p></p>,,null,,,,,,,,,,,,,,,,
,do_recog,399,879877,0.0-204.0-0.0,1770.5,,,,53,,,,425,probe-81,,,,,1,[object Object],167,4,1,
,html-keyboard-response,400,880888,0.0-204.0-1.0,null,<p></p>,,null,,,,,,,,,,,,,,,,
,do_trial,401,883685,0.0-205.0-0.0,256,,,,49,"0,1,0",6,blank,426,null,0.366380719,0.703131237,0.079066665,0,,,,,,
,html-keyboard-response,402,884696,0.0-205.0-1.0,null,<p></p>,,null,,,,,,,,,,,,,,,,
,do_recog,403,887853,0.0-206.0-0.0,1641.9,,,,53,,,,427,probe-85,,,,,1,[object Object],44,1,1,
,html-keyboard-response,404,888864,0.0-206.0-1.0,null,<p></p>,,null,,,,,,,,,,,,,,,,
,do_trial,405,891971,0.0-207.0-0.0,569.8,,,,51,"0,0,0",6,blank,428,null,0.400337479,0.651386907,0.198079167,0,,,,,,
,html-keyboard-response,406,892983,0.0-207.0-1.0,null,<p></p>,,null,,,,,,,,,,,,,,,,
,do_trial,407,897538,0.0-208.0-0.0,2014,,,,51,"1,0,0",6,blank,429,null,0.37643302,0.538206443,0.232571013,0,,,,,,
,html-keyboard-response,408,898552,0.0-208.0-1.0,null,<p></p>,,null,,,,,,,,,,,,,,,,
,do_trial,409,902065,0.0-209.0-0.0,970.8,,,,49,"1,0,0",6,blank,430,null,0.400720069,0.661036812,0.178117769,1,,,,,,
,html-keyboard-response,410,903074,0.0-209.0-1.0,null,<p></p>,,null,,,,,,,,,,,,,,,,
,do_trial,411,906212,0.0-210.0-0.0,602.3,,,,51,"0,1,0",6,blank,431,null,0.279404837,0.695189817,0.106904808,0,,,,,,
,html-keyboard-response,412,907224,0.0-210.0-1.0,null,<p></p>,,null,,,,,,,,,,,,,,,,
,do_trial,413,910380,0.0-211.0-0.0,614.5,,,,51,"0,1,0",6,blank,432,null,0.207851243,0.768402417,0.296691516,0,,,,,,
,html-keyboard-response,414,911390,0.0-211.0-1.0,null,<p></p>,,null,,,,,,,,,,,,,,,,
,do_trial,415,914392,0.0-212.0-0.0,453.8,,,,50,"0,0,1",6,blank,433,null,0.197048815,0.709722712,0.270908314,0,,,,,,
,html-keyboard-response,416,915407,0.0-212.0-1.0,null,<p></p>,,null,,,,,,,,,,,,,,,,
,do_recog,417,919016,0.0-213.0-0.0,2092.2,,,,56,,,,434,probe-123,,,,,1,[object Object],125,3,0,
,html-keyboard-response,418,920025,0.0-213.0-1.0,null,<p></p>,,null,,,,,,,,,,,,,,,,
,do_trial,419,924782,0.0-214.0-0.0,2212.4,,,,50,"0,1,0",6,blank,435,null,0.273365712,0.681081712,0.220267591,1,,,,,,
,html-keyboard-response,420,925791,0.0-214.0-1.0,null,<p></p>,,null,,,,,,,,,,,,,,,,
,do_recog,421,929488,0.0-215.0-0.0,2181.1,,,,56,,,,436,probe-204,,,,,1,[object Object],200,5,0,
,html-keyboard-response,422,930499,0.0-215.0-1.0,null,<p></p>,,null,,,,,,,,,,,,,,,,
,do_trial,423,934012,0.0-216.0-0.0,978,,,,49,"1,1,0",6,blank,437,null,0.304687876,0.573067382,0.179597794,1,,,,,,
,html-keyboard-response,424,935023,0.0-216.0-1.0,null,<p></p>,,null,,,,,,,,,,,,,,,,
,do_trial,425,938316,0.0-217.0-0.0,743.9,,,,50,"0,1,0",6,blank,438,null,0.378253687,0.595496516,0.305909992,1,,,,,,
,html-keyboard-response,426,939326,0.0-217.0-1.0,null,<p></p>,,null,,,,,,,,,,,,,,,,
,do_trial,427,942545,0.0-218.0-0.0,670.9,,,,51,"1,0,0",6,blank,439,null,0.401599011,0.480547494,0.176422263,0,,,,,,
,html-keyboard-response,428,943555,0.0-218.0-1.0,null,<p></p>,,null,,,,,,,,,,,,,,,,
,do_trial,429,946819,0.0-219.0-0.0,724.2,,,,49,"0,1,0",6,blank,440,null,0.403330011,0.649844395,0.167314392,0,,,,,,
,html-keyboard-response,430,947829,0.0-219.0-1.0,null,<p></p>,,null,,,,,,,,,,,,,,,,
,do_trial,431,950813,0.0-220.0-0.0,440.7,,,,51,"0,1,0",6,blank,441,null,0.320793305,0.607028731,0.069734868,0,,,,,,
,html-keyboard-response,432,951822,0.0-220.0-1.0,null,<p></p>,,null,,,,,,,,,,,,,,,,
,do_trial,433,955118,0.0-221.0-0.0,744,,,,50,"0,1,0",6,blank,442,null,0.295064929,0.559395074,0.062597935,1,,,,,,
,html-keyboard-response,434,956127,0.0-221.0-1.0,null,<p></p>,,null,,,,,,,,,,,,,,,,
,do_trial,435,959126,0.0-222.0-0.0,455.2,,,,49,"0,1,0",6,blank,443,null,0.258292386,0.534174056,0.066269657,0,,,,,,
,html-keyboard-response,436,960137,0.0-222.0-1.0,null,<p></p>,,null,,,,,,,,,,,,,,,,
,do_recog,437,963497,0.0-223.0-0.0,1852.4,,,,56,,,,444,probe-245,,,,,0,[object Object],null,null,1,
,html-keyboard-response,438,964507,0.0-223.0-1.0,null,<p></p>,,null,,,,,,,,,,,,,,,,
,do_trial,439,967836,0.0-224.0-0.0,780.7,,,,51,"0,0,0",6,blank,445,null,0.165432482,0.515879759,0.089162882,0,,,,,,
,html-keyboard-response,440,968848,0.0-224.0-1.0,null,<p></p>,,null,,,,,,,,,,,,,,,,
,do_trial,441,971872,0.0-225.0-0.0,481.8,,,,49,"0,0,0",6,blank,446,null,0.373736992,0.504464286,0.117076615,0,,,,,,
,html-keyboard-response,442,972882,0.0-225.0-1.0,null,<p></p>,,null,,,,,,,,,,,,,,,,
,do_trial,443,976095,0.0-226.0-0.0,679.4,,,,51,"0,0,0",6,blank,447,null,0.221538596,0.7315572,0.096569362,0,,,,,,
,html-keyboard-response,444,977105,0.0-226.0-1.0,null,<p></p>,,null,,,,,,,,,,,,,,,,
,do_trial,445,980664,0.0-227.0-0.0,1013.6,,,,49,"1,1,0",6,blank,448,null,0.390323409,0.639803332,0.082086247,1,,,,,,
,html-keyboard-response,446,981678,0.0-227.0-1.0,null,<p></p>,,null,,,,,,,,,,,,,,,,
,do_trial,447,984549,0.0-228.0-0.0,325.6,,,,51,"0,0,0",6,blank,449,null,0.41033197,0.797446712,0.321215956,0,,,,,,
,html-keyboard-response,448,985559,0.0-228.0-1.0,null,<p></p>,,null,,,,,,,,,,,,,,,,
,do_trial,449,988525,0.0-229.0-0.0,419.8,,,,50,"1,1,0",6,blank,450,null,0.325247827,0.768351185,0.275306563,1,,,,,,
,html-keyboard-response,450,989536,0.0-229.0-1.0,null,<p></p>,,null,,,,,,,,,,,,,,,,
,do_recog,451,993236,0.0-230.0-0.0,2193.6,,,,56,,,,451,probe-250,,,,,0,[object Object],null,null,1,
,html-keyboard-response,452,994246,0.0-230.0-1.0,null,<p></p>,,null,,,,,,,,,,,,,,,,
,do_trial,453,997384,0.0-231.0-0.0,596.9,,,,49,"0,1,0",6,blank,452,null,0.123819098,0.678283553,0.223313479,0,,,,,,
,html-keyboard-response,454,998396,0.0-231.0-1.0,null,<p></p>,,null,,,,,,,,,,,,,,,,
,do_recog,455,1001705,0.0-232.0-0.0,1795.4,,,,56,,,,453,probe-247,,,,,0,[object Object],null,null,1,
,html-keyboard-response,456,1002713,0.0-232.0-1.0,null,<p></p>,,null,,,,,,,,,,,,,,,,
,do_trial,457,1005945,0.0-233.0-0.0,686.1,,,,51,"0,1,0",6,blank,454,null,0.059061747,0.533550021,0.293397206,0,,,,,,
,html-keyboard-response,458,1006956,0.0-233.0-1.0,null,<p></p>,,null,,,,,,,,,,,,,,,,
,do_trial,459,1010283,0.0-234.0-0.0,790.6,,,,49,"0,1,1",6,blank,455,null,0.113930172,0.47530277,0.350636634,0,,,,,,
,html-keyboard-response,460,1011291,0.0-234.0-1.0,null,<p></p>,,null,,,,,,,,,,,,,,,,
,do_trial,461,1014414,0.0-235.0-0.0,581.9,,,,50,"0,0,0",6,blank,456,null,0.118565397,0.334699171,0.393203176,0,,,,,,
,html-keyboard-response,462,1015424,0.0-235.0-1.0,null,<p></p>,,null,,,,,,,,,,,,,,,,
,do_trial,463,1018475,0.0-236.0-0.0,514.5,,,,51,"0,0,0",6,blank,457,null,0.065734669,0.343786656,0.421838589,0,,,,,,
,html-keyboard-response,464,1019486,0.0-236.0-1.0,null,<p></p>,,null,,,,,,,,,,,,,,,,
,do_trial,465,1022285,0.0-237.0-0.0,256.3,,,,49,"0,0,1",6,blank,458,null,0.088698257,0.289448948,0.560621465,0,,,,,,
,html-keyboard-response,466,1023291,0.0-237.0-1.0,null,<p></p>,,null,,,,,,,,,,,,,,,,
,do_recog,467,1026839,0.0-238.0-0.0,2041.2,,,,56,,,,459,probe-237,,,,,0,[object Object],null,null,1,
,html-keyboard-response,468,1027848,0.0-238.0-1.0,null,<p></p>,,null,,,,,,,,,,,,,,,,
,do_trial,469,1031631,0.0-239.0-0.0,1241.8,,,,51,"0,0,1",6,blank,460,null,0.348020803,0.081795921,0.561755689,1,,,,,,
,html-keyboard-response,470,1032640,0.0-239.0-1.0,null,<p></p>,,null,,,,,,,,,,,,,,,,
,do_recog,471,1036117,0.0-240.0-0.0,1973.7,,,,55,,,,461,probe-239,,,,,0,[object Object],null,null,1,
,html-keyboard-response,472,1037127,0.0-240.0-1.0,null,<p></p>,,null,,,,,,,,,,,,,,,,
,do_trial,473,1040835,0.0-241.0-0.0,1157.4,,,,49,"0,0,0",6,blank,462,null,0.322591226,0.060902605,0.57233838,0,,,,,,
,html-keyboard-response,474,1041846,0.0-241.0-1.0,null,<p></p>,,null,,,,,,,,,,,,,,,,
,do_trial,475,1044988,0.0-242.0-0.0,594.3,,,,51,"1,1,1",6,blank,463,null,0.381945822,0.08321499,0.608280244,1,,,,,,
,html-keyboard-response,476,1046000,0.0-242.0-1.0,null,<p></p>,,null,,,,,,,,,,,,,,,,
,do_trial,477,1048953,0.0-243.0-0.0,417.2,,,,49,"1,0,1",6,blank,464,null,0.527560647,0.091447867,0.569373305,1,,,,,,
,html-keyboard-response,478,1049964,0.0-243.0-1.0,null,<p></p>,,null,,,,,,,,,,,,,,,,
,do_recog,479,1053326,0.0-244.0-0.0,1843.7,,,,56,,,,465,probe-234,,,,,0,[object Object],null,null,1,
,html-keyboard-response,480,1054336,0.0-244.0-1.0,null,<p></p>,,null,,,,,,,,,,,,,,,,
,do_trial,481,1057476,0.0-245.0-0.0,598.1,,,,49,"1,0,0",6,blank,466,null,0.394356637,0.206788449,0.45317295,1,,,,,,
,html-keyboard-response,482,1058488,0.0-245.0-1.0,null,<p></p>,,null,,,,,,,,,,,,,,,,
,do_trial,483,1061706,0.0-246.0-0.0,674.6,,,,50,"1,0,0",6,blank,467,null,0.252969212,0.100086912,0.543105413,0,,,,,,
,html-keyboard-response,484,1062714,0.0-246.0-1.0,null,<p></p>,,null,,,,,,,,,,,,,,,,
,do_trial,485,1065899,0.0-247.0-0.0,634.9,,,,51,"0,1,0",6,blank,468,null,0.067769211,0.182705551,0.365172331,0,,,,,,
,html-keyboard-response,486,1066910,0.0-247.0-1.0,null,<p></p>,,null,,,,,,,,,,,,,,,,
,do_trial,487,1070110,0.0-248.0-0.0,657.3,,,,49,"0,0,1",6,blank,469,null,0.156850637,0.089720658,0.456994444,0,,,,,,
,html-keyboard-response,488,1071119,0.0-248.0-1.0,null,<p></p>,,null,,,,,,,,,,,,,,,,
,do_recog,489,1074507,0.0-249.0-0.0,1883.3,,,,56,,,,470,probe-243,,,,,0,[object Object],null,null,1,
,html-keyboard-response,490,1075517,0.0-249.0-1.0,null,<p></p>,,null,,,,,,,,,,,,,,,,
,do_trial,491,1078940,0.0-250.0-0.0,876.6,,,,49,"0,0,1",6,blank,471,null,0.252668255,0.129751772,0.592990474,0,,,,,,
,html-keyboard-response,492,1079951,0.0-250.0-1.0,null,<p></p>,,null,,,,,,,,,,,,,,,,
,do_recog,493,1083246,0.0-251.0-0.0,1784.7,,,,56,,,,472,probe-246,,,,,0,[object Object],null,null,1,
,html-keyboard-response,494,1084257,0.0-251.0-1.0,null,<p></p>,,null,,,,,,,,,,,,,,,,
,do_trial,495,1087819,0.0-252.0-0.0,1025.2,,,,49,"0,0,0",6,blank,473,null,0.181414641,0.221691512,0.57952786,0,,,,,,
,html-keyboard-response,496,1088831,0.0-252.0-1.0,null,<p></p>,,null,,,,,,,,,,,,,,,,
,do_trial,497,1091786,0.0-253.0-0.0,414.7,,,,51,"0,0,1",6,blank,474,null,0.32421931,0.114531505,0.595989103,1,,,,,,
,html-keyboard-response,498,1092796,0.0-253.0-1.0,null,<p></p>,,null,,,,,,,,,,,,,,,,
,do_trial,499,1095890,0.0-254.0-0.0,548.9,,,,50,"0,0,1",6,blank,475,null,0.366929602,0.104992857,0.56264964,0,,,,,,
,html-keyboard-response,500,1096900,0.0-254.0-1.0,null,<p></p>,,null,,,,,,,,,,,,,,,,
,do_trial,501,1099774,0.0-255.0-0.0,336,,,,51,"0,0,0",6,blank,476,null,0.355748225,0.077319674,0.639355632,0,,,,,,
,html-keyboard-response,502,1100786,0.0-255.0-1.0,null,<p></p>,,null,,,,,,,,,,,,,,,,
,do_trial,503,1103790,0.0-256.0-0.0,465.2,,,,49,"0,0,0",6,blank,477,null,0.232754711,0.165624063,0.63633719,0,,,,,,
,html-keyboard-response,504,1104800,0.0-256.0-1.0,null,<p></p>,,null,,,,,,,,,,,,,,,,
,do_trial,505,1107536,0.0-257.0-0.0,188.2,,,,51,"1,0,0",6,blank,478,null,0.326457423,0.075398439,0.526853266,0,,,,,,
,html-keyboard-response,506,1108547,0.0-257.0-1.0,null,<p></p>,,null,,,,,,,,,,,,,,,,
,do_recog,507,1111748,0.0-258.0-0.0,1692.7,,,,56,,,,479,probe-253,,,,,0,[object Object],null,null,1,
,html-keyboard-response,508,1112756,0.0-258.0-1.0,null,<p></p>,,null,,,,,,,,,,,,,,,,
,do_pick_best_pirate,509,1114360,0.0-259.0-0.0,596.4,,,,49,,,,,,,,,,,,,,,
,do_pick_best_pirate,510,1116771,0.0-260.0-0.0,1406.5,,,,51,,,,,,,,,,,,,,,
,do_pick_best_pirate,511,1119150,0.0-261.0-0.0,1372.9,,,,51,,,,,,,,,,,,,,,
,do_pick_best_pirate,512,1121573,0.0-262.0-0.0,1408.4,,,,49,,,,,,,,,,,,,,,
,do_pick_best_pirate,513,1123495,0.0-263.0-0.0,915.8,,,,50,,,,,,,,,,,,,,,
,do_pick_best_pirate,514,1125817,0.0-264.0-0.0,1311,,,,51,,,,,,,,,,,,,,,
,html-keyboard-response,515,1128783,0.0-265.0-0.0,2964.4,<p>You are all done with the experiment!</p><p> You made $15 plus $1 in bonus payment!</p><p>Thank you for participating. You will recieve your payment within 3 days.<p><b>[Press the space bar to end the experiment]</b></p></div>,,32,,,,,,,,,,,,,,,,