"success","trial_type","trial_index","time_elapsed","internal_node_id","interactions","blur_events","focus_events","fullscreenenter_events","fullscreenexit_events","rt","stimulus","key_press","subject_id","participant_id","age","gender","prompt","response","choice_outcomes","context_n","context_img_id","trial_n","probe_img_id","pR_red","pR_white","pR_black","outcome","is_valid","image_to_show","probed_trial","probed_context","correct","probe","probed_trial_n","probed_context_n","context_im"
"true","fullscreen","0","3832","0.0-0.0","""event"",""trial"",""time""
""fullscreenenter"",""0"",""2849""
","
","
","""event"",""trial"",""time""
""fullscreenenter"",""0"",""2849""
","
","","","","","","","","","","","","","","","","","","","","","","","","","","",""
"","pavlovia","1","3841","0.0-1.0","""event"",""trial"",""time""
""fullscreenenter"",""0"",""2849""
","
","
","""event"",""trial"",""time""
""fullscreenenter"",""0"",""2849""
","
","","","","","","","","","","","","","","","","","","","","","","","","","","",""
"","welc_back","2","13657","0.0-2.0","""event"",""trial"",""time""
""fullscreenenter"",""0"",""2849""
","
","
","""event"",""trial"",""time""
""fullscreenenter"",""0"",""2849""
","
","null","run_exp/static/audio/clip_29_welcome_back.m4a","null","396","702","9","Male","<div class='center'><p>Welcome to day 2!</p><p> Yesterday, you were the head captain of a pirate ship. You asked your fellow pirates to rob other ships of their gold across six different islands.</p></div>","","","","","","","","","","","","","","","","","","",""
"","html-keyboard-response","3","14897","0.0-3.0","""event"",""trial"",""time""
""fullscreenenter"",""0"",""2849""
""fullscreenexit"",""4"",""24566""
""blur"",""4"",""24574""
""focus"",""4"",""28847""
","""event"",""trial"",""time""
""blur"",""4"",""24574""
","""event"",""trial"",""time""
""focus"",""4"",""28847""
","""event"",""trial"",""time""
""fullscreenenter"",""0"",""2849""
","""event"",""trial"",""time""
""fullscreenexit"",""4"",""24566""
","1236.5999999940395","<div class='center'><p>Welcome to day 2!</p><p> Yesterday, you were the head captain of a pirate ship. You asked your fellow pirates to rob other ships of their gold across six different islands.</p><p><b>[Press the space bar to continue]</b></p></div>","32","","","","","","","","","","","","","","","","","","","","","","","",""
"","day_1_summary_goal","4","32116","0.0-4.0","""event"",""trial"",""time""
""fullscreenenter"",""0"",""2849""
""fullscreenexit"",""4"",""24566""
""blur"",""4"",""24574""
""focus"",""4"",""28847""
","""event"",""trial"",""time""
""blur"",""4"",""24574""
","""event"",""trial"",""time""
""focus"",""4"",""28847""
","""event"",""trial"",""time""
""fullscreenenter"",""0"",""2849""
","""event"",""trial"",""time""
""fullscreenexit"",""4"",""24566""
","null","run_exp/static/audio/clip_30_goal_of_game.m4a","null","","","","","<div class='center'><p>Today, like yesterday, you get to pick which pirate you want to rob the next ship.</p><p>If the pirate is successful in robbing a ship, you get gold coins that look like this: </p><p><img src='run_exp/static/images/tutorial/reward.png' height='150'></p><p> If they were not successful in robbing the ship, then you will get no gold coins and you'll see a big red x like this: </p><p><img src='run_exp/static/images/tutorial/reward_no.png' height='150'></p></div>","","","","","","","","","","","","","","","","","","",""
"","html-keyboard-response","5","34431","0.0-5.0","""event"",""trial"",""time""
""fullscreenenter"",""0"",""2849""
""fullscreenexit"",""4"",""24566""
""blur"",""4"",""24574""
""focus"",""4"",""28847""
","""event"",""trial"",""time""
""blur"",""4"",""24574""
","""event"",""trial"",""time""
""focus"",""4"",""28847""
","""event"",""trial"",""time""
""fullscreenenter"",""0"",""2849""
","""event"",""trial"",""time""
""fullscreenexit"",""4"",""24566""
","2312.0999999940395","<div class='center'><p>Today, like yesterday, you get to pick which pirate you want to rob the next ship.</p><p>If the pirate is successful in robbing a ship, you get gold coins that look like this: </p><p><img src='run_exp/static/images/tutorial/reward.png' height='150'></p><p> If they were not successful in robbing the ship, then you will get no gold coins and you'll see a big red x like this: </p><p><img src='run_exp/static/images/tutorial/reward_no.png' height='150'></p><p><b>[Press the space bar to continue]</b></p></div>","32","","","","","","","","","","","","","","","","","","","","","","","",""
"","day_1_summary_pick","6","49136","0.0-6.0","""event"",""trial"",""time""
""fullscreenenter"",""0"",""2849""
""fullscreenexit"",""4"",""24566""
""blur"",""4"",""24574""
""focus"",""4"",""28847""
","""event"",""trial"",""time""
""blur"",""4"",""24574""
","""event"",""trial"",""time""
""focus"",""4"",""28847""
","""event"",""trial"",""time""
""fullscreenenter"",""0"",""2849""
","""event"",""trial"",""time""
""fullscreenexit"",""4"",""24566""
","null","run_exp/static/audio/clip_31_how_to_pick_a_pirate.m4a","null","","","","","<div class='center'><p>Also, just like yesterday, you will use the 1,2,3 keys on your keyboard to pick a pirate. Press '1' to choose red beard, '2' to choose white beard, and '3' to choose black beard . You only have 3 seconds to pick a pirate, so please make a choice quickly!</p></div>","","","","","","","","","","","","","","","","","","",""
"","html-keyboard-response","7","63266","0.0-7.0","""event"",""trial"",""time""
""fullscreenenter"",""0"",""2849""
""fullscreenexit"",""4"",""24566""
""blur"",""4"",""24574""
""focus"",""4"",""28847""
","""event"",""trial"",""time""
""blur"",""4"",""24574""
","""event"",""trial"",""time""
""focus"",""4"",""28847""
","""event"",""trial"",""time""
""fullscreenenter"",""0"",""2849""
","""event"",""trial"",""time""
""fullscreenexit"",""4"",""24566""
","14126.89999999106","<div class='center'><p>Also, just like yesterday, you will use the 1,2,3 keys on your keyboard to pick a pirate. Press '1' to choose red beard, '2' to choose white beard, and '3' to choose black beard . You only have 3 seconds to pick a pirate, so please make a choice quickly!</p><p><b>[Press the space bar to continue]</b></p></div>","32","","","","","","","","","","","","","","","","","","","","","","","",""
"","test_phase_begin","8","93645","0.0-8.0","""event"",""trial"",""time""
""fullscreenenter"",""0"",""2849""
""fullscreenexit"",""4"",""24566""
""blur"",""4"",""24574""
""focus"",""4"",""28847""
","""event"",""trial"",""time""
""blur"",""4"",""24574""
","""event"",""trial"",""time""
""focus"",""4"",""28847""
","""event"",""trial"",""time""
""fullscreenenter"",""0"",""2849""
","""event"",""trial"",""time""
""fullscreenexit"",""4"",""24566""
","null","run_exp/static/audio/clip_32_final_place.m4a","null","","","","","<div class='center'><p>You’ve arrived at the final island of your journey! Unfortunately, it’s very foggy out, so you won’t be able to see it in the distance like the other islands you've visited.</p><p>You’ll still be deciding which pirate you want to rob a ship like before. However, because of the fog, you also won’t be able to see the ship.</p><p>This means you do not have to remember the ships you rob on this island.</p><p>Unlike yesterday, you won't be visiting multiple islands today. You will stay on this island for the entire game. This game will last ~30 minutes.</p></div>","","","","","","","","","","","","","","","","","","",""
"","html-keyboard-response","9","103056","0.0-9.0","""event"",""trial"",""time""
""fullscreenenter"",""0"",""2849""
""fullscreenexit"",""4"",""24566""
""blur"",""4"",""24574""
""focus"",""4"",""28847""
","""event"",""trial"",""time""
""blur"",""4"",""24574""
","""event"",""trial"",""time""
""focus"",""4"",""28847""
","""event"",""trial"",""time""
""fullscreenenter"",""0"",""2849""
","""event"",""trial"",""time""
""fullscreenexit"",""4"",""24566""
","9408.29999999702","<div class='center'><p>You’ve arrived at the final island of your journey! Unfortunately, it’s very foggy out, so you won’t be able to see it in the distance like the other islands you've visited.</p><p>You’ll still be deciding which pirate you want to rob a ship like before. However, because of the fog, you also won’t be able to see the ship.</p><p>This means you do not have to remember the ships you rob on this island.</p><p>Unlike yesterday, you won't be visiting multiple islands today. You will stay on this island for the entire game. This game will last ~30 minutes.</p><p><b>[Press the space bar to continue]</b></p></div>","32","","","","","","","","","","","","","","","","","","","","","","","",""
"","explain_probe_1","10","110785","0.0-10.0","""event"",""trial"",""time""
""fullscreenenter"",""0"",""2849""
""fullscreenexit"",""4"",""24566""
""blur"",""4"",""24574""
""focus"",""4"",""28847""
","""event"",""trial"",""time""
""blur"",""4"",""24574""
","""event"",""trial"",""time""
""focus"",""4"",""28847""
","""event"",""trial"",""time""
""fullscreenenter"",""0"",""2849""
","""event"",""trial"",""time""
""fullscreenexit"",""4"",""24566""
","null","run_exp/static/audio/clip_33_recognition_1.m4a","null","","","","","<div class='center'><p> Sometimes you’ll be shown a ship, and you will be asked if you saw this ship on a past island.</p><p> Here is an example of what you will see.</p><p><img src='run_exp/static/images/tutorial/example_recog_trial.png' height='500'></p></div>","","","","","","","","","","","","","","","","","","",""
"","html-keyboard-response","11","112111","0.0-11.0","""event"",""trial"",""time""
""fullscreenenter"",""0"",""2849""
""fullscreenexit"",""4"",""24566""
""blur"",""4"",""24574""
""focus"",""4"",""28847""
","""event"",""trial"",""time""
""blur"",""4"",""24574""
","""event"",""trial"",""time""
""focus"",""4"",""28847""
","""event"",""trial"",""time""
""fullscreenenter"",""0"",""2849""
","""event"",""trial"",""time""
""fullscreenexit"",""4"",""24566""
","1324.4000000059605","<div class='center'><p> Sometimes you’ll be shown a ship, and you will be asked if you saw this ship on a past island.</p><p> Here is an example of what you will see.</p><p><img src='run_exp/static/images/tutorial/example_recog_trial.png' height='500'></p><p><b>[Press the space bar to continue]</b></p></div>","32","","","","","","","","","","","","","","","","","","","","","","","",""
"","explain_probe_2","12","133845","0.0-12.0","""event"",""trial"",""time""
""fullscreenenter"",""0"",""2849""
""fullscreenexit"",""4"",""24566""
""blur"",""4"",""24574""
""focus"",""4"",""28847""
","""event"",""trial"",""time""
""blur"",""4"",""24574""
","""event"",""trial"",""time""
""focus"",""4"",""28847""
","""event"",""trial"",""time""
""fullscreenenter"",""0"",""2849""
","""event"",""trial"",""time""
""fullscreenexit"",""4"",""24566""
","null","run_exp/static/audio/clip_34_recognition_2.m4a","null","","","","","<div class='center'><p> You will press the 5, 6, 7, 8 keys on your keyboard to respond.</p><p>If you are sure you saw the ship, press <b>5</b> on your keyboard.</p><p> If you think you saw it before but aren't sure, then press <b>6</b>.</p><p> If you think you have <b>not</b> seen it before but aren't sure, then press <b>7</b>.</p><p> If you are sure you did <b>not</b> see the ship before, then press <b>8</b>.</p><p><img src='run_exp/static/images/tutorial/example_recog_trial.png' height='500'></p></div>","","","","","","","","","","","","","","","","","","",""
"","html-keyboard-response","13","135021","0.0-13.0","""event"",""trial"",""time""
""fullscreenenter"",""0"",""2849""
""fullscreenexit"",""4"",""24566""
""blur"",""4"",""24574""
""focus"",""4"",""28847""
","""event"",""trial"",""time""
""blur"",""4"",""24574""
","""event"",""trial"",""time""
""focus"",""4"",""28847""
","""event"",""trial"",""time""
""fullscreenenter"",""0"",""2849""
","""event"",""trial"",""time""
""fullscreenexit"",""4"",""24566""
","1174.4000000059605","<div class='center'><p> You will press the 5, 6, 7, 8 keys on your keyboard to respond.</p><p>If you are sure you saw the ship, press <b>5</b> on your keyboard.</p><p> If you think you saw it before but aren't sure, then press <b>6</b>.</p><p> If you think you have <b>not</b> seen it before but aren't sure, then press <b>7</b>.</p><p> If you are sure you did <b>not</b> see the ship before, then press <b>8</b>.</p><p><img src='run_exp/static/images/tutorial/example_recog_trial.png' height='500'></p><p><b>[Press the space bar to continue]</b></p></div>","32","","","","","","","","","","","","","","","","","","","","","","","",""
"","explain_outcome","14","152225","0.0-14.0","""event"",""trial"",""time""
""fullscreenenter"",""0"",""2849""
""fullscreenexit"",""4"",""24566""
""blur"",""4"",""24574""
""focus"",""4"",""28847""
","""event"",""trial"",""time""
""blur"",""4"",""24574""
","""event"",""trial"",""time""
""focus"",""4"",""28847""
","""event"",""trial"",""time""
""fullscreenenter"",""0"",""2849""
","""event"",""trial"",""time""
""fullscreenexit"",""4"",""24566""
","null","run_exp/static/audio/clip_35_recognition_3.m4a","null","","","","","<div class='center'><p> If you remember correctly, then you’ll get a gold coin like this: </p><p><img src='run_exp/static/images/tutorial/reward_small.png' height='200'></p><p>If you do not remember correctly, then you'll see a red x like this: </p><p><img src='run_exp/static/images/tutorial/reward_no.png' height='200'></p><p>Importantly, when you are shown a ship, take the time to remind yourself which island you saw it on. This will help you in the next part of the study.</p></div>","","","","","","","","","","","","","","","","","","",""
"","html-keyboard-response","15","153533","0.0-15.0","""event"",""trial"",""time""
""fullscreenenter"",""0"",""2849""
""fullscreenexit"",""4"",""24566""
""blur"",""4"",""24574""
""focus"",""4"",""28847""
","""event"",""trial"",""time""
""blur"",""4"",""24574""
","""event"",""trial"",""time""
""focus"",""4"",""28847""
","""event"",""trial"",""time""
""fullscreenenter"",""0"",""2849""
","""event"",""trial"",""time""
""fullscreenexit"",""4"",""24566""
","1306.2000000029802","<div class='center'><p> If you remember correctly, then you’ll get a gold coin like this: </p><p><img src='run_exp/static/images/tutorial/reward_small.png' height='200'></p><p>If you do not remember correctly, then you'll see a red x like this: </p><p><img src='run_exp/static/images/tutorial/reward_no.png' height='200'></p><p>Importantly, when you are shown a ship, take the time to remind yourself which island you saw it on. This will help you in the next part of the study.</p><p><b>[Press the space bar to continue]</b></p></div>","32","","","","","","","","","","","","","","","","","","","","","","","",""
"","begin_test_phase","16","169365","0.0-16.0","""event"",""trial"",""time""
""fullscreenenter"",""0"",""2849""
""fullscreenexit"",""4"",""24566""
""blur"",""4"",""24574""
""focus"",""4"",""28847""
","""event"",""trial"",""time""
""blur"",""4"",""24574""
","""event"",""trial"",""time""
""focus"",""4"",""28847""
","""event"",""trial"",""time""
""fullscreenenter"",""0"",""2849""
","""event"",""trial"",""time""
""fullscreenexit"",""4"",""24566""
","null","run_exp/static/audio/clip_36_begin_final.m4a","null","","","","","<div class='center'><p>Let's go over the important points again. Your job is to: </p><p>1. Pick the pirate who is best at robbing ships and will bring you back gold coins. </p><p>2. Correctly remember whether or not you saw a ship before. If you did see the ship before, remind yourself on which island you saw it. </p></div>","","","","","","","","","","","","","","","","","","",""
"","html-keyboard-response","17","171106","0.0-17.0","""event"",""trial"",""time""
""fullscreenenter"",""0"",""2849""
""fullscreenexit"",""4"",""24566""
""blur"",""4"",""24574""
""focus"",""4"",""28847""
","""event"",""trial"",""time""
""blur"",""4"",""24574""
","""event"",""trial"",""time""
""focus"",""4"",""28847""
","""event"",""trial"",""time""
""fullscreenenter"",""0"",""2849""
","""event"",""trial"",""time""
""fullscreenexit"",""4"",""24566""
","1629.7000000029802","<div class='center'><p>Let's go over the important points again. Your job is to: </p><p>1. Pick the pirate who is best at robbing ships and will bring you back gold coins. </p><p>2. Correctly remember whether or not you saw a ship before. If you did see the ship before, remind yourself on which island you saw it. </p><p><b>[Press the space bar to continue]</b></p></div>","32","","","","","","","","","","","","","","","","","","","","","","","",""
"","do_welcome","18","175127","0.0-18.0","""event"",""trial"",""time""
""fullscreenenter"",""0"",""2849""
""fullscreenexit"",""4"",""24566""
""blur"",""4"",""24574""
""focus"",""4"",""28847""
","""event"",""trial"",""time""
""blur"",""4"",""24574""
","""event"",""trial"",""time""
""focus"",""4"",""28847""
","""event"",""trial"",""time""
""fullscreenenter"",""0"",""2849""
","""event"",""trial"",""time""
""fullscreenexit"",""4"",""24566""
","null","","","","","","","","null","","","","","","","","","","","","","","","","","",""
"","do_trial","19","179022","0.0-19.0-0.0","""event"",""trial"",""time""
""fullscreenenter"",""0"",""2849""
""fullscreenexit"",""4"",""24566""
""blur"",""4"",""24574""
""focus"",""4"",""28847""
","""event"",""trial"",""time""
""blur"",""4"",""24574""
","""event"",""trial"",""time""
""focus"",""4"",""28847""
","""event"",""trial"",""time""
""fullscreenenter"",""0"",""2849""
","""event"",""trial"",""time""
""fullscreenexit"",""4"",""24566""
","1292.6000000089407","","","","","","","","51","0,0,0","6","blank","230","null","0.06532322026943366","0.24830558037196007","0.6434671751524519","0","","","","","","","","",""
"","html-keyboard-response","20","180039","0.0-19.0-1.0","""event"",""trial"",""time""
""fullscreenenter"",""0"",""2849""
""fullscreenexit"",""4"",""24566""
""blur"",""4"",""24574""
""focus"",""4"",""28847""
","""event"",""trial"",""time""
""blur"",""4"",""24574""
","""event"",""trial"",""time""
""focus"",""4"",""28847""
","""event"",""trial"",""time""
""fullscreenenter"",""0"",""2849""
","""event"",""trial"",""time""
""fullscreenexit"",""4"",""24566""
","null","<p></p>","null","","","","","","","","","","","","","","","","","","","","","","","",""
"","do_trial","21","183208","0.0-20.0-0.0","""event"",""trial"",""time""
""fullscreenenter"",""0"",""2849""
""fullscreenexit"",""4"",""24566""
""blur"",""4"",""24574""
""focus"",""4"",""28847""
","""event"",""trial"",""time""
""blur"",""4"",""24574""
","""event"",""trial"",""time""
""focus"",""4"",""28847""
","""event"",""trial"",""time""
""fullscreenenter"",""0"",""2849""
","""event"",""trial"",""time""
""fullscreenexit"",""4"",""24566""
","591.7999999970198","","","","","","","","49","0,0,1","6","blank","231","null","0.057452049136920584","0.27178570363400056","0.565784980613464","0","","","","","","","","",""
"","html-keyboard-response","22","184226","0.0-20.0-1.0","""event"",""trial"",""time""
""fullscreenenter"",""0"",""2849""
""fullscreenexit"",""4"",""24566""
""blur"",""4"",""24574""
""focus"",""4"",""28847""
","""event"",""trial"",""time""
""blur"",""4"",""24574""
","""event"",""trial"",""time""
""focus"",""4"",""28847""
","""event"",""trial"",""time""
""fullscreenenter"",""0"",""2849""
","""event"",""trial"",""time""
""fullscreenexit"",""4"",""24566""
","null","<p></p>","null","","","","","","","","","","","","","","","","","","","","","","","",""
"","do_trial","23","186943","0.0-21.0-0.0","""event"",""trial"",""time""
""fullscreenenter"",""0"",""2849""
""fullscreenexit"",""4"",""24566""
""blur"",""4"",""24574""
""focus"",""4"",""28847""
","""event"",""trial"",""time""
""blur"",""4"",""24574""
","""event"",""trial"",""time""
""focus"",""4"",""28847""
","""event"",""trial"",""time""
""fullscreenenter"",""0"",""2849""
","""event"",""trial"",""time""
""fullscreenexit"",""4"",""24566""
","134","","","","","","","","50","1,0,1","6","blank","232","null","0.08928899945581545","0.21566157055430427","0.5527503262258194","0","","","","","","","","",""
"","html-keyboard-response","24","187958","0.0-21.0-1.0","""event"",""trial"",""time""
""fullscreenenter"",""0"",""2849""
""fullscreenexit"",""4"",""24566""
""blur"",""4"",""24574""
""focus"",""4"",""28847""
","""event"",""trial"",""time""
""blur"",""4"",""24574""
","""event"",""trial"",""time""
""focus"",""4"",""28847""
","""event"",""trial"",""time""
""fullscreenenter"",""0"",""2849""
","""event"",""trial"",""time""
""fullscreenexit"",""4"",""24566""
","null","<p></p>","null","","","","","","","","","","","","","","","","","","","","","","","",""
"","do_trial","25","191106","0.0-22.0-0.0","""event"",""trial"",""time""
""fullscreenenter"",""0"",""2849""
""fullscreenexit"",""4"",""24566""
""blur"",""4"",""24574""
""focus"",""4"",""28847""
","""event"",""trial"",""time""
""blur"",""4"",""24574""
","""event"",""trial"",""time""
""focus"",""4"",""28847""
","""event"",""trial"",""time""
""fullscreenenter"",""0"",""2849""
","""event"",""trial"",""time""
""fullscreenexit"",""4"",""24566""
","578.9000000059605","","","","","","","","49","1,0,1","6","blank","233","null","0.1579101433684658","0.34213892229721915","0.6873089434472306","1","","","","","","","","",""
"","html-keyboard-response","26","192120","0.0-22.0-1.0","""event"",""trial"",""time""
""fullscreenenter"",""0"",""2849""
""fullscreenexit"",""4"",""24566""
""blur"",""4"",""24574""
""focus"",""4"",""28847""
","""event"",""trial"",""time""
""blur"",""4"",""24574""
","""event"",""trial"",""time""
""focus"",""4"",""28847""
","""event"",""trial"",""time""
""fullscreenenter"",""0"",""2849""
","""event"",""trial"",""time""
""fullscreenexit"",""4"",""24566""
","null","<p></p>","null","","","","","","","","","","","","","","","","","","","","","","","",""
"","do_trial","27","195212","0.0-23.0-0.0","""event"",""trial"",""time""
""fullscreenenter"",""0"",""2849""
""fullscreenexit"",""4"",""24566""
""blur"",""4"",""24574""
""focus"",""4"",""28847""
","""event"",""trial"",""time""
""blur"",""4"",""24574""
","""event"",""trial"",""time""
""focus"",""4"",""28847""
","""event"",""trial"",""time""
""fullscreenenter"",""0"",""2849""
","""event"",""trial"",""time""
""fullscreenexit"",""4"",""24566""
","510.29999999701977","","","","","","","","51","0,0,0","6","blank","234","null","0.06879248639048208","0.32453661554392815","0.5837092725775391","0","","","","","","","","",""
"","html-keyboard-response","28","196228","0.0-23.0-1.0","""event"",""trial"",""time""
""fullscreenenter"",""0"",""2849""
""fullscreenexit"",""4"",""24566""
""blur"",""4"",""24574""
""focus"",""4"",""28847""
","""event"",""trial"",""time""
""blur"",""4"",""24574""
","""event"",""trial"",""time""
""focus"",""4"",""28847""
","""event"",""trial"",""time""
""fullscreenenter"",""0"",""2849""
","""event"",""trial"",""time""
""fullscreenexit"",""4"",""24566""
","null","<p></p>","null","","","","","","","","","","","","","","","","","","","","","","","",""
"","do_trial","29","199375","0.0-24.0-0.0","""event"",""trial"",""time""
""fullscreenenter"",""0"",""2849""
""fullscreenexit"",""4"",""24566""
""blur"",""4"",""24574""
""focus"",""4"",""28847""
","""event"",""trial"",""time""
""blur"",""4"",""24574""
","""event"",""trial"",""time""
""focus"",""4"",""28847""
","""event"",""trial"",""time""
""fullscreenenter"",""0"",""2849""
","""event"",""trial"",""time""
""fullscreenexit"",""4"",""24566""
","577.7999999970198","","","","","","","","49","1,0,1","6","blank","235","null","0.2461158017899697","0.27295456607351604","0.7139760039655383","1","","","","","","","","",""
"","html-keyboard-response","30","200386","0.0-24.0-1.0","""event"",""trial"",""time""
""fullscreenenter"",""0"",""2849""
""fullscreenexit"",""4"",""24566""
""blur"",""4"",""24574""
""focus"",""4"",""28847""
","""event"",""trial"",""time""
""blur"",""4"",""24574""
","""event"",""trial"",""time""
""focus"",""4"",""28847""
","""event"",""trial"",""time""
""fullscreenenter"",""0"",""2849""
","""event"",""trial"",""time""
""fullscreenexit"",""4"",""24566""
","null","<p></p>","null","","","","","","","","","","","","","","","","","","","","","","","",""
"","do_trial","31","203474","0.0-25.0-0.0","""event"",""trial"",""time""
""fullscreenenter"",""0"",""2849""
""fullscreenexit"",""4"",""24566""
""blur"",""4"",""24574""
""focus"",""4"",""28847""
","""event"",""trial"",""time""
""blur"",""4"",""24574""
","""event"",""trial"",""time""
""focus"",""4"",""28847""
","""event"",""trial"",""time""
""fullscreenenter"",""0"",""2849""
","""event"",""trial"",""time""
""fullscreenexit"",""4"",""24566""
","516.2000000029802","","","","","","","","50","0,0,1","6","blank","236","null","0.20361034285865517","0.24409874389913888","0.6968146250089328","0","","","","","","","","",""
"","html-keyboard-response","32","204484","0.0-25.0-1.0","""event"",""trial"",""time""
""fullscreenenter"",""0"",""2849""
""fullscreenexit"",""4"",""24566""
""blur"",""4"",""24574""
""focus"",""4"",""28847""
","""event"",""trial"",""time""
""blur"",""4"",""24574""
","""event"",""trial"",""time""
""focus"",""4"",""28847""
","""event"",""trial"",""time""
""fullscreenenter"",""0"",""2849""
","""event"",""trial"",""time""
""fullscreenexit"",""4"",""24566""
","null","<p></p>","null","","","","","","","","","","","","","","","","","","","","","","","",""
"","do_trial","33","207092","0.0-26.0-0.0","""event"",""trial"",""time""
""fullscreenenter"",""0"",""2849""
""fullscreenexit"",""4"",""24566""
""blur"",""4"",""24574""
""focus"",""4"",""28847""
","""event"",""trial"",""time""
""blur"",""4"",""24574""
","""event"",""trial"",""time""
""focus"",""4"",""28847""
","""event"",""trial"",""time""
""fullscreenenter"",""0"",""2849""
","""event"",""trial"",""time""
""fullscreenexit"",""4"",""24566""
","48.20000000298023","","","","","","","","50","0,0,1","6","blank","237","null","0.20691723083755043","0.1745111237379608","0.5950651624853058","0","","","","","","","","",""
"","html-keyboard-response","34","208095","0.0-26.0-1.0","""event"",""trial"",""time""
""fullscreenenter"",""0"",""2849""
""fullscreenexit"",""4"",""24566""
""blur"",""4"",""24574""
""focus"",""4"",""28847""
","""event"",""trial"",""time""
""blur"",""4"",""24574""
","""event"",""trial"",""time""
""focus"",""4"",""28847""
","""event"",""trial"",""time""
""fullscreenenter"",""0"",""2849""
","""event"",""trial"",""time""
""fullscreenexit"",""4"",""24566""
","null","<p></p>","null","","","","","","","","","","","","","","","","","","","","","","","",""
"","do_trial","35","211297","0.0-27.0-0.0","""event"",""trial"",""time""
""fullscreenenter"",""0"",""2849""
""fullscreenexit"",""4"",""24566""
""blur"",""4"",""24574""
""focus"",""4"",""28847""
","""event"",""trial"",""time""
""blur"",""4"",""24574""
","""event"",""trial"",""time""
""focus"",""4"",""28847""
","""event"",""trial"",""time""
""fullscreenenter"",""0"",""2849""
","""event"",""trial"",""time""
""fullscreenexit"",""4"",""24566""
","650.8000000119209","","","","","","","","49","0,0,1","6","blank","238","null","0.15228062934142048","0.1339633868115086","0.608230929434931","0","","","","","","","","",""
"","html-keyboard-response","36","212312","0.0-27.0-1.0","""event"",""trial"",""time""
""fullscreenenter"",""0"",""2849""
""fullscreenexit"",""4"",""24566""
""blur"",""4"",""24574""
""focus"",""4"",""28847""
","""event"",""trial"",""time""
""blur"",""4"",""24574""
","""event"",""trial"",""time""
""focus"",""4"",""28847""
","""event"",""trial"",""time""
""fullscreenenter"",""0"",""2849""
","""event"",""trial"",""time""
""fullscreenexit"",""4"",""24566""
","null","<p></p>","null","","","","","","","","","","","","","","","","","","","","","","","",""
"","do_trial","37","215732","0.0-28.0-0.0","""event"",""trial"",""time""
""fullscreenenter"",""0"",""2849""
""fullscreenexit"",""4"",""24566""
""blur"",""4"",""24574""
""focus"",""4"",""28847""
","""event"",""trial"",""time""
""blur"",""4"",""24574""
","""event"",""trial"",""time""
""focus"",""4"",""28847""
","""event"",""trial"",""time""
""fullscreenenter"",""0"",""2849""
","""event"",""trial"",""time""
""fullscreenexit"",""4"",""24566""
","858","","","","","","","","49","1,0,0","6","blank","239","null","0.3325031380989682","0.17627438978402196","0.7753540037876236","1","","","","","","","","",""
"","html-keyboard-response","38","216747","0.0-28.0-1.0","""event"",""trial"",""time""
""fullscreenenter"",""0"",""2849""
""fullscreenexit"",""4"",""24566""
""blur"",""4"",""24574""
""focus"",""4"",""28847""
","""event"",""trial"",""time""
""blur"",""4"",""24574""
","""event"",""trial"",""time""
""focus"",""4"",""28847""
","""event"",""trial"",""time""
""fullscreenenter"",""0"",""2849""
","""event"",""trial"",""time""
""fullscreenexit"",""4"",""24566""
","null","<p></p>","null","","","","","","","","","","","","","","","","","","","","","","","",""
"","do_trial","39","219802","0.0-29.0-0.0","""event"",""trial"",""time""
""fullscreenenter"",""0"",""2849""
""fullscreenexit"",""4"",""24566""
""blur"",""4"",""24574""
""focus"",""4"",""28847""
","""event"",""trial"",""time""
""blur"",""4"",""24574""
","""event"",""trial"",""time""
""focus"",""4"",""28847""
","""event"",""trial"",""time""
""fullscreenenter"",""0"",""2849""
","""event"",""trial"",""time""
""fullscreenexit"",""4"",""24566""
","475.5","","","","","","","","50","0,0,1","6","blank","240","null","0.3270042036081391","0.09756839378167807","0.7020711043322103","0","","","","","","","","",""
"","html-keyboard-response","40","220813","0.0-29.0-1.0","""event"",""trial"",""time""
""fullscreenenter"",""0"",""2849""
""fullscreenexit"",""4"",""24566""
""blur"",""4"",""24574""
""focus"",""4"",""28847""
","""event"",""trial"",""time""
""blur"",""4"",""24574""
","""event"",""trial"",""time""
""focus"",""4"",""28847""
","""event"",""trial"",""time""
""fullscreenenter"",""0"",""2849""
","""event"",""trial"",""time""
""fullscreenexit"",""4"",""24566""
","null","<p></p>","null","","","","","","","","","","","","","","","","","","","","","","","",""
"","do_trial","41","223950","0.0-30.0-0.0","""event"",""trial"",""time""
""fullscreenenter"",""0"",""2849""
""fullscreenexit"",""4"",""24566""
""blur"",""4"",""24574""
""focus"",""4"",""28847""
","""event"",""trial"",""time""
""blur"",""4"",""24574""
","""event"",""trial"",""time""
""focus"",""4"",""28847""
","""event"",""trial"",""time""
""fullscreenenter"",""0"",""2849""
","""event"",""trial"",""time""
""fullscreenexit"",""4"",""24566""
","556.2999999970198","","","","","","","","50","0,0,0","6","blank","241","null","0.28156048043685145","0.08487477277366201","0.655205038567973","0","","","","","","","","",""
"","html-keyboard-response","42","224967","0.0-30.0-1.0","""event"",""trial"",""time""
""fullscreenenter"",""0"",""2849""
""fullscreenexit"",""4"",""24566""
""blur"",""4"",""24574""
""focus"",""4"",""28847""
","""event"",""trial"",""time""
""blur"",""4"",""24574""
","""event"",""trial"",""time""
""focus"",""4"",""28847""
","""event"",""trial"",""time""
""fullscreenenter"",""0"",""2849""
","""event"",""trial"",""time""
""fullscreenexit"",""4"",""24566""
","null","<p></p>","null","","","","","","","","","","","","","","","","","","","","","","","",""
"","do_trial","43","228755","0.0-31.0-0.0","""event"",""trial"",""time""
""fullscreenenter"",""0"",""2849""
""fullscreenexit"",""4"",""24566""
""blur"",""4"",""24574""
""focus"",""4"",""28847""
","""event"",""trial"",""time""
""blur"",""4"",""24574""
","""event"",""trial"",""time""
""focus"",""4"",""28847""
","""event"",""trial"",""time""
""fullscreenenter"",""0"",""2849""
","""event"",""trial"",""time""
""fullscreenexit"",""4"",""24566""
","1213.7999999970198","","","","","","","","51","0,0,1","6","blank","242","null","0.21588332506158614","0.24461833689893986","0.5182285509067657","1","","","","","","","","",""
"","html-keyboard-response","44","229769","0.0-31.0-1.0","""event"",""trial"",""time""
""fullscreenenter"",""0"",""2849""
""fullscreenexit"",""4"",""24566""
""blur"",""4"",""24574""
""focus"",""4"",""28847""
","""event"",""trial"",""time""
""blur"",""4"",""24574""
","""event"",""trial"",""time""
""focus"",""4"",""28847""
","""event"",""trial"",""time""
""fullscreenenter"",""0"",""2849""
","""event"",""trial"",""time""
""fullscreenexit"",""4"",""24566""
","null","<p></p>","null","","","","","","","","","","","","","","","","","","","","","","","",""
"","do_recog","45","235795","0.0-32.0-0.0","""event"",""trial"",""time""
""fullscreenenter"",""0"",""2849""
""fullscreenexit"",""4"",""24566""
""blur"",""4"",""24574""
""focus"",""4"",""28847""
","""event"",""trial"",""time""
""blur"",""4"",""24574""
","""event"",""trial"",""time""
""focus"",""4"",""28847""
","""event"",""trial"",""time""
""fullscreenenter"",""0"",""2849""
","""event"",""trial"",""time""
""fullscreenexit"",""4"",""24566""
","null","","","","","","","","null","","","","243","probe-07","","","","","1","[object Object]","77","1","0","","","",""
"","html-keyboard-response","46","236808","0.0-32.0-1.0","""event"",""trial"",""time""
""fullscreenenter"",""0"",""2849""
""fullscreenexit"",""4"",""24566""
""blur"",""4"",""24574""
""focus"",""4"",""28847""
","""event"",""trial"",""time""
""blur"",""4"",""24574""
","""event"",""trial"",""time""
""focus"",""4"",""28847""
","""event"",""trial"",""time""
""fullscreenenter"",""0"",""2849""
","""event"",""trial"",""time""
""fullscreenexit"",""4"",""24566""
","null","<p></p>","null","","","","","","","","","","","","","","","","","","","","","","","",""
"","do_trial","47","240682","0.0-33.0-0.0","""event"",""trial"",""time""
""fullscreenenter"",""0"",""2849""
""fullscreenexit"",""4"",""24566""
""blur"",""4"",""24574""
""focus"",""4"",""28847""
","""event"",""trial"",""time""
""blur"",""4"",""24574""
","""event"",""trial"",""time""
""focus"",""4"",""28847""
","""event"",""trial"",""time""
""fullscreenenter"",""0"",""2849""
","""event"",""trial"",""time""
""fullscreenexit"",""4"",""24566""
","1317.2000000029802","","","","","","","","50","1,1,0","6","blank","244","null","0.4395303607536042","0.4364271036015434","0.5043364081452076","1","","","","","","","","",""
"","html-keyboard-response","48","241691","0.0-33.0-1.0","""event"",""trial"",""time""
""fullscreenenter"",""0"",""2849""
""fullscreenexit"",""4"",""24566""
""blur"",""4"",""24574""
""focus"",""4"",""28847""
","""event"",""trial"",""time""
""blur"",""4"",""24574""
","""event"",""trial"",""time""
""focus"",""4"",""28847""
","""event"",""trial"",""time""
""fullscreenenter"",""0"",""2849""
","""event"",""trial"",""time""
""fullscreenexit"",""4"",""24566""
","null","<p></p>","null","","","","","","","","","","","","","","","","","","","","","","","",""
"","do_trial","49","244583","0.0-34.0-0.0","""event"",""trial"",""time""
""fullscreenenter"",""0"",""2849""
""fullscreenexit"",""4"",""24566""
""blur"",""4"",""24574""
""focus"",""4"",""28847""
","""event"",""trial"",""time""
""blur"",""4"",""24574""
","""event"",""trial"",""time""
""focus"",""4"",""28847""
","""event"",""trial"",""time""
""fullscreenenter"",""0"",""2849""
","""event"",""trial"",""time""
""fullscreenexit"",""4"",""24566""
","336.20000000298023","","","","","","","","49","0,0,0","6","blank","245","null","0.2728231973554347","0.4972624712506044","0.4989412133482549","0","","","","","","","","",""
"","html-keyboard-response","50","245590","0.0-34.0-1.0","""event"",""trial"",""time""
""fullscreenenter"",""0"",""2849""
""fullscreenexit"",""4"",""24566""
""blur"",""4"",""24574""
""focus"",""4"",""28847""
","""event"",""trial"",""time""
""blur"",""4"",""24574""
","""event"",""trial"",""time""
""focus"",""4"",""28847""
","""event"",""trial"",""time""
""fullscreenenter"",""0"",""2849""
","""event"",""trial"",""time""
""fullscreenexit"",""4"",""24566""
","null","<p></p>","null","","","","","","","","","","","","","","","","","","","","","","","",""
"","do_trial","51","249135","0.0-35.0-0.0","""event"",""trial"",""time""
""fullscreenenter"",""0"",""2849""
""fullscreenexit"",""4"",""24566""
""blur"",""4"",""24574""
""focus"",""4"",""28847""
","""event"",""trial"",""time""
""blur"",""4"",""24574""
","""event"",""trial"",""time""
""focus"",""4"",""28847""
","""event"",""trial"",""time""
""fullscreenenter"",""0"",""2849""
","""event"",""trial"",""time""
""fullscreenexit"",""4"",""24566""
","977.1000000089407","","","","","","","","51","0,1,0","6","blank","246","null","0.09179869312603418","0.6415061530952497","0.42836072688203297","0","","","","","","","","",""
"","html-keyboard-response","52","250146","0.0-35.0-1.0","""event"",""trial"",""time""
""fullscreenenter"",""0"",""2849""
""fullscreenexit"",""4"",""24566""
""blur"",""4"",""24574""
""focus"",""4"",""28847""
","""event"",""trial"",""time""
""blur"",""4"",""24574""
","""event"",""trial"",""time""
""focus"",""4"",""28847""
","""event"",""trial"",""time""
""fullscreenenter"",""0"",""2849""
","""event"",""trial"",""time""
""fullscreenexit"",""4"",""24566""
","null","<p></p>","null","","","","","","","","","","","","","","","","","","","","","","","",""
"","do_trial","53","253324","0.0-36.0-0.0","""event"",""trial"",""time""
""fullscreenenter"",""0"",""2849""
""fullscreenexit"",""4"",""24566""
""blur"",""4"",""24574""
""focus"",""4"",""28847""
","""event"",""trial"",""time""
""blur"",""4"",""24574""
","""event"",""trial"",""time""
""focus"",""4"",""28847""
","""event"",""trial"",""time""
""fullscreenenter"",""0"",""2849""
","""event"",""trial"",""time""
""fullscreenexit"",""4"",""24566""
","612.6999999880791","","","","","","","","49","0,0,0","6","blank","247","null","0.09201156572987021","0.6203775920396771","0.3034957030146957","0","","","","","","","","",""
"","html-keyboard-response","54","254331","0.0-36.0-1.0","""event"",""trial"",""time""
""fullscreenenter"",""0"",""2849""
""fullscreenexit"",""4"",""24566""
""blur"",""4"",""24574""
""focus"",""4"",""28847""
","""event"",""trial"",""time""
""blur"",""4"",""24574""
","""event"",""trial"",""time""
""focus"",""4"",""28847""
","""event"",""trial"",""time""
""fullscreenenter"",""0"",""2849""
","""event"",""trial"",""time""
""fullscreenexit"",""4"",""24566""
","null","<p></p>","null","","","","","","","","","","","","","","","","","","","","","","","",""
"","do_trial","55","257835","0.0-37.0-0.0","""event"",""trial"",""time""
""fullscreenenter"",""0"",""2849""
""fullscreenexit"",""4"",""24566""
""blur"",""4"",""24574""
""focus"",""4"",""28847""
","""event"",""trial"",""time""
""blur"",""4"",""24574""
","""event"",""trial"",""time""
""focus"",""4"",""28847""
","""event"",""trial"",""time""
""fullscreenenter"",""0"",""2849""
","""event"",""trial"",""time""
""fullscreenexit"",""4"",""24566""
","918.0999999940395","","","","","","","","50","0,1,0","6","blank","248","null","0.09882475442787224","0.5304944021352084","0.29538262297652695","1","","","","","","","","",""
"","html-keyboard-response","56","258846","0.0-37.0-1.0","""event"",""trial"",""time""
""fullscreenenter"",""0"",""2849""
""fullscreenexit"",""4"",""24566""
""blur"",""4"",""24574""
""focus"",""4"",""28847""
","""event"",""trial"",""time""
""blur"",""4"",""24574""
","""event"",""trial"",""time""
""focus"",""4"",""28847""
","""event"",""trial"",""time""
""fullscreenenter"",""0"",""2849""
","""event"",""trial"",""time""
""fullscreenexit"",""4"",""24566""
","null","<p></p>","null","","","","","","","","","","","","","","","","","","","","","","","",""
"","do_trial","57","262325","0.0-38.0-0.0","""event"",""trial"",""time""
""fullscreenenter"",""0"",""2849""
""fullscreenexit"",""4"",""24566""
""blur"",""4"",""24574""
""focus"",""4"",""28847""
","""event"",""trial"",""time""
""blur"",""4"",""24574""
","""event"",""trial"",""time""
""focus"",""4"",""28847""
","""event"",""trial"",""time""
""fullscreenenter"",""0"",""2849""
","""event"",""trial"",""time""
""fullscreenexit"",""4"",""24566""
","916.1000000089407","","","","","","","","50","0,1,1","6","blank","249","null","0.0985871479940293","0.5220159586220154","0.3276660954758895","1","","","","","","","","",""
"","html-keyboard-response","58","263341","0.0-38.0-1.0","""event"",""trial"",""time""
""fullscreenenter"",""0"",""2849""
""fullscreenexit"",""4"",""24566""
""blur"",""4"",""24574""
""focus"",""4"",""28847""
","""event"",""trial"",""time""
""blur"",""4"",""24574""
","""event"",""trial"",""time""
""focus"",""4"",""28847""
","""event"",""trial"",""time""
""fullscreenenter"",""0"",""2849""
","""event"",""trial"",""time""
""fullscreenexit"",""4"",""24566""
","null","<p></p>","null","","","","","","","","","","","","","","","","","","","","","","","",""
"","do_recog","59","266926","0.0-39.0-0.0","""event"",""trial"",""time""
""fullscreenenter"",""0"",""2849""
""fullscreenexit"",""4"",""24566""
""blur"",""4"",""24574""
""focus"",""4"",""28847""
","""event"",""trial"",""time""
""blur"",""4"",""24574""
","""event"",""trial"",""time""
""focus"",""4"",""28847""
","""event"",""trial"",""time""
""fullscreenenter"",""0"",""2849""
","""event"",""trial"",""time""
""fullscreenexit"",""4"",""24566""
","2072","","","","","","","","53","","","","250","probe-23","","","","","1","[object Object]","195","4","1","","","",""
"","html-keyboard-response","60","267932","0.0-39.0-1.0","""event"",""trial"",""time""
""fullscreenenter"",""0"",""2849""
""fullscreenexit"",""4"",""24566""
""blur"",""4"",""24574""
""focus"",""4"",""28847""
","""event"",""trial"",""time""
""blur"",""4"",""24574""
","""event"",""trial"",""time""
""focus"",""4"",""28847""
","""event"",""trial"",""time""
""fullscreenenter"",""0"",""2849""
","""event"",""trial"",""time""
""fullscreenexit"",""4"",""24566""
","null","<p></p>","null","","","","","","","","","","","","","","","","","","","","","","","",""
"","do_trial","61","271075","0.0-40.0-0.0","""event"",""trial"",""time""
""fullscreenenter"",""0"",""2849""
""fullscreenexit"",""4"",""24566""
""blur"",""4"",""24574""
""focus"",""4"",""28847""
","""event"",""trial"",""time""
""blur"",""4"",""24574""
","""event"",""trial"",""time""
""focus"",""4"",""28847""
","""event"",""trial"",""time""
""fullscreenenter"",""0"",""2849""
","""event"",""trial"",""time""
""fullscreenexit"",""4"",""24566""
","551.1000000089407","","","","","","","","50","1,0,0","6","blank","251","null","0.15459860760324154","0.4359111503146266","0.39523552740992957","0","","","","","","","","",""
"","html-keyboard-response","62","272077","0.0-40.0-1.0","""event"",""trial"",""time""
""fullscreenenter"",""0"",""2849""
""fullscreenexit"",""4"",""24566""
""blur"",""4"",""24574""
""focus"",""4"",""28847""
","""event"",""trial"",""time""
""blur"",""4"",""24574""
","""event"",""trial"",""time""
""focus"",""4"",""28847""
","""event"",""trial"",""time""
""fullscreenenter"",""0"",""2849""
","""event"",""trial"",""time""
""fullscreenexit"",""4"",""24566""
","null","<p></p>","null","","","","","","","","","","","","","","","","","","","","","","","",""
"","do_trial","63","275100","0.0-41.0-0.0","""event"",""trial"",""time""
""fullscreenenter"",""0"",""2849""
""fullscreenexit"",""4"",""24566""
""blur"",""4"",""24574""
""focus"",""4"",""28847""
","""event"",""trial"",""time""
""blur"",""4"",""24574""
","""event"",""trial"",""time""
""focus"",""4"",""28847""
","""event"",""trial"",""time""
""fullscreenenter"",""0"",""2849""
","""event"",""trial"",""time""
""fullscreenexit"",""4"",""24566""
","431.19999998807907","","","","","","","","49","0,1,0","6","blank","252","null","0.1870110506155948","0.5296635036584634","0.3991396284017028","0","","","","","","","","",""
"","html-keyboard-response","64","276112","0.0-41.0-1.0","""event"",""trial"",""time""
""fullscreenenter"",""0"",""2849""
""fullscreenexit"",""4"",""24566""
""blur"",""4"",""24574""
""focus"",""4"",""28847""
","""event"",""trial"",""time""
""blur"",""4"",""24574""
","""event"",""trial"",""time""
""focus"",""4"",""28847""
","""event"",""trial"",""time""
""fullscreenenter"",""0"",""2849""
","""event"",""trial"",""time""
""fullscreenexit"",""4"",""24566""
","null","<p></p>","null","","","","","","","","","","","","","","","","","","","","","","","",""
"","do_trial","65","278975","0.0-42.0-0.0","""event"",""trial"",""time""
""fullscreenenter"",""0"",""2849""
""fullscreenexit"",""4"",""24566""
""blur"",""4"",""24574""
""focus"",""4"",""28847""
","""event"",""trial"",""time""
""blur"",""4"",""24574""
","""event"",""trial"",""time""
""focus"",""4"",""28847""
","""event"",""trial"",""time""
""fullscreenenter"",""0"",""2849""
","""event"",""trial"",""time""
""fullscreenexit"",""4"",""24566""
","287","","","","","","","","51","0,0,0","6","blank","253","null","0.1991668754656324","0.6204771595524752","0.32280569957360405","0","","","","","","","","",""
"","html-keyboard-response","66","279990","0.0-42.0-1.0","""event"",""trial"",""time""
""fullscreenenter"",""0"",""2849""
""fullscreenexit"",""4"",""24566""
""blur"",""4"",""24574""
""focus"",""4"",""28847""
","""event"",""trial"",""time""
""blur"",""4"",""24574""
","""event"",""trial"",""time""
""focus"",""4"",""28847""
","""event"",""trial"",""time""
""fullscreenenter"",""0"",""2849""
","""event"",""trial"",""time""
""fullscreenexit"",""4"",""24566""
","null","<p></p>","null","","","","","","","","","","","","","","","","","","","","","","","",""
"","do_trial","67","282854","0.0-43.0-0.0","""event"",""trial"",""time""
""fullscreenenter"",""0"",""2849""
""fullscreenexit"",""4"",""24566""
""blur"",""4"",""24574""
""focus"",""4"",""28847""
","""event"",""trial"",""time""
""blur"",""4"",""24574""
","""event"",""trial"",""time""
""focus"",""4"",""28847""
","""event"",""trial"",""time""
""fullscreenenter"",""0"",""2849""
","""event"",""trial"",""time""
""fullscreenexit"",""4"",""24566""
","297.79999999701977","","","","","","","","50","0,1,1","6","blank","254","null","0.11648260422107225","0.5898644827759812","0.2647393901142906","1","","","","","","","","",""
"","html-keyboard-response","68","283864","0.0-43.0-1.0","""event"",""trial"",""time""
""fullscreenenter"",""0"",""2849""
""fullscreenexit"",""4"",""24566""
""blur"",""4"",""24574""
""focus"",""4"",""28847""
","""event"",""trial"",""time""
""blur"",""4"",""24574""
","""event"",""trial"",""time""
""focus"",""4"",""28847""
","""event"",""trial"",""time""
""fullscreenenter"",""0"",""2849""
","""event"",""trial"",""time""
""fullscreenexit"",""4"",""24566""
","null","<p></p>","null","","","","","","","","","","","","","","","","","","","","","","","",""
"","do_trial","69","286745","0.0-44.0-0.0","""event"",""trial"",""time""
""fullscreenenter"",""0"",""2849""
""fullscreenexit"",""4"",""24566""
""blur"",""4"",""24574""
""focus"",""4"",""28847""
","""event"",""trial"",""time""
""blur"",""4"",""24574""
","""event"",""trial"",""time""
""focus"",""4"",""28847""
","""event"",""trial"",""time""
""fullscreenenter"",""0"",""2849""
","""event"",""trial"",""time""
""fullscreenexit"",""4"",""24566""
","300.5","","","","","","","","49","0,1,0","6","blank","255","null","0.14309913576254218","0.47272834865927105","0.26401350121168693","0","","","","","","","","",""
"","html-keyboard-response","70","287755","0.0-44.0-1.0","""event"",""trial"",""time""
""fullscreenenter"",""0"",""2849""
""fullscreenexit"",""4"",""24566""
""blur"",""4"",""24574""
""focus"",""4"",""28847""
","""event"",""trial"",""time""
""blur"",""4"",""24574""
","""event"",""trial"",""time""
""focus"",""4"",""28847""
","""event"",""trial"",""time""
""fullscreenenter"",""0"",""2849""
","""event"",""trial"",""time""
""fullscreenexit"",""4"",""24566""
","null","<p></p>","null","","","","","","","","","","","","","","","","","","","","","","","",""
"","do_trial","71","290823","0.0-45.0-0.0","""event"",""trial"",""time""
""fullscreenenter"",""0"",""2849""
""fullscreenexit"",""4"",""24566""
""blur"",""4"",""24574""
""focus"",""4"",""28847""
","""event"",""trial"",""time""
""blur"",""4"",""24574""
","""event"",""trial"",""time""
""focus"",""4"",""28847""
","""event"",""trial"",""time""
""fullscreenenter"",""0"",""2849""
","""event"",""trial"",""time""
""fullscreenexit"",""4"",""24566""
","493.3999999910593","","","","","","","","51","0,0,0","6","blank","256","null","0.08132810995101915","0.5215805322224462","0.12686996973717649","0","","","","","","","","",""
"","html-keyboard-response","72","291838","0.0-45.0-1.0","""event"",""trial"",""time""
""fullscreenenter"",""0"",""2849""
""fullscreenexit"",""4"",""24566""
""blur"",""4"",""24574""
""focus"",""4"",""28847""
","""event"",""trial"",""time""
""blur"",""4"",""24574""
","""event"",""trial"",""time""
""focus"",""4"",""28847""
","""event"",""trial"",""time""
""fullscreenenter"",""0"",""2849""
","""event"",""trial"",""time""
""fullscreenexit"",""4"",""24566""
","null","<p></p>","null","","","","","","","","","","","","","","","","","","","","","","","",""
"","do_recog","73","295555","0.0-46.0-0.0","""event"",""trial"",""time""
""fullscreenenter"",""0"",""2849""
""fullscreenexit"",""4"",""24566""
""blur"",""4"",""24574""
""focus"",""4"",""28847""
","""event"",""trial"",""time""
""blur"",""4"",""24574""
","""event"",""trial"",""time""
""focus"",""4"",""28847""
","""event"",""trial"",""time""
""fullscreenenter"",""0"",""2849""
","""event"",""trial"",""time""
""fullscreenexit"",""4"",""24566""
","2198.2000000029802","","","","","","","","54","","","","257","probe-192","","","","","1","[object Object]","196","4","1","","","",""
"","html-keyboard-response","74","296571","0.0-46.0-1.0","""event"",""trial"",""time""
""fullscreenenter"",""0"",""2849""
""fullscreenexit"",""4"",""24566""
""blur"",""4"",""24574""
""focus"",""4"",""28847""
","""event"",""trial"",""time""
""blur"",""4"",""24574""
","""event"",""trial"",""time""
""focus"",""4"",""28847""
","""event"",""trial"",""time""
""fullscreenenter"",""0"",""2849""
","""event"",""trial"",""time""
""fullscreenexit"",""4"",""24566""
","null","<p></p>","null","","","","","","","","","","","","","","","","","","","","","","","",""
"","do_trial","75","300402","0.0-47.0-0.0","""event"",""trial"",""time""
""fullscreenenter"",""0"",""2849""
""fullscreenexit"",""4"",""24566""
""blur"",""4"",""24574""
""focus"",""4"",""28847""
","""event"",""trial"",""time""
""blur"",""4"",""24574""
","""event"",""trial"",""time""
""focus"",""4"",""28847""
","""event"",""trial"",""time""
""fullscreenenter"",""0"",""2849""
","""event"",""trial"",""time""
""fullscreenexit"",""4"",""24566""
","1243.7000000029802","","","","","","","","50","0,1,0","6","blank","258","null","0.17159931282114235","0.6617397129685014","0.14472096399372422","1","","","","","","","","",""
"","html-keyboard-response","76","301414","0.0-47.0-1.0","""event"",""trial"",""time""
""fullscreenenter"",""0"",""2849""
""fullscreenexit"",""4"",""24566""
""blur"",""4"",""24574""
""focus"",""4"",""28847""
","""event"",""trial"",""time""
""blur"",""4"",""24574""
","""event"",""trial"",""time""
""focus"",""4"",""28847""
","""event"",""trial"",""time""
""fullscreenenter"",""0"",""2849""
","""event"",""trial"",""time""
""fullscreenexit"",""4"",""24566""
","null","<p></p>","null","","","","","","","","","","","","","","","","","","","","","","","",""
"","do_trial","77","305114","0.0-48.0-0.0","""event"",""trial"",""time""
""fullscreenenter"",""0"",""2849""
""fullscreenexit"",""4"",""24566""
""blur"",""4"",""24574""
""focus"",""4"",""28847""
","""event"",""trial"",""time""
""blur"",""4"",""24574""
","""event"",""trial"",""time""
""focus"",""4"",""28847""
","""event"",""trial"",""time""
""fullscreenenter"",""0"",""2849""
","""event"",""trial"",""time""
""fullscreenexit"",""4"",""24566""
","1132.1000000089407","","","","","","","","50","1,1,0","6","blank","259","null","0.07503475916357653","0.5802117907239085","0.19857511583769988","1","","","","","","","","",""
"","html-keyboard-response","78","306119","0.0-48.0-1.0","""event"",""trial"",""time""
""fullscreenenter"",""0"",""2849""
""fullscreenexit"",""4"",""24566""
""blur"",""4"",""24574""
""focus"",""4"",""28847""
","""event"",""trial"",""time""
""blur"",""4"",""24574""
","""event"",""trial"",""time""
""focus"",""4"",""28847""
","""event"",""trial"",""time""
""fullscreenenter"",""0"",""2849""
","""event"",""trial"",""time""
""fullscreenexit"",""4"",""24566""
","null","<p></p>","null","","","","","","","","","","","","","","","","","","","","","","","",""
"","do_trial","79","312221","0.0-49.0-0.0","""event"",""trial"",""time""
""fullscreenenter"",""0"",""2849""
""fullscreenexit"",""4"",""24566""
""blur"",""4"",""24574""
""focus"",""4"",""28847""
","""event"",""trial"",""time""
""blur"",""4"",""24574""
","""event"",""trial"",""time""
""focus"",""4"",""28847""
","""event"",""trial"",""time""
""fullscreenenter"",""0"",""2849""
","""event"",""trial"",""time""
""fullscreenexit"",""4"",""24566""
","null","","","","","","","","null","0,1,0","6","blank","260","null","0.10123156111869935","0.4469419027163122","0.21713170853451297","","","","","","","","","",""
"","html-keyboard-response","80","313234","0.0-49.0-1.0","""event"",""trial"",""time""
""fullscreenenter"",""0"",""2849""
""fullscreenexit"",""4"",""24566""
""blur"",""4"",""24574""
""focus"",""4"",""28847""
","""event"",""trial"",""time""
""blur"",""4"",""24574""
","""event"",""trial"",""time""
""focus"",""4"",""28847""
","""event"",""trial"",""time""
""fullscreenenter"",""0"",""2849""
","""event"",""trial"",""time""
""fullscreenexit"",""4"",""24566""
","null","<p></p>","null","","","","","","","","","","","","","","","","","","","","","","","",""
"","do_trial","81","317088","0.0-50.0-0.0","""event"",""trial"",""time""
""fullscreenenter"",""0"",""2849""
""fullscreenexit"",""4"",""24566""
""blur"",""4"",""24574""
""focus"",""4"",""28847""
","""event"",""trial"",""time""
""blur"",""4"",""24574""
","""event"",""trial"",""time""
""focus"",""4"",""28847""
","""event"",""trial"",""time""
""fullscreenenter"",""0"",""2849""
","""event"",""trial"",""time""
""fullscreenexit"",""4"",""24566""
","1288.699999988079","","","","","","","","50","0,0,1","6","blank","261","null","0.2415351138237389","0.4719126282927327","0.33764486370701835","0","","","","","","","","",""
"","html-keyboard-response","82","318092","0.0-50.0-1.0","""event"",""trial"",""time""
""fullscreenenter"",""0"",""2849""
""fullscreenexit"",""4"",""24566""
""blur"",""4"",""24574""
""focus"",""4"",""28847""
","""event"",""trial"",""time""
""blur"",""4"",""24574""
","""event"",""trial"",""time""
""focus"",""4"",""28847""
","""event"",""trial"",""time""
""fullscreenenter"",""0"",""2849""
","""event"",""trial"",""time""
""fullscreenexit"",""4"",""24566""
","null","<p></p>","null","","","","","","","","","","","","","","","","","","","","","","","",""
"","do_recog","83","321911","0.0-51.0-0.0","""event"",""trial"",""time""
""fullscreenenter"",""0"",""2849""
""fullscreenexit"",""4"",""24566""
""blur"",""4"",""24574""
""focus"",""4"",""28847""
","""event"",""trial"",""time""
""blur"",""4"",""24574""
","""event"",""trial"",""time""
""focus"",""4"",""28847""
","""event"",""trial"",""time""
""fullscreenenter"",""0"",""2849""
","""event"",""trial"",""time""
""fullscreenexit"",""4"",""24566""
","2296.2999999970198","","","","","","","","55","","","","262","probe-54","","","","","1","[object Object]","155","3","0","","","",""
"","html-keyboard-response","84","322926","0.0-51.0-1.0","""event"",""trial"",""time""
""fullscreenenter"",""0"",""2849""
""fullscreenexit"",""4"",""24566""
""blur"",""4"",""24574""
""focus"",""4"",""28847""
","""event"",""trial"",""time""
""blur"",""4"",""24574""
","""event"",""trial"",""time""
""focus"",""4"",""28847""
","""event"",""trial"",""time""
""fullscreenenter"",""0"",""2849""
","""event"",""trial"",""time""
""fullscreenexit"",""4"",""24566""
","null","<p></p>","null","","","","","","","","","","","","","","","","","","","","","","","",""
"","do_trial","85","326337","0.0-52.0-0.0","""event"",""trial"",""time""
""fullscreenenter"",""0"",""2849""
""fullscreenexit"",""4"",""24566""
""blur"",""4"",""24574""
""focus"",""4"",""28847""
","""event"",""trial"",""time""
""blur"",""4"",""24574""
","""event"",""trial"",""time""
""focus"",""4"",""28847""
","""event"",""trial"",""time""
""fullscreenenter"",""0"",""2849""
","""event"",""trial"",""time""
""fullscreenexit"",""4"",""24566""
","832.7000000029802","","","","","","","","49","1,0,1","6","blank","263","null","0.30881895692080297","0.45351442764186267","0.35719221212342994","1","","","","","","","","",""
"","html-keyboard-response","86","327352","0.0-52.0-1.0","""event"",""trial"",""time""
""fullscreenenter"",""0"",""2849""
""fullscreenexit"",""4"",""24566""
""blur"",""4"",""24574""
""focus"",""4"",""28847""
","""event"",""trial"",""time""
""blur"",""4"",""24574""
","""event"",""trial"",""time""
""focus"",""4"",""28847""
","""event"",""trial"",""time""
""fullscreenenter"",""0"",""2849""
","""event"",""trial"",""time""
""fullscreenexit"",""4"",""24566""
","null","<p></p>","null","","","","","","","","","","","","","","","","","","","","","","","",""
"","do_recog","87","330872","0.0-53.0-0.0","""event"",""trial"",""time""
""fullscreenenter"",""0"",""2849""
""fullscreenexit"",""4"",""24566""
""blur"",""4"",""24574""
""focus"",""4"",""28847""
","""event"",""trial"",""time""
""blur"",""4"",""24574""
","""event"",""trial"",""time""
""focus"",""4"",""28847""
","""event"",""trial"",""time""
""fullscreenenter"",""0"",""2849""
","""event"",""trial"",""time""
""fullscreenexit"",""4"",""24566""
","1999.7000000029802","","","","","","","","56","","","","264","probe-111","","","","","1","[object Object]","192","4","0","","","",""
"","html-keyboard-response","88","331882","0.0-53.0-1.0","""event"",""trial"",""time""
""fullscreenenter"",""0"",""2849""
""fullscreenexit"",""4"",""24566""
""blur"",""4"",""24574""
""focus"",""4"",""28847""
","""event"",""trial"",""time""
""blur"",""4"",""24574""
","""event"",""trial"",""time""
""focus"",""4"",""28847""
","""event"",""trial"",""time""
""fullscreenenter"",""0"",""2849""
","""event"",""trial"",""time""
""fullscreenexit"",""4"",""24566""
","null","<p></p>","null","","","","","","","","","","","","","","","","","","","","","","","",""
"","do_trial","89","335324","0.0-54.0-0.0","""event"",""trial"",""time""
""fullscreenenter"",""0"",""2849""
""fullscreenexit"",""4"",""24566""
""blur"",""4"",""24574""
""focus"",""4"",""28847""
","""event"",""trial"",""time""
""blur"",""4"",""24574""
","""event"",""trial"",""time""
""focus"",""4"",""28847""
","""event"",""trial"",""time""
""fullscreenenter"",""0"",""2849""
","""event"",""trial"",""time""
""fullscreenexit"",""4"",""24566""
","859.9000000059605","","","","","","","","50","0,0,1","6","blank","265","null","0.18516614860119104","0.49647152113520365","0.3489995090444704","0","","","","","","","","",""
"","html-keyboard-response","90","336336","0.0-54.0-1.0","""event"",""trial"",""time""
""fullscreenenter"",""0"",""2849""
""fullscreenexit"",""4"",""24566""
""blur"",""4"",""24574""
""focus"",""4"",""28847""
","""event"",""trial"",""time""
""blur"",""4"",""24574""
","""event"",""trial"",""time""
""focus"",""4"",""28847""
","""event"",""trial"",""time""
""fullscreenenter"",""0"",""2849""
","""event"",""trial"",""time""
""fullscreenexit"",""4"",""24566""
","null","<p></p>","null","","","","","","","","","","","","","","","","","","","","","","","",""
"","do_trial","91","339733","0.0-55.0-0.0","""event"",""trial"",""time""
""fullscreenenter"",""0"",""2849""
""fullscreenexit"",""4"",""24566""
""blur"",""4"",""24574""
""focus"",""4"",""28847""
","""event"",""trial"",""time""
""blur"",""4"",""24574""
","""event"",""trial"",""time""
""focus"",""4"",""28847""
","""event"",""trial"",""time""
""fullscreenenter"",""0"",""2849""
","""event"",""trial"",""time""
""fullscreenexit"",""4"",""24566""
","818","","","","","","","","50","0,1,0","6","blank","266","null","0.20929524777957603","0.5687282957476704","0.44641343229419306","1","","","","","","","","",""
"","html-keyboard-response","92","340745","0.0-55.0-1.0","""event"",""trial"",""time""
""fullscreenenter"",""0"",""2849""
""fullscreenexit"",""4"",""24566""
""blur"",""4"",""24574""
""focus"",""4"",""28847""
","""event"",""trial"",""time""
""blur"",""4"",""24574""
","""event"",""trial"",""time""
""focus"",""4"",""28847""
","""event"",""trial"",""time""
""fullscreenenter"",""0"",""2849""
","""event"",""trial"",""time""
""fullscreenexit"",""4"",""24566""
","null","<p></p>","null","","","","","","","","","","","","","","","","","","","","","","","",""
"","do_trial","93","344021","0.0-56.0-0.0","""event"",""trial"",""time""
""fullscreenenter"",""0"",""2849""
""fullscreenexit"",""4"",""24566""
""blur"",""4"",""24574""
""focus"",""4"",""28847""
","""event"",""trial"",""time""
""blur"",""4"",""24574""
","""event"",""trial"",""time""
""focus"",""4"",""28847""
","""event"",""trial"",""time""
""fullscreenenter"",""0"",""2849""
","""event"",""trial"",""time""
""fullscreenexit"",""4"",""24566""
","702.7000000029802","","","","","","","","50","0,0,1","6","blank","267","null","0.13493522429990532","0.4909339389564727","0.4688839536626593","0","","","","","","","","",""
"","html-keyboard-response","94","345028","0.0-56.0-1.0","""event"",""trial"",""time""
""fullscreenenter"",""0"",""2849""
""fullscreenexit"",""4"",""24566""
""blur"",""4"",""24574""
""focus"",""4"",""28847""
","""event"",""trial"",""time""
""blur"",""4"",""24574""
","""event"",""trial"",""time""
""focus"",""4"",""28847""
","""event"",""trial"",""time""
""fullscreenenter"",""0"",""2849""
","""event"",""trial"",""time""
""fullscreenexit"",""4"",""24566""
","null","<p></p>","null","","","","","","","","","","","","","","","","","","","","","","","",""
"","do_trial","95","348217","0.0-57.0-0.0","""event"",""trial"",""time""
""fullscreenenter"",""0"",""2849""
""fullscreenexit"",""4"",""24566""
""blur"",""4"",""24574""
""focus"",""4"",""28847""
","""event"",""trial"",""time""
""blur"",""4"",""24574""
","""event"",""trial"",""time""
""focus"",""4"",""28847""
","""event"",""trial"",""time""
""fullscreenenter"",""0"",""2849""
","""event"",""trial"",""time""
""fullscreenexit"",""4"",""24566""
","620.5","","","","","","","","50","0,1,0","6","blank","268","null","0.147326791841215","0.662558220710329","0.38939217587954056","1","","","","","","","","",""
"","html-keyboard-response","96","349228","0.0-57.0-1.0","""event"",""trial"",""time""
""fullscreenenter"",""0"",""2849""
""fullscreenexit"",""4"",""24566""
""blur"",""4"",""24574""
""focus"",""4"",""28847""
""blur"",""97"",""352532""
""focus"",""97"",""375070""
","""event"",""trial"",""time""
""blur"",""4"",""24574""
""blur"",""97"",""352532""
","""event"",""trial"",""time""
""focus"",""4"",""28847""
""focus"",""97"",""375070""
","""event"",""trial"",""time""
""fullscreenenter"",""0"",""2849""
","""event"",""trial"",""time""
""fullscreenexit"",""4"",""24566""
","null","<p></p>","null","","","","","","","","","","","","","","","","","","","","","","","",""
"","break","97","375890","0.0-58.0-0.0","""event"",""trial"",""time""
""fullscreenenter"",""0"",""2849""
""fullscreenexit"",""4"",""24566""
""blur"",""4"",""24574""
""focus"",""4"",""28847""
""blur"",""97"",""352532""
""focus"",""97"",""375070""
","""event"",""trial"",""time""
""blur"",""4"",""24574""
""blur"",""97"",""352532""
","""event"",""trial"",""time""
""focus"",""4"",""28847""
""focus"",""97"",""375070""
","""event"",""trial"",""time""
""fullscreenenter"",""0"",""2849""
","""event"",""trial"",""time""
""fullscreenexit"",""4"",""24566""
","26659.60000000894","<div class='center'><p>Time to take a quick break! You have 2 minutes to rest, but you can move on sooner if you'd like.</p><p> Press the <b>space bar</b> to continue.</p></div>","32","","","","","","","","","","","","","","","","","","","","","","","",""
"","do_recog","98","379941","0.0-58.0-1.0","""event"",""trial"",""time""
""fullscreenenter"",""0"",""2849""
""fullscreenexit"",""4"",""24566""
""blur"",""4"",""24574""
""focus"",""4"",""28847""
""blur"",""97"",""352532""
""focus"",""97"",""375070""
","""event"",""trial"",""time""
""blur"",""4"",""24574""
""blur"",""97"",""352532""
","""event"",""trial"",""time""
""focus"",""4"",""28847""
""focus"",""97"",""375070""
","""event"",""trial"",""time""
""fullscreenenter"",""0"",""2849""
","""event"",""trial"",""time""
""fullscreenexit"",""4"",""24566""
","2528.8999999910593","","","","","","","","53","","","","269","probe-122","","","","","1","[object Object]","151","3","1","","","",""
"","html-keyboard-response","99","380950","0.0-58.0-2.0","""event"",""trial"",""time""
""fullscreenenter"",""0"",""2849""
""fullscreenexit"",""4"",""24566""
""blur"",""4"",""24574""
""focus"",""4"",""28847""
""blur"",""97"",""352532""
""focus"",""97"",""375070""
","""event"",""trial"",""time""
""blur"",""4"",""24574""
""blur"",""97"",""352532""
","""event"",""trial"",""time""
""focus"",""4"",""28847""
""focus"",""97"",""375070""
","""event"",""trial"",""time""
""fullscreenenter"",""0"",""2849""
","""event"",""trial"",""time""
""fullscreenexit"",""4"",""24566""
","null","<p></p>","null","","","","","","","","","","","","","","","","","","","","","","","",""
"","do_trial","100","384406","0.0-59.0-0.0","""event"",""trial"",""time""
""fullscreenenter"",""0"",""2849""
""fullscreenexit"",""4"",""24566""
""blur"",""4"",""24574""
""focus"",""4"",""28847""
""blur"",""97"",""352532""
""focus"",""97"",""375070""
","""event"",""trial"",""time""
""blur"",""4"",""24574""
""blur"",""97"",""352532""
","""event"",""trial"",""time""
""focus"",""4"",""28847""
""focus"",""97"",""375070""
","""event"",""trial"",""time""
""fullscreenenter"",""0"",""2849""
","""event"",""trial"",""time""
""fullscreenexit"",""4"",""24566""
","850.7999999970198","","","","","","","","50","0,0,1","6","blank","270","null","0.2808429791043987","0.67108272731324","0.35794211712894425","0","","","","","","","","",""
"","html-keyboard-response","101","385422","0.0-59.0-1.0","""event"",""trial"",""time""
""fullscreenenter"",""0"",""2849""
""fullscreenexit"",""4"",""24566""
""blur"",""4"",""24574""
""focus"",""4"",""28847""
""blur"",""97"",""352532""
""focus"",""97"",""375070""
","""event"",""trial"",""time""
""blur"",""4"",""24574""
""blur"",""97"",""352532""
","""event"",""trial"",""time""
""focus"",""4"",""28847""
""focus"",""97"",""375070""
","""event"",""trial"",""time""
""fullscreenenter"",""0"",""2849""
","""event"",""trial"",""time""
""fullscreenexit"",""4"",""24566""
","null","<p></p>","null","","","","","","","","","","","","","","","","","","","","","","","",""
"","do_recog","102","387786","0.0-60.0-0.0","""event"",""trial"",""time""
""fullscreenenter"",""0"",""2849""
""fullscreenexit"",""4"",""24566""
""blur"",""4"",""24574""
""focus"",""4"",""28847""
""blur"",""97"",""352532""
""focus"",""97"",""375070""
","""event"",""trial"",""time""
""blur"",""4"",""24574""
""blur"",""97"",""352532""
","""event"",""trial"",""time""
""focus"",""4"",""28847""
""focus"",""97"",""375070""
","""event"",""trial"",""time""
""fullscreenenter"",""0"",""2849""
","""event"",""trial"",""time""
""fullscreenexit"",""4"",""24566""
","850.1999999880791","","","","","","","","54","","","","271","probe-176","","","","","1","[object Object]","113","2","1","","","",""
"","html-keyboard-response","103","388787","0.0-60.0-1.0","""event"",""trial"",""time""
""fullscreenenter"",""0"",""2849""
""fullscreenexit"",""4"",""24566""
""blur"",""4"",""24574""
""focus"",""4"",""28847""
""blur"",""97"",""352532""
""focus"",""97"",""375070""
","""event"",""trial"",""time""
""blur"",""4"",""24574""
""blur"",""97"",""352532""
","""event"",""trial"",""time""
""focus"",""4"",""28847""
""focus"",""97"",""375070""
","""event"",""trial"",""time""
""fullscreenenter"",""0"",""2849""
","""event"",""trial"",""time""
""fullscreenexit"",""4"",""24566""
","null","<p></p>","null","","","","","","","","","","","","","","","","","","","","","","","",""
"","do_trial","104","392196","0.0-61.0-0.0","""event"",""trial"",""time""
""fullscreenenter"",""0"",""2849""
""fullscreenexit"",""4"",""24566""
""blur"",""4"",""24574""
""focus"",""4"",""28847""
""blur"",""97"",""352532""
""focus"",""97"",""375070""
","""event"",""trial"",""time""
""blur"",""4"",""24574""
""blur"",""97"",""352532""
","""event"",""trial"",""time""
""focus"",""4"",""28847""
""focus"",""97"",""375070""
","""event"",""trial"",""time""
""fullscreenenter"",""0"",""2849""
","""event"",""trial"",""time""
""fullscreenexit"",""4"",""24566""
","854.5","","","","","","","","51","0,1,0","6","blank","272","null","0.09210382715764841","0.6953886854688314","0.46771232203030894","0","","","","","","","","",""
"","html-keyboard-response","105","393213","0.0-61.0-1.0","""event"",""trial"",""time""
""fullscreenenter"",""0"",""2849""
""fullscreenexit"",""4"",""24566""
""blur"",""4"",""24574""
""focus"",""4"",""28847""
""blur"",""97"",""352532""
""focus"",""97"",""375070""
","""event"",""trial"",""time""
""blur"",""4"",""24574""
""blur"",""97"",""352532""
","""event"",""trial"",""time""
""focus"",""4"",""28847""
""focus"",""97"",""375070""
","""event"",""trial"",""time""
""fullscreenenter"",""0"",""2849""
","""event"",""trial"",""time""
""fullscreenexit"",""4"",""24566""
","null","<p></p>","null","","","","","","","","","","","","","","","","","","","","","","","",""
"","do_trial","106","396420","0.0-62.0-0.0","""event"",""trial"",""time""
""fullscreenenter"",""0"",""2849""
""fullscreenexit"",""4"",""24566""
""blur"",""4"",""24574""
""focus"",""4"",""28847""
""blur"",""97"",""352532""
""focus"",""97"",""375070""
","""event"",""trial"",""time""
""blur"",""4"",""24574""
""blur"",""97"",""352532""
","""event"",""trial"",""time""
""focus"",""4"",""28847""
""focus"",""97"",""375070""
","""event"",""trial"",""time""
""fullscreenenter"",""0"",""2849""
","""event"",""trial"",""time""
""fullscreenexit"",""4"",""24566""
","609.2999999970198","","","","","","","","49","0,0,0","6","blank","273","null","0.08684601683352228","0.7378950695563559","0.33647618682974967","0","","","","","","","","",""
"","html-keyboard-response","107","397426","0.0-62.0-1.0","""event"",""trial"",""time""
""fullscreenenter"",""0"",""2849""
""fullscreenexit"",""4"",""24566""
""blur"",""4"",""24574""
""focus"",""4"",""28847""
""blur"",""97"",""352532""
""focus"",""97"",""375070""
","""event"",""trial"",""time""
""blur"",""4"",""24574""
""blur"",""97"",""352532""
","""event"",""trial"",""time""
""focus"",""4"",""28847""
""focus"",""97"",""375070""
","""event"",""trial"",""time""
""fullscreenenter"",""0"",""2849""
","""event"",""trial"",""time""
""fullscreenexit"",""4"",""24566""
","null","<p></p>","null","","","","","","","","","","","","","","","","","","","","","","","",""
"","do_trial","108","400177","0.0-63.0-0.0","""event"",""trial"",""time""
""fullscreenenter"",""0"",""2849""
""fullscreenexit"",""4"",""24566""
""blur"",""4"",""24574""
""focus"",""4"",""28847""
""blur"",""97"",""352532""
""focus"",""97"",""375070""
","""event"",""trial"",""time""
""blur"",""4"",""24574""
""blur"",""97"",""352532""
","""event"",""trial"",""time""
""focus"",""4"",""28847""
""focus"",""97"",""375070""
","""event"",""trial"",""time""
""fullscreenenter"",""0"",""2849""
","""event"",""trial"",""time""
""fullscreenexit"",""4"",""24566""
","172.59999999403954","","","","","","","","49","1,1,1","6","blank","274","null","0.1896364830905895","0.7890393922783895","0.3472416670643247","1","","","","","","","","",""
"","html-keyboard-response","109","401181","0.0-63.0-1.0","""event"",""trial"",""time""
""fullscreenenter"",""0"",""2849""
""fullscreenexit"",""4"",""24566""
""blur"",""4"",""24574""
""focus"",""4"",""28847""
""blur"",""97"",""352532""
""focus"",""97"",""375070""
","""event"",""trial"",""time""
""blur"",""4"",""24574""
""blur"",""97"",""352532""
","""event"",""trial"",""time""
""focus"",""4"",""28847""
""focus"",""97"",""375070""
","""event"",""trial"",""time""
""fullscreenenter"",""0"",""2849""
","""event"",""trial"",""time""
""fullscreenexit"",""4"",""24566""
","null","<p></p>","null","","","","","","","","","","","","","","","","","","","","","","","",""
"","do_recog","110","403957","0.0-64.0-0.0","""event"",""trial"",""time""
""fullscreenenter"",""0"",""2849""
""fullscreenexit"",""4"",""24566""
""blur"",""4"",""24574""
""focus"",""4"",""28847""
""blur"",""97"",""352532""
""focus"",""97"",""375070""
","""event"",""trial"",""time""
""blur"",""4"",""24574""
""blur"",""97"",""352532""
","""event"",""trial"",""time""
""focus"",""4"",""28847""
""focus"",""97"",""375070""
","""event"",""trial"",""time""
""fullscreenenter"",""0"",""2849""
","""event"",""trial"",""time""
""fullscreenexit"",""4"",""24566""
","1259.7999999970198","","","","","","","","54","","","","275","probe-66","","","","","1","[object Object]","119","2","1","","","",""
"","html-keyboard-response","111","404965","0.0-64.0-1.0","""event"",""trial"",""time""
""fullscreenenter"",""0"",""2849""
""fullscreenexit"",""4"",""24566""
""blur"",""4"",""24574""
""focus"",""4"",""28847""
""blur"",""97"",""352532""
""focus"",""97"",""375070""
","""event"",""trial"",""time""
""blur"",""4"",""24574""
""blur"",""97"",""352532""
","""event"",""trial"",""time""
""focus"",""4"",""28847""
""focus"",""97"",""375070""
","""event"",""trial"",""time""
""fullscreenenter"",""0"",""2849""
","""event"",""trial"",""time""
""fullscreenexit"",""4"",""24566""
","null","<p></p>","null","","","","","","","","","","","","","","","","","","","","","","","",""
"","do_trial","112","408269","0.0-65.0-0.0","""event"",""trial"",""time""
""fullscreenenter"",""0"",""2849""
""fullscreenexit"",""4"",""24566""
""blur"",""4"",""24574""
""focus"",""4"",""28847""
""blur"",""97"",""352532""
""focus"",""97"",""375070""
","""event"",""trial"",""time""
""blur"",""4"",""24574""
""blur"",""97"",""352532""
","""event"",""trial"",""time""
""focus"",""4"",""28847""
""focus"",""97"",""375070""
","""event"",""trial"",""time""
""fullscreenenter"",""0"",""2849""
","""event"",""trial"",""time""
""fullscreenexit"",""4"",""24566""
","741.0999999940395","","","","","","","","50","0,0,1","6","blank","276","null","0.2315149122818829","0.7547654062171444","0.26370161811963166","0","","","","","","","","",""
"","html-keyboard-response","113","409283","0.0-65.0-1.0","""event"",""trial"",""time""
""fullscreenenter"",""0"",""2849""
""fullscreenexit"",""4"",""24566""
""blur"",""4"",""24574""
""focus"",""4"",""28847""
""blur"",""97"",""352532""
""focus"",""97"",""375070""
","""event"",""trial"",""time""
""blur"",""4"",""24574""
""blur"",""97"",""352532""
","""event"",""trial"",""time""
""focus"",""4"",""28847""
""focus"",""97"",""375070""
","""event"",""trial"",""time""
""fullscreenenter"",""0"",""2849""
","""event"",""trial"",""time""
""fullscreenexit"",""4"",""24566""
","null","<p></p>","null","","","","","","","","","","","","","","","","","","","","","","","",""
"","do_trial","114","412473","0.0-66.0-0.0","""event"",""trial"",""time""
""fullscreenenter"",""0"",""2849""
""fullscreenexit"",""4"",""24566""
""blur"",""4"",""24574""
""focus"",""4"",""28847""
""blur"",""97"",""352532""
""focus"",""97"",""375070""
","""event"",""trial"",""time""
""blur"",""4"",""24574""
""blur"",""97"",""352532""
","""event"",""trial"",""time""
""focus"",""4"",""28847""
""focus"",""97"",""375070""
","""event"",""trial"",""time""
""fullscreenenter"",""0"",""2849""
","""event"",""trial"",""time""
""fullscreenexit"",""4"",""24566""
","625.7999999970198","","","","","","","","49","0,1,0","6","blank","277","null","0.09316684834635382","0.5749611254872482","0.22926521652876422","0","","","","","","","","",""
"","html-keyboard-response","115","413476","0.0-66.0-1.0","""event"",""trial"",""time""
""fullscreenenter"",""0"",""2849""
""fullscreenexit"",""4"",""24566""
""blur"",""4"",""24574""
""focus"",""4"",""28847""
""blur"",""97"",""352532""
""focus"",""97"",""375070""
","""event"",""trial"",""time""
""blur"",""4"",""24574""
""blur"",""97"",""352532""
","""event"",""trial"",""time""
""focus"",""4"",""28847""
""focus"",""97"",""375070""
","""event"",""trial"",""time""
""fullscreenenter"",""0"",""2849""
","""event"",""trial"",""time""
""fullscreenexit"",""4"",""24566""
","null","<p></p>","null","","","","","","","","","","","","","","","","","","","","","","","",""
"","do_trial","116","416676","0.0-67.0-0.0","""event"",""trial"",""time""
""fullscreenenter"",""0"",""2849""
""fullscreenexit"",""4"",""24566""
""blur"",""4"",""24574""
""focus"",""4"",""28847""
""blur"",""97"",""352532""
""focus"",""97"",""375070""
","""event"",""trial"",""time""
""blur"",""4"",""24574""
""blur"",""97"",""352532""
","""event"",""trial"",""time""
""focus"",""4"",""28847""
""focus"",""97"",""375070""
","""event"",""trial"",""time""
""fullscreenenter"",""0"",""2849""
","""event"",""trial"",""time""
""fullscreenexit"",""4"",""24566""
","630.9000000059605","","","","","","","","50","0,0,0","6","blank","278","null","0.13178342549626662","0.5600761779074201","0.2693727753526155","0","","","","","","","","",""
"","html-keyboard-response","117","417682","0.0-67.0-1.0","""event"",""trial"",""time""
""fullscreenenter"",""0"",""2849""
""fullscreenexit"",""4"",""24566""
""blur"",""4"",""24574""
""focus"",""4"",""28847""
""blur"",""97"",""352532""
""focus"",""97"",""375070""
","""event"",""trial"",""time""
""blur"",""4"",""24574""
""blur"",""97"",""352532""
","""event"",""trial"",""time""
""focus"",""4"",""28847""
""focus"",""97"",""375070""
","""event"",""trial"",""time""
""fullscreenenter"",""0"",""2849""
","""event"",""trial"",""time""
""fullscreenexit"",""4"",""24566""
","null","<p></p>","null","","","","","","","","","","","","","","","","","","","","","","","",""
"","do_trial","118","420799","0.0-68.0-0.0","""event"",""trial"",""time""
""fullscreenenter"",""0"",""2849""
""fullscreenexit"",""4"",""24566""
""blur"",""4"",""24574""
""focus"",""4"",""28847""
""blur"",""97"",""352532""
""focus"",""97"",""375070""
","""event"",""trial"",""time""
""blur"",""4"",""24574""
""blur"",""97"",""352532""
","""event"",""trial"",""time""
""focus"",""4"",""28847""
""focus"",""97"",""375070""
","""event"",""trial"",""time""
""fullscreenenter"",""0"",""2849""
","""event"",""trial"",""time""
""fullscreenexit"",""4"",""24566""
","563.8999999910593","","","","","","","","50","0,1,0","6","blank","279","null","0.21670951694670723","0.32923910423711517","0.2750752585918249","1","","","","","","","","",""
"","html-keyboard-response","119","421813","0.0-68.0-1.0","""event"",""trial"",""time""
""fullscreenenter"",""0"",""2849""
""fullscreenexit"",""4"",""24566""
""blur"",""4"",""24574""
""focus"",""4"",""28847""
""blur"",""97"",""352532""
""focus"",""97"",""375070""
","""event"",""trial"",""time""
""blur"",""4"",""24574""
""blur"",""97"",""352532""
","""event"",""trial"",""time""
""focus"",""4"",""28847""
""focus"",""97"",""375070""
","""event"",""trial"",""time""
""fullscreenenter"",""0"",""2849""
","""event"",""trial"",""time""
""fullscreenexit"",""4"",""24566""
","null","<p></p>","null","","","","","","","","","","","","","","","","","","","","","","","",""
"","do_trial","120","424801","0.0-69.0-0.0","""event"",""trial"",""time""
""fullscreenenter"",""0"",""2849""
""fullscreenexit"",""4"",""24566""
""blur"",""4"",""24574""
""focus"",""4"",""28847""
""blur"",""97"",""352532""
""focus"",""97"",""375070""
","""event"",""trial"",""time""
""blur"",""4"",""24574""
""blur"",""97"",""352532""
","""event"",""trial"",""time""
""focus"",""4"",""28847""
""focus"",""97"",""375070""
","""event"",""trial"",""time""
""fullscreenenter"",""0"",""2849""
","""event"",""trial"",""time""
""fullscreenexit"",""4"",""24566""
","440.70000000298023","","","","","","","","50","1,0,0","6","blank","280","null","0.13920526707471217","0.44822713084663807","0.20782550976315173","0","","","","","","","","",""
"","html-keyboard-response","121","425807","0.0-69.0-1.0","""event"",""trial"",""time""
""fullscreenenter"",""0"",""2849""
""fullscreenexit"",""4"",""24566""
""blur"",""4"",""24574""
""focus"",""4"",""28847""
""blur"",""97"",""352532""
""focus"",""97"",""375070""
","""event"",""trial"",""time""
""blur"",""4"",""24574""
""blur"",""97"",""352532""
","""event"",""trial"",""time""
""focus"",""4"",""28847""
""focus"",""97"",""375070""
","""event"",""trial"",""time""
""fullscreenenter"",""0"",""2849""
","""event"",""trial"",""time""
""fullscreenexit"",""4"",""24566""
","null","<p></p>","null","","","","","","","","","","","","","","","","","","","","","","","",""
"","do_trial","122","428640","0.0-70.0-0.0","""event"",""trial"",""time""
""fullscreenenter"",""0"",""2849""
""fullscreenexit"",""4"",""24566""
""blur"",""4"",""24574""
""focus"",""4"",""28847""
""blur"",""97"",""352532""
""focus"",""97"",""375070""
","""event"",""trial"",""time""
""blur"",""4"",""24574""
""blur"",""97"",""352532""
","""event"",""trial"",""time""
""focus"",""4"",""28847""
""focus"",""97"",""375070""
","""event"",""trial"",""time""
""fullscreenenter"",""0"",""2849""
","""event"",""trial"",""time""
""fullscreenexit"",""4"",""24566""
","290.79999999701977","","","","","","","","49","0,0,0","6","blank","281","null","0.130866460001665","0.486994022706638","0.15604323401302778","0","","","","","","","","",""
"","html-keyboard-response","123","429653","0.0-70.0-1.0","""event"",""trial"",""time""
""fullscreenenter"",""0"",""2849""
""fullscreenexit"",""4"",""24566""
""blur"",""4"",""24574""
""focus"",""4"",""28847""
""blur"",""97"",""352532""
""focus"",""97"",""375070""
","""event"",""trial"",""time""
""blur"",""4"",""24574""
""blur"",""97"",""352532""
","""event"",""trial"",""time""
""focus"",""4"",""28847""
""focus"",""97"",""375070""
","""event"",""trial"",""time""
""fullscreenenter"",""0"",""2849""
","""event"",""trial"",""time""
""fullscreenexit"",""4"",""24566""
","null","<p></p>","null","","","","","","","","","","","","","","","","","","","","","","","",""
"","do_trial","124","432564","0.0-71.0-0.0","""event"",""trial"",""time""
""fullscreenenter"",""0"",""2849""
""fullscreenexit"",""4"",""24566""
""blur"",""4"",""24574""
""focus"",""4"",""28847""
""blur"",""97"",""352532""
""focus"",""97"",""375070""
","""event"",""trial"",""time""
""blur"",""4"",""24574""
""blur"",""97"",""352532""
","""event"",""trial"",""time""
""focus"",""4"",""28847""
""focus"",""97"",""375070""
","""event"",""trial"",""time""
""fullscreenenter"",""0"",""2849""
","""event"",""trial"",""time""
""fullscreenexit"",""4"",""24566""
","364.5","","","","","","","","51","0,1,0","6","blank","282","null","0.08001186542999973","0.6534350896387733","0.1286514639125147","0","","","","","","","","",""
"","html-keyboard-response","125","433579","0.0-71.0-1.0","""event"",""trial"",""time""
""fullscreenenter"",""0"",""2849""
""fullscreenexit"",""4"",""24566""
""blur"",""4"",""24574""
""focus"",""4"",""28847""
""blur"",""97"",""352532""
""focus"",""97"",""375070""
","""event"",""trial"",""time""
""blur"",""4"",""24574""
""blur"",""97"",""352532""
","""event"",""trial"",""time""
""focus"",""4"",""28847""
""focus"",""97"",""375070""
","""event"",""trial"",""time""
""fullscreenenter"",""0"",""2849""
","""event"",""trial"",""time""
""fullscreenexit"",""4"",""24566""
","null","<p></p>","null","","","","","","","","","","","","","","","","","","","","","","","",""
"","do_recog","126","436140","0.0-72.0-0.0","""event"",""trial"",""time""
""fullscreenenter"",""0"",""2849""
""fullscreenexit"",""4"",""24566""
""blur"",""4"",""24574""
""focus"",""4"",""28847""
""blur"",""97"",""352532""
""focus"",""97"",""375070""
","""event"",""trial"",""time""
""blur"",""4"",""24574""
""blur"",""97"",""352532""
","""event"",""trial"",""time""
""focus"",""4"",""28847""
""focus"",""97"",""375070""
","""event"",""trial"",""time""
""fullscreenenter"",""0"",""2849""
","""event"",""trial"",""time""
""fullscreenexit"",""4"",""24566""
","1039.7000000029802","","","","","","","","54","","","","283","probe-235","","","","","0","[object Object]","null","null","0","","","",""
"","html-keyboard-response","127","437151","0.0-72.0-1.0","""event"",""trial"",""time""
""fullscreenenter"",""0"",""2849""
""fullscreenexit"",""4"",""24566""
""blur"",""4"",""24574""
""focus"",""4"",""28847""
""blur"",""97"",""352532""
""focus"",""97"",""375070""
","""event"",""trial"",""time""
""blur"",""4"",""24574""
""blur"",""97"",""352532""
","""event"",""trial"",""time""
""focus"",""4"",""28847""
""focus"",""97"",""375070""
","""event"",""trial"",""time""
""fullscreenenter"",""0"",""2849""
","""event"",""trial"",""time""
""fullscreenexit"",""4"",""24566""
","null","<p></p>","null","","","","","","","","","","","","","","","","","","","","","","","",""
"","do_trial","128","440344","0.0-73.0-0.0","""event"",""trial"",""time""
""fullscreenenter"",""0"",""2849""
""fullscreenexit"",""4"",""24566""
""blur"",""4"",""24574""
""focus"",""4"",""28847""
""blur"",""97"",""352532""
""focus"",""97"",""375070""
","""event"",""trial"",""time""
""blur"",""4"",""24574""
""blur"",""97"",""352532""
","""event"",""trial"",""time""
""focus"",""4"",""28847""
""focus"",""97"",""375070""
","""event"",""trial"",""time""
""fullscreenenter"",""0"",""2849""
","""event"",""trial"",""time""
""fullscreenexit"",""4"",""24566""
","623.7000000029802","","","","","","","","49","0,1,0","6","blank","284","null","0.08586640816574619","0.6856917024504265","0.12481468879233014","0","","","","","","","","",""
"","html-keyboard-response","129","441347","0.0-73.0-1.0","""event"",""trial"",""time""
""fullscreenenter"",""0"",""2849""
""fullscreenexit"",""4"",""24566""
""blur"",""4"",""24574""
""focus"",""4"",""28847""
""blur"",""97"",""352532""
""focus"",""97"",""375070""
","""event"",""trial"",""time""
""blur"",""4"",""24574""
""blur"",""97"",""352532""
","""event"",""trial"",""time""
""focus"",""4"",""28847""
""focus"",""97"",""375070""
","""event"",""trial"",""time""
""fullscreenenter"",""0"",""2849""
","""event"",""trial"",""time""
""fullscreenexit"",""4"",""24566""
","null","<p></p>","null","","","","","","","","","","","","","","","","","","","","","","","",""
"","do_recog","130","443676","0.0-74.0-0.0","""event"",""trial"",""time""
""fullscreenenter"",""0"",""2849""
""fullscreenexit"",""4"",""24566""
""blur"",""4"",""24574""
""focus"",""4"",""28847""
""blur"",""97"",""352532""
""focus"",""97"",""375070""
","""event"",""trial"",""time""
""blur"",""4"",""24574""
""blur"",""97"",""352532""
","""event"",""trial"",""time""
""focus"",""4"",""28847""
""focus"",""97"",""375070""
","""event"",""trial"",""time""
""fullscreenenter"",""0"",""2849""
","""event"",""trial"",""time""
""fullscreenexit"",""4"",""24566""
","820.7000000029802","","","","","","","","55","","","","285","probe-87","","","","","1","[object Object]","157","3","0","","","",""
"","html-keyboard-response","131","444689","0.0-74.0-1.0","""event"",""trial"",""time""
""fullscreenenter"",""0"",""2849""
""fullscreenexit"",""4"",""24566""
""blur"",""4"",""24574""
""focus"",""4"",""28847""
""blur"",""97"",""352532""
""focus"",""97"",""375070""
","""event"",""trial"",""time""
""blur"",""4"",""24574""
""blur"",""97"",""352532""
","""event"",""trial"",""time""
""focus"",""4"",""28847""
""focus"",""97"",""375070""
","""event"",""trial"",""time""
""fullscreenenter"",""0"",""2849""
","""event"",""trial"",""time""
""fullscreenexit"",""4"",""24566""
","null","<p></p>","null","","","","","","","","","","","","","","","","","","","","","","","",""
"","do_trial","132","447861","0.0-75.0-0.0","""event"",""trial"",""time""
""fullscreenenter"",""0"",""2849""
""fullscreenexit"",""4"",""24566""
""blur"",""4"",""24574""
""focus"",""4"",""28847""
""blur"",""97"",""352532""
""focus"",""97"",""375070""
","""event"",""trial"",""time""
""blur"",""4"",""24574""
""blur"",""97"",""352532""
","""event"",""trial"",""time""
""focus"",""4"",""28847""
""focus"",""97"",""375070""
","""event"",""trial"",""time""
""fullscreenenter"",""0"",""2849""
","""event"",""trial"",""time""
""fullscreenexit"",""4"",""24566""
","623.7000000029802","","","","","","","","49","0,0,0","6","blank","286","null","0.08850057154211333","0.5509404618107867","0.19372025145319646","0","","","","","","","","",""
"","html-keyboard-response","133","448870","0.0-75.0-1.0","""event"",""trial"",""time""
""fullscreenenter"",""0"",""2849""
""fullscreenexit"",""4"",""24566""
""blur"",""4"",""24574""
""focus"",""4"",""28847""
""blur"",""97"",""352532""
""focus"",""97"",""375070""
","""event"",""trial"",""time""
""blur"",""4"",""24574""
""blur"",""97"",""352532""
","""event"",""trial"",""time""
""focus"",""4"",""28847""
""focus"",""97"",""375070""
","""event"",""trial"",""time""
""fullscreenenter"",""0"",""2849""
","""event"",""trial"",""time""
""fullscreenexit"",""4"",""24566""
","null","<p></p>","null","","","","","","","","","","","","","","","","","","","","","","","",""
"","do_trial","134","451899","0.0-76.0-0.0","""event"",""trial"",""time""
""fullscreenenter"",""0"",""2849""
""fullscreenexit"",""4"",""24566""
""blur"",""4"",""24574""
""focus"",""4"",""28847""
""blur"",""97"",""352532""
""focus"",""97"",""375070""
","""event"",""trial"",""time""
""blur"",""4"",""24574""
""blur"",""97"",""352532""
","""event"",""trial"",""time""
""focus"",""4"",""28847""
""focus"",""97"",""375070""
","""event"",""trial"",""time""
""fullscreenenter"",""0"",""2849""
","""event"",""trial"",""time""
""fullscreenexit"",""4"",""24566""
","422.59999999403954","","","","","","","","50","1,1,0","6","blank","287","null","0.14947716184581183","0.557015372286263","0.3356742875482971","1","","","","","","","","",""
"","html-keyboard-response","135","452913","0.0-76.0-1.0","""event"",""trial"",""time""
""fullscreenenter"",""0"",""2849""
""fullscreenexit"",""4"",""24566""
""blur"",""4"",""24574""
""focus"",""4"",""28847""
""blur"",""97"",""352532""
""focus"",""97"",""375070""
","""event"",""trial"",""time""
""blur"",""4"",""24574""
""blur"",""97"",""352532""
","""event"",""trial"",""time""
""focus"",""4"",""28847""
""focus"",""97"",""375070""
","""event"",""trial"",""time""
""fullscreenenter"",""0"",""2849""
","""event"",""trial"",""time""
""fullscreenexit"",""4"",""24566""
","null","<p></p>","null","","","","","","","","","","","","","","","","","","","","","","","",""
"","do_trial","136","456185","0.0-77.0-0.0","""event"",""trial"",""time""
""fullscreenenter"",""0"",""2849""
""fullscreenexit"",""4"",""24566""
""blur"",""4"",""24574""
""focus"",""4"",""28847""
""blur"",""97"",""352532""
""focus"",""97"",""375070""
","""event"",""trial"",""time""
""blur"",""4"",""24574""
""blur"",""97"",""352532""
","""event"",""trial"",""time""
""focus"",""4"",""28847""
""focus"",""97"",""375070""
","""event"",""trial"",""time""
""fullscreenenter"",""0"",""2849""
","""event"",""trial"",""time""
""fullscreenexit"",""4"",""24566""
","704","","","","","","","","51","0,0,0","6","blank","288","null","0.11652732122958513","0.5222212171553006","0.22545158953490524","0","","","","","","","","",""
"","html-keyboard-response","137","457199","0.0-77.0-1.0","""event"",""trial"",""time""
""fullscreenenter"",""0"",""2849""
""fullscreenexit"",""4"",""24566""
""blur"",""4"",""24574""
""focus"",""4"",""28847""
""blur"",""97"",""352532""
""focus"",""97"",""375070""
","""event"",""trial"",""time""
""blur"",""4"",""24574""
""blur"",""97"",""352532""
","""event"",""trial"",""time""
""focus"",""4"",""28847""
""focus"",""97"",""375070""
","""event"",""trial"",""time""
""fullscreenenter"",""0"",""2849""
","""event"",""trial"",""time""
""fullscreenexit"",""4"",""24566""
","null","<p></p>","null","","","","","","","","","","","","","","","","","","","","","","","",""
"","do_trial","138","460246","0.0-78.0-0.0","""event"",""trial"",""time""
""fullscreenenter"",""0"",""2849""
""fullscreenexit"",""4"",""24566""
""blur"",""4"",""24574""
""focus"",""4"",""28847""
""blur"",""97"",""352532""
""focus"",""97"",""375070""
","""event"",""trial"",""time""
""blur"",""4"",""24574""
""blur"",""97"",""352532""
","""event"",""trial"",""time""
""focus"",""4"",""28847""
""focus"",""97"",""375070""
","""event"",""trial"",""time""
""fullscreenenter"",""0"",""2849""
","""event"",""trial"",""time""
""fullscreenexit"",""4"",""24566""
","493.70000000298023","","","","","","","","50","0,0,1","6","blank","289","null","0.07867608846643849","0.6050255332335154","0.22676728349362407","0","","","","","","","","",""
"","html-keyboard-response","139","461261","0.0-78.0-1.0","""event"",""trial"",""time""
""fullscreenenter"",""0"",""2849""
""fullscreenexit"",""4"",""24566""
""blur"",""4"",""24574""
""focus"",""4"",""28847""
""blur"",""97"",""352532""
""focus"",""97"",""375070""
","""event"",""trial"",""time""
""blur"",""4"",""24574""
""blur"",""97"",""352532""
","""event"",""trial"",""time""
""focus"",""4"",""28847""
""focus"",""97"",""375070""
","""event"",""trial"",""time""
""fullscreenenter"",""0"",""2849""
","""event"",""trial"",""time""
""fullscreenexit"",""4"",""24566""
","null","<p></p>","null","","","","","","","","","","","","","","","","","","","","","","","",""
"","do_trial","140","464195","0.0-79.0-0.0","""event"",""trial"",""time""
""fullscreenenter"",""0"",""2849""
""fullscreenexit"",""4"",""24566""
""blur"",""4"",""24574""
""focus"",""4"",""28847""
""blur"",""97"",""352532""
""focus"",""97"",""375070""
","""event"",""trial"",""time""
""blur"",""4"",""24574""
""blur"",""97"",""352532""
","""event"",""trial"",""time""
""focus"",""4"",""28847""
""focus"",""97"",""375070""
","""event"",""trial"",""time""
""fullscreenenter"",""0"",""2849""
","""event"",""trial"",""time""
""fullscreenexit"",""4"",""24566""
","363.70000000298023","","","","","","","","49","0,1,0","6","blank","290","null","0.22211278015184902","0.5647330515433747","0.2730400501694198","0","","","","","","","","",""
"","html-keyboard-response","141","465208","0.0-79.0-1.0","""event"",""trial"",""time""
""fullscreenenter"",""0"",""2849""
""fullscreenexit"",""4"",""24566""
""blur"",""4"",""24574""
""focus"",""4"",""28847""
""blur"",""97"",""352532""
""focus"",""97"",""375070""
","""event"",""trial"",""time""
""blur"",""4"",""24574""
""blur"",""97"",""352532""
","""event"",""trial"",""time""
""focus"",""4"",""28847""
""focus"",""97"",""375070""
","""event"",""trial"",""time""
""fullscreenenter"",""0"",""2849""
","""event"",""trial"",""time""
""fullscreenexit"",""4"",""24566""
","null","<p></p>","null","","","","","","","","","","","","","","","","","","","","","","","",""
"","do_trial","142","468260","0.0-80.0-0.0","""event"",""trial"",""time""
""fullscreenenter"",""0"",""2849""
""fullscreenexit"",""4"",""24566""
""blur"",""4"",""24574""
""focus"",""4"",""28847""
""blur"",""97"",""352532""
""focus"",""97"",""375070""
","""event"",""trial"",""time""
""blur"",""4"",""24574""
""blur"",""97"",""352532""
","""event"",""trial"",""time""
""focus"",""4"",""28847""
""focus"",""97"",""375070""
","""event"",""trial"",""time""
""fullscreenenter"",""0"",""2849""
","""event"",""trial"",""time""
""fullscreenexit"",""4"",""24566""
","504.70000000298023","","","","","","","","51","0,1,0","6","blank","291","null","0.16362168382249487","0.7219059510500355","0.37483942656668745","0","","","","","","","","",""
"","html-keyboard-response","143","469271","0.0-80.0-1.0","""event"",""trial"",""time""
""fullscreenenter"",""0"",""2849""
""fullscreenexit"",""4"",""24566""
""blur"",""4"",""24574""
""focus"",""4"",""28847""
""blur"",""97"",""352532""
""focus"",""97"",""375070""
","""event"",""trial"",""time""
""blur"",""4"",""24574""
""blur"",""97"",""352532""
","""event"",""trial"",""time""
""focus"",""4"",""28847""
""focus"",""97"",""375070""
","""event"",""trial"",""time""
""fullscreenenter"",""0"",""2849""
","""event"",""trial"",""time""
""fullscreenexit"",""4"",""24566""
","null","<p></p>","null","","","","","","","","","","","","","","","","","","","","","","","",""
"","do_recog","144","471950","0.0-81.0-0.0","""event"",""trial"",""time""
""fullscreenenter"",""0"",""2849""
""fullscreenexit"",""4"",""24566""
""blur"",""4"",""24574""
""focus"",""4"",""28847""
""blur"",""97"",""352532""
""focus"",""97"",""375070""
","""event"",""trial"",""time""
""blur"",""4"",""24574""
""blur"",""97"",""352532""
","""event"",""trial"",""time""
""focus"",""4"",""28847""
""focus"",""97"",""375070""
","""event"",""trial"",""time""
""fullscreenenter"",""0"",""2849""
","""event"",""trial"",""time""
""fullscreenexit"",""4"",""24566""
","1165.1000000089407","","","","","","","","54","","","","292","probe-169","","","","","1","[object Object]","76","1","1","","","",""
"","html-keyboard-response","145","472962","0.0-81.0-1.0","""event"",""trial"",""time""
""fullscreenenter"",""0"",""2849""
""fullscreenexit"",""4"",""24566""
""blur"",""4"",""24574""
""focus"",""4"",""28847""
""blur"",""97"",""352532""
""focus"",""97"",""375070""
","""event"",""trial"",""time""
""blur"",""4"",""24574""
""blur"",""97"",""352532""
","""event"",""trial"",""time""
""focus"",""4"",""28847""
""focus"",""97"",""375070""
","""event"",""trial"",""time""
""fullscreenenter"",""0"",""2849""
","""event"",""trial"",""time""
""fullscreenexit"",""4"",""24566""
","null","<p></p>","null","","","","","","","","","","","","","","","","","","","","","","","",""
"","do_trial","146","476079","0.0-82.0-0.0","""event"",""trial"",""time""
""fullscreenenter"",""0"",""2849""
""fullscreenexit"",""4"",""24566""
""blur"",""4"",""24574""
""focus"",""4"",""28847""
""blur"",""97"",""352532""
""focus"",""97"",""375070""
","""event"",""trial"",""time""
""blur"",""4"",""24574""
""blur"",""97"",""352532""
","""event"",""trial"",""time""
""focus"",""4"",""28847""
""focus"",""97"",""375070""
","""event"",""trial"",""time""
""fullscreenenter"",""0"",""2849""
","""event"",""trial"",""time""
""fullscreenexit"",""4"",""24566""
","546.7000000029802","","","","","","","","50","0,1,1","6","blank","293","null","0.23096951882249525","0.4408062081874191","0.12789328081845727","1","","","","","","","","",""
"","html-keyboard-response","147","477086","0.0-82.0-1.0","""event"",""trial"",""time""
""fullscreenenter"",""0"",""2849""
""fullscreenexit"",""4"",""24566""
""blur"",""4"",""24574""
""focus"",""4"",""28847""
""blur"",""97"",""352532""
""focus"",""97"",""375070""
","""event"",""trial"",""time""