success,trial_type,trial_index,time_elapsed,internal_node_id,rt,stimulus,subject_id,key_press,response,choice_outcomes,context_n,context_img_id,trial_n,probe_img_id,pR_red,pR_white,pR_black,outcome,is_valid,image_to_show,probed_trial,probed_context,correct,context_id
TRUE,fullscreen,0,3225,0.0-0.0,,,,,,,,,,,,,,,,,,,,
,pavlovia,1,3229,0.0-1.0,,,,,,,,,,,,,,,,,,,,
,html-keyboard-response,2,4868,0.0-2.0,1638.2,"<div class='center'><p>Like yesterday,as the head captain of the ship, you have one important things to do: </p><b><p> Pick the pirate who you think will be most successful at robbing the next ship.</p></b><p>This is important in determining how much bonus money you’ll win.</p><br><p>The game will start by showing you the pirates. First pick a pirate using the <b> 1, 2, 3 </b> buttons on your keyboard. </p><p> Press <b>'1'</b> to choose red beard, <b>'2'</b> to choose white beard, and <b>'3'</b> to choose black beard</p><p> You only have 3 seconds to pick a pirate, so please make a choice quickly! If you are too slow, you’ll have to wait a bit during the time out.</p><p> Don’t feel rushed, but please do try to make a choice every time.</p><p>How good a pirate is at robbing a ship will change depending on the place they are in and how good the defenses are of the ship.</p><p><b>[Press the space bar to begin the practice game]</b></p></div>",6153985e7640f9294606c01b,32,,,,,,,,,,,,,,,,
,html-keyboard-response,3,5748,0.0-3.0,878.4,"<div class='center'><p>You’ve arrived at the final island of your journey! Unfortunately, it’s very foggy out, so you won’t be able to see it in the distance like the previous islands you've visited.</p><p>You’ll still be deciding which pirate you want to rob a ship like before. However, because of the fog, you also won’t be able to see the ship.</p><p>This means you do not have to remember the ships you rob on this island.</p><p><b>[Press the space bar to continue]</b></p></div>",,32,,,,,,,,,,,,,,,,
,html-keyboard-response,4,15398,0.0-4.0,9649.3,"<div class='center'><p> Sometimes you’ll be shown a ship, and you will be asked if you saw this ship on a past island.</p><p> Here is an example of what you will see.</p><p><b>[Press the space bar to continue]</b></p><p><img src='run_exp/static/images/tutorial/example_recog_trial.png' height='500'></p></div>",,32,,,,,,,,,,,,,,,,
,html-keyboard-response,5,33106,0.0-5.0,17706.5,"<div class='center'><p> You will press the 5, 6, 7, 8 buttons on your keyboard to respond.</p><p>If you are very sure saw the ship, press <b>5</b> on your keyboard.</p><p> If you think you  saw it before but are not sure, then press <b>6</b>.</p><p> If you think you have not seen it before but are not sure, then press <b>7</b>.</p><p> If you are sure you did not see the ship before, then press <b>8</b>.</p><p><b>[Press the space bar to continue]</b></p><p><img src='run_exp/static/images/tutorial/example_recog_trial.png' height='500'></p></div>",,32,,,,,,,,,,,,,,,,
,html-keyboard-response,6,36907,0.0-6.0,3799.8,"<div class='center'><p> If you remember correctly, then you’ll get a gold coin like this: </p><p><img src='run_exp/static/images/tutorial/reward_small.png' height='200'></p><p>If you do not remember correctly, then you'll see a red x like this: </p><p><img src='run_exp/static/images/tutorial/reward_no.png' height='200'></p><p>Importantly, when you are shown a ship, take the time to remind yourself which island you saw it on. This will help you in the next part of the study.</p><p><b>[Press the space bar to continue]</b></p></div>",,32,,,,,,,,,,,,,,,,
,html-keyboard-response,7,50128,0.0-7.0,13219.2,"<div class='center'><p>Let's go over the important points again. Your job is to: </p><p>1. Pick the pirate who is best at robbing ships and will bring you back gold coins. </p><p>2. Correctly remember whether or not you saw a ship before. If you did see the ship before, remind yourself on which island you saw the ship. </p><p><b>[Press the space bar to begin the next part of the study]</b></p></div>",,32,,,,,,,,,,,,,,,,
,do_welcome,8,51643,0.0-8.0,null,,,,null,,,,,,,,,,,,,,,
,do_trial,9,57692,0.0-9.0-0.0,null,,,,null,"0,0,0",6,blank,230,null,0.49817049,0.369970653,0.086846329,,,,,,,
,html-keyboard-response,10,58696,0.0-9.0-1.0,null,<p></p>,,null,,,,,,,,,,,,,,,,
,do_trial,11,61885,0.0-10.0-0.0,647.9,,,,49,"1,1,0",6,blank,231,null,0.641635211,0.429067921,0.146492476,1,,,,,,
,html-keyboard-response,12,62889,0.0-10.0-1.0,null,<p></p>,,null,,,,,,,,,,,,,,,,
,do_trial,13,66170,0.0-11.0-0.0,738.4,,,,49,"1,1,0",6,blank,232,null,0.637742362,0.422205631,0.096797734,1,,,,,,
,html-keyboard-response,14,67172,0.0-11.0-1.0,null,<p></p>,,null,,,,,,,,,,,,,,,,
,do_trial,15,70188,0.0-12.0-0.0,473.8,,,,49,"1,0,0",6,blank,233,null,0.660859939,0.411062343,0.273174826,1,,,,,,
,html-keyboard-response,16,71192,0.0-12.0-1.0,null,<p></p>,,null,,,,,,,,,,,,,,,,
,do_trial,17,74225,0.0-13.0-0.0,495,,,,49,"0,0,0",6,blank,234,null,0.553263082,0.348194529,0.239696809,0,,,,,,
,html-keyboard-response,18,75229,0.0-13.0-1.0,null,<p></p>,,null,,,,,,,,,,,,,,,,
,do_trial,19,78387,0.0-14.0-0.0,620.1,,,,49,"1,0,0",6,blank,235,null,0.637768955,0.446120296,0.229005538,1,,,,,,
,html-keyboard-response,20,79390,0.0-14.0-1.0,null,<p></p>,,null,,,,,,,,,,,,,,,,
,do_trial,21,82362,0.0-15.0-0.0,433.1,,,,49,"1,0,0",6,blank,236,null,0.555842465,0.415382667,0.0974494,1,,,,,,
,html-keyboard-response,22,83368,0.0-15.0-1.0,null,<p></p>,,null,,,,,,,,,,,,,,,,
,do_trial,23,86281,0.0-16.0-0.0,372.2,,,,49,"1,0,0",6,blank,237,null,0.589570129,0.297539686,0.21814385,1,,,,,,
,html-keyboard-response,24,87287,0.0-16.0-1.0,null,<p></p>,,null,,,,,,,,,,,,,,,,
,do_trial,25,90215,0.0-17.0-0.0,387.1,,,,49,"1,0,0",6,blank,238,null,0.66661528,0.405041271,0.160078917,1,,,,,,
,html-keyboard-response,26,91219,0.0-17.0-1.0,null,<p></p>,,null,,,,,,,,,,,,,,,,
,do_trial,27,94073,0.0-18.0-0.0,316.6,,,,49,"0,0,0",6,blank,239,null,0.577573372,0.40683504,0.192991196,0,,,,,,
,html-keyboard-response,28,95079,0.0-18.0-1.0,null,<p></p>,,null,,,,,,,,,,,,,,,,
,do_trial,29,98069,0.0-19.0-0.0,448.6,,,,49,"0,1,0",6,blank,240,null,0.524588419,0.437213731,0.180818727,0,,,,,,
,html-keyboard-response,30,99075,0.0-19.0-1.0,null,<p></p>,,null,,,,,,,,,,,,,,,,
,do_trial,31,101979,0.0-20.0-0.0,366.5,,,,49,"0,1,0",6,blank,241,null,0.544761867,0.509392862,0.269919657,0,,,,,,
,html-keyboard-response,32,102983,0.0-20.0-1.0,null,<p></p>,,null,,,,,,,,,,,,,,,,
,do_trial,33,105880,0.0-21.0-0.0,357.5,,,,50,"0,1,0",6,blank,242,null,0.274337487,0.459303251,0.314783943,1,,,,,,
,html-keyboard-response,34,106887,0.0-21.0-1.0,null,<p></p>,,null,,,,,,,,,,,,,,,,
,do_trial,35,109813,0.0-22.0-0.0,385.9,,,,50,"0,0,0",6,blank,243,null,0.141914657,0.385763298,0.284714711,0,,,,,,
,html-keyboard-response,36,110815,0.0-22.0-1.0,null,<p></p>,,null,,,,,,,,,,,,,,,,
,do_trial,37,113944,0.0-23.0-0.0,587.7,,,,50,"0,0,0",6,blank,244,null,0.138531138,0.588112299,0.262202622,0,,,,,,
,html-keyboard-response,38,114948,0.0-23.0-1.0,null,<p></p>,,null,,,,,,,,,,,,,,,,
,do_trial,39,118025,0.0-24.0-0.0,534.6,,,,51,"0,1,0",6,blank,245,null,0.107573575,0.730931744,0.325600815,0,,,,,,
,html-keyboard-response,40,119029,0.0-24.0-1.0,null,<p></p>,,null,,,,,,,,,,,,,,,,
,do_recog,41,125046,0.0-25.0-0.0,null,,,,null,,,,246,probe-196,,,,,1,[object Object],49,1,0,
,html-keyboard-response,42,126048,0.0-25.0-1.0,null,<p></p>,,null,,,,,,,,,,,,,,,,
,do_trial,43,129345,0.0-26.0-0.0,756.2,,,,49,"0,0,0",6,blank,247,null,0.061314245,0.665061143,0.109976909,0,,,,,,
,html-keyboard-response,44,130349,0.0-26.0-1.0,null,<p></p>,,null,,,,,,,,,,,,,,,,
,do_recog,45,133553,0.0-27.0-0.0,1694.8,,,,55,,,,248,probe-05,,,,,1,[object Object],40,1,0,
,html-keyboard-response,46,134558,0.0-27.0-1.0,null,<p></p>,,null,,,,,,,,,,,,,,,,
,do_trial,47,138099,0.0-28.0-0.0,998.4,,,,49,"0,1,0",6,blank,249,null,0.114921378,0.485500861,0.168279219,0,,,,,,
,html-keyboard-response,48,139105,0.0-28.0-1.0,null,<p></p>,,null,,,,,,,,,,,,,,,,
,do_trial,49,142232,0.0-29.0-0.0,587.6,,,,50,"0,0,0",6,blank,250,null,0.071757848,0.397481558,0.138611082,0,,,,,,
,html-keyboard-response,50,143236,0.0-29.0-1.0,null,<p></p>,,null,,,,,,,,,,,,,,,,
,do_trial,51,146118,0.0-30.0-0.0,339.7,,,,51,"0,0,1",6,blank,251,null,0.127107314,0.443959516,0.181891915,1,,,,,,
,html-keyboard-response,52,147120,0.0-30.0-1.0,null,<p></p>,,null,,,,,,,,,,,,,,,,
,do_trial,53,151311,0.0-31.0-0.0,1649.1,,,,51,"0,0,0",6,blank,252,null,0.125380881,0.559791015,0.242717806,0,,,,,,
,html-keyboard-response,54,152314,0.0-31.0-1.0,null,<p></p>,,null,,,,,,,,,,,,,,,,
,do_recog,55,155003,0.0-32.0-0.0,1180.7,,,,54,,,,253,probe-95,,,,,1,[object Object],202,5,1,
,html-keyboard-response,56,156010,0.0-32.0-1.0,null,<p></p>,,null,,,,,,,,,,,,,,,,
,do_trial,57,159493,0.0-33.0-0.0,939.6,,,,51,"0,1,0",6,blank,254,null,0.121243129,0.531903266,0.169518305,0,,,,,,
,html-keyboard-response,58,160495,0.0-33.0-1.0,null,<p></p>,,null,,,,,,,,,,,,,,,,
,do_trial,59,163758,0.0-34.0-0.0,722.9,,,,51,"0,1,1",6,blank,255,null,0.140431138,0.535728008,0.121386707,1,,,,,,
,html-keyboard-response,60,164762,0.0-34.0-1.0,null,<p></p>,,null,,,,,,,,,,,,,,,,
,do_trial,61,167926,0.0-35.0-0.0,624.5,,,,51,"0,0,0",6,blank,256,null,0.087665405,0.642146895,0.226711585,0,,,,,,
,html-keyboard-response,62,168930,0.0-35.0-1.0,null,<p></p>,,null,,,,,,,,,,,,,,,,
,do_trial,63,171904,0.0-36.0-0.0,433.2,,,,49,"0,0,1",6,blank,257,null,0.109678453,0.709686356,0.20283054,0,,,,,,
,html-keyboard-response,64,172907,0.0-36.0-1.0,null,<p></p>,,null,,,,,,,,,,,,,,,,
,do_recog,65,175699,0.0-37.0-0.0,1281.7,,,,56,,,,258,probe-118,,,,,1,[object Object],83,2,0,
,html-keyboard-response,66,176703,0.0-37.0-1.0,null,<p></p>,,null,,,,,,,,,,,,,,,,
,do_trial,67,179954,0.0-38.0-0.0,710.4,,,,50,"0,1,0",6,blank,259,null,0.081869439,0.743047314,0.155477205,1,,,,,,
,html-keyboard-response,68,180958,0.0-38.0-1.0,null,<p></p>,,null,,,,,,,,,,,,,,,,
,do_trial,69,184221,0.0-39.0-0.0,725,,,,50,"0,1,0",6,blank,260,null,0.239155341,0.6591994,0.10355117,1,,,,,,
,html-keyboard-response,70,185226,0.0-39.0-1.0,null,<p></p>,,null,,,,,,,,,,,,,,,,
,do_trial,71,188209,0.0-40.0-0.0,440.3,,,,50,"0,1,0",6,blank,261,null,0.263254155,0.535410408,0.174478901,1,,,,,,
,html-keyboard-response,72,189212,0.0-40.0-1.0,null,<p></p>,,null,,,,,,,,,,,,,,,,
,do_trial,73,192145,0.0-41.0-0.0,395.1,,,,50,"0,0,0",6,blank,262,null,0.232301785,0.596243482,0.128751884,0,,,,,,
,html-keyboard-response,74,193149,0.0-41.0-1.0,null,<p></p>,,null,,,,,,,,,,,,,,,,
,do_trial,75,196345,0.0-42.0-0.0,654.3,,,,51,"0,1,0",6,blank,263,null,0.133625782,0.578231742,0.104050106,0,,,,,,
,html-keyboard-response,76,197348,0.0-42.0-1.0,null,<p></p>,,null,,,,,,,,,,,,,,,,
,do_recog,77,199727,0.0-43.0-0.0,867.9,,,,54,,,,264,probe-97,,,,,1,[object Object],128,3,1,
,html-keyboard-response,78,200731,0.0-43.0-1.0,null,<p></p>,,null,,,,,,,,,,,,,,,,
,do_trial,79,203813,0.0-44.0-0.0,543.2,,,,50,"0,0,0",6,blank,265,null,0.143035369,0.527997125,0.060654765,0,,,,,,
,html-keyboard-response,80,204816,0.0-44.0-1.0,null,<p></p>,,null,,,,,,,,,,,,,,,,
,do_trial,81,207815,0.0-45.0-0.0,461.2,,,,51,"0,1,0",6,blank,266,null,0.162394628,0.723741098,0.058780645,0,,,,,,
,html-keyboard-response,82,208818,0.0-45.0-1.0,null,<p></p>,,null,,,,,,,,,,,,,,,,
,do_trial,83,211702,0.0-46.0-0.0,341.5,,,,49,"0,1,0",6,blank,267,null,0.201170145,0.661391334,0.213856683,0,,,,,,
,html-keyboard-response,84,212707,0.0-46.0-1.0,null,<p></p>,,null,,,,,,,,,,,,,,,,
,do_trial,85,215667,0.0-47.0-0.0,420.3,,,,50,"0,0,0",6,blank,268,null,0.215305856,0.666829262,0.318639922,0,,,,,,
,html-keyboard-response,86,216671,0.0-47.0-1.0,null,<p></p>,,null,,,,,,,,,,,,,,,,
,do_trial,87,219810,0.0-48.0-0.0,598.9,,,,51,"1,0,0",6,blank,269,null,0.16104131,0.682170126,0.3809293,0,,,,,,
,html-keyboard-response,88,220811,0.0-48.0-1.0,null,<p></p>,,null,,,,,,,,,,,,,,,,
,do_trial,89,223652,0.0-49.0-0.0,298.5,,,,49,"0,0,0",6,blank,270,null,0.225234548,0.693201006,0.333075272,0,,,,,,
,html-keyboard-response,90,224654,0.0-49.0-1.0,null,<p></p>,,null,,,,,,,,,,,,,,,,
,do_recog,91,227912,0.0-50.0-0.0,1750.3,,,,54,,,,271,probe-207,,,,,1,[object Object],42,1,1,
,html-keyboard-response,92,228915,0.0-50.0-1.0,null,<p></p>,,null,,,,,,,,,,,,,,,,
,do_trial,93,233199,0.0-51.0-0.0,1745.2,,,,50,"0,1,0",6,blank,272,null,0.115135318,0.392690284,0.373961459,1,,,,,,
,html-keyboard-response,94,234203,0.0-51.0-1.0,null,<p></p>,,null,,,,,,,,,,,,,,,,
,do_recog,95,236960,0.0-52.0-0.0,1246.5,,,,54,,,,273,probe-85,,,,,1,[object Object],80,2,1,
,html-keyboard-response,96,237966,0.0-52.0-1.0,null,<p></p>,,null,,,,,,,,,,,,,,,,
,do_trial,97,240897,0.0-53.0-0.0,388.6,,,,50,"0,1,0",6,blank,274,null,0.122727674,0.461016736,0.304761375,1,,,,,,
,html-keyboard-response,98,241900,0.0-53.0-1.0,null,<p></p>,,null,,,,,,,,,,,,,,,,
,do_trial,99,244833,0.0-54.0-0.0,393.3,,,,50,"0,0,0",6,blank,275,null,0.1349288,0.506873638,0.159218822,0,,,,,,
,html-keyboard-response,100,245839,0.0-54.0-1.0,null,<p></p>,,null,,,,,,,,,,,,,,,,
,do_trial,101,248710,0.0-55.0-0.0,329.9,,,,50,"0,1,0",6,blank,276,null,0.108625311,0.583077229,0.121661663,1,,,,,,
,html-keyboard-response,102,249714,0.0-55.0-1.0,null,<p></p>,,null,,,,,,,,,,,,,,,,
,do_trial,103,252702,0.0-56.0-0.0,447,,,,50,"0,1,0",6,blank,277,null,0.160180076,0.741425962,0.053039259,1,,,,,,
,html-keyboard-response,104,253706,0.0-56.0-1.0,null,<p></p>,,null,,,,,,,,,,,,,,,,
,do_trial,105,257681,0.0-57.0-0.0,1433.5,,,,50,"0,1,0",6,blank,278,null,0.342012902,0.676321508,0.108907092,1,,,,,,
,html-keyboard-response,106,258684,0.0-57.0-1.0,null,<p></p>,,null,,,,,,,,,,,,,,,,
,do_trial,107,261739,0.0-58.0-0.0,517.6,,,,50,"0,0,0",6,blank,279,null,0.103592187,0.689924466,0.338609395,0,,,,,,
,html-keyboard-response,108,262745,0.0-58.0-1.0,null,<p></p>,,null,,,,,,,,,,,,,,,,
,do_trial,109,265696,0.0-59.0-0.0,407.3,,,,50,"0,1,1",6,blank,280,null,0.067334571,0.443240339,0.250976594,1,,,,,,
,html-keyboard-response,110,266700,0.0-59.0-1.0,null,<p></p>,,null,,,,,,,,,,,,,,,,
,do_recog,111,270698,0.0-60.0-0.0,2486.6,,,,54,,,,281,probe-13,,,,,1,[object Object],47,1,1,
,html-keyboard-response,112,271699,0.0-60.0-1.0,null,<p></p>,,null,,,,,,,,,,,,,,,,
,do_trial,113,274681,0.0-61.0-0.0,440.5,,,,50,"0,1,0",6,blank,282,null,0.07140912,0.485683368,0.332888235,1,,,,,,
,html-keyboard-response,114,275685,0.0-61.0-1.0,null,<p></p>,,null,,,,,,,,,,,,,,,,
,do_trial,115,278780,0.0-62.0-0.0,552.7,,,,50,"0,0,0",6,blank,283,null,0.094695657,0.647426145,0.479704993,0,,,,,,
,html-keyboard-response,116,279783,0.0-62.0-1.0,null,<p></p>,,null,,,,,,,,,,,,,,,,
,do_trial,117,282949,0.0-63.0-0.0,625.8,,,,50,"0,1,0",6,blank,284,null,0.082536332,0.377141677,0.344512229,1,,,,,,
,html-keyboard-response,118,283953,0.0-63.0-1.0,null,<p></p>,,null,,,,,,,,,,,,,,,,
,do_trial,119,286966,0.0-64.0-0.0,470.9,,,,50,"0,1,0",6,blank,285,null,0.225832551,0.657498162,0.275121178,1,,,,,,
,html-keyboard-response,120,287971,0.0-64.0-1.0,null,<p></p>,,null,,,,,,,,,,,,,,,,
,do_trial,121,291067,0.0-65.0-0.0,557.2,,,,50,"0,0,1",6,blank,286,null,0.053519512,0.746180201,0.305360184,0,,,,,,
,html-keyboard-response,122,292071,0.0-65.0-1.0,null,<p></p>,,null,,,,,,,,,,,,,,,,
,do_trial,123,295112,0.0-66.0-0.0,500.8,,,,50,"0,1,0",6,blank,287,null,0.268111917,0.806460457,0.271276184,1,,,,,,
,html-keyboard-response,124,296117,0.0-66.0-1.0,null,<p></p>,,null,,,,,,,,,,,,,,,,
,do_trial,125,298693,0.0-67.0-0.0,38.19999999,,,,50,"0,0,0",6,blank,288,null,0.352537419,0.638744878,0.233559545,0,,,,,,
,html-keyboard-response,126,299697,0.0-67.0-1.0,null,<p></p>,,null,,,,,,,,,,,,,,,,
,do_recog,127,302443,0.0-68.0-0.0,1235.7,,,,54,,,,289,probe-63,,,,,1,[object Object],125,3,1,
,html-keyboard-response,128,303447,0.0-68.0-1.0,null,<p></p>,,null,,,,,,,,,,,,,,,,
,do_trial,129,306406,0.0-69.0-0.0,420.7,,,,50,"1,1,0",6,blank,290,null,0.325104994,0.823091109,0.315420865,1,,,,,,
,html-keyboard-response,130,307412,0.0-69.0-1.0,null,<p></p>,,null,,,,,,,,,,,,,,,,
,do_recog,131,310684,0.0-70.0-0.0,1761.4,,,,54,,,,291,probe-39,,,,,1,[object Object],82,2,1,
,html-keyboard-response,132,311685,0.0-70.0-1.0,null,<p></p>,,null,,,,,,,,,,,,,,,,
,do_trial,133,314628,0.0-71.0-0.0,401.4,,,,50,"1,1,0",6,blank,292,null,0.562931193,0.533305022,0.280192397,1,,,,,,
,html-keyboard-response,134,315632,0.0-71.0-1.0,null,<p></p>,,null,,,,,,,,,,,,,,,,
,do_trial,135,318643,0.0-72.0-0.0,468.2,,,,50,"0,1,0",6,blank,293,null,0.579422396,0.603176597,0.242463463,1,,,,,,
,html-keyboard-response,136,319647,0.0-72.0-1.0,null,<p></p>,,null,,,,,,,,,,,,,,,,
,do_trial,137,322786,0.0-73.0-0.0,598.4,,,,50,"0,1,1",6,blank,294,null,0.616978949,0.456881523,0.174500115,1,,,,,,
,html-keyboard-response,138,323790,0.0-73.0-1.0,null,<p></p>,,null,,,,,,,,,,,,,,,,
,do_trial,139,326739,0.0-74.0-0.0,406.7,,,,50,"0,0,0",6,blank,295,null,0.43476042,0.295955371,0.209657563,0,,,,,,
,html-keyboard-response,140,327744,0.0-74.0-1.0,null,<p></p>,,null,,,,,,,,,,,,,,,,
,do_trial,141,330679,0.0-75.0-0.0,397.2,,,,50,"0,0,0",6,blank,296,null,0.479663326,0.468735352,0.096772965,0,,,,,,
,html-keyboard-response,142,331682,0.0-75.0-1.0,null,<p></p>,,null,,,,,,,,,,,,,,,,
,do_recog,143,334424,0.0-76.0-0.0,1230.9,,,,54,,,,297,probe-156,,,,,1,[object Object],160,4,1,
,html-keyboard-response,144,335428,0.0-76.0-1.0,null,<p></p>,,null,,,,,,,,,,,,,,,,
,do_trial,145,338304,0.0-77.0-0.0,334.3,,,,51,"1,0,0",6,blank,298,null,0.630102686,0.410237054,0.096625935,0,,,,,,
,html-keyboard-response,146,339306,0.0-77.0-1.0,null,<p></p>,,null,,,,,,,,,,,,,,,,
,do_recog,147,342116,0.0-78.0-0.0,1302.4,,,,54,,,,299,probe-134,,,,,1,[object Object],168,4,1,
,html-keyboard-response,148,343117,0.0-78.0-1.0,null,<p></p>,,null,,,,,,,,,,,,,,,,
,do_trial,149,346035,0.0-79.0-0.0,379.9,,,,49,"0,0,0",6,blank,300,null,0.671004212,0.430514442,0.107007784,0,,,,,,
,html-keyboard-response,150,347037,0.0-79.0-1.0,null,<p></p>,,null,,,,,,,,,,,,,,,,
,do_trial,151,350075,0.0-80.0-0.0,497.2,,,,49,"0,0,0",6,blank,301,null,0.672504084,0.422886145,0.106880309,0,,,,,,
,html-keyboard-response,152,351079,0.0-80.0-1.0,null,<p></p>,,null,,,,,,,,,,,,,,,,
,do_trial,153,354063,0.0-81.0-0.0,444.5,,,,49,"1,0,0",6,blank,302,null,0.746649804,0.363736589,0.109632831,1,,,,,,
,html-keyboard-response,154,355067,0.0-81.0-1.0,null,<p></p>,,null,,,,,,,,,,,,,,,,
,do_trial,155,357947,0.0-82.0-0.0,337.5,,,,49,"0,0,0",6,blank,303,null,0.725660254,0.431640374,0.090653128,0,,,,,,
,html-keyboard-response,156,358950,0.0-82.0-1.0,null,<p></p>,,null,,,,,,,,,,,,,,,,
,do_trial,157,362016,0.0-83.0-0.0,525.6,,,,50,"0,1,0",6,blank,304,null,0.59663805,0.433664235,0.057129455,1,,,,,,
,html-keyboard-response,158,363018,0.0-83.0-1.0,null,<p></p>,,null,,,,,,,,,,,,,,,,
,do_recog,159,365900,0.0-84.0-0.0,1376.8,,,,54,,,,305,probe-25,,,,,1,[object Object],85,2,1,
,html-keyboard-response,160,366903,0.0-84.0-1.0,null,<p></p>,,null,,,,,,,,,,,,,,,,
,do_trial,161,369783,0.0-85.0-0.0,336.9,,,,50,"1,0,0",6,blank,306,null,0.600275426,0.377533141,0.11927592,0,,,,,,
,html-keyboard-response,162,370787,0.0-85.0-1.0,null,<p></p>,,null,,,,,,,,,,,,,,,,
,do_trial,163,373648,0.0-86.0-0.0,318.6,,,,50,"1,0,1",6,blank,307,null,0.589660128,0.343919737,0.141194012,0,,,,,,
,html-keyboard-response,164,374652,0.0-86.0-1.0,null,<p></p>,,null,,,,,,,,,,,,,,,,
,do_trial,165,377501,0.0-87.0-0.0,309.3,,,,51,"1,1,1",6,blank,308,null,0.689105692,0.362320839,0.19513508,1,,,,,,
,html-keyboard-response,166,378502,0.0-87.0-1.0,null,<p></p>,,null,,,,,,,,,,,,,,,,
,do_recog,167,381694,0.0-88.0-0.0,1681.6,,,,54,,,,309,probe-240,,,,,0,[object Object],null,null,0,
,html-keyboard-response,168,382695,0.0-88.0-1.0,null,<p></p>,,null,,,,,,,,,,,,,,,,
,do_trial,169,385604,0.0-89.0-0.0,369.4,,,,51,"1,0,0",6,blank,310,null,0.733035336,0.408842566,0.147690842,0,,,,,,
,html-keyboard-response,170,386606,0.0-89.0-1.0,null,<p></p>,,null,,,,,,,,,,,,,,,,
,do_trial,171,389620,0.0-90.0-0.0,472.9,,,,51,"1,0,0",6,blank,311,null,0.800552316,0.391918066,0.152081738,0,,,,,,
,html-keyboard-response,172,390623,0.0-90.0-1.0,null,<p></p>,,null,,,,,,,,,,,,,,,,
,do_trial,173,393560,0.0-91.0-0.0,393.8,,,,49,"0,0,0",6,blank,312,null,0.789017251,0.360558087,0.15450432,0,,,,,,
,html-keyboard-response,174,394564,0.0-91.0-1.0,null,<p></p>,,null,,,,,,,,,,,,,,,,
,do_trial,175,397459,0.0-92.0-0.0,352.8,,,,49,"0,0,0",6,blank,313,null,0.654563371,0.310105611,0.195901,0,,,,,,
,html-keyboard-response,176,398463,0.0-92.0-1.0,null,<p></p>,,null,,,,,,,,,,,,,,,,
,do_trial,177,401695,0.0-93.0-0.0,692,,,,50,"0,0,0",6,blank,314,null,0.507304585,0.226168842,0.19044172,0,,,,,,
,html-keyboard-response,178,402698,0.0-93.0-1.0,null,<p></p>,,null,,,,,,,,,,,,,,,,
,do_trial,179,405868,0.0-94.0-0.0,629,,,,50,"1,1,0",6,blank,315,null,0.302666757,0.381420941,0.203331667,1,,,,,,
,html-keyboard-response,180,406874,0.0-94.0-1.0,null,<p></p>,,null,,,,,,,,,,,,,,,,
,do_recog,181,410349,0.0-95.0-0.0,1965.5,,,,54,,,,316,probe-215,,,,,1,[object Object],126,3,1,
,html-keyboard-response,182,411353,0.0-95.0-1.0,null,<p></p>,,null,,,,,,,,,,,,,,,,
,do_trial,183,414268,0.0-96.0-0.0,374.5,,,,50,"0,1,0",6,blank,317,null,0.388778172,0.250621648,0.202974755,1,,,,,,
,html-keyboard-response,184,415272,0.0-96.0-1.0,null,<p></p>,,null,,,,,,,,,,,,,,,,
,do_trial,185,418360,0.0-97.0-0.0,544.4,,,,50,"1,1,1",6,blank,318,null,0.55315243,0.250291715,0.222192447,1,,,,,,
,html-keyboard-response,186,419361,0.0-97.0-1.0,null,<p></p>,,null,,,,,,,,,,,,,,,,
,do_recog,187,422735,0.0-98.0-0.0,1864.1,,,,55,,,,319,probe-108,,,,,1,[object Object],161,4,0,
,html-keyboard-response,188,423736,0.0-98.0-1.0,null,<p></p>,,null,,,,,,,,,,,,,,,,
,do_trial,189,427157,0.0-99.0-0.0,879.2,,,,50,"1,0,0",6,blank,320,null,0.461752508,0.360782143,0.204964246,0,,,,,,
,html-keyboard-response,190,428160,0.0-99.0-1.0,null,<p></p>,,null,,,,,,,,,,,,,,,,
,do_recog,191,431690,0.0-100.0-0.0,2023.5,,,,54,,,,321,probe-110,,,,,1,[object Object],206,5,1,
,html-keyboard-response,192,432693,0.0-100.0-1.0,null,<p></p>,,null,,,,,,,,,,,,,,,,
,do_trial,193,435658,0.0-101.0-0.0,425.4,,,,50,"0,1,0",6,blank,322,null,0.475970174,0.452962881,0.15064382,1,,,,,,
,html-keyboard-response,194,436661,0.0-101.0-1.0,null,<p></p>,,null,,,,,,,,,,,,,,,,
,do_recog,195,439503,0.0-102.0-0.0,1335.7,,,,54,,,,323,probe-208,,,,,1,[object Object],167,4,1,
,html-keyboard-response,196,440506,0.0-102.0-1.0,null,<p></p>,,null,,,,,,,,,,,,,,,,
,do_trial,197,443587,0.0-103.0-0.0,537.9,,,,50,"0,0,0",6,blank,324,null,0.465609783,0.445712963,0.168646367,0,,,,,,
,html-keyboard-response,198,444588,0.0-103.0-1.0,null,<p></p>,,null,,,,,,,,,,,,,,,,
,do_trial,199,447628,0.0-104.0-0.0,500,,,,50,"1,1,0",6,blank,325,null,0.445818228,0.290507047,0.276406895,1,,,,,,
,html-keyboard-response,200,448630,0.0-104.0-1.0,null,<p></p>,,null,,,,,,,,,,,,,,,,
,do_recog,201,451366,0.0-105.0-0.0,1224.4,,,,54,,,,326,probe-250,,,,,0,[object Object],null,null,0,
,html-keyboard-response,202,452370,0.0-105.0-1.0,null,<p></p>,,null,,,,,,,,,,,,,,,,
,do_trial,203,455239,0.0-106.0-0.0,326.4,,,,50,"0,0,0",6,blank,327,null,0.46839344,0.359203724,0.214521651,0,,,,,,
,html-keyboard-response,204,456243,0.0-106.0-1.0,null,<p></p>,,null,,,,,,,,,,,,,,,,
,do_trial,205,459255,0.0-107.0-0.0,469.1,,,,51,"1,0,1",6,blank,328,null,0.520415208,0.274872464,0.068795831,1,,,,,,
,html-keyboard-response,206,460261,0.0-107.0-1.0,null,<p></p>,,null,,,,,,,,,,,,,,,,
,do_trial,207,462962,0.0-108.0-0.0,157.6,,,,51,"1,0,0",6,blank,329,null,0.501838444,0.253273393,0.107282979,0,,,,,,
,html-keyboard-response,208,463968,0.0-108.0-1.0,null,<p></p>,,null,,,,,,,,,,,,,,,,
,do_trial,209,466974,0.0-109.0-0.0,468.5,,,,51,"1,1,0",6,blank,330,null,0.620028996,0.373594468,0.166594795,0,,,,,,
,html-keyboard-response,210,467978,0.0-109.0-1.0,null,<p></p>,,null,,,,,,,,,,,,,,,,
,do_recog,211,471133,0.0-110.0-0.0,1644.3,,,,53,,,,331,probe-216,,,,,1,[object Object],203,5,1,
,html-keyboard-response,212,472135,0.0-110.0-1.0,null,<p></p>,,null,,,,,,,,,,,,,,,,
,do_trial,213,475065,0.0-111.0-0.0,392,,,,49,"1,0,0",6,blank,332,null,0.577760269,0.353194585,0.143391344,1,,,,,,
,html-keyboard-response,214,476069,0.0-111.0-1.0,null,<p></p>,,null,,,,,,,,,,,,,,,,
,do_trial,215,479311,0.0-112.0-0.0,703.2,,,,49,"1,0,0",6,blank,333,null,0.768718191,0.370135273,0.134230183,1,,,,,,
,html-keyboard-response,216,480315,0.0-112.0-1.0,null,<p></p>,,null,,,,,,,,,,,,,,,,
,do_trial,217,483262,0.0-113.0-0.0,408.1,,,,49,"1,1,0",6,blank,334,null,0.729874322,0.42551524,0.136061182,1,,,,,,
,html-keyboard-response,218,484266,0.0-113.0-1.0,null,<p></p>,,null,,,,,,,,,,,,,,,,
,do_trial,219,487717,0.0-114.0-0.0,911.2,,,,49,"0,0,1",6,blank,335,null,0.688829623,0.306805017,0.114205825,0,,,,,,
,html-keyboard-response,220,488721,0.0-114.0-1.0,null,<p></p>,,null,,,,,,,,,,,,,,,,
,do_trial,221,491592,0.0-115.0-0.0,327.7,,,,49,"1,0,0",6,blank,336,null,0.511755263,0.265507321,0.177132148,1,,,,,,
,html-keyboard-response,222,492594,0.0-115.0-1.0,null,<p></p>,,null,,,,,,,,,,,,,,,,
,do_recog,223,495805,0.0-116.0-0.0,1700.6,,,,56,,,,337,probe-127,,,,,1,[object Object],87,2,0,
,html-keyboard-response,224,496808,0.0-116.0-1.0,null,<p></p>,,null,,,,,,,,,,,,,,,,
,do_trial,225,499676,0.0-117.0-0.0,325.2,,,,49,"1,1,0",6,blank,338,null,0.587405732,0.223094744,0.247400892,1,,,,,,
,html-keyboard-response,226,500680,0.0-117.0-1.0,null,<p></p>,,null,,,,,,,,,,,,,,,,
,do_trial,227,503720,0.0-118.0-0.0,501,,,,49,"0,0,0",6,blank,339,null,0.445021203,0.130513556,0.192061786,0,,,,,,
,html-keyboard-response,228,504724,0.0-118.0-1.0,null,<p></p>,,null,,,,,,,,,,,,,,,,
,do_trial,229,507792,0.0-119.0-0.0,528.1,,,,49,"0,0,0",6,blank,340,null,0.49472223,0.234039671,0.250012492,0,,,,,,
,html-keyboard-response,230,508794,0.0-119.0-1.0,null,<p></p>,,null,,,,,,,,,,,,,,,,
,do_trial,231,512205,0.0-120.0-0.0,873.8,,,,50,"0,1,0",6,blank,341,null,0.479894969,0.24102379,0.188517064,1,,,,,,
,html-keyboard-response,232,513211,0.0-120.0-1.0,null,<p></p>,,null,,,,,,,,,,,,,,,,
,do_trial,233,517092,0.0-121.0-0.0,1342.3,,,,50,"0,0,0",6,blank,342,null,0.46093986,0.538694628,0.205984149,0,,,,,,
,html-keyboard-response,234,518095,0.0-121.0-1.0,null,<p></p>,,null,,,,,,,,,,,,,,,,
,do_trial,235,521179,0.0-122.0-0.0,541.6,,,,50,"0,1,0",6,blank,343,null,0.307986913,0.627369782,0.31538272,1,,,,,,
,html-keyboard-response,236,522181,0.0-122.0-1.0,null,<p></p>,,null,,,,,,,,,,,,,,,,
,do_recog,237,524934,0.0-123.0-0.0,1247.2,,,,54,,,,344,probe-177,,,,,1,[object Object],207,5,1,
,html-keyboard-response,238,525938,0.0-123.0-1.0,null,<p></p>,,null,,,,,,,,,,,,,,,,
,do_trial,239,528952,0.0-124.0-0.0,475.3,,,,50,"0,0,1",6,blank,345,null,0.098200012,0.678266225,0.400162472,0,,,,,,
,html-keyboard-response,240,529958,0.0-124.0-1.0,null,<p></p>,,null,,,,,,,,,,,,,,,,
,do_trial,241,532870,0.0-125.0-0.0,370.7,,,,50,"0,0,0",6,blank,346,null,0.093294948,0.625073975,0.454532996,0,,,,,,
,html-keyboard-response,242,533874,0.0-125.0-1.0,null,<p></p>,,null,,,,,,,,,,,,,,,,
,do_trial,243,537015,0.0-126.0-0.0,598.6,,,,51,"0,0,1",6,blank,347,null,0.052844905,0.583728191,0.404972608,1,,,,,,
,html-keyboard-response,244,538018,0.0-126.0-1.0,null,<p></p>,,null,,,,,,,,,,,,,,,,
,do_trial,245,541114,0.0-127.0-0.0,556.6,,,,51,"0,1,0",6,blank,348,null,0.080133835,0.569722845,0.386972431,0,,,,,,
,html-keyboard-response,246,542120,0.0-127.0-1.0,null,<p></p>,,null,,,,,,,,,,,,,,,,
,do_recog,247,545023,0.0-128.0-0.0,1394.6,,,,54,,,,349,probe-77,,,,,1,[object Object],45,1,1,
,html-keyboard-response,248,546025,0.0-128.0-1.0,null,<p></p>,,null,,,,,,,,,,,,,,,,
,do_trial,249,549666,0.0-129.0-0.0,1097.3,,,,51,"0,1,0",6,blank,350,null,0.219420752,0.68015133,0.274340361,0,,,,,,
,html-keyboard-response,250,550669,0.0-129.0-1.0,null,<p></p>,,null,,,,,,,,,,,,,,,,
,do_recog,251,553348,0.0-130.0-0.0,1168.4,,,,54,,,,351,probe-153,,,,,1,[object Object],41,1,1,
,html-keyboard-response,252,554350,0.0-130.0-1.0,null,<p></p>,,null,,,,,,,,,,,,,,,,
,do_trial,253,557415,0.0-131.0-0.0,526.9,,,,49,"0,1,0",6,blank,352,null,0.12910285,0.542427626,0.310770623,0,,,,,,
,html-keyboard-response,254,558419,0.0-131.0-1.0,null,<p></p>,,null,,,,,,,,,,,,,,,,
,do_recog,255,561026,0.0-132.0-0.0,1096.9,,,,54,,,,353,probe-61,,,,,1,[object Object],208,5,1,
,html-keyboard-response,256,562029,0.0-132.0-1.0,null,<p></p>,,null,,,,,,,,,,,,,,,,
,do_trial,257,564979,0.0-133.0-0.0,408.5,,,,49,"0,1,1",6,blank,354,null,0.126085355,0.641905398,0.306484302,0,,,,,,
,html-keyboard-response,258,565983,0.0-133.0-1.0,null,<p></p>,,null,,,,,,,,,,,,,,,,
,do_trial,259,569149,0.0-134.0-0.0,621.6,,,,50,"0,1,0",6,blank,355,null,0.082775584,0.643273859,0.278786843,1,,,,,,
,html-keyboard-response,260,570151,0.0-134.0-1.0,null,<p></p>,,null,,,,,,,,,,,,,,,,
,do_trial,261,573216,0.0-135.0-0.0,525.3,,,,50,"0,0,0",6,blank,356,null,0.0926844,0.644320934,0.338999526,0,,,,,,
,html-keyboard-response,262,574220,0.0-135.0-1.0,null,<p></p>,,null,,,,,,,,,,,,,,,,
,do_trial,263,577170,0.0-136.0-0.0,410.9,,,,50,"0,0,0",6,blank,357,null,0.094137175,0.497101533,0.234516791,0,,,,,,
,html-keyboard-response,264,578173,0.0-136.0-1.0,null,<p></p>,,null,,,,,,,,,,,,,,,,
,do_trial,265,581529,0.0-137.0-0.0,816.7,,,,51,"0,0,0",6,blank,358,null,0.117413824,0.492086605,0.207748487,0,,,,,,
,html-keyboard-response,266,582533,0.0-137.0-1.0,null,<p></p>,,null,,,,,,,,,,,,,,,,
,do_trial,267,585575,0.0-138.0-0.0,504.1,,,,51,"0,0,1",6,blank,359,null,0.145902728,0.548365045,0.334562803,1,,,,,,
,html-keyboard-response,268,586579,0.0-138.0-1.0,null,<p></p>,,null,,,,,,,,,,,,,,,,
,do_trial,269,589617,0.0-139.0-0.0,496.4,,,,51,"1,1,0",6,blank,360,null,0.235246368,0.592496558,0.266256104,0,,,,,,
,html-keyboard-response,270,590620,0.0-139.0-1.0,null,<p></p>,,null,,,,,,,,,,,,,,,,
,do_recog,271,593523,0.0-140.0-0.0,1394.8,,,,54,,,,361,probe-103,,,,,1,[object Object],129,3,1,
,html-keyboard-response,272,594528,0.0-140.0-1.0,null,<p></p>,,null,,,,,,,,,,,,,,,,
,do_trial,273,597563,0.0-141.0-0.0,494.5,,,,51,"0,1,0",6,blank,362,null,0.098922132,0.612409496,0.251784963,0,,,,,,
,html-keyboard-response,274,598567,0.0-141.0-1.0,null,<p></p>,,null,,,,,,,,,,,,,,,,
,do_recog,275,601824,0.0-142.0-0.0,1750.9,,,,54,,,,363,probe-26,,,,,1,[object Object],81,2,1,
,html-keyboard-response,276,602825,0.0-142.0-1.0,null,<p></p>,,null,,,,,,,,,,,,,,,,
,do_trial,277,605655,0.0-143.0-0.0,294.2,,,,49,"0,1,0",6,blank,364,null,0.125995619,0.517927134,0.308889765,0,,,,,,
,html-keyboard-response,278,606662,0.0-143.0-1.0,null,<p></p>,,null,,,,,,,,,,,,,,,,
,do_recog,279,610402,0.0-144.0-0.0,2229.5,,,,54,,,,365,probe-181,,,,,1,[object Object],201,5,1,
,html-keyboard-response,280,611405,0.0-144.0-1.0,null,<p></p>,,null,,,,,,,,,,,,,,,,
,do_trial,281,614427,0.0-145.0-0.0,479.4,,,,49,"0,1,0",6,blank,366,null,0.101859716,0.675796668,0.341909843,0,,,,,,
,html-keyboard-response,282,615432,0.0-145.0-1.0,null,<p></p>,,null,,,,,,,,,,,,,,,,
,do_trial,283,618462,0.0-146.0-0.0,488.9,,,,50,"0,1,0",6,blank,367,null,0.145901107,0.645290232,0.379294405,1,,,,,,
,html-keyboard-response,284,619466,0.0-146.0-1.0,null,<p></p>,,null,,,,,,,,,,,,,,,,
,do_trial,285,622441,0.0-147.0-0.0,433,,,,50,"0,0,0",6,blank,368,null,0.148642457,0.478496664,0.260593206,0,,,,,,
,html-keyboard-response,286,623445,0.0-147.0-1.0,null,<p></p>,,null,,,,,,,,,,,,,,,,
,do_trial,287,626356,0.0-148.0-0.0,368.6,,,,50,"1,1,1",6,blank,369,null,0.16688864,0.603684627,0.37319148,1,,,,,,
,html-keyboard-response,288,627360,0.0-148.0-1.0,null,<p></p>,,null,,,,,,,,,,,,,,,,
,do_trial,289,630327,0.0-149.0-0.0,425.8,,,,50,"0,0,1",6,blank,370,null,0.209443015,0.578056317,0.472298816,0,,,,,,
,html-keyboard-response,290,631331,0.0-149.0-1.0,null,<p></p>,,null,,,,,,,,,,,,,,,,
,do_recog,291,634015,0.0-150.0-0.0,1176.5,,,,54,,,,371,probe-55,,,,,1,[object Object],123,3,1,
,html-keyboard-response,292,635018,0.0-150.0-1.0,null,<p></p>,,null,,,,,,,,,,,,,,,,
,do_trial,293,637897,0.0-151.0-0.0,337.7,,,,50,"0,1,1",6,blank,372,null,0.177081723,0.722551964,0.34287234,1,,,,,,
,html-keyboard-response,294,638901,0.0-151.0-1.0,null,<p></p>,,null,,,,,,,,,,,,,,,,
,do_recog,295,641598,0.0-152.0-0.0,1186.3,,,,54,,,,373,probe-223,,,,,1,[object Object],48,1,1,
,html-keyboard-response,296,642602,0.0-152.0-1.0,null,<p></p>,,null,,,,,,,,,,,,,,,,
,do_trial,297,645730,0.0-153.0-0.0,589.7,,,,50,"0,1,1",6,blank,374,null,0.179525255,0.631858409,0.266547116,1,,,,,,
,html-keyboard-response,298,646733,0.0-153.0-1.0,null,<p></p>,,null,,,,,,,,,,,,,,,,
,do_trial,299,649751,0.0-154.0-0.0,478.4,,,,50,"0,1,0",6,blank,375,null,0.193769651,0.618532984,0.355347904,1,,,,,,
,html-keyboard-response,300,650754,0.0-154.0-1.0,null,<p></p>,,null,,,,,,,,,,,,,,,,
,do_trial,301,653676,0.0-155.0-0.0,379.5,,,,50,"0,1,1",6,blank,376,null,0.09405964,0.824759066,0.307988422,1,,,,,,
,html-keyboard-response,302,654680,0.0-155.0-1.0,null,<p></p>,,null,,,,,,,,,,,,,,,,
,do_recog,303,657392,0.0-156.0-0.0,1206.5,,,,54,,,,377,probe-116,,,,,1,[object Object],165,4,1,
,html-keyboard-response,304,658398,0.0-156.0-1.0,null,<p></p>,,null,,,,,,,,,,,,,,,,
,do_trial,305,661722,0.0-157.0-0.0,783.5,,,,50,"0,1,1",6,blank,378,null,0.156115465,0.804581571,0.351819464,1,,,,,,
,html-keyboard-response,306,662726,0.0-157.0-1.0,null,<p></p>,,null,,,,,,,,,,,,,,,,
,do_recog,307,665675,0.0-158.0-0.0,1440.5,,,,54,,,,379,probe-206,,,,,1,[object Object],84,2,1,
,html-keyboard-response,308,666680,0.0-158.0-1.0,null,<p></p>,,null,,,,,,,,,,,,,,,,
,do_trial,309,669721,0.0-159.0-0.0,502.5,,,,50,"0,1,0",6,blank,380,null,0.060217396,0.682137914,0.273203883,1,,,,,,
,html-keyboard-response,310,670726,0.0-159.0-1.0,null,<p></p>,,null,,,,,,,,,,,,,,,,
,do_recog,311,673495,0.0-160.0-0.0,1260.1,,,,54,,,,381,probe-93,,,,,1,[object Object],122,3,1,
,html-keyboard-response,312,674498,0.0-160.0-1.0,null,<p></p>,,null,,,,,,,,,,,,,,,,
,do_trial,313,677673,0.0-161.0-0.0,631.7,,,,50,"0,0,0",6,blank,382,null,0.101599085,0.604343449,0.225986557,0,,,,,,
,html-keyboard-response,314,678677,0.0-161.0-1.0,null,<p></p>,,null,,,,,,,,,,,,,,,,
,do_recog,315,681361,0.0-162.0-0.0,1174,,,,54,,,,383,probe-222,,,,,1,[object Object],120,3,1,
,html-keyboard-response,316,682365,0.0-162.0-1.0,null,<p></p>,,null,,,,,,,,,,,,,,,,
,do_trial,317,685413,0.0-163.0-0.0,509.6,,,,50,"1,1,1",6,blank,384,null,0.17530065,0.629414804,0.296813311,1,,,,,,
,html-keyboard-response,318,686417,0.0-163.0-1.0,null,<p></p>,,null,,,,,,,,,,,,,,,,
,do_recog,319,689935,0.0-164.0-0.0,2007.8,,,,54,,,,385,probe-172,,,,,1,[object Object],124,3,1,
,html-keyboard-response,320,690939,0.0-164.0-1.0,null,<p></p>,,null,,,,,,,,,,,,,,,,
,do_trial,321,694332,0.0-165.0-0.0,854.2,,,,50,"0,1,0",6,blank,386,null,0.111008542,0.616417661,0.185441963,1,,,,,,
,html-keyboard-response,322,695336,0.0-165.0-1.0,null,<p></p>,,null,,,,,,,,,,,,,,,,
,do_trial,323,698426,0.0-166.0-0.0,550.4,,,,50,"0,1,0",6,blank,387,null,0.094672777,0.48500472,0.320192684,1,,,,,,
,html-keyboard-response,324,699432,0.0-166.0-1.0,null,<p></p>,,null,,,,,,,,,,,,,,,,
,do_trial,325,702356,0.0-167.0-0.0,382.1,,,,50,"0,1,1",6,blank,388,null,0.066255376,0.68253758,0.387765561,1,,,,,,
,html-keyboard-response,326,703360,0.0-167.0-1.0,null,<p></p>,,null,,,,,,,,,,,,,,,,
,do_trial,327,706925,0.0-168.0-0.0,1024.4,,,,50,"1,0,0",6,blank,389,null,0.19900818,0.697835554,0.340349231,0,,,,,,
,html-keyboard-response,328,707931,0.0-168.0-1.0,null,<p></p>,,null,,,,,,,,,,,,,,,,
,do_recog,329,710810,0.0-169.0-0.0,1371.2,,,,54,,,,390,probe-204,,,,,1,[object Object],127,3,1,
,html-keyboard-response,330,711816,0.0-169.0-1.0,null,<p></p>,,null,,,,,,,,,,,,,,,,
,do_trial,331,714741,0.0-170.0-0.0,381.5,,,,50,"0,1,0",6,blank,391,null,0.119992496,0.53344089,0.342289157,1,,,,,,
,html-keyboard-response,332,715744,0.0-170.0-1.0,null,<p></p>,,null,,,,,,,,,,,,,,,,
,do_trial,333,718914,0.0-171.0-0.0,628.1,,,,50,"0,0,0",6,blank,392,null,0.125412694,0.447744692,0.238814155,0,,,,,,
,html-keyboard-response,334,719920,0.0-171.0-1.0,null,<p></p>,,null,,,,,,,,,,,,,,,,
,do_trial,335,723222,0.0-172.0-0.0,764.8,,,,50,"0,1,0",6,blank,393,null,0.065059886,0.47634211,0.237500574,1,,,,,,
,html-keyboard-response,336,724226,0.0-172.0-1.0,null,<p></p>,,null,,,,,,,,,,,,,,,,
,do_recog,337,727440,0.0-173.0-0.0,1709,,,,54,,,,394,probe-227,,,,,1,[object Object],166,4,1,
,html-keyboard-response,338,728446,0.0-173.0-1.0,null,<p></p>,,null,,,,,,,,,,,,,,,,
,do_trial,339,732123,0.0-174.0-0.0,1134.1,,,,50,"0,1,0",6,blank,395,null,0.228948254,0.584719892,0.353909142,1,,,,,,
,html-keyboard-response,340,733126,0.0-174.0-1.0,null,<p></p>,,null,,,,,,,,,,,,,,,,
,do_recog,341,736408,0.0-175.0-0.0,1775,,,,54,,,,396,probe-139,,,,,1,[object Object],89,2,1,
,html-keyboard-response,342,737412,0.0-175.0-1.0,null,<p></p>,,null,,,,,,,,,,,,,,,,
,do_trial,343,740973,0.0-176.0-0.0,1018.8,,,,50,"0,1,0",6,blank,397,null,0.14357971,0.455212872,0.223821049,1,,,,,,
,html-keyboard-response,344,741977,0.0-176.0-1.0,null,<p></p>,,null,,,,,,,,,,,,,,,,
,do_trial,345,745215,0.0-177.0-0.0,698.8,,,,50,"0,0,1",6,blank,398,null,0.212710557,0.506076539,0.305753694,0,,,,,,
,html-keyboard-response,346,746219,0.0-177.0-1.0,null,<p></p>,,null,,,,,,,,,,,,,,,,
,do_trial,347,749108,0.0-178.0-0.0,347.5,,,,50,"0,1,0",6,blank,399,null,0.136647038,0.387952881,0.29677985,1,,,,,,
,html-keyboard-response,348,750111,0.0-178.0-1.0,null,<p></p>,,null,,,,,,,,,,,,,,,,
,do_recog,349,752786,0.0-179.0-0.0,1167.4,,,,54,,,,400,probe-11,,,,,1,[object Object],88,2,1,
,html-keyboard-response,350,753792,0.0-179.0-1.0,null,<p></p>,,null,,,,,,,,,,,,,,,,
,do_trial,351,756776,0.0-180.0-0.0,444.8,,,,50,"0,1,0",6,blank,401,null,0.064720725,0.3553902,0.292964312,1,,,,,,
,html-keyboard-response,352,757780,0.0-180.0-1.0,null,<p></p>,,null,,,,,,,,,,,,,,,,
,do_trial,353,760932,0.0-181.0-0.0,613.4,,,,50,"1,0,0",6,blank,402,null,0.122702367,0.294913318,0.421325964,0,,,,,,
,html-keyboard-response,354,761936,0.0-181.0-1.0,null,<p></p>,,null,,,,,,,,,,,,,,,,
,do_trial,355,764959,0.0-182.0-0.0,481.7,,,,50,"0,1,1",6,blank,403,null,0.054960274,0.275172222,0.476516795,1,,,,,,
,html-keyboard-response,356,765963,0.0-182.0-1.0,null,<p></p>,,null,,,,,,,,,,,,,,,,
,do_trial,357,769055,0.0-183.0-0.0,550.4,,,,50,"0,1,1",6,blank,404,null,0.05436313,0.336573683,0.500857325,1,,,,,,
,html-keyboard-response,358,770061,0.0-183.0-1.0,null,<p></p>,,null,,,,,,,,,,,,,,,,
,do_trial,359,773145,0.0-184.0-0.0,541.2,,,,50,"0,0,0",6,blank,405,null,0.098466882,0.468920727,0.484722349,0,,,,,,
,html-keyboard-response,360,774149,0.0-184.0-1.0,null,<p></p>,,null,,,,,,,,,,,,,,,,
,do_trial,361,777158,0.0-185.0-0.0,468,,,,50,"0,0,0",6,blank,406,null,0.125591808,0.439841897,0.583234791,0,,,,,,
,html-keyboard-response,362,778162,0.0-185.0-1.0,null,<p></p>,,null,,,,,,,,,,,,,,,,
,do_trial,363,781277,0.0-186.0-0.0,573.4,,,,50,"0,0,1",6,blank,407,null,0.089294436,0.403948214,0.513936554,0,,,,,,
,html-keyboard-response,364,782283,0.0-186.0-1.0,null,<p></p>,,null,,,,,,,,,,,,,,,,
,do_recog,365,785279,0.0-187.0-0.0,1489.9,,,,54,,,,408,probe-21,,,,,1,[object Object],205,5,1,
,html-keyboard-response,366,786284,0.0-187.0-1.0,null,<p></p>,,null,,,,,,,,,,,,,,,,
,do_trial,367,789571,0.0-188.0-0.0,744.8,,,,51,"0,0,0",6,blank,409,null,0.0532522,0.318755848,0.472335307,0,,,,,,
,html-keyboard-response,368,790574,0.0-188.0-1.0,null,<p></p>,,null,,,,,,,,,,,,,,,,
,do_trial,369,793921,0.0-189.0-0.0,808.3,,,,51,"0,1,0",6,blank,410,null,0.10877347,0.333873089,0.551612744,0,,,,,,
,html-keyboard-response,370,794926,0.0-189.0-1.0,null,<p></p>,,null,,,,,,,,,,,,,,,,
,do_trial,371,797954,0.0-190.0-0.0,487.4,,,,49,"0,1,1",6,blank,411,null,0.098847585,0.270862664,0.602432759,0,,,,,,
,html-keyboard-response,372,798958,0.0-190.0-1.0,null,<p></p>,,null,,,,,,,,,,,,,,,,
,do_trial,373,802114,0.0-191.0-0.0,615.8,,,,49,"0,1,0",6,blank,412,null,0.095854139,0.411689141,0.513082973,0,,,,,,
,html-keyboard-response,374,803117,0.0-191.0-1.0,null,<p></p>,,null,,,,,,,,,,,,,,,,
,do_recog,375,805771,0.0-192.0-0.0,1144.1,,,,54,,,,413,probe-17,,,,,1,[object Object],164,4,1,
,html-keyboard-response,376,806777,0.0-192.0-1.0,null,<p></p>,,null,,,,,,,,,,,,,,,,
,do_trial,377,809762,0.0-193.0-0.0,441.4,,,,49,"0,1,1",6,blank,414,null,0.177230545,0.329100937,0.626499089,0,,,,,,
,html-keyboard-response,378,810766,0.0-193.0-1.0,null,<p></p>,,null,,,,,,,,,,,,,,,,
,do_trial,379,813956,0.0-194.0-0.0,651.5,,,,50,"0,0,0",6,blank,415,null,0.085791314,0.205731132,0.56764285,0,,,,,,
,html-keyboard-response,380,814961,0.0-194.0-1.0,null,<p></p>,,null,,,,,,,,,,,,,,,,
,do_trial,381,817950,0.0-195.0-0.0,447.9,,,,50,"1,0,1",6,blank,416,null,0.167596495,0.069888195,0.467530168,0,,,,,,
,html-keyboard-response,382,818954,0.0-195.0-1.0,null,<p></p>,,null,,,,,,,,,,,,,,,,
,do_recog,383,821545,0.0-196.0-0.0,1080.6,,,,54,,,,417,probe-137,,,,,1,[object Object],43,1,1,
,html-keyboard-response,384,822547,0.0-196.0-1.0,null,<p></p>,,null,,,,,,,,,,,,,,,,
,do_trial,385,825633,0.0-197.0-0.0,543.4,,,,51,"0,0,0",6,blank,418,null,0.104305914,0.224836454,0.388604212,0,,,,,,
,html-keyboard-response,386,826635,0.0-197.0-1.0,null,<p></p>,,null,,,,,,,,,,,,,,,,
,do_trial,387,829932,0.0-198.0-0.0,760.1,,,,51,"0,0,0",6,blank,419,null,0.06786692,0.466780107,0.474518134,0,,,,,,
,html-keyboard-response,388,830936,0.0-198.0-1.0,null,<p></p>,,null,,,,,,,,,,,,,,,,
,do_trial,389,834031,0.0-199.0-0.0,554.7,,,,51,"0,1,1",6,blank,420,null,0.054323526,0.451040988,0.573022445,1,,,,,,
,html-keyboard-response,390,835035,0.0-199.0-1.0,null,<p></p>,,null,,,,,,,,,,,,,,,,
,do_recog,391,837723,0.0-200.0-0.0,1177.6,,,,54,,,,421,probe-168,,,,,1,[object Object],162,4,1,
,html-keyboard-response,392,838726,0.0-200.0-1.0,null,<p></p>,,null,,,,,,,,,,,,,,,,
,do_trial,393,841863,0.0-201.0-0.0,598.2,,,,51,"1,1,1",6,blank,422,null,0.124859144,0.363387818,0.630728992,1,,,,,,
,html-keyboard-response,394,842866,0.0-201.0-1.0,null,<p></p>,,null,,,,,,,,,,,,,,,,
,do_trial,395,846140,0.0-202.0-0.0,736,,,,51,"0,0,1",6,blank,423,null,0.088225317,0.19595934,0.459531767,1,,,,,,
,html-keyboard-response,396,847144,0.0-202.0-1.0,null,<p></p>,,null,,,,,,,,,,,,,,,,
,do_recog,397,850088,0.0-203.0-0.0,1434.5,,,,54,,,,424,probe-48,,,,,1,[object Object],204,5,1,
,html-keyboard-response,398,851092,0.0-203.0-1.0,null,<p></p>,,null,,,,,,,,,,,,,,,,
,do_trial,399,854241,0.0-204.0-0.0,607.2,,,,51,"0,0,0",6,blank,425,null,0.102808333,0.330049437,0.442059325,0,,,,,,
,html-keyboard-response,400,855243,0.0-204.0-1.0,null,<p></p>,,null,,,,,,,,,,,,,,,,
,do_recog,401,858336,0.0-205.0-0.0,1583,,,,54,,,,426,probe-83,,,,,1,[object Object],200,5,1,
,html-keyboard-response,402,859341,0.0-205.0-1.0,null,<p></p>,,null,,,,,,,,,,,,,,,,
,do_trial,403,862824,0.0-206.0-0.0,944.8,,,,51,"0,0,0",6,blank,427,null,0.110516548,0.302724556,0.508309527,0,,,,,,
,html-keyboard-response,404,863828,0.0-206.0-1.0,null,<p></p>,,null,,,,,,,,,,,,,,,,
,do_recog,405,866439,0.0-207.0-0.0,1102,,,,54,,,,428,probe-124,,,,,1,[object Object],169,4,1,
,html-keyboard-response,406,867445,0.0-207.0-1.0,null,<p></p>,,null,,,,,,,,,,,,,,,,
,do_trial,407,870297,0.0-208.0-0.0,308.6,,,,51,"0,0,1",6,blank,429,null,0.195190919,0.31779362,0.719117833,1,,,,,,
,html-keyboard-response,408,871300,0.0-208.0-1.0,null,<p></p>,,null,,,,,,,,,,,,,,,,
,do_recog,409,874236,0.0-209.0-0.0,1425.8,,,,54,,,,430,probe-133,,,,,1,[object Object],86,2,1,
,html-keyboard-response,410,875240,0.0-209.0-1.0,null,<p></p>,,null,,,,,,,,,,,,,,,,
,do_trial,411,878355,0.0-210.0-0.0,574.1,,,,51,"0,1,1",6,blank,431,null,0.169579135,0.385130143,0.531568016,1,,,,,,
,html-keyboard-response,412,879357,0.0-210.0-1.0,null,<p></p>,,null,,,,,,,,,,,,,,,,
,do_recog,413,882179,0.0-211.0-0.0,1311.2,,,,54,,,,432,probe-121,,,,,1,[object Object],46,1,1,
,html-keyboard-response,414,883183,0.0-211.0-1.0,null,<p></p>,,null,,,,,,,,,,,,,,,,
,do_trial,415,886091,0.0-212.0-0.0,365.7,,,,51,"0,1,1",6,blank,433,null,0.120177325,0.32880016,0.47251258,1,,,,,,
,html-keyboard-response,416,887094,0.0-212.0-1.0,null,<p></p>,,null,,,,,,,,,,,,,,,,
,do_trial,417,891081,0.0-213.0-0.0,1445.5,,,,51,"0,0,1",6,blank,434,null,0.085573868,0.331808089,0.547940004,1,,,,,,
,html-keyboard-response,418,892082,0.0-213.0-1.0,null,<p></p>,,null,,,,,,,,,,,,,,,,
,do_trial,419,895287,0.0-214.0-0.0,660.5,,,,51,"0,0,0",6,blank,435,null,0.111708938,0.211339755,0.552008644,0,,,,,,
,html-keyboard-response,420,896290,0.0-214.0-1.0,null,<p></p>,,null,,,,,,,,,,,,,,,,
,do_trial,421,899188,0.0-215.0-0.0,357.6,,,,51,"1,0,0",6,blank,436,null,0.163673564,0.253165388,0.63909618,0,,,,,,
,html-keyboard-response,422,900191,0.0-215.0-1.0,null,<p></p>,,null,,,,,,,,,,,,,,,,
,do_trial,423,903401,0.0-216.0-0.0,669.8,,,,49,"0,0,1",6,blank,437,null,0.331384868,0.30318496,0.809556027,0,,,,,,
,html-keyboard-response,424,904407,0.0-216.0-1.0,null,<p></p>,,null,,,,,,,,,,,,,,,,
,do_recog,425,907939,0.0-217.0-0.0,2022,,,,54,,,,438,probe-117,,,,,1,[object Object],121,3,1,
,html-keyboard-response,426,908940,0.0-217.0-1.0,null,<p></p>,,null,,,,,,,,,,,,,,,,
,do_trial,427,911971,0.0-218.0-0.0,486.5,,,,49,"0,0,1",6,blank,439,null,0.26723274,0.112252222,0.723343485,0,,,,,,
,html-keyboard-response,428,912976,0.0-218.0-1.0,null,<p></p>,,null,,,,,,,,,,,,,,,,
,do_recog,429,915791,0.0-219.0-0.0,1304.5,,,,54,,,,440,probe-15,,,,,1,[object Object],44,1,1,
,html-keyboard-response,430,916795,0.0-219.0-1.0,null,<p></p>,,null,,,,,,,,,,,,,,,,
,do_trial,431,919896,0.0-220.0-0.0,558,,,,50,"1,1,0",6,blank,441,null,0.067764719,0.307652813,0.606164576,1,,,,,,
,html-keyboard-response,432,920899,0.0-220.0-1.0,null,<p></p>,,null,,,,,,,,,,,,,,,,
,do_trial,433,924186,0.0-221.0-0.0,741.9,,,,50,"0,1,1",6,blank,442,null,0.062769502,0.356162556,0.644816036,1,,,,,,
,html-keyboard-response,434,925193,0.0-221.0-1.0,null,<p></p>,,null,,,,,,,,,,,,,,,,
,do_recog,435,929607,0.0-222.0-0.0,2908,,,,54,,,,443,probe-174,,,,,1,[object Object],163,4,1,
,html-keyboard-response,436,930609,0.0-222.0-1.0,null,<p></p>,,null,,,,,,,,,,,,,,,,
,do_trial,437,934135,0.0-223.0-0.0,985.6,,,,50,"1,0,1",6,blank,444,null,0.106635924,0.314568104,0.613473424,0,,,,,,
,html-keyboard-response,438,935138,0.0-223.0-1.0,null,<p></p>,,null,,,,,,,,,,,,,,,,
,do_trial,439,938233,0.0-224.0-0.0,552.2,,,,50,"0,0,1",6,blank,445,null,0.13897805,0.139980022,0.732174287,0,,,,,,
,html-keyboard-response,440,939239,0.0-224.0-1.0,null,<p></p>,,null,,,,,,,,,,,,,,,,
,do_trial,441,942198,0.0-225.0-0.0,418.6,,,,51,"0,0,1",6,blank,446,null,0.060245192,0.192029232,0.884355069,1,,,,,,
,html-keyboard-response,442,943203,0.0-225.0-1.0,null,<p></p>,,null,,,,,,,,,,,,,,,,
,do_trial,443,945919,0.0-226.0-0.0,175.4,,,,51,"0,0,1",6,blank,447,null,0.058883837,0.097247955,0.948054302,1,,,,,,
,html-keyboard-response,444,946923,0.0-226.0-1.0,null,<p></p>,,null,,,,,,,,,,,,,,,,
,do_trial,445,950062,0.0-227.0-0.0,595.2,,,,51,"0,0,0",6,blank,448,null,0.14460685,0.134784001,0.699998227,0,,,,,,
,html-keyboard-response,446,951066,0.0-227.0-1.0,null,<p></p>,,null,,,,,,,,,,,,,,,,
,do_trial,447,954047,0.0-228.0-0.0,438,,,,51,"0,1,0",6,blank,449,null,0.113529465,0.258893118,0.453783189,0,,,,,,
,html-keyboard-response,448,955050,0.0-228.0-1.0,null,<p></p>,,null,,,,,,,,,,,,,,,,
,do_trial,449,958072,0.0-229.0-0.0,480.5,,,,49,"0,0,1",6,blank,450,null,0.123836075,0.322722569,0.329391515,0,,,,,,
,html-keyboard-response,450,959076,0.0-229.0-1.0,null,<p></p>,,null,,,,,,,,,,,,,,,,
,do_recog,451,961802,0.0-230.0-0.0,1220.5,,,,54,,,,451,probe-84,,,,,1,[object Object],209,5,1,
,html-keyboard-response,452,962806,0.0-230.0-1.0,null,<p></p>,,null,,,,,,,,,,,,,,,,
,do_trial,453,965663,0.0-231.0-0.0,315.1,,,,49,"0,1,0",6,blank,452,null,0.143283873,0.453478956,0.276080896,0,,,,,,
,html-keyboard-response,454,966667,0.0-231.0-1.0,null,<p></p>,,null,,,,,,,,,,,,,,,,
,do_recog,455,969483,0.0-232.0-0.0,1305.9,,,,54,,,,453,probe-243,,,,,0,[object Object],null,null,0,
,html-keyboard-response,456,970486,0.0-232.0-1.0,null,<p></p>,,null,,,,,,,,,,,,,,,,
,do_trial,457,973423,0.0-233.0-0.0,399,,,,49,"0,0,0",6,blank,454,null,0.078045473,0.51948569,0.2876415,0,,,,,,
,html-keyboard-response,458,974427,0.0-233.0-1.0,null,<p></p>,,null,,,,,,,,,,,,,,,,
,do_trial,459,977439,0.0-234.0-0.0,474.2,,,,50,"1,0,0",6,blank,455,null,0.354081051,0.554185638,0.193350109,0,,,,,,
,html-keyboard-response,460,978440,0.0-234.0-1.0,null,<p></p>,,null,,,,,,,,,,,,,,,,
,do_recog,461,981237,0.0-235.0-0.0,1286.2,,,,54,,,,456,probe-232,,,,,0,[object Object],null,null,0,
,html-keyboard-response,462,982241,0.0-235.0-1.0,null,<p></p>,,null,,,,,,,,,,,,,,,,
,do_trial,463,985402,0.0-236.0-0.0,622.2,,,,50,"0,0,0",6,blank,457,null,0.540484677,0.362822869,0.275372915,0,,,,,,
,html-keyboard-response,464,986405,0.0-236.0-1.0,null,<p></p>,,null,,,,,,,,,,,,,,,,
,do_trial,465,989580,0.0-237.0-0.0,632.9,,,,51,"0,0,1",6,blank,458,null,0.594724208,0.254236766,0.169679476,1,,,,,,
,html-keyboard-response,466,990583,0.0-237.0-1.0,null,<p></p>,,null,,,,,,,,,,,,,,,,
,do_recog,467,993381,0.0-238.0-0.0,1287.7,,,,55,,,,459,probe-249,,,,,0,[object Object],null,null,1,
,html-keyboard-response,468,994385,0.0-238.0-1.0,null,<p></p>,,null,,,,,,,,,,,,,,,,
,do_trial,469,997417,0.0-239.0-0.0,494.1,,,,51,"1,0,0",6,blank,460,null,0.621351117,0.198857586,0.118036206,0,,,,,,
,html-keyboard-response,470,998421,0.0-239.0-1.0,null,<p></p>,,null,,,,,,,,,,,,,,,,
,do_trial,471,1001414,0.0-240.0-0.0,449.4,,,,51,"0,1,0",6,blank,461,null,0.497395693,0.31224405,0.098854951,0,,,,,,
,html-keyboard-response,472,1002415,0.0-240.0-1.0,null,<p></p>,,null,,,,,,,,,,,,,,,,
,do_trial,473,1005359,0.0-241.0-0.0,404.5,,,,49,"1,0,0",6,blank,462,null,0.411970042,0.124051495,0.050749287,1,,,,,,
,html-keyboard-response,474,1006363,0.0-241.0-1.0,null,<p></p>,,null,,,,,,,,,,,,,,,,
,do_trial,475,1009289,0.0-242.0-0.0,385.7,,,,49,"1,0,0",6,blank,463,null,0.377897814,0.111356477,0.118974253,1,,,,,,
,html-keyboard-response,476,1010290,0.0-242.0-1.0,null,<p></p>,,null,,,,,,,,,,,,,,,,
,do_recog,477,1013550,0.0-243.0-0.0,1754.5,,,,54,,,,464,probe-248,,,,,0,[object Object],null,null,0,
,html-keyboard-response,478,1014554,0.0-243.0-1.0,null,<p></p>,,null,,,,,,,,,,,,,,,,
,do_trial,479,1017656,0.0-244.0-0.0,562.8,,,,49,"0,1,0",6,blank,465,null,0.455590965,0.108585019,0.072624587,0,,,,,,
,html-keyboard-response,480,1018657,0.0-244.0-1.0,null,<p></p>,,null,,,,,,,,,,,,,,,,
,do_recog,481,1021770,0.0-245.0-0.0,1606.2,,,,54,,,,466,probe-236,,,,,0,[object Object],null,null,0,
,html-keyboard-response,482,1022773,0.0-245.0-1.0,null,<p></p>,,null,,,,,,,,,,,,,,,,
,do_trial,483,1025887,0.0-246.0-0.0,570.7,,,,49,"1,0,1",6,blank,467,null,0.526690051,0.166256442,0.131138428,1,,,,,,
,html-keyboard-response,484,1026890,0.0-246.0-1.0,null,<p></p>,,null,,,,,,,,,,,,,,,,
,do_trial,485,1030058,0.0-247.0-0.0,627.8,,,,49,"0,0,0",6,blank,468,null,0.441446599,0.185924962,0.126715827,0,,,,,,
,html-keyboard-response,486,1031063,0.0-247.0-1.0,null,<p></p>,,null,,,,,,,,,,,,,,,,
,do_trial,487,1034506,0.0-248.0-0.0,903.7,,,,49,"0,0,0",6,blank,469,null,0.421097916,0.364361678,0.0846933,0,,,,,,
,html-keyboard-response,488,1035510,0.0-248.0-1.0,null,<p></p>,,null,,,,,,,,,,,,,,,,
,do_recog,489,1038766,0.0-249.0-0.0,1749,,,,54,,,,470,probe-235,,,,,0,[object Object],null,null,0,
,html-keyboard-response,490,1039772,0.0-249.0-1.0,null,<p></p>,,null,,,,,,,,,,,,,,,,
,do_trial,491,1042698,0.0-250.0-0.0,384,,,,50,"0,0,0",6,blank,471,null,0.51889796,0.357499993,0.100625495,0,,,,,,
,html-keyboard-response,492,1043701,0.0-250.0-1.0,null,<p></p>,,null,,,,,,,,,,,,,,,,
,do_recog,493,1046674,0.0-251.0-0.0,1466.1,,,,55,,,,472,probe-234,,,,,0,[object Object],null,null,1,
,html-keyboard-response,494,1047678,0.0-251.0-1.0,null,<p></p>,,null,,,,,,,,,,,,,,,,
,do_trial,495,1050780,0.0-252.0-0.0,562.7,,,,50,"0,0,1",6,blank,473,null,0.508604298,0.319998279,0.138488677,0,,,,,,
,html-keyboard-response,496,1051782,0.0-252.0-1.0,null,<p></p>,,null,,,,,,,,,,,,,,,,
,do_trial,497,1054754,0.0-253.0-0.0,430.7,,,,50,"1,0,0",6,blank,474,null,0.532536387,0.253784109,0.165524706,0,,,,,,
,html-keyboard-response,498,1055759,0.0-253.0-1.0,null,<p></p>,,null,,,,,,,,,,,,,,,,
,do_trial,499,1058683,0.0-254.0-0.0,381.7,,,,51,"0,0,0",6,blank,475,null,0.498559979,0.354017666,0.072844894,0,,,,,,
,html-keyboard-response,500,1059689,0.0-254.0-1.0,null,<p></p>,,null,,,,,,,,,,,,,,,,
,do_trial,501,1062589,0.0-255.0-0.0,357,,,,51,"1,0,0",6,blank,476,null,0.558926107,0.184878028,0.194965878,0,,,,,,
,html-keyboard-response,502,1063592,0.0-255.0-1.0,null,<p></p>,,null,,,,,,,,,,,,,,,,
,do_trial,503,1066596,0.0-256.0-0.0,464.6,,,,49,"1,0,0",6,blank,477,null,0.542785421,0.295157452,0.21979496,1,,,,,,
,html-keyboard-response,504,1067602,0.0-256.0-1.0,null,<p></p>,,null,,,,,,,,,,,,,,,,
,do_trial,505,1070579,0.0-257.0-0.0,434.9,,,,49,"1,0,0",6,blank,478,null,0.514981679,0.303746297,0.237998737,1,,,,,,
,html-keyboard-response,506,1071584,0.0-257.0-1.0,null,<p></p>,,null,,,,,,,,,,,,,,,,
,do_recog,507,1074548,0.0-258.0-0.0,1454.4,,,,55,,,,479,probe-247,,,,,0,[object Object],null,null,1,
,html-keyboard-response,508,1075554,0.0-258.0-1.0,null,<p></p>,,null,,,,,,,,,,,,,,,,
,do_pick_best_pirate,509,1077089,0.0-259.0-0.0,524.5,,,,49,,,,,,,,,,,,,,,
,do_pick_best_pirate,510,1079438,0.0-260.0-0.0,1341.6,,,,50,,,,,,,,,,,,,,,
,do_pick_best_pirate,511,1081292,0.0-261.0-0.0,848.4,,,,50,,,,,,,,,,,,,,,
,do_pick_best_pirate,512,1083359,0.0-262.0-0.0,1059.2,,,,50,,,,,,,,,,,,,,,
,do_pick_best_pirate,513,1084918,0.0-263.0-0.0,551.5,,,,51,,,,,,,,,,,,,,,
,do_pick_best_pirate,514,1087760,0.0-264.0-0.0,1832.6,,,,51,,,,,,,,,,,,,,,
,html-keyboard-response,515,1090824,0.0-265.0-0.0,3062.7,<p>You are all done with the experiment!</p><p> You made $15 plus $2 in bonus payment!</p><p>Thank you for participating. You will recieve your payment within 3 days.<p><b>[Press the space bar to end the experiment]</b></p></div>,,32,,,,,,,,,,,,,,,,