success,trial_type,trial_index,time_elapsed,internal_node_id,rt,stimulus,subject_id,key_press,response,choice_outcomes,context_n,context_img_id,trial_n,probe_img_id,pR_red,pR_white,pR_black,outcome,is_valid,image_to_show,probed_trial,probed_context,correct,context_id
TRUE,fullscreen,0,3686,0.0-0.0,,,,,,,,,,,,,,,,,,,,
,pavlovia,1,3690,0.0-1.0,,,,,,,,,,,,,,,,,,,,
,html-keyboard-response,2,33960,0.0-2.0,30268,"<div class='center'><p>Like yesterday,as the head captain of the ship, you have one important things to do: </p><b><p> Pick the pirate who you think will be most successful at robbing the next ship.</p></b><p>This is important in determining how much bonus money you’ll win.</p><br><p>The game will start by showing you the pirates. First pick a pirate using the <b> 1, 2, 3 </b> buttons on your keyboard. </p><p> Press <b>'1'</b> to choose red beard, <b>'2'</b> to choose white beard, and <b>'3'</b> to choose black beard</p><p> You only have 3 seconds to pick a pirate, so please make a choice quickly! If you are too slow, you’ll have to wait a bit during the time out.</p><p> Don’t feel rushed, but please do try to make a choice every time.</p><p>How good a pirate is at robbing a ship will change depending on the place they are in and how good the defenses are of the ship.</p><p><b>[Press the space bar to begin the practice game]</b></p></div>",5b37f1837bc6be00010c9657,32,,,,,,,,,,,,,,,,
,html-keyboard-response,3,56599,0.0-3.0,22639,"<div class='center'><p>You’ve arrived at the final island of your journey! Unfortunately, it’s very foggy out, so you won’t be able to see it in the distance like the previous islands you've visited.</p><p>You’ll still be deciding which pirate you want to rob a ship like before. However, because of the fog, you also won’t be able to see the ship.</p><p>This means you do not have to remember the ships you rob on this island.</p><p><b>[Press the space bar to continue]</b></p></div>",,32,,,,,,,,,,,,,,,,
,html-keyboard-response,4,80726,0.0-4.0,24127,"<div class='center'><p> Sometimes you’ll be shown a ship, and you will be asked if you saw this ship on a past island.</p><p> Here is an example of what you will see.</p><p><b>[Press the space bar to continue]</b></p><p><img src='run_exp/static/images/tutorial/example_recog_trial.png' height='500'></p></div>",,32,,,,,,,,,,,,,,,,
,html-keyboard-response,5,94822,0.0-5.0,14094,"<div class='center'><p> You will press the 5, 6, 7, 8 buttons on your keyboard to respond.</p><p>If you are very sure saw the ship, press <b>5</b> on your keyboard.</p><p> If you think you  saw it before but are not sure, then press <b>6</b>.</p><p> If you think you have not seen it before but are not sure, then press <b>7</b>.</p><p> If you are sure you did not see the ship before, then press <b>8</b>.</p><p><b>[Press the space bar to continue]</b></p><p><img src='run_exp/static/images/tutorial/example_recog_trial.png' height='500'></p></div>",,32,,,,,,,,,,,,,,,,
,html-keyboard-response,6,110509,0.0-6.0,15687,"<div class='center'><p> If you remember correctly, then you’ll get a gold coin like this: </p><p><img src='run_exp/static/images/tutorial/reward_small.png' height='200'></p><p>If you do not remember correctly, then you'll see a red x like this: </p><p><img src='run_exp/static/images/tutorial/reward_no.png' height='200'></p><p>Importantly, when you are shown a ship, take the time to remind yourself which island you saw it on. This will help you in the next part of the study.</p><p><b>[Press the space bar to continue]</b></p></div>",,32,,,,,,,,,,,,,,,,
,html-keyboard-response,7,127141,0.0-7.0,16630,"<div class='center'><p>Let's go over the important points again. Your job is to: </p><p>1. Pick the pirate who is best at robbing ships and will bring you back gold coins. </p><p>2. Correctly remember whether or not you saw a ship before. If you did see the ship before, remind yourself on which island you saw the ship. </p><p><b>[Press the space bar to begin the next part of the study]</b></p></div>",,32,,,,,,,,,,,,,,,,
,do_welcome,8,128652,0.0-8.0,null,,,,null,,,,,,,,,,,,,,,
,do_trial,9,132422,0.0-9.0-0.0,1247,,,,49,"0,0,0",6,blank,230,null,0.220590688,0.222286167,0.60808291,0,,,,,,
,html-keyboard-response,10,133432,0.0-9.0-1.0,null,<p></p>,,null,,,,,,,,,,,,,,,,
,do_trial,11,136614,0.0-10.0-0.0,653,,,,50,"0,0,0",6,blank,231,null,0.114277953,0.218975671,0.611233423,0,,,,,,
,html-keyboard-response,12,137623,0.0-10.0-1.0,null,<p></p>,,null,,,,,,,,,,,,,,,,
,do_trial,13,140573,0.0-11.0-0.0,419,,,,51,"0,0,1",6,blank,232,null,0.180506049,0.290394805,0.639190941,1,,,,,,
,html-keyboard-response,14,141583,0.0-11.0-1.0,null,<p></p>,,null,,,,,,,,,,,,,,,,
,do_trial,15,144584,0.0-12.0-0.0,471,,,,49,"0,0,1",6,blank,233,null,0.129195786,0.280494645,0.692824961,0,,,,,,
,html-keyboard-response,16,145594,0.0-12.0-1.0,null,<p></p>,,null,,,,,,,,,,,,,,,,
,do_trial,17,148524,0.0-13.0-0.0,405,,,,51,"0,1,1",6,blank,234,null,0.150036308,0.283063676,0.646228277,1,,,,,,
,html-keyboard-response,18,149534,0.0-13.0-1.0,null,<p></p>,,null,,,,,,,,,,,,,,,,
,do_trial,19,152425,0.0-14.0-0.0,368,,,,50,"0,0,1",6,blank,235,null,0.05759398,0.289294887,0.583174023,0,,,,,,
,html-keyboard-response,20,153435,0.0-14.0-1.0,null,<p></p>,,null,,,,,,,,,,,,,,,,
,do_trial,21,156255,0.0-15.0-0.0,292,,,,51,"1,0,1",6,blank,236,null,0.081528525,0.380892586,0.537677978,1,,,,,,
,html-keyboard-response,22,157265,0.0-15.0-1.0,null,<p></p>,,null,,,,,,,,,,,,,,,,
,do_trial,23,160096,0.0-16.0-0.0,301,,,,49,"0,0,0",6,blank,237,null,0.0742954,0.321797174,0.66171873,0,,,,,,
,html-keyboard-response,24,161106,0.0-16.0-1.0,null,<p></p>,,null,,,,,,,,,,,,,,,,
,do_trial,25,164036,0.0-17.0-0.0,404,,,,51,"0,1,0",6,blank,238,null,0.126048552,0.200408791,0.528584192,0,,,,,,
,html-keyboard-response,26,165047,0.0-17.0-1.0,null,<p></p>,,null,,,,,,,,,,,,,,,,
,do_trial,27,168027,0.0-18.0-0.0,456,,,,50,"0,1,0",6,blank,239,null,0.213351623,0.277026086,0.54840921,1,,,,,,
,html-keyboard-response,28,169037,0.0-18.0-1.0,null,<p></p>,,null,,,,,,,,,,,,,,,,
,do_trial,29,171847,0.0-19.0-0.0,281,,,,51,"1,0,1",6,blank,240,null,0.191604096,0.370780588,0.624808712,1,,,,,,
,html-keyboard-response,30,172857,0.0-19.0-1.0,null,<p></p>,,null,,,,,,,,,,,,,,,,
,do_trial,31,175788,0.0-20.0-0.0,403,,,,50,"0,1,0",6,blank,241,null,0.318541398,0.43511399,0.601740454,1,,,,,,
,html-keyboard-response,32,176798,0.0-20.0-1.0,null,<p></p>,,null,,,,,,,,,,,,,,,,
,do_trial,33,180079,0.0-21.0-0.0,753,,,,51,"0,1,0",6,blank,242,null,0.239031918,0.538137269,0.582646588,0,,,,,,
,html-keyboard-response,34,181089,0.0-21.0-1.0,null,<p></p>,,null,,,,,,,,,,,,,,,,
,do_trial,35,183920,0.0-22.0-0.0,301,,,,50,"0,0,0",6,blank,243,null,0.14542513,0.495989975,0.485509761,0,,,,,,
,html-keyboard-response,36,184930,0.0-22.0-1.0,null,<p></p>,,null,,,,,,,,,,,,,,,,
,do_trial,37,187761,0.0-23.0-0.0,300,,,,49,"0,0,1",6,blank,244,null,0.057838209,0.416835535,0.407963173,0,,,,,,
,html-keyboard-response,38,188770,0.0-23.0-1.0,null,<p></p>,,null,,,,,,,,,,,,,,,,
,do_recog,39,194781,0.0-24.0-0.0,null,,,,null,,,,245,probe-78,,,,,1,[object Object],81,2,0,
,html-keyboard-response,40,195790,0.0-24.0-1.0,null,<p></p>,,null,,,,,,,,,,,,,,,,
,do_trial,41,199133,0.0-25.0-0.0,812,,,,49,"0,0,0",6,blank,246,null,0.088228266,0.370679569,0.400997459,0,,,,,,
,html-keyboard-response,42,200141,0.0-25.0-1.0,null,<p></p>,,null,,,,,,,,,,,,,,,,
,do_recog,43,202702,0.0-26.0-0.0,1052,,,,54,,,,247,probe-216,,,,,1,[object Object],203,5,1,
,html-keyboard-response,44,203711,0.0-26.0-1.0,null,<p></p>,,null,,,,,,,,,,,,,,,,
,do_trial,45,206942,0.0-27.0-0.0,700,,,,51,"0,1,0",6,blank,248,null,0.061922087,0.452804939,0.353841348,0,,,,,,
,html-keyboard-response,46,207952,0.0-27.0-1.0,null,<p></p>,,null,,,,,,,,,,,,,,,,
,do_trial,47,211262,0.0-28.0-0.0,781,,,,50,"0,1,0",6,blank,249,null,0.070251667,0.57396908,0.444366665,1,,,,,,
,html-keyboard-response,48,212273,0.0-28.0-1.0,null,<p></p>,,null,,,,,,,,,,,,,,,,
,do_recog,49,214503,0.0-29.0-0.0,719,,,,55,,,,250,probe-185,,,,,1,[object Object],86,2,0,
,html-keyboard-response,50,215512,0.0-29.0-1.0,null,<p></p>,,null,,,,,,,,,,,,,,,,
,do_trial,51,219174,0.0-30.0-0.0,1131,,,,50,"0,1,0",6,blank,251,null,0.139207279,0.732976345,0.411693304,1,,,,,,
,html-keyboard-response,52,220183,0.0-30.0-1.0,null,<p></p>,,null,,,,,,,,,,,,,,,,
,do_trial,53,223313,0.0-31.0-0.0,605,,,,49,"1,1,0",6,blank,252,null,0.146454598,0.62388002,0.149830839,1,,,,,,
,html-keyboard-response,54,224323,0.0-31.0-1.0,null,<p></p>,,null,,,,,,,,,,,,,,,,
,do_recog,55,227505,0.0-32.0-0.0,1677,,,,55,,,,253,probe-35,,,,,1,[object Object],43,1,0,
,html-keyboard-response,56,228514,0.0-32.0-1.0,null,<p></p>,,null,,,,,,,,,,,,,,,,
,do_trial,57,231944,0.0-33.0-0.0,898,,,,50,"0,1,0",6,blank,254,null,0.281000089,0.723918484,0.347865926,1,,,,,,
,html-keyboard-response,58,232955,0.0-33.0-1.0,null,<p></p>,,null,,,,,,,,,,,,,,,,
,do_trial,59,236215,0.0-34.0-0.0,736,,,,51,"0,1,1",6,blank,255,null,0.090478493,0.794233046,0.28623322,1,,,,,,
,html-keyboard-response,60,237226,0.0-34.0-1.0,null,<p></p>,,null,,,,,,,,,,,,,,,,
,do_trial,61,240255,0.0-35.0-0.0,498,,,,50,"0,0,1",6,blank,256,null,0.129519428,0.627373023,0.273191469,0,,,,,,
,html-keyboard-response,62,241266,0.0-35.0-1.0,null,<p></p>,,null,,,,,,,,,,,,,,,,
,do_recog,63,244127,0.0-36.0-0.0,1350,,,,55,,,,257,probe-129,,,,,1,[object Object],44,1,0,
,html-keyboard-response,64,245128,0.0-36.0-1.0,null,<p></p>,,null,,,,,,,,,,,,,,,,
,do_trial,65,248557,0.0-37.0-0.0,900,,,,51,"0,1,0",6,blank,258,null,0.14364188,0.597071862,0.244784257,0,,,,,,
,html-keyboard-response,66,249567,0.0-37.0-1.0,null,<p></p>,,null,,,,,,,,,,,,,,,,
,do_trial,67,252789,0.0-38.0-0.0,693,,,,50,"0,1,0",6,blank,259,null,0.08340276,0.580359257,0.364308782,1,,,,,,
,html-keyboard-response,68,253799,0.0-38.0-1.0,null,<p></p>,,null,,,,,,,,,,,,,,,,
,do_trial,69,256778,0.0-39.0-0.0,458,,,,49,"0,0,0",6,blank,260,null,0.052093658,0.659716285,0.444306952,0,,,,,,
,html-keyboard-response,70,257787,0.0-39.0-1.0,null,<p></p>,,null,,,,,,,,,,,,,,,,
,do_trial,71,260969,0.0-40.0-0.0,655,,,,50,"1,1,0",6,blank,261,null,0.155741483,0.625197166,0.327164449,1,,,,,,
,html-keyboard-response,72,261979,0.0-40.0-1.0,null,<p></p>,,null,,,,,,,,,,,,,,,,
,do_trial,73,264959,0.0-41.0-0.0,456,,,,51,"0,0,0",6,blank,262,null,0.09532309,0.537425743,0.228086713,0,,,,,,
,html-keyboard-response,74,265979,0.0-41.0-1.0,null,<p></p>,,null,,,,,,,,,,,,,,,,
,do_trial,75,269078,0.0-42.0-0.0,575,,,,50,"0,0,0",6,blank,263,null,0.141388793,0.540113923,0.229450582,0,,,,,,
,html-keyboard-response,76,270090,0.0-42.0-1.0,null,<p></p>,,null,,,,,,,,,,,,,,,,
,do_recog,77,272800,0.0-43.0-0.0,1197,,,,54,,,,264,probe-151,,,,,1,[object Object],40,1,1,
,html-keyboard-response,78,273810,0.0-43.0-1.0,null,<p></p>,,null,,,,,,,,,,,,,,,,
,do_trial,79,276999,0.0-44.0-0.0,653,,,,49,"0,1,0",6,blank,265,null,0.228093114,0.465787513,0.218999293,0,,,,,,
,html-keyboard-response,80,278009,0.0-44.0-1.0,null,<p></p>,,null,,,,,,,,,,,,,,,,
,do_trial,81,281671,0.0-45.0-0.0,1129,,,,51,"1,0,1",6,blank,266,null,0.218230511,0.524288998,0.269817668,1,,,,,,
,html-keyboard-response,82,282680,0.0-45.0-1.0,null,<p></p>,,null,,,,,,,,,,,,,,,,
,do_trial,83,285690,0.0-46.0-0.0,482,,,,51,"1,1,0",6,blank,267,null,0.337845675,0.465191034,0.277293981,0,,,,,,
,html-keyboard-response,84,286700,0.0-46.0-1.0,null,<p></p>,,null,,,,,,,,,,,,,,,,
,do_trial,85,289511,0.0-47.0-0.0,286,,,,50,"0,1,0",6,blank,268,null,0.174345881,0.500338236,0.229844476,1,,,,,,
,html-keyboard-response,86,290521,0.0-47.0-1.0,null,<p></p>,,null,,,,,,,,,,,,,,,,
,do_trial,87,293432,0.0-48.0-0.0,384,,,,51,"0,0,0",6,blank,269,null,0.236340622,0.413810675,0.339909584,0,,,,,,
,html-keyboard-response,88,294441,0.0-48.0-1.0,null,<p></p>,,null,,,,,,,,,,,,,,,,
,do_trial,89,298002,0.0-49.0-0.0,1034,,,,50,"1,1,1",6,blank,270,null,0.264266813,0.538116523,0.432412472,1,,,,,,
,html-keyboard-response,90,299012,0.0-49.0-1.0,null,<p></p>,,null,,,,,,,,,,,,,,,,
,do_recog,91,301652,0.0-50.0-0.0,1130,,,,54,,,,271,probe-41,,,,,1,[object Object],83,2,1,
,html-keyboard-response,92,302653,0.0-50.0-1.0,null,<p></p>,,null,,,,,,,,,,,,,,,,
,do_trial,93,305524,0.0-51.0-0.0,341,,,,49,"1,0,0",6,blank,272,null,0.111849732,0.433906645,0.300282739,1,,,,,,
,html-keyboard-response,94,306533,0.0-51.0-1.0,null,<p></p>,,null,,,,,,,,,,,,,,,,
,do_trial,95,309693,0.0-52.0-0.0,628,,,,50,"0,0,1",6,blank,273,null,0.192064539,0.597131235,0.311752706,0,,,,,,
,html-keyboard-response,96,310703,0.0-52.0-1.0,null,<p></p>,,null,,,,,,,,,,,,,,,,
,do_trial,97,313614,0.0-53.0-0.0,380,,,,49,"0,1,0",6,blank,274,null,0.2068737,0.525038377,0.329994061,0,,,,,,
,html-keyboard-response,98,314624,0.0-53.0-1.0,null,<p></p>,,null,,,,,,,,,,,,,,,,
,do_trial,99,317704,0.0-54.0-0.0,554,,,,51,"0,0,0",6,blank,275,null,0.214455223,0.60774986,0.346709587,0,,,,,,
,html-keyboard-response,100,318706,0.0-54.0-1.0,null,<p></p>,,null,,,,,,,,,,,,,,,,
,do_trial,101,321845,0.0-55.0-0.0,619,,,,49,"0,1,0",6,blank,276,null,0.128318778,0.579912064,0.34723268,0,,,,,,
,html-keyboard-response,102,322855,0.0-55.0-1.0,null,<p></p>,,null,,,,,,,,,,,,,,,,
,do_trial,103,325965,0.0-56.0-0.0,577,,,,50,"0,1,1",6,blank,277,null,0.224619512,0.571968722,0.347212509,1,,,,,,
,html-keyboard-response,104,326975,0.0-56.0-1.0,null,<p></p>,,null,,,,,,,,,,,,,,,,
,do_recog,105,329766,0.0-57.0-0.0,1279,,,,54,,,,278,probe-110,,,,,1,[object Object],200,5,1,
,html-keyboard-response,106,330776,0.0-57.0-1.0,null,<p></p>,,null,,,,,,,,,,,,,,,,
,do_trial,107,333646,0.0-58.0-0.0,339,,,,51,"0,0,0",6,blank,279,null,0.276264059,0.380510862,0.257859209,0,,,,,,
,html-keyboard-response,108,334656,0.0-58.0-1.0,null,<p></p>,,null,,,,,,,,,,,,,,,,
,do_trial,109,337477,0.0-59.0-0.0,296,,,,49,"0,0,0",6,blank,280,null,0.176886777,0.557306185,0.243290843,0,,,,,,
,html-keyboard-response,110,338486,0.0-59.0-1.0,null,<p></p>,,null,,,,,,,,,,,,,,,,
,do_trial,111,341416,0.0-60.0-0.0,401,,,,50,"0,0,0",6,blank,281,null,0.206936576,0.565671449,0.284663166,0,,,,,,
,html-keyboard-response,112,342426,0.0-60.0-1.0,null,<p></p>,,null,,,,,,,,,,,,,,,,
,do_trial,113,345777,0.0-61.0-0.0,823,,,,51,"0,1,0",6,blank,282,null,0.16574039,0.594792519,0.345425372,0,,,,,,
,html-keyboard-response,114,346788,0.0-61.0-1.0,null,<p></p>,,null,,,,,,,,,,,,,,,,
,do_trial,115,349817,0.0-62.0-0.0,503,,,,50,"0,1,0",6,blank,283,null,0.184510552,0.543932287,0.362313928,1,,,,,,
,html-keyboard-response,116,350828,0.0-62.0-1.0,null,<p></p>,,null,,,,,,,,,,,,,,,,
,do_recog,117,353498,0.0-63.0-0.0,1161,,,,53,,,,284,probe-11,,,,,1,[object Object],209,5,1,
,html-keyboard-response,118,354508,0.0-63.0-1.0,null,<p></p>,,null,,,,,,,,,,,,,,,,
,do_trial,119,357359,0.0-64.0-0.0,325,,,,49,"0,1,1",6,blank,285,null,0.080206435,0.627017015,0.267168846,0,,,,,,
,html-keyboard-response,120,358368,0.0-64.0-1.0,null,<p></p>,,null,,,,,,,,,,,,,,,,
,do_trial,121,361289,0.0-65.0-0.0,392,,,,51,"0,1,1",6,blank,286,null,0.058059076,0.555598937,0.209704787,1,,,,,,
,html-keyboard-response,122,362295,0.0-65.0-1.0,null,<p></p>,,null,,,,,,,,,,,,,,,,
,do_trial,123,365310,0.0-66.0-0.0,481,,,,50,"0,1,1",6,blank,287,null,0.177329591,0.757365514,0.203465264,1,,,,,,
,html-keyboard-response,124,366319,0.0-66.0-1.0,null,<p></p>,,null,,,,,,,,,,,,,,,,
,do_trial,125,369270,0.0-67.0-0.0,426,,,,51,"0,1,1",6,blank,288,null,0.109563899,0.562157369,0.363197708,1,,,,,,
,html-keyboard-response,126,370271,0.0-67.0-1.0,null,<p></p>,,null,,,,,,,,,,,,,,,,
,do_trial,127,373251,0.0-68.0-0.0,449,,,,50,"0,0,1",6,blank,289,null,0.094769,0.544676753,0.349126842,0,,,,,,
,html-keyboard-response,128,374260,0.0-68.0-1.0,null,<p></p>,,null,,,,,,,,,,,,,,,,
,do_trial,129,377280,0.0-69.0-0.0,492,,,,51,"0,1,0",6,blank,290,null,0.111583882,0.715135937,0.236528502,0,,,,,,
,html-keyboard-response,130,378290,0.0-69.0-1.0,null,<p></p>,,null,,,,,,,,,,,,,,,,
,do_recog,131,380717,0.0-70.0-0.0,915,,,,54,,,,291,probe-163,,,,,1,[object Object],165,4,1,
,html-keyboard-response,132,381721,0.0-70.0-1.0,null,<p></p>,,null,,,,,,,,,,,,,,,,
,do_trial,133,384542,0.0-71.0-0.0,296,,,,49,"0,0,1",6,blank,292,null,0.084566267,0.563632801,0.529919901,0,,,,,,
,html-keyboard-response,134,385551,0.0-71.0-1.0,null,<p></p>,,null,,,,,,,,,,,,,,,,
,do_recog,135,388032,0.0-72.0-0.0,972,,,,54,,,,293,probe-124,,,,,1,[object Object],122,3,1,
,html-keyboard-response,136,389041,0.0-72.0-1.0,null,<p></p>,,null,,,,,,,,,,,,,,,,
,do_trial,137,391862,0.0-73.0-0.0,293,,,,50,"0,1,1",6,blank,294,null,0.17075301,0.4803822,0.40482933,1,,,,,,
,html-keyboard-response,138,392872,0.0-73.0-1.0,null,<p></p>,,null,,,,,,,,,,,,,,,,
,do_trial,139,395713,0.0-74.0-0.0,308,,,,51,"0,1,0",6,blank,295,null,0.143449541,0.359016965,0.533560158,0,,,,,,
,html-keyboard-response,140,396722,0.0-74.0-1.0,null,<p></p>,,null,,,,,,,,,,,,,,,,
,do_recog,141,399283,0.0-75.0-0.0,1050,,,,53,,,,296,probe-99,,,,,1,[object Object],202,5,1,
,html-keyboard-response,142,400293,0.0-75.0-1.0,null,<p></p>,,null,,,,,,,,,,,,,,,,
,do_trial,143,403123,0.0-76.0-0.0,298,,,,50,"0,0,0",6,blank,297,null,0.20314364,0.416402705,0.410708161,0,,,,,,
,html-keyboard-response,144,404133,0.0-76.0-1.0,null,<p></p>,,null,,,,,,,,,,,,,,,,
,do_recog,145,406523,0.0-77.0-0.0,879,,,,54,,,,298,probe-170,,,,,1,[object Object],125,3,1,
,html-keyboard-response,146,407533,0.0-77.0-1.0,null,<p></p>,,null,,,,,,,,,,,,,,,,
,do_trial,147,410534,0.0-78.0-0.0,474,,,,51,"0,1,1",6,blank,299,null,0.135729565,0.449326514,0.606694628,1,,,,,,
,html-keyboard-response,148,411544,0.0-78.0-1.0,null,<p></p>,,null,,,,,,,,,,,,,,,,
,do_recog,149,413914,0.0-79.0-0.0,857,,,,54,,,,300,probe-82,,,,,1,[object Object],201,5,1,
,html-keyboard-response,150,414927,0.0-79.0-1.0,null,<p></p>,,null,,,,,,,,,,,,,,,,
,do_trial,151,417765,0.0-80.0-0.0,306,,,,50,"0,0,0",6,blank,301,null,0.078635855,0.346282612,0.583152703,0,,,,,,
,html-keyboard-response,152,418775,0.0-80.0-1.0,null,<p></p>,,null,,,,,,,,,,,,,,,,
,do_recog,153,421165,0.0-81.0-0.0,877,,,,54,,,,302,probe-27,,,,,1,[object Object],161,4,1,
,html-keyboard-response,154,422174,0.0-81.0-1.0,null,<p></p>,,null,,,,,,,,,,,,,,,,
,do_trial,155,425114,0.0-82.0-0.0,408,,,,49,"0,0,1",6,blank,303,null,0.089753279,0.408327518,0.681127657,0,,,,,,
,html-keyboard-response,156,426124,0.0-82.0-1.0,null,<p></p>,,null,,,,,,,,,,,,,,,,
,do_trial,157,429315,0.0-83.0-0.0,659,,,,51,"1,1,1",6,blank,304,null,0.071420552,0.209216867,0.675418131,1,,,,,,
,html-keyboard-response,158,430325,0.0-83.0-1.0,null,<p></p>,,null,,,,,,,,,,,,,,,,
,do_trial,159,433595,0.0-84.0-0.0,747,,,,51,"0,0,1",6,blank,305,null,0.087629675,0.15423054,0.73027644,1,,,,,,
,html-keyboard-response,160,434605,0.0-84.0-1.0,null,<p></p>,,null,,,,,,,,,,,,,,,,
,do_trial,161,437556,0.0-85.0-0.0,419,,,,51,"0,0,0",6,blank,306,null,0.066105444,0.191096959,0.750632389,0,,,,,,
,html-keyboard-response,162,438566,0.0-85.0-1.0,null,<p></p>,,null,,,,,,,,,,,,,,,,
,do_trial,163,441626,0.0-86.0-0.0,530,,,,50,"0,0,1",6,blank,307,null,0.118043347,0.313230955,0.719305024,0,,,,,,
,html-keyboard-response,164,442636,0.0-86.0-1.0,null,<p></p>,,null,,,,,,,,,,,,,,,,
,do_trial,165,445657,0.0-87.0-0.0,491,,,,51,"0,0,1",6,blank,308,null,0.073299913,0.310976607,0.680014527,1,,,,,,
,html-keyboard-response,166,446668,0.0-87.0-1.0,null,<p></p>,,null,,,,,,,,,,,,,,,,
,do_trial,167,449637,0.0-88.0-0.0,445,,,,49,"0,1,1",6,blank,309,null,0.173202622,0.246401574,0.710861251,0,,,,,,
,html-keyboard-response,168,450647,0.0-88.0-1.0,null,<p></p>,,null,,,,,,,,,,,,,,,,
,do_recog,169,453109,0.0-89.0-0.0,956,,,,54,,,,310,probe-236,,,,,0,[object Object],null,null,0,
,html-keyboard-response,170,454118,0.0-89.0-1.0,null,<p></p>,,null,,,,,,,,,,,,,,,,
,do_trial,171,457338,0.0-90.0-0.0,690,,,,51,"0,0,0",6,blank,311,null,0.237708069,0.299065841,0.646920073,0,,,,,,
,html-keyboard-response,172,458348,0.0-90.0-1.0,null,<p></p>,,null,,,,,,,,,,,,,,,,
,do_trial,173,461339,0.0-91.0-0.0,457,,,,50,"0,0,1",6,blank,312,null,0.170921327,0.268354273,0.567296721,0,,,,,,
,html-keyboard-response,174,462349,0.0-91.0-1.0,null,<p></p>,,null,,,,,,,,,,,,,,,,
,do_recog,175,464730,0.0-92.0-0.0,871,,,,54,,,,313,probe-184,,,,,1,[object Object],46,1,1,
,html-keyboard-response,176,465739,0.0-92.0-1.0,null,<p></p>,,null,,,,,,,,,,,,,,,,
,do_trial,177,468619,0.0-93.0-0.0,348,,,,49,"0,1,1",6,blank,314,null,0.07904804,0.434492638,0.547200672,0,,,,,,
,html-keyboard-response,178,469630,0.0-93.0-1.0,null,<p></p>,,null,,,,,,,,,,,,,,,,
,do_recog,179,472020,0.0-94.0-0.0,885,,,,54,,,,315,probe-214,,,,,1,[object Object],121,3,1,
,html-keyboard-response,180,473030,0.0-94.0-1.0,null,<p></p>,,null,,,,,,,,,,,,,,,,
,do_trial,181,475890,0.0-95.0-0.0,337,,,,50,"0,1,1",6,blank,316,null,0.059713474,0.349011535,0.605127157,1,,,,,,
,html-keyboard-response,182,476900,0.0-95.0-1.0,null,<p></p>,,null,,,,,,,,,,,,,,,,
,do_recog,183,479281,0.0-96.0-0.0,870,,,,54,,,,317,probe-183,,,,,1,[object Object],205,5,1,
,html-keyboard-response,184,480290,0.0-96.0-1.0,null,<p></p>,,null,,,,,,,,,,,,,,,,
,do_trial,185,483370,0.0-97.0-0.0,556,,,,51,"0,1,0",6,blank,318,null,0.062167874,0.328622497,0.531245467,0,,,,,,
,html-keyboard-response,186,484380,0.0-97.0-1.0,null,<p></p>,,null,,,,,,,,,,,,,,,,
,do_recog,187,486822,0.0-98.0-0.0,934,,,,54,,,,319,probe-01,,,,,1,[object Object],89,2,1,
,html-keyboard-response,188,487831,0.0-98.0-1.0,null,<p></p>,,null,,,,,,,,,,,,,,,,
,do_trial,189,490723,0.0-99.0-0.0,359,,,,50,"0,0,0",6,blank,320,null,0.176176681,0.371019879,0.510739791,0,,,,,,
,html-keyboard-response,190,491733,0.0-99.0-1.0,null,<p></p>,,null,,,,,,,,,,,,,,,,
,do_trial,191,494813,0.0-100.0-0.0,554,,,,49,"0,0,1",6,blank,321,null,0.19079843,0.355316116,0.440452353,0,,,,,,
,html-keyboard-response,192,495823,0.0-100.0-1.0,null,<p></p>,,null,,,,,,,,,,,,,,,,
,do_trial,193,498743,0.0-101.0-0.0,391,,,,50,"1,0,0",6,blank,322,null,0.138984756,0.234774551,0.502505665,0,,,,,,
,html-keyboard-response,194,499754,0.0-101.0-1.0,null,<p></p>,,null,,,,,,,,,,,,,,,,
,do_trial,195,502675,0.0-102.0-0.0,388,,,,51,"1,0,1",6,blank,323,null,0.142831425,0.320043988,0.520768346,1,,,,,,
,html-keyboard-response,196,503684,0.0-102.0-1.0,null,<p></p>,,null,,,,,,,,,,,,,,,,
,do_trial,197,506655,0.0-103.0-0.0,442,,,,50,"0,0,1",6,blank,324,null,0.151283661,0.184321753,0.612338476,0,,,,,,
,html-keyboard-response,198,507664,0.0-103.0-1.0,null,<p></p>,,null,,,,,,,,,,,,,,,,
,do_trial,199,510597,0.0-104.0-0.0,406,,,,51,"0,0,1",6,blank,325,null,0.167757924,0.355611826,0.713752497,1,,,,,,
,html-keyboard-response,200,511598,0.0-104.0-1.0,null,<p></p>,,null,,,,,,,,,,,,,,,,
,do_recog,201,514027,0.0-105.0-0.0,917,,,,54,,,,326,probe-217,,,,,1,[object Object],88,2,1,
,html-keyboard-response,202,515036,0.0-105.0-1.0,null,<p></p>,,null,,,,,,,,,,,,,,,,
,do_trial,203,517968,0.0-106.0-0.0,401,,,,49,"0,0,1",6,blank,327,null,0.139864164,0.446188641,0.684415147,0,,,,,,
,html-keyboard-response,204,518977,0.0-106.0-1.0,null,<p></p>,,null,,,,,,,,,,,,,,,,
,do_trial,205,522018,0.0-107.0-0.0,506,,,,50,"0,0,0",6,blank,328,null,0.080034241,0.509227684,0.714856537,0,,,,,,
,html-keyboard-response,206,523027,0.0-107.0-1.0,null,<p></p>,,null,,,,,,,,,,,,,,,,
,do_trial,207,526358,0.0-108.0-0.0,802,,,,49,"0,1,0",6,blank,329,null,0.127146268,0.52402821,0.701291958,0,,,,,,
,html-keyboard-response,208,527368,0.0-108.0-1.0,null,<p></p>,,null,,,,,,,,,,,,,,,,
,do_trial,209,530408,0.0-109.0-0.0,508,,,,51,"0,1,1",6,blank,330,null,0.132317192,0.363878075,0.607492041,1,,,,,,
,html-keyboard-response,210,531419,0.0-109.0-1.0,null,<p></p>,,null,,,,,,,,,,,,,,,,
,do_recog,211,533889,0.0-110.0-0.0,959,,,,54,,,,331,probe-98,,,,,1,[object Object],84,2,1,
,html-keyboard-response,212,534899,0.0-110.0-1.0,null,<p></p>,,null,,,,,,,,,,,,,,,,
,do_trial,213,537859,0.0-111.0-0.0,435,,,,51,"0,0,0",6,blank,332,null,0.088563504,0.39258585,0.486511121,0,,,,,,
,html-keyboard-response,214,538861,0.0-111.0-1.0,null,<p></p>,,null,,,,,,,,,,,,,,,,
,do_recog,215,541451,0.0-112.0-0.0,1077,,,,54,,,,333,probe-209,,,,,1,[object Object],160,4,1,
,html-keyboard-response,216,542472,0.0-112.0-1.0,null,<p></p>,,null,,,,,,,,,,,,,,,,
,do_trial,217,545260,0.0-113.0-0.0,261,,,,50,"0,1,1",6,blank,334,null,0.203250155,0.630077271,0.593873569,1,,,,,,
,html-keyboard-response,218,546270,0.0-113.0-1.0,null,<p></p>,,null,,,,,,,,,,,,,,,,
,do_trial,219,549770,0.0-114.0-0.0,976,,,,49,"0,0,0",6,blank,335,null,0.056249831,0.394966156,0.616514622,0,,,,,,
,html-keyboard-response,220,550781,0.0-114.0-1.0,null,<p></p>,,null,,,,,,,,,,,,,,,,
,do_trial,221,553781,0.0-115.0-0.0,471,,,,51,"0,0,1",6,blank,336,null,0.11894227,0.316039624,0.648735452,1,,,,,,
,html-keyboard-response,222,554790,0.0-115.0-1.0,null,<p></p>,,null,,,,,,,,,,,,,,,,
,do_trial,223,557811,0.0-116.0-0.0,495,,,,50,"0,0,1",6,blank,337,null,0.074265054,0.371527317,0.663206621,0,,,,,,
,html-keyboard-response,224,558821,0.0-116.0-1.0,null,<p></p>,,null,,,,,,,,,,,,,,,,
,do_trial,225,562042,0.0-117.0-0.0,697,,,,51,"1,1,1",6,blank,338,null,0.092804101,0.355406116,0.666284233,1,,,,,,
,html-keyboard-response,226,563051,0.0-117.0-1.0,null,<p></p>,,null,,,,,,,,,,,,,,,,
,do_recog,227,565472,0.0-118.0-0.0,909,,,,54,,,,339,probe-62,,,,,1,[object Object],123,3,1,
,html-keyboard-response,228,566481,0.0-118.0-1.0,null,<p></p>,,null,,,,,,,,,,,,,,,,
,do_trial,229,569353,0.0-119.0-0.0,347,,,,49,"0,0,1",6,blank,340,null,0.169696286,0.398355997,0.62846514,0,,,,,,
,html-keyboard-response,230,570362,0.0-119.0-1.0,null,<p></p>,,null,,,,,,,,,,,,,,,,
,do_recog,231,572904,0.0-120.0-0.0,1030,,,,54,,,,341,probe-118,,,,,1,[object Object],82,2,1,
,html-keyboard-response,232,573913,0.0-120.0-1.0,null,<p></p>,,null,,,,,,,,,,,,,,,,
,do_trial,233,576773,0.0-121.0-0.0,331,,,,51,"0,0,1",6,blank,342,null,0.268684495,0.407817821,0.569500927,1,,,,,,
,html-keyboard-response,234,577783,0.0-121.0-1.0,null,<p></p>,,null,,,,,,,,,,,,,,,,
,do_trial,235,580884,0.0-122.0-0.0,573,,,,50,"0,0,0",6,blank,343,null,0.240504703,0.36041299,0.491007623,0,,,,,,
,html-keyboard-response,236,581894,0.0-122.0-1.0,null,<p></p>,,null,,,,,,,,,,,,,,,,
,do_recog,237,584545,0.0-123.0-0.0,1146,,,,54,,,,344,probe-221,,,,,1,[object Object],85,2,1,
,html-keyboard-response,238,585554,0.0-123.0-1.0,null,<p></p>,,null,,,,,,,,,,,,,,,,
,do_trial,239,588535,0.0-124.0-0.0,446,,,,49,"0,1,0",6,blank,345,null,0.13461792,0.386409828,0.536174103,0,,,,,,
,html-keyboard-response,240,589545,0.0-124.0-1.0,null,<p></p>,,null,,,,,,,,,,,,,,,,
,do_trial,241,592285,0.0-125.0-0.0,209,,,,51,"1,0,0",6,blank,346,null,0.197603478,0.454966348,0.578456266,0,,,,,,
,html-keyboard-response,242,593295,0.0-125.0-1.0,null,<p></p>,,null,,,,,,,,,,,,,,,,
,do_trial,243,596216,0.0-126.0-0.0,397,,,,50,"0,0,1",6,blank,347,null,0.24847976,0.472557649,0.563997299,0,,,,,,
,html-keyboard-response,244,597226,0.0-126.0-1.0,null,<p></p>,,null,,,,,,,,,,,,,,,,
,do_trial,245,600256,0.0-127.0-0.0,505,,,,51,"0,0,1",6,blank,348,null,0.273565105,0.551006426,0.451956043,1,,,,,,
,html-keyboard-response,246,601266,0.0-127.0-1.0,null,<p></p>,,null,,,,,,,,,,,,,,,,
,do_trial,247,604847,0.0-128.0-0.0,1048,,,,50,"1,0,0",6,blank,349,null,0.287635647,0.571351279,0.32989889,0,,,,,,
,html-keyboard-response,248,605856,0.0-128.0-1.0,null,<p></p>,,null,,,,,,,,,,,,,,,,
,do_trial,249,608857,0.0-129.0-0.0,474,,,,51,"0,1,0",6,blank,350,null,0.301419159,0.554367399,0.168404189,0,,,,,,
,html-keyboard-response,250,609868,0.0-129.0-1.0,null,<p></p>,,null,,,,,,,,,,,,,,,,
,do_trial,251,612888,0.0-130.0-0.0,487,,,,49,"0,1,0",6,blank,351,null,0.23670054,0.450790225,0.132975628,0,,,,,,
,html-keyboard-response,252,613898,0.0-130.0-1.0,null,<p></p>,,null,,,,,,,,,,,,,,,,
,do_recog,253,616269,0.0-131.0-0.0,861,,,,54,,,,352,probe-24,,,,,1,[object Object],166,4,1,
,html-keyboard-response,254,617280,0.0-131.0-1.0,null,<p></p>,,null,,,,,,,,,,,,,,,,
,do_trial,255,619839,0.0-132.0-0.0,24,,,,51,"1,1,0",6,blank,353,null,0.315996091,0.515362421,0.100716963,0,,,,,,
,html-keyboard-response,256,620849,0.0-132.0-1.0,null,<p></p>,,null,,,,,,,,,,,,,,,,
,do_recog,257,623239,0.0-133.0-0.0,888,,,,54,,,,354,probe-43,,,,,1,[object Object],169,4,1,
,html-keyboard-response,258,624249,0.0-133.0-1.0,null,<p></p>,,null,,,,,,,,,,,,,,,,
,do_trial,259,627280,0.0-134.0-0.0,506,,,,50,"0,0,0",6,blank,355,null,0.340304959,0.453837127,0.061397481,0,,,,,,
,html-keyboard-response,260,628290,0.0-134.0-1.0,null,<p></p>,,null,,,,,,,,,,,,,,,,
,do_trial,261,631560,0.0-135.0-0.0,745,,,,51,"0,0,0",6,blank,356,null,0.342848679,0.543022931,0.062238584,0,,,,,,
,html-keyboard-response,262,632569,0.0-135.0-1.0,null,<p></p>,,null,,,,,,,,,,,,,,,,
,do_trial,263,635681,0.0-136.0-0.0,585,,,,49,"0,1,0",6,blank,357,null,0.474705516,0.613214638,0.173688989,0,,,,,,
,html-keyboard-response,264,636691,0.0-136.0-1.0,null,<p></p>,,null,,,,,,,,,,,,,,,,
,do_trial,265,639700,0.0-137.0-0.0,481,,,,50,"1,1,0",6,blank,358,null,0.48520729,0.636091086,0.191641852,1,,,,,,
,html-keyboard-response,266,640711,0.0-137.0-1.0,null,<p></p>,,null,,,,,,,,,,,,,,,,
,do_trial,267,643881,0.0-138.0-0.0,644,,,,51,"1,0,0",6,blank,359,null,0.386040837,0.537479848,0.114489126,0,,,,,,
,html-keyboard-response,268,644881,0.0-138.0-1.0,null,<p></p>,,null,,,,,,,,,,,,,,,,
,do_trial,269,647831,0.0-139.0-0.0,425,,,,50,"1,0,1",6,blank,360,null,0.328793474,0.54647598,0.237939242,0,,,,,,
,html-keyboard-response,270,648843,0.0-139.0-1.0,null,<p></p>,,null,,,,,,,,,,,,,,,,
,do_recog,271,651532,0.0-140.0-0.0,1174,,,,53,,,,361,probe-75,,,,,1,[object Object],167,4,1,
,html-keyboard-response,272,652542,0.0-140.0-1.0,null,<p></p>,,null,,,,,,,,,,,,,,,,
,do_trial,273,655343,0.0-141.0-0.0,274,,,,49,"1,1,0",6,blank,362,null,0.231886826,0.594071142,0.243303442,1,,,,,,
,html-keyboard-response,274,656353,0.0-141.0-1.0,null,<p></p>,,null,,,,,,,,,,,,,,,,
,do_recog,275,658792,0.0-142.0-0.0,935,,,,54,,,,363,probe-34,,,,,1,[object Object],204,5,1,
,html-keyboard-response,276,659803,0.0-142.0-1.0,null,<p></p>,,null,,,,,,,,,,,,,,,,
,do_trial,277,662863,0.0-143.0-0.0,536,,,,50,"0,1,0",6,blank,364,null,0.260895315,0.633523624,0.221040759,1,,,,,,
,html-keyboard-response,278,663873,0.0-143.0-1.0,null,<p></p>,,null,,,,,,,,,,,,,,,,
,do_recog,279,666563,0.0-144.0-0.0,1182,,,,53,,,,365,probe-14,,,,,1,[object Object],208,5,1,
,html-keyboard-response,280,667574,0.0-144.0-1.0,null,<p></p>,,null,,,,,,,,,,,,,,,,
,do_trial,281,670493,0.0-145.0-0.0,388,,,,51,"0,1,0",6,blank,366,null,0.160017185,0.543044429,0.125645409,0,,,,,,
,html-keyboard-response,282,671503,0.0-145.0-1.0,null,<p></p>,,null,,,,,,,,,,,,,,,,
,do_trial,283,674614,0.0-146.0-0.0,587,,,,49,"0,1,0",6,blank,367,null,0.217064658,0.356659413,0.135135242,0,,,,,,
,html-keyboard-response,284,675624,0.0-146.0-1.0,null,<p></p>,,null,,,,,,,,,,,,,,,,
,do_trial,285,678434,0.0-147.0-0.0,282,,,,50,"0,1,0",6,blank,368,null,0.227444331,0.420462867,0.090277841,1,,,,,,
,html-keyboard-response,286,679444,0.0-147.0-1.0,null,<p></p>,,null,,,,,,,,,,,,,,,,
,do_trial,287,682635,0.0-148.0-0.0,662,,,,50,"1,0,0",6,blank,369,null,0.263106093,0.387862208,0.15620908,0,,,,,,
,html-keyboard-response,288,683645,0.0-148.0-1.0,null,<p></p>,,null,,,,,,,,,,,,,,,,
,do_trial,289,686684,0.0-149.0-0.0,509,,,,51,"0,0,0",6,blank,370,null,0.20772635,0.422649413,0.128244451,0,,,,,,
,html-keyboard-response,290,687695,0.0-149.0-1.0,null,<p></p>,,null,,,,,,,,,,,,,,,,
,do_recog,291,690176,0.0-150.0-0.0,975,,,,54,,,,371,probe-88,,,,,1,[object Object],126,3,1,
,html-keyboard-response,292,691186,0.0-150.0-1.0,null,<p></p>,,null,,,,,,,,,,,,,,,,
,do_trial,293,694085,0.0-151.0-0.0,375,,,,50,"0,1,1",6,blank,372,null,0.366426978,0.306441398,0.22345177,1,,,,,,
,html-keyboard-response,294,695096,0.0-151.0-1.0,null,<p></p>,,null,,,,,,,,,,,,,,,,
,do_recog,295,697887,0.0-152.0-0.0,1286,,,,54,,,,373,probe-89,,,,,1,[object Object],207,5,1,
,html-keyboard-response,296,698897,0.0-152.0-1.0,null,<p></p>,,null,,,,,,,,,,,,,,,,
,do_trial,297,701718,0.0-153.0-0.0,296,,,,49,"1,1,0",6,blank,374,null,0.443253352,0.322265206,0.082980237,1,,,,,,
,html-keyboard-response,298,702728,0.0-153.0-1.0,null,<p></p>,,null,,,,,,,,,,,,,,,,
,do_recog,299,705258,0.0-154.0-0.0,1021,,,,54,,,,375,probe-50,,,,,1,[object Object],163,4,1,
,html-keyboard-response,300,706268,0.0-154.0-1.0,null,<p></p>,,null,,,,,,,,,,,,,,,,
,do_trial,301,710078,0.0-155.0-0.0,1285,,,,50,"1,1,0",6,blank,376,null,0.252254835,0.366430359,0.087897475,1,,,,,,
,html-keyboard-response,302,711089,0.0-155.0-1.0,null,<p></p>,,null,,,,,,,,,,,,,,,,
,do_trial,303,714308,0.0-156.0-0.0,687,,,,51,"0,0,0",6,blank,377,null,0.175473145,0.492443031,0.090508325,0,,,,,,
,html-keyboard-response,304,715319,0.0-156.0-1.0,null,<p></p>,,null,,,,,,,,,,,,,,,,
,do_recog,305,718340,0.0-157.0-0.0,1509,,,,54,,,,378,probe-03,,,,,1,[object Object],41,1,1,
,html-keyboard-response,306,719349,0.0-157.0-1.0,null,<p></p>,,null,,,,,,,,,,,,,,,,
,do_trial,307,722589,0.0-158.0-0.0,703,,,,51,"0,1,0",6,blank,379,null,0.13703659,0.477504503,0.190263746,0,,,,,,
,html-keyboard-response,308,723599,0.0-158.0-1.0,null,<p></p>,,null,,,,,,,,,,,,,,,,
,do_trial,309,726831,0.0-159.0-0.0,705,,,,49,"1,0,0",6,blank,380,null,0.142738121,0.417115685,0.214561619,1,,,,,,
,html-keyboard-response,310,727841,0.0-159.0-1.0,null,<p></p>,,null,,,,,,,,,,,,,,,,
,do_trial,311,731030,0.0-160.0-0.0,665,,,,50,"0,1,0",6,blank,381,null,0.238484009,0.427664826,0.07306051,1,,,,,,
,html-keyboard-response,312,732040,0.0-160.0-1.0,null,<p></p>,,null,,,,,,,,,,,,,,,,
,do_recog,313,734690,0.0-161.0-0.0,1141,,,,54,,,,382,probe-109,,,,,1,[object Object],168,4,1,
,html-keyboard-response,314,735701,0.0-161.0-1.0,null,<p></p>,,null,,,,,,,,,,,,,,,,
,do_trial,315,738841,0.0-162.0-0.0,612,,,,49,"1,0,1",6,blank,383,null,0.256728244,0.347019141,0.186586415,1,,,,,,
,html-keyboard-response,316,739851,0.0-162.0-1.0,null,<p></p>,,null,,,,,,,,,,,,,,,,
,do_trial,317,742781,0.0-163.0-0.0,397,,,,50,"1,0,0",6,blank,384,null,0.287246504,0.307649435,0.186561208,0,,,,,,
,html-keyboard-response,318,743791,0.0-163.0-1.0,null,<p></p>,,null,,,,,,,,,,,,,,,,
,do_recog,319,746502,0.0-164.0-0.0,1205,,,,54,,,,385,probe-250,,,,,0,[object Object],null,null,0,
,html-keyboard-response,320,747512,0.0-164.0-1.0,null,<p></p>,,null,,,,,,,,,,,,,,,,
,do_trial,321,750442,0.0-165.0-0.0,401,,,,49,"0,1,0",6,blank,386,null,0.285057354,0.485380796,0.238609683,0,,,,,,
,html-keyboard-response,322,751453,0.0-165.0-1.0,null,<p></p>,,null,,,,,,,,,,,,,,,,
,do_trial,323,754423,0.0-166.0-0.0,445,,,,50,"0,1,0",6,blank,387,null,0.206951336,0.496383485,0.159018872,1,,,,,,
,html-keyboard-response,324,755433,0.0-166.0-1.0,null,<p></p>,,null,,,,,,,,,,,,,,,,
,do_trial,325,758383,0.0-167.0-0.0,423,,,,51,"0,1,0",6,blank,388,null,0.270192824,0.615525527,0.117768691,0,,,,,,
,html-keyboard-response,326,759393,0.0-167.0-1.0,null,<p></p>,,null,,,,,,,,,,,,,,,,
,do_trial,327,762454,0.0-168.0-0.0,530,,,,50,"0,0,0",6,blank,389,null,0.212979916,0.612346761,0.134205472,0,,,,,,
,html-keyboard-response,328,763464,0.0-168.0-1.0,null,<p></p>,,null,,,,,,,,,,,,,,,,
,do_recog,329,765824,0.0-169.0-0.0,852,,,,54,,,,390,probe-173,,,,,1,[object Object],206,5,1,
,html-keyboard-response,330,766834,0.0-169.0-1.0,null,<p></p>,,null,,,,,,,,,,,,,,,,
,do_trial,331,769734,0.0-170.0-0.0,374,,,,49,"0,1,1",6,blank,391,null,0.265297591,0.62646784,0.104559841,0,,,,,,
,html-keyboard-response,332,770745,0.0-170.0-1.0,null,<p></p>,,null,,,,,,,,,,,,,,,,
,do_trial,333,773694,0.0-171.0-0.0,424,,,,51,"0,1,0",6,blank,392,null,0.394972801,0.764628294,0.195686884,0,,,,,,
,html-keyboard-response,334,774705,0.0-171.0-1.0,null,<p></p>,,null,,,,,,,,,,,,,,,,
,do_trial,335,777685,0.0-172.0-0.0,456,,,,50,"0,1,0",6,blank,393,null,0.432487345,0.728226257,0.15947745,1,,,,,,
,html-keyboard-response,336,778685,0.0-172.0-1.0,null,<p></p>,,null,,,,,,,,,,,,,,,,
,do_trial,337,781667,0.0-173.0-0.0,450,,,,51,"0,1,1",6,blank,394,null,0.433346633,0.617542108,0.098994931,1,,,,,,
,html-keyboard-response,338,782676,0.0-173.0-1.0,null,<p></p>,,null,,,,,,,,,,,,,,,,
,do_trial,339,785625,0.0-174.0-0.0,425,,,,50,"0,1,0",6,blank,395,null,0.394081234,0.772887113,0.128473262,1,,,,,,
,html-keyboard-response,340,786635,0.0-174.0-1.0,null,<p></p>,,null,,,,,,,,,,,,,,,,
,do_trial,341,789817,0.0-175.0-0.0,652,,,,51,"0,1,1",6,blank,396,null,0.297661438,0.825667543,0.124278643,1,,,,,,
,html-keyboard-response,342,790826,0.0-175.0-1.0,null,<p></p>,,null,,,,,,,,,,,,,,,,
,do_trial,343,793808,0.0-176.0-0.0,452,,,,50,"1,0,0",6,blank,397,null,0.298713751,0.835602553,0.169161454,0,,,,,,
,html-keyboard-response,344,794817,0.0-176.0-1.0,null,<p></p>,,null,,,,,,,,,,,,,,,,
,do_recog,345,797478,0.0-177.0-0.0,1153,,,,54,,,,398,probe-73,,,,,1,[object Object],48,1,1,
,html-keyboard-response,346,798488,0.0-177.0-1.0,null,<p></p>,,null,,,,,,,,,,,,,,,,
,do_trial,347,801319,0.0-178.0-0.0,304,,,,51,"0,0,0",6,blank,399,null,0.279561587,0.829343389,0.241151683,0,,,,,,
,html-keyboard-response,348,802328,0.0-178.0-1.0,null,<p></p>,,null,,,,,,,,,,,,,,,,
,do_trial,349,805418,0.0-179.0-0.0,569,,,,49,"1,1,1",6,blank,400,null,0.257396654,0.898676333,0.236801938,1,,,,,,
,html-keyboard-response,350,806428,0.0-179.0-1.0,null,<p></p>,,null,,,,,,,,,,,,,,,,
,do_recog,351,809150,0.0-180.0-0.0,1215,,,,53,,,,401,probe-171,,,,,1,[object Object],80,2,1,
,html-keyboard-response,352,810159,0.0-180.0-1.0,null,<p></p>,,null,,,,,,,,,,,,,,,,
,do_trial,353,812979,0.0-181.0-0.0,287,,,,50,"0,1,1",6,blank,402,null,0.301905631,0.570855429,0.400886689,1,,,,,,
,html-keyboard-response,354,813989,0.0-181.0-1.0,null,<p></p>,,null,,,,,,,,,,,,,,,,
,do_trial,355,816910,0.0-182.0-0.0,394,,,,49,"1,0,1",6,blank,403,null,0.286282418,0.32969161,0.60636188,1,,,,,,
,html-keyboard-response,356,817920,0.0-182.0-1.0,null,<p></p>,,null,,,,,,,,,,,,,,,,
,do_trial,357,820901,0.0-183.0-0.0,455,,,,50,"0,0,0",6,blank,404,null,0.318298234,0.262186571,0.585445161,0,,,,,,
,html-keyboard-response,358,821911,0.0-183.0-1.0,null,<p></p>,,null,,,,,,,,,,,,,,,,
,do_trial,359,824981,0.0-184.0-0.0,544,,,,49,"0,1,1",6,blank,405,null,0.273832942,0.229134205,0.601240889,0,,,,,,
,html-keyboard-response,360,825991,0.0-184.0-1.0,null,<p></p>,,null,,,,,,,,,,,,,,,,
,do_trial,361,828922,0.0-185.0-0.0,407,,,,51,"0,0,1",6,blank,406,null,0.239111869,0.250476721,0.574806419,1,,,,,,
,html-keyboard-response,362,829932,0.0-185.0-1.0,null,<p></p>,,null,,,,,,,,,,,,,,,,
,do_trial,363,832962,0.0-186.0-0.0,499,,,,51,"0,0,1",6,blank,407,null,0.27849097,0.088422324,0.512348856,1,,,,,,
,html-keyboard-response,364,833972,0.0-186.0-1.0,null,<p></p>,,null,,,,,,,,,,,,,,,,
,do_trial,365,836752,0.0-187.0-0.0,246,,,,50,"0,0,0",6,blank,408,null,0.19686595,0.103454164,0.546870511,0,,,,,,
,html-keyboard-response,366,837762,0.0-187.0-1.0,null,<p></p>,,null,,,,,,,,,,,,,,,,
,do_recog,367,840193,0.0-188.0-0.0,921,,,,54,,,,409,probe-80,,,,,1,[object Object],87,2,1,
,html-keyboard-response,368,841203,0.0-188.0-1.0,null,<p></p>,,null,,,,,,,,,,,,,,,,
,do_trial,369,844242,0.0-189.0-0.0,516,,,,51,"0,0,1",6,blank,410,null,0.27236256,0.090524342,0.604004263,1,,,,,,
,html-keyboard-response,370,845253,0.0-189.0-1.0,null,<p></p>,,null,,,,,,,,,,,,,,,,
,do_trial,371,848505,0.0-190.0-0.0,723,,,,50,"0,0,1",6,blank,411,null,0.350938976,0.052095121,0.589816778,0,,,,,,
,html-keyboard-response,372,849514,0.0-190.0-1.0,null,<p></p>,,null,,,,,,,,,,,,,,,,
,do_trial,373,852664,0.0-191.0-0.0,617,,,,51,"1,0,0",6,blank,412,null,0.270923806,0.103667956,0.688867415,0,,,,,,
,html-keyboard-response,374,853674,0.0-191.0-1.0,null,<p></p>,,null,,,,,,,,,,,,,,,,
,do_recog,375,856514,0.0-192.0-0.0,1336,,,,53,,,,413,probe-52,,,,,1,[object Object],128,3,1,
,html-keyboard-response,376,857525,0.0-192.0-1.0,null,<p></p>,,null,,,,,,,,,,,,,,,,
,do_trial,377,861314,0.0-193.0-0.0,1264,,,,50,"0,0,1",6,blank,414,null,0.411080256,0.095734957,0.503121331,0,,,,,,
,html-keyboard-response,378,862324,0.0-193.0-1.0,null,<p></p>,,null,,,,,,,,,,,,,,,,
,do_recog,379,865495,0.0-194.0-0.0,1661,,,,55,,,,415,probe-230,,,,,1,[object Object],45,1,0,
,html-keyboard-response,380,866505,0.0-194.0-1.0,null,<p></p>,,null,,,,,,,,,,,,,,,,
,do_trial,381,869765,0.0-195.0-0.0,731,,,,50,"0,0,1",6,blank,416,null,0.351121054,0.091434638,0.590404702,0,,,,,,
,html-keyboard-response,382,870775,0.0-195.0-1.0,null,<p></p>,,null,,,,,,,,,,,,,,,,
,do_recog,383,873275,0.0-196.0-0.0,995,,,,55,,,,417,probe-181,,,,,1,[object Object],42,1,0,
,html-keyboard-response,384,874286,0.0-196.0-1.0,null,<p></p>,,null,,,,,,,,,,,,,,,,
,do_trial,385,877476,0.0-197.0-0.0,663,,,,51,"1,0,0",6,blank,418,null,0.357374402,0.141533925,0.69023125,0,,,,,,
,html-keyboard-response,386,878487,0.0-197.0-1.0,null,<p></p>,,null,,,,,,,,,,,,,,,,
,do_trial,387,881717,0.0-198.0-0.0,704,,,,49,"1,0,1",6,blank,419,null,0.450342603,0.081327679,0.636119228,1,,,,,,
,html-keyboard-response,388,882726,0.0-198.0-1.0,null,<p></p>,,null,,,,,,,,,,,,,,,,
,do_trial,389,885937,0.0-199.0-0.0,688,,,,50,"0,0,1",6,blank,420,null,0.329137473,0.128831634,0.630935224,0,,,,,,
,html-keyboard-response,390,886947,0.0-199.0-1.0,null,<p></p>,,null,,,,,,,,,,,,,,,,
,do_trial,391,890157,0.0-200.0-0.0,683,,,,50,"0,0,1",6,blank,421,null,0.253116297,0.143418517,0.738827836,0,,,,,,
,html-keyboard-response,392,891168,0.0-200.0-1.0,null,<p></p>,,null,,,,,,,,,,,,,,,,
,do_trial,393,894238,0.0-201.0-0.0,542,,,,51,"1,0,1",6,blank,422,null,0.430172867,0.0752414,0.766758348,1,,,,,,
,html-keyboard-response,394,895239,0.0-201.0-1.0,null,<p></p>,,null,,,,,,,,,,,,,,,,
,do_trial,395,898259,0.0-202.0-0.0,494,,,,50,"0,0,1",6,blank,423,null,0.366440002,0.162150642,0.698998331,0,,,,,,
,html-keyboard-response,396,899268,0.0-202.0-1.0,null,<p></p>,,null,,,,,,,,,,,,,,,,
,do_recog,397,901949,0.0-203.0-0.0,1173,,,,54,,,,424,probe-224,,,,,1,[object Object],164,4,1,
,html-keyboard-response,398,902959,0.0-203.0-1.0,null,<p></p>,,null,,,,,,,,,,,,,,,,
,do_trial,399,906019,0.0-204.0-0.0,534,,,,49,"0,0,1",6,blank,425,null,0.310859964,0.130543679,0.76458088,0,,,,,,
,html-keyboard-response,400,907029,0.0-204.0-1.0,null,<p></p>,,null,,,,,,,,,,,,,,,,
,do_trial,401,910130,0.0-205.0-0.0,576,,,,50,"1,0,1",6,blank,426,null,0.303208298,0.073531132,0.794257606,0,,,,,,
,html-keyboard-response,402,911140,0.0-205.0-1.0,null,<p></p>,,null,,,,,,,,,,,,,,,,
,do_trial,403,914011,0.0-206.0-0.0,339,,,,49,"0,1,1",6,blank,427,null,0.26878557,0.068788962,0.731934396,0,,,,,,
,html-keyboard-response,404,915019,0.0-206.0-1.0,null,<p></p>,,null,,,,,,,,,,,,,,,,
,do_recog,405,917624,0.0-207.0-0.0,1083,,,,54,,,,428,probe-152,,,,,1,[object Object],47,1,1,
,html-keyboard-response,406,918631,0.0-207.0-1.0,null,<p></p>,,null,,,,,,,,,,,,,,,,
,do_trial,407,921781,0.0-208.0-0.0,621,,,,51,"0,0,1",6,blank,429,null,0.197527428,0.211427671,0.686854898,1,,,,,,
,html-keyboard-response,408,922790,0.0-208.0-1.0,null,<p></p>,,null,,,,,,,,,,,,,,,,
,do_recog,409,925272,0.0-209.0-0.0,970,,,,54,,,,430,probe-33,,,,,1,[object Object],127,3,1,
,html-keyboard-response,410,926282,0.0-209.0-1.0,null,<p></p>,,null,,,,,,,,,,,,,,,,
,do_trial,411,929481,0.0-210.0-0.0,675,,,,49,"0,0,1",6,blank,431,null,0.131174235,0.17730043,0.513944211,0,,,,,,
,html-keyboard-response,412,930492,0.0-210.0-1.0,null,<p></p>,,null,,,,,,,,,,,,,,,,
,do_recog,413,932912,0.0-211.0-0.0,910,,,,55,,,,432,probe-210,,,,,1,[object Object],162,4,0,
,html-keyboard-response,414,933922,0.0-211.0-1.0,null,<p></p>,,null,,,,,,,,,,,,,,,,
,do_trial,415,936872,0.0-212.0-0.0,419,,,,51,"0,0,1",6,blank,433,null,0.12086407,0.233611203,0.584691171,1,,,,,,
,html-keyboard-response,416,937882,0.0-212.0-1.0,null,<p></p>,,null,,,,,,,,,,,,,,,,
,do_trial,417,941033,0.0-213.0-0.0,618,,,,50,"1,0,1",6,blank,434,null,0.222826879,0.092687756,0.714831061,0,,,,,,
,html-keyboard-response,418,942043,0.0-213.0-1.0,null,<p></p>,,null,,,,,,,,,,,,,,,,
,do_trial,419,945013,0.0-214.0-0.0,442,,,,51,"1,0,1",6,blank,435,null,0.347650694,0.199763267,0.733563437,1,,,,,,
,html-keyboard-response,420,946023,0.0-214.0-1.0,null,<p></p>,,null,,,,,,,,,,,,,,,,
,do_trial,421,949093,0.0-215.0-0.0,540,,,,51,"0,0,0",6,blank,436,null,0.189922798,0.089305024,0.638768718,0,,,,,,
,html-keyboard-response,422,950103,0.0-215.0-1.0,null,<p></p>,,null,,,,,,,,,,,,,,,,
,do_trial,423,953033,0.0-216.0-0.0,403,,,,49,"0,0,0",6,blank,437,null,0.378741032,0.142676447,0.428203435,0,,,,,,
,html-keyboard-response,424,954044,0.0-216.0-1.0,null,<p></p>,,null,,,,,,,,,,,,,,,,
,do_trial,425,956975,0.0-217.0-0.0,400,,,,50,"0,0,1",6,blank,438,null,0.31178558,0.125419708,0.620830965,0,,,,,,
,html-keyboard-response,426,957985,0.0-217.0-1.0,null,<p></p>,,null,,,,,,,,,,,,,,,,
,do_trial,427,960895,0.0-218.0-0.0,387,,,,51,"0,0,0",6,blank,439,null,0.351124738,0.105801802,0.660809169,0,,,,,,
,html-keyboard-response,428,961905,0.0-218.0-1.0,null,<p></p>,,null,,,,,,,,,,,,,,,,
,do_recog,429,964365,0.0-219.0-0.0,951,,,,55,,,,440,probe-175,,,,,1,[object Object],120,3,0,
,html-keyboard-response,430,965375,0.0-219.0-1.0,null,<p></p>,,null,,,,,,,,,,,,,,,,
,do_trial,431,968656,0.0-220.0-0.0,757,,,,50,"0,0,1",6,blank,441,null,0.319259257,0.050359898,0.55345419,0,,,,,,
,html-keyboard-response,432,969666,0.0-220.0-1.0,null,<p></p>,,null,,,,,,,,,,,,,,,,
,do_recog,433,972317,0.0-221.0-0.0,1142,,,,55,,,,442,probe-206,,,,,1,[object Object],129,3,0,
,html-keyboard-response,434,973326,0.0-221.0-1.0,null,<p></p>,,null,,,,,,,,,,,,,,,,
,do_trial,435,976487,0.0-222.0-0.0,639,,,,49,"0,0,1",6,blank,443,null,0.406288795,0.062079675,0.482627914,0,,,,,,
,html-keyboard-response,436,977497,0.0-222.0-1.0,null,<p></p>,,null,,,,,,,,,,,,,,,,
,do_trial,437,980687,0.0-223.0-0.0,667,,,,51,"0,0,0",6,blank,444,null,0.411618957,0.173012071,0.633131039,0,,,,,,
,html-keyboard-response,438,981697,0.0-223.0-1.0,null,<p></p>,,null,,,,,,,,,,,,,,,,
,do_recog,439,984139,0.0-224.0-0.0,933,,,,54,,,,445,probe-201,,,,,1,[object Object],49,1,1,
,html-keyboard-response,440,985148,0.0-224.0-1.0,null,<p></p>,,null,,,,,,,,,,,,,,,,
,do_trial,441,988559,0.0-225.0-0.0,886,,,,51,"0,1,1",6,blank,446,null,0.416964159,0.106962792,0.832539763,1,,,,,,
,html-keyboard-response,442,989569,0.0-225.0-1.0,null,<p></p>,,null,,,,,,,,,,,,,,,,
,do_recog,443,992359,0.0-226.0-0.0,1286,,,,55,,,,447,probe-53,,,,,1,[object Object],124,3,0,
,html-keyboard-response,444,993369,0.0-226.0-1.0,null,<p></p>,,null,,,,,,,,,,,,,,,,
,do_trial,445,996840,0.0-227.0-0.0,946,,,,51,"1,0,0",6,blank,448,null,0.32879145,0.133766972,0.672997175,0,,,,,,
,html-keyboard-response,446,997850,0.0-227.0-1.0,null,<p></p>,,null,,,,,,,,,,,,,,,,
,do_trial,447,1001000,0.0-228.0-0.0,623,,,,49,"0,0,0",6,blank,449,null,0.38394502,0.121156714,0.633158583,0,,,,,,
,html-keyboard-response,448,1002009,0.0-228.0-1.0,null,<p></p>,,null,,,,,,,,,,,,,,,,
,do_trial,449,1004950,0.0-229.0-0.0,408,,,,50,"0,0,0",6,blank,450,null,0.453393403,0.168631951,0.627427724,0,,,,,,
,html-keyboard-response,450,1005961,0.0-229.0-1.0,null,<p></p>,,null,,,,,,,,,,,,,,,,
,do_trial,451,1008920,0.0-230.0-0.0,435,,,,51,"0,0,1",6,blank,451,null,0.434463084,0.184830059,0.599432739,1,,,,,,
,html-keyboard-response,452,1009930,0.0-230.0-1.0,null,<p></p>,,null,,,,,,,,,,,,,,,,
,do_trial,453,1012891,0.0-231.0-0.0,432,,,,51,"0,0,1",6,blank,452,null,0.375417616,0.159610102,0.458349066,1,,,,,,
,html-keyboard-response,454,1013901,0.0-231.0-1.0,null,<p></p>,,null,,,,,,,,,,,,,,,,
,do_trial,455,1017111,0.0-232.0-0.0,678,,,,51,"1,0,1",6,blank,453,null,0.347213817,0.221016342,0.669578539,1,,,,,,
,html-keyboard-response,456,1018122,0.0-232.0-1.0,null,<p></p>,,null,,,,,,,,,,,,,,,,
,do_trial,457,1021001,0.0-233.0-0.0,354,,,,51,"0,0,1",6,blank,454,null,0.471343542,0.207957442,0.55466984,1,,,,,,
,html-keyboard-response,458,1022012,0.0-233.0-1.0,null,<p></p>,,null,,,,,,,,,,,,,,,,
,do_recog,459,1024582,0.0-234.0-0.0,1068,,,,54,,,,455,probe-252,,,,,0,[object Object],null,null,0,
,html-keyboard-response,460,1025592,0.0-234.0-1.0,null,<p></p>,,null,,,,,,,,,,,,,,,,
,do_trial,461,1028902,0.0-235.0-0.0,779,,,,51,"1,0,0",6,blank,456,null,0.58054266,0.086116127,0.484880484,0,,,,,,
,html-keyboard-response,462,1029912,0.0-235.0-1.0,null,<p></p>,,null,,,,,,,,,,,,,,,,
,do_trial,463,1032733,0.0-236.0-0.0,291,,,,49,"1,0,1",6,blank,457,null,0.619408756,0.080489157,0.39307631,1,,,,,,
,html-keyboard-response,464,1033743,0.0-236.0-1.0,null,<p></p>,,null,,,,,,,,,,,,,,,,
,do_trial,465,1036613,0.0-237.0-0.0,345,,,,49,"1,0,0",6,blank,458,null,0.584648212,0.063545422,0.384941902,1,,,,,,
,html-keyboard-response,466,1037623,0.0-237.0-1.0,null,<p></p>,,null,,,,,,,,,,,,,,,,
,do_trial,467,1040483,0.0-238.0-0.0,331,,,,49,"0,0,1",6,blank,459,null,0.595599891,0.164945686,0.359961381,0,,,,,,
,html-keyboard-response,468,1041493,0.0-238.0-1.0,null,<p></p>,,null,,,,,,,,,,,,,,,,
,do_trial,469,1044374,0.0-239.0-0.0,357,,,,51,"0,1,1",6,blank,460,null,0.554539726,0.257539001,0.415336454,1,,,,,,
,html-keyboard-response,470,1045384,0.0-239.0-1.0,null,<p></p>,,null,,,,,,,,,,,,,,,,
,do_trial,471,1048235,0.0-240.0-0.0,333,,,,51,"0,0,1",6,blank,461,null,0.573769989,0.138726731,0.338834784,1,,,,,,
,html-keyboard-response,472,1049254,0.0-240.0-1.0,null,<p></p>,,null,,,,,,,,,,,,,,,,
,do_recog,473,1051755,0.0-241.0-0.0,994,,,,55,,,,462,probe-239,,,,,0,[object Object],null,null,1,
,html-keyboard-response,474,1052765,0.0-241.0-1.0,null,<p></p>,,null,,,,,,,,,,,,,,,,
,do_trial,475,1055846,0.0-242.0-0.0,556,,,,51,"1,0,1",6,blank,463,null,0.593851901,0.124342457,0.151862803,1,,,,,,
,html-keyboard-response,476,1056856,0.0-242.0-1.0,null,<p></p>,,null,,,,,,,,,,,,,,,,
,do_recog,477,1059456,0.0-243.0-0.0,1094,,,,55,,,,464,probe-254,,,,,0,[object Object],null,null,1,
,html-keyboard-response,478,1060466,0.0-243.0-1.0,null,<p></p>,,null,,,,,,,,,,,,,,,,
,do_trial,479,1063285,0.0-244.0-0.0,286,,,,51,"1,0,1",6,blank,465,null,0.560373404,0.120462328,0.201127983,1,,,,,,
,html-keyboard-response,480,1064297,0.0-244.0-1.0,null,<p></p>,,null,,,,,,,,,,,,,,,,
,do_trial,481,1067497,0.0-245.0-0.0,672,,,,51,"1,0,0",6,blank,466,null,0.541046252,0.084134578,0.215648098,0,,,,,,
,html-keyboard-response,482,1068507,0.0-245.0-1.0,null,<p></p>,,null,,,,,,,,,,,,,,,,
,do_recog,483,1070987,0.0-246.0-0.0,970,,,,55,,,,467,probe-240,,,,,0,[object Object],null,null,1,
,html-keyboard-response,484,1071996,0.0-246.0-1.0,null,<p></p>,,null,,,,,,,,,,,,,,,,
,do_trial,485,1074798,0.0-247.0-0.0,278,,,,49,"0,0,0",6,blank,468,null,0.490232766,0.056080001,0.287584903,0,,,,,,
,html-keyboard-response,486,1075808,0.0-247.0-1.0,null,<p></p>,,null,,,,,,,,,,,,,,,,
,do_recog,487,1078337,0.0-248.0-0.0,1023,,,,55,,,,469,probe-233,,,,,0,[object Object],null,null,1,
,html-keyboard-response,488,1079348,0.0-248.0-1.0,null,<p></p>,,null,,,,,,,,,,,,,,,,
,do_trial,489,1082188,0.0-249.0-0.0,314,,,,50,"1,0,0",6,blank,470,null,0.496398189,0.152257922,0.255170895,0,,,,,,
,html-keyboard-response,490,1083198,0.0-249.0-1.0,null,<p></p>,,null,,,,,,,,,,,,,,,,
,do_trial,491,1086148,0.0-250.0-0.0,418,,,,51,"1,0,0",6,blank,471,null,0.563849194,0.132817336,0.332021076,0,,,,,,
,html-keyboard-response,492,1087158,0.0-250.0-1.0,null,<p></p>,,null,,,,,,,,,,,,,,,,
,do_trial,493,1090150,0.0-251.0-0.0,459,,,,49,"0,0,1",6,blank,472,null,0.527407316,0.080684912,0.244542816,0,,,,,,
,html-keyboard-response,494,1091159,0.0-251.0-1.0,null,<p></p>,,null,,,,,,,,,,,,,,,,
,do_trial,495,1094029,0.0-252.0-0.0,343,,,,49,"1,0,1",6,blank,473,null,0.544391891,0.10076151,0.367087953,1,,,,,,
,html-keyboard-response,496,1095039,0.0-252.0-1.0,null,<p></p>,,null,,,,,,,,,,,,,,,,
,do_trial,497,1097959,0.0-253.0-0.0,393,,,,49,"0,0,0",6,blank,474,null,0.569752282,0.161348213,0.356644099,0,,,,,,
,html-keyboard-response,498,1098969,0.0-253.0-1.0,null,<p></p>,,null,,,,,,,,,,,,,,,,
,do_recog,499,1101641,0.0-254.0-0.0,1164,,,,55,,,,475,probe-249,,,,,0,[object Object],null,null,1,
,html-keyboard-response,500,1102650,0.0-254.0-1.0,null,<p></p>,,null,,,,,,,,,,,,,,,,
,do_trial,501,1105581,0.0-255.0-0.0,398,,,,50,"0,0,1",6,blank,476,null,0.594308688,0.110944712,0.411029663,0,,,,,,
,html-keyboard-response,502,1106590,0.0-255.0-1.0,null,<p></p>,,null,,,,,,,,,,,,,,,,
,do_recog,503,1109232,0.0-256.0-0.0,1135,,,,55,,,,477,probe-231,,,,,0,[object Object],null,null,1,
,html-keyboard-response,504,1110241,0.0-256.0-1.0,null,<p></p>,,null,,,,,,,,,,,,,,,,
,do_trial,505,1113293,0.0-257.0-0.0,517,,,,51,"1,1,1",6,blank,478,null,0.540051524,0.153578865,0.414575416,1,,,,,,
,html-keyboard-response,506,1114302,0.0-257.0-1.0,null,<p></p>,,null,,,,,,,,,,,,,,,,
,do_recog,507,1116733,0.0-258.0-0.0,916,,,,55,,,,479,probe-243,,,,,0,[object Object],null,null,1,
,html-keyboard-response,508,1117742,0.0-258.0-1.0,null,<p></p>,,null,,,,,,,,,,,,,,,,
,do_pick_best_pirate,509,1125683,0.0-259.0-0.0,6934,,,,49,,,,,,,,,,,,,,,
,do_pick_best_pirate,510,1128953,0.0-260.0-0.0,2264,,,,51,,,,,,,,,,,,,,,
,do_pick_best_pirate,511,1132583,0.0-261.0-0.0,2627,,,,51,,,,,,,,,,,,,,,
,do_pick_best_pirate,512,1134544,0.0-262.0-0.0,956,,,,50,,,,,,,,,,,,,,,
,do_pick_best_pirate,513,1137604,0.0-263.0-0.0,2052,,,,50,,,,,,,,,,,,,,,
,do_pick_best_pirate,514,1140415,0.0-264.0-0.0,1799,,,,51,,,,,,,,,,,,,,,
,html-keyboard-response,515,1153599,0.0-265.0-0.0,13182,<p>You are all done with the experiment!</p><p> You made $15 plus $2 in bonus payment!</p><p>Thank you for participating. You will recieve your payment within 3 days.<p><b>[Press the space bar to end the experiment]</b></p></div>,,32,,,,,,,,,,,,,,,,