"success","trial_type","trial_index","time_elapsed","internal_node_id","interactions","blur_events","focus_events","fullscreenenter_events","fullscreenexit_events","rt","stimulus","key_press","subject_id","participant_id","age","gender","prompt","response","choice_outcomes","context_n","context_img_id","trial_n","probe_img_id","pR_red","pR_white","pR_black","outcome","is_valid","image_to_show","probed_trial","probed_context","correct","probe","probed_trial_n","probed_context_n","context_im"
"true","fullscreen","0","2664","0.0-0.0","""event"",""trial"",""time""
""fullscreenenter"",""0"",""1673""
","
","
","""event"",""trial"",""time""
""fullscreenenter"",""0"",""1673""
","
","","","","","","","","","","","","","","","","","","","","","","","","","","",""
"","pavlovia","1","2666","0.0-1.0","""event"",""trial"",""time""
""fullscreenenter"",""0"",""1673""
","
","
","""event"",""trial"",""time""
""fullscreenenter"",""0"",""1673""
","
","","","","","","","","","","","","","","","","","","","","","","","","","","",""
"","welc_back","2","12427","0.0-2.0","""event"",""trial"",""time""
""fullscreenenter"",""0"",""1673""
","
","
","""event"",""trial"",""time""
""fullscreenenter"",""0"",""1673""
","
","null","run_exp/static/audio/clip_29_welcome_back.m4a","null","402","611","15","Male","<div class='center'><p>Welcome to day 2!</p><p> Yesterday, you were the head captain of a pirate ship. You asked your fellow pirates to rob other ships of their gold across six different islands.</p></div>","","","","","","","","","","","","","","","","","","",""
"","html-keyboard-response","3","13763","0.0-3.0","""event"",""trial"",""time""
""fullscreenenter"",""0"",""1673""
","
","
","""event"",""trial"",""time""
""fullscreenenter"",""0"",""1673""
","
","1335.2999999523163","<div class='center'><p>Welcome to day 2!</p><p> Yesterday, you were the head captain of a pirate ship. You asked your fellow pirates to rob other ships of their gold across six different islands.</p><p><b>[Press the space bar to continue]</b></p></div>","32","","","","","","","","","","","","","","","","","","","","","","","",""
"","day_1_summary_goal","4","30947","0.0-4.0","""event"",""trial"",""time""
""fullscreenenter"",""0"",""1673""
","
","
","""event"",""trial"",""time""
""fullscreenenter"",""0"",""1673""
","
","null","run_exp/static/audio/clip_30_goal_of_game.m4a","null","","","","","<div class='center'><p>Today, like yesterday, you get to pick which pirate you want to rob the next ship.</p><p>If the pirate is successful in robbing a ship, you get gold coins that look like this: </p><p><img src='run_exp/static/images/tutorial/reward.png' height='150'></p><p> If they were not successful in robbing the ship, then you will get no gold coins and you'll see a big red x like this: </p><p><img src='run_exp/static/images/tutorial/reward_no.png' height='150'></p></div>","","","","","","","","","","","","","","","","","","",""
"","html-keyboard-response","5","32530","0.0-5.0","""event"",""trial"",""time""
""fullscreenenter"",""0"",""1673""
","
","
","""event"",""trial"",""time""
""fullscreenenter"",""0"",""1673""
","
","1582.699999988079","<div class='center'><p>Today, like yesterday, you get to pick which pirate you want to rob the next ship.</p><p>If the pirate is successful in robbing a ship, you get gold coins that look like this: </p><p><img src='run_exp/static/images/tutorial/reward.png' height='150'></p><p> If they were not successful in robbing the ship, then you will get no gold coins and you'll see a big red x like this: </p><p><img src='run_exp/static/images/tutorial/reward_no.png' height='150'></p><p><b>[Press the space bar to continue]</b></p></div>","32","","","","","","","","","","","","","","","","","","","","","","","",""
"","day_1_summary_pick","6","47207","0.0-6.0","""event"",""trial"",""time""
""fullscreenenter"",""0"",""1673""
","
","
","""event"",""trial"",""time""
""fullscreenenter"",""0"",""1673""
","
","null","run_exp/static/audio/clip_31_how_to_pick_a_pirate.m4a","null","","","","","<div class='center'><p>Also, just like yesterday, you will use the 1,2,3 keys on your keyboard to pick a pirate. Press '1' to choose red beard, '2' to choose white beard, and '3' to choose black beard . You only have 3 seconds to pick a pirate, so please make a choice quickly!</p></div>","","","","","","","","","","","","","","","","","","",""
"","html-keyboard-response","7","49515","0.0-7.0","""event"",""trial"",""time""
""fullscreenenter"",""0"",""1673""
","
","
","""event"",""trial"",""time""
""fullscreenenter"",""0"",""1673""
","
","2307.199999988079","<div class='center'><p>Also, just like yesterday, you will use the 1,2,3 keys on your keyboard to pick a pirate. Press '1' to choose red beard, '2' to choose white beard, and '3' to choose black beard . You only have 3 seconds to pick a pirate, so please make a choice quickly!</p><p><b>[Press the space bar to continue]</b></p></div>","32","","","","","","","","","","","","","","","","","","","","","","","",""
"","test_phase_begin","8","79888","0.0-8.0","""event"",""trial"",""time""
""fullscreenenter"",""0"",""1673""
","
","
","""event"",""trial"",""time""
""fullscreenenter"",""0"",""1673""
","
","null","run_exp/static/audio/clip_32_final_place.m4a","null","","","","","<div class='center'><p>You’ve arrived at the final island of your journey! Unfortunately, it’s very foggy out, so you won’t be able to see it in the distance like the other islands you've visited.</p><p>You’ll still be deciding which pirate you want to rob a ship like before. However, because of the fog, you also won’t be able to see the ship.</p><p>This means you do not have to remember the ships you rob on this island.</p><p>Unlike yesterday, you won't be visiting multiple islands today. You will stay on this island for the entire game. This game will last ~30 minutes.</p></div>","","","","","","","","","","","","","","","","","","",""
"","html-keyboard-response","9","81155","0.0-9.0","""event"",""trial"",""time""
""fullscreenenter"",""0"",""1673""
","
","
","""event"",""trial"",""time""
""fullscreenenter"",""0"",""1673""
","
","1267.1000000238419","<div class='center'><p>You’ve arrived at the final island of your journey! Unfortunately, it’s very foggy out, so you won’t be able to see it in the distance like the other islands you've visited.</p><p>You’ll still be deciding which pirate you want to rob a ship like before. However, because of the fog, you also won’t be able to see the ship.</p><p>This means you do not have to remember the ships you rob on this island.</p><p>Unlike yesterday, you won't be visiting multiple islands today. You will stay on this island for the entire game. This game will last ~30 minutes.</p><p><b>[Press the space bar to continue]</b></p></div>","32","","","","","","","","","","","","","","","","","","","","","","","",""
"","explain_probe_1","10","88848","0.0-10.0","""event"",""trial"",""time""
""fullscreenenter"",""0"",""1673""
","
","
","""event"",""trial"",""time""
""fullscreenenter"",""0"",""1673""
","
","null","run_exp/static/audio/clip_33_recognition_1.m4a","null","","","","","<div class='center'><p> Sometimes you’ll be shown a ship, and you will be asked if you saw this ship on a past island.</p><p> Here is an example of what you will see.</p><p><img src='run_exp/static/images/tutorial/example_recog_trial.png' height='500'></p></div>","","","","","","","","","","","","","","","","","","",""
"","html-keyboard-response","11","90827","0.0-11.0","""event"",""trial"",""time""
""fullscreenenter"",""0"",""1673""
","
","
","""event"",""trial"",""time""
""fullscreenenter"",""0"",""1673""
","
","1978.5","<div class='center'><p> Sometimes you’ll be shown a ship, and you will be asked if you saw this ship on a past island.</p><p> Here is an example of what you will see.</p><p><img src='run_exp/static/images/tutorial/example_recog_trial.png' height='500'></p><p><b>[Press the space bar to continue]</b></p></div>","32","","","","","","","","","","","","","","","","","","","","","","","",""
"","explain_probe_2","12","112528","0.0-12.0","""event"",""trial"",""time""
""fullscreenenter"",""0"",""1673""
","
","
","""event"",""trial"",""time""
""fullscreenenter"",""0"",""1673""
","
","null","run_exp/static/audio/clip_34_recognition_2.m4a","null","","","","","<div class='center'><p> You will press the 5, 6, 7, 8 keys on your keyboard to respond.</p><p>If you are sure you saw the ship, press <b>5</b> on your keyboard.</p><p> If you think you saw it before but aren't sure, then press <b>6</b>.</p><p> If you think you have <b>not</b> seen it before but aren't sure, then press <b>7</b>.</p><p> If you are sure you did <b>not</b> see the ship before, then press <b>8</b>.</p><p><img src='run_exp/static/images/tutorial/example_recog_trial.png' height='500'></p></div>","","","","","","","","","","","","","","","","","","",""
"","html-keyboard-response","13","113484","0.0-13.0","""event"",""trial"",""time""
""fullscreenenter"",""0"",""1673""
","
","
","""event"",""trial"",""time""
""fullscreenenter"",""0"",""1673""
","
","954.7999999523163","<div class='center'><p> You will press the 5, 6, 7, 8 keys on your keyboard to respond.</p><p>If you are sure you saw the ship, press <b>5</b> on your keyboard.</p><p> If you think you saw it before but aren't sure, then press <b>6</b>.</p><p> If you think you have <b>not</b> seen it before but aren't sure, then press <b>7</b>.</p><p> If you are sure you did <b>not</b> see the ship before, then press <b>8</b>.</p><p><img src='run_exp/static/images/tutorial/example_recog_trial.png' height='500'></p><p><b>[Press the space bar to continue]</b></p></div>","32","","","","","","","","","","","","","","","","","","","","","","","",""
"","explain_outcome","14","130669","0.0-14.0","""event"",""trial"",""time""
""fullscreenenter"",""0"",""1673""
","
","
","""event"",""trial"",""time""
""fullscreenenter"",""0"",""1673""
","
","null","run_exp/static/audio/clip_35_recognition_3.m4a","null","","","","","<div class='center'><p> If you remember correctly, then you’ll get a gold coin like this: </p><p><img src='run_exp/static/images/tutorial/reward_small.png' height='200'></p><p>If you do not remember correctly, then you'll see a red x like this: </p><p><img src='run_exp/static/images/tutorial/reward_no.png' height='200'></p><p>Importantly, when you are shown a ship, take the time to remind yourself which island you saw it on. This will help you in the next part of the study.</p></div>","","","","","","","","","","","","","","","","","","",""
"","html-keyboard-response","15","132436","0.0-15.0","""event"",""trial"",""time""
""fullscreenenter"",""0"",""1673""
","
","
","""event"",""trial"",""time""
""fullscreenenter"",""0"",""1673""
","
","1766.699999988079","<div class='center'><p> If you remember correctly, then you’ll get a gold coin like this: </p><p><img src='run_exp/static/images/tutorial/reward_small.png' height='200'></p><p>If you do not remember correctly, then you'll see a red x like this: </p><p><img src='run_exp/static/images/tutorial/reward_no.png' height='200'></p><p>Importantly, when you are shown a ship, take the time to remind yourself which island you saw it on. This will help you in the next part of the study.</p><p><b>[Press the space bar to continue]</b></p></div>","32","","","","","","","","","","","","","","","","","","","","","","","",""
"","begin_test_phase","16","148229","0.0-16.0","""event"",""trial"",""time""
""fullscreenenter"",""0"",""1673""
","
","
","""event"",""trial"",""time""
""fullscreenenter"",""0"",""1673""
","
","null","run_exp/static/audio/clip_36_begin_final.m4a","null","","","","","<div class='center'><p>Let's go over the important points again. Your job is to: </p><p>1. Pick the pirate who is best at robbing ships and will bring you back gold coins. </p><p>2. Correctly remember whether or not you saw a ship before. If you did see the ship before, remind yourself on which island you saw it. </p></div>","","","","","","","","","","","","","","","","","","",""
"","html-keyboard-response","17","149973","0.0-17.0","""event"",""trial"",""time""
""fullscreenenter"",""0"",""1673""
","
","
","""event"",""trial"",""time""
""fullscreenenter"",""0"",""1673""
","
","1719.4000000357628","<div class='center'><p>Let's go over the important points again. Your job is to: </p><p>1. Pick the pirate who is best at robbing ships and will bring you back gold coins. </p><p>2. Correctly remember whether or not you saw a ship before. If you did see the ship before, remind yourself on which island you saw it. </p><p><b>[Press the space bar to continue]</b></p></div>","32","","","","","","","","","","","","","","","","","","","","","","","",""
"","do_welcome","18","153991","0.0-18.0","""event"",""trial"",""time""
""fullscreenenter"",""0"",""1673""
","
","
","""event"",""trial"",""time""
""fullscreenenter"",""0"",""1673""
","
","null","","","","","","","","null","","","","","","","","","","","","","","","","","",""
"","do_trial","19","158663","0.0-19.0-0.0","""event"",""trial"",""time""
""fullscreenenter"",""0"",""1673""
","
","
","""event"",""trial"",""time""
""fullscreenenter"",""0"",""1673""
","
","2122.7000000476837","","","","","","","","51","1,1,0","6","blank","230","null","0.30414725072017673","0.6613055403174194","0.19057535276103046","0","","","","","","","","",""
"","html-keyboard-response","20","159665","0.0-19.0-1.0","""event"",""trial"",""time""
""fullscreenenter"",""0"",""1673""
","
","
","""event"",""trial"",""time""
""fullscreenenter"",""0"",""1673""
","
","null","<p></p>","null","","","","","","","","","","","","","","","","","","","","","","","",""
"","do_trial","21","162641","0.0-20.0-0.0","""event"",""trial"",""time""
""fullscreenenter"",""0"",""1673""
","
","
","""event"",""trial"",""time""
""fullscreenenter"",""0"",""1673""
","
","434.2999999523163","","","","","","","","50","0,1,0","6","blank","231","null","0.41092830402889036","0.6461718415559494","0.1860165594508149","1","","","","","","","","",""
"","html-keyboard-response","22","163646","0.0-20.0-1.0","""event"",""trial"",""time""
""fullscreenenter"",""0"",""1673""
","
","
","""event"",""trial"",""time""
""fullscreenenter"",""0"",""1673""
","
","null","<p></p>","null","","","","","","","","","","","","","","","","","","","","","","","",""
"","do_trial","23","167048","0.0-21.0-0.0","""event"",""trial"",""time""
""fullscreenenter"",""0"",""1673""
","
","
","""event"",""trial"",""time""
""fullscreenenter"",""0"",""1673""
","
","853","","","","","","","","49","1,1,0","6","blank","232","null","0.4599911719425815","0.5594470320771946","0.17242894058128072","1","","","","","","","","",""
"","html-keyboard-response","24","168059","0.0-21.0-1.0","""event"",""trial"",""time""
""fullscreenenter"",""0"",""1673""
","
","
","""event"",""trial"",""time""
""fullscreenenter"",""0"",""1673""
","
","null","<p></p>","null","","","","","","","","","","","","","","","","","","","","","","","",""
"","do_trial","25","170965","0.0-22.0-0.0","""event"",""trial"",""time""
""fullscreenenter"",""0"",""1673""
","
","
","""event"",""trial"",""time""
""fullscreenenter"",""0"",""1673""
","
","360.10000002384186","","","","","","","","50","0,1,0","6","blank","233","null","0.33455912495645396","0.46984993507075556","0.13512534475684132","1","","","","","","","","",""
"","html-keyboard-response","26","171974","0.0-22.0-1.0","""event"",""trial"",""time""
""fullscreenenter"",""0"",""1673""
","
","
","""event"",""trial"",""time""
""fullscreenenter"",""0"",""1673""
","
","null","<p></p>","null","","","","","","","","","","","","","","","","","","","","","","","",""
"","do_trial","27","175656","0.0-23.0-0.0","""event"",""trial"",""time""
""fullscreenenter"",""0"",""1673""
","
","
","""event"",""trial"",""time""
""fullscreenenter"",""0"",""1673""
","
","1140.8999999761581","","","","","","","","50","0,1,0","6","blank","234","null","0.3469632074562985","0.4994123671426575","0.253124336576663","1","","","","","","","","",""
"","html-keyboard-response","28","176659","0.0-23.0-1.0","""event"",""trial"",""time""
""fullscreenenter"",""0"",""1673""
","
","
","""event"",""trial"",""time""
""fullscreenenter"",""0"",""1673""
","
","null","<p></p>","null","","","","","","","","","","","","","","","","","","","","","","","",""
"","do_trial","29","180230","0.0-24.0-0.0","""event"",""trial"",""time""
""fullscreenenter"",""0"",""1673""
","
","
","""event"",""trial"",""time""
""fullscreenenter"",""0"",""1673""
","
","1023.5","","","","","","","","49","0,0,1","6","blank","235","null","0.4368412176269028","0.5915034477167992","0.0850224996761728","0","","","","","","","","",""
"","html-keyboard-response","30","181239","0.0-24.0-1.0","""event"",""trial"",""time""
""fullscreenenter"",""0"",""1673""
","
","
","""event"",""trial"",""time""
""fullscreenenter"",""0"",""1673""
","
","null","<p></p>","null","","","","","","","","","","","","","","","","","","","","","","","",""
"","do_trial","31","183860","0.0-25.0-0.0","""event"",""trial"",""time""
""fullscreenenter"",""0"",""1673""
","
","
","""event"",""trial"",""time""
""fullscreenenter"",""0"",""1673""
","
","76.30000001192093","","","","","","","","51","0,1,0","6","blank","236","null","0.3786429171897132","0.6467414782333128","0.1221556469723285","0","","","","","","","","",""
"","html-keyboard-response","32","184866","0.0-25.0-1.0","""event"",""trial"",""time""
""fullscreenenter"",""0"",""1673""
","
","
","""event"",""trial"",""time""
""fullscreenenter"",""0"",""1673""
","
","null","<p></p>","null","","","","","","","","","","","","","","","","","","","","","","","",""
"","do_trial","33","187811","0.0-26.0-0.0","""event"",""trial"",""time""
""fullscreenenter"",""0"",""1673""
","
","
","""event"",""trial"",""time""
""fullscreenenter"",""0"",""1673""
","
","401.7999999523163","","","","","","","","50","0,0,1","6","blank","237","null","0.29385187322232836","0.45372592398119643","0.1876317969952428","0","","","","","","","","",""
"","html-keyboard-response","34","188825","0.0-26.0-1.0","""event"",""trial"",""time""
""fullscreenenter"",""0"",""1673""
","
","
","""event"",""trial"",""time""
""fullscreenenter"",""0"",""1673""
","
","null","<p></p>","null","","","","","","","","","","","","","","","","","","","","","","","",""
"","do_trial","35","192148","0.0-27.0-0.0","""event"",""trial"",""time""
""fullscreenenter"",""0"",""1673""
","
","
","""event"",""trial"",""time""
""fullscreenenter"",""0"",""1673""
","
","778.6999999880791","","","","","","","","50","0,1,0","6","blank","238","null","0.2615279948296449","0.4792049752706691","0.22254805006032413","1","","","","","","","","",""
"","html-keyboard-response","36","193149","0.0-27.0-1.0","""event"",""trial"",""time""
""fullscreenenter"",""0"",""1673""
","
","
","""event"",""trial"",""time""
""fullscreenenter"",""0"",""1673""
","
","null","<p></p>","null","","","","","","","","","","","","","","","","","","","","","","","",""
"","do_trial","37","196388","0.0-28.0-0.0","""event"",""trial"",""time""
""fullscreenenter"",""0"",""1673""
","
","
","""event"",""trial"",""time""
""fullscreenenter"",""0"",""1673""
","
","695.5","","","","","","","","49","0,1,0","6","blank","239","null","0.14092877720553848","0.4796186698231522","0.13893409736304965","0","","","","","","","","",""
"","html-keyboard-response","38","197389","0.0-28.0-1.0","""event"",""trial"",""time""
""fullscreenenter"",""0"",""1673""
","
","
","""event"",""trial"",""time""
""fullscreenenter"",""0"",""1673""
","
","null","<p></p>","null","","","","","","","","","","","","","","","","","","","","","","","",""
"","do_trial","39","200653","0.0-29.0-0.0","""event"",""trial"",""time""
""fullscreenenter"",""0"",""1673""
","
","
","""event"",""trial"",""time""
""fullscreenenter"",""0"",""1673""
","
","718.3999999761581","","","","","","","","49","0,1,0","6","blank","240","null","0.15710752569712413","0.3763337196957913","0.2991872346082085","0","","","","","","","","",""
"","html-keyboard-response","40","201654","0.0-29.0-1.0","""event"",""trial"",""time""
""fullscreenenter"",""0"",""1673""
","
","
","""event"",""trial"",""time""
""fullscreenenter"",""0"",""1673""
","
","null","<p></p>","null","","","","","","","","","","","","","","","","","","","","","","","",""
"","do_recog","41","207678","0.0-30.0-0.0","""event"",""trial"",""time""
""fullscreenenter"",""0"",""1673""
","
","
","""event"",""trial"",""time""
""fullscreenenter"",""0"",""1673""
","
","null","","","","","","","","null","","","","241","probe-63","","","","","1","[object Object]","39","0","0","","","",""
"","html-keyboard-response","42","208682","0.0-30.0-1.0","""event"",""trial"",""time""
""fullscreenenter"",""0"",""1673""
","
","
","""event"",""trial"",""time""
""fullscreenenter"",""0"",""1673""
","
","null","<p></p>","null","","","","","","","","","","","","","","","","","","","","","","","",""
"","do_trial","43","211916","0.0-31.0-0.0","""event"",""trial"",""time""
""fullscreenenter"",""0"",""1673""
","
","
","""event"",""trial"",""time""
""fullscreenenter"",""0"",""1673""
","
","698.3000000119209","","","","","","","","50","0,0,0","6","blank","242","null","0.13910338684541423","0.3461461301817285","0.3723706264407061","0","","","","","","","","",""
"","html-keyboard-response","44","212918","0.0-31.0-1.0","""event"",""trial"",""time""
""fullscreenenter"",""0"",""1673""
","
","
","""event"",""trial"",""time""
""fullscreenenter"",""0"",""1673""
","
","null","<p></p>","null","","","","","","","","","","","","","","","","","","","","","","","",""
"","do_trial","45","215700","0.0-32.0-0.0","""event"",""trial"",""time""
""fullscreenenter"",""0"",""1673""
","
","
","""event"",""trial"",""time""
""fullscreenenter"",""0"",""1673""
","
","238.30000001192093","","","","","","","","49","0,0,0","6","blank","243","null","0.41658335279303493","0.12239965039299908","0.4692928894755117","0","","","","","","","","",""
"","html-keyboard-response","46","216705","0.0-32.0-1.0","""event"",""trial"",""time""
""fullscreenenter"",""0"",""1673""
","
","
","""event"",""trial"",""time""
""fullscreenenter"",""0"",""1673""
","
","null","<p></p>","null","","","","","","","","","","","","","","","","","","","","","","","",""
"","do_recog","47","220459","0.0-33.0-0.0","""event"",""trial"",""time""
""fullscreenenter"",""0"",""1673""
","
","
","""event"",""trial"",""time""
""fullscreenenter"",""0"",""1673""
","
","2250.600000023842","","","","","","","","56","","","","244","probe-181","","","","","1","[object Object]","154","3","0","","","",""
"","html-keyboard-response","48","221460","0.0-33.0-1.0","""event"",""trial"",""time""
""fullscreenenter"",""0"",""1673""
","
","
","""event"",""trial"",""time""
""fullscreenenter"",""0"",""1673""
","
","null","<p></p>","null","","","","","","","","","","","","","","","","","","","","","","","",""
"","do_trial","49","224838","0.0-34.0-0.0","""event"",""trial"",""time""
""fullscreenenter"",""0"",""1673""
","
","
","""event"",""trial"",""time""
""fullscreenenter"",""0"",""1673""
","
","840","","","","","","","","50","0,0,0","6","blank","245","null","0.5351107188510643","0.05915142196016121","0.4279006949779251","0","","","","","","","","",""
"","html-keyboard-response","50","225851","0.0-34.0-1.0","""event"",""trial"",""time""
""fullscreenenter"",""0"",""1673""
","
","
","""event"",""trial"",""time""
""fullscreenenter"",""0"",""1673""
","
","null","<p></p>","null","","","","","","","","","","","","","","","","","","","","","","","",""
"","do_trial","51","228395","0.0-35.0-0.0","""event"",""trial"",""time""
""fullscreenenter"",""0"",""1673""
","
","
","""event"",""trial"",""time""
""fullscreenenter"",""0"",""1673""
","
","0","","","","","","","","49","1,0,0","6","blank","246","null","0.5659906794481563","0.17971031590416917","0.24937614066681602","1","","","","","","","","",""
"","html-keyboard-response","52","229396","0.0-35.0-1.0","""event"",""trial"",""time""
""fullscreenenter"",""0"",""1673""
","
","
","""event"",""trial"",""time""
""fullscreenenter"",""0"",""1673""
","
","null","<p></p>","null","","","","","","","","","","","","","","","","","","","","","","","",""
"","do_trial","53","233347","0.0-36.0-0.0","""event"",""trial"",""time""
""fullscreenenter"",""0"",""1673""
","
","
","""event"",""trial"",""time""
""fullscreenenter"",""0"",""1673""
","
","1408.699999988079","","","","","","","","51","1,0,0","6","blank","247","null","0.6566774041149748","0.3346594116950123","0.29704533680240014","0","","","","","","","","",""
"","html-keyboard-response","54","234362","0.0-36.0-1.0","""event"",""trial"",""time""
""fullscreenenter"",""0"",""1673""
","
","
","""event"",""trial"",""time""
""fullscreenenter"",""0"",""1673""
","
","null","<p></p>","null","","","","","","","","","","","","","","","","","","","","","","","",""
"","do_trial","55","237133","0.0-37.0-0.0","""event"",""trial"",""time""
""fullscreenenter"",""0"",""1673""
","
","
","""event"",""trial"",""time""
""fullscreenenter"",""0"",""1673""
","
","226.10000002384186","","","","","","","","50","0,1,0","6","blank","248","null","0.6186647993642964","0.31442105962338024","0.27535025925957396","1","","","","","","","","",""
"","html-keyboard-response","56","238146","0.0-37.0-1.0","""event"",""trial"",""time""
""fullscreenenter"",""0"",""1673""
","
","
","""event"",""trial"",""time""
""fullscreenenter"",""0"",""1673""
","
","null","<p></p>","null","","","","","","","","","","","","","","","","","","","","","","","",""
"","do_trial","57","241288","0.0-38.0-0.0","""event"",""trial"",""time""
""fullscreenenter"",""0"",""1673""
","
","
","""event"",""trial"",""time""
""fullscreenenter"",""0"",""1673""
","
","603.2000000476837","","","","","","","","49","0,0,1","6","blank","249","null","0.46151633438282347","0.19651548183592715","0.41399665264506197","0","","","","","","","","",""
"","html-keyboard-response","58","242289","0.0-38.0-1.0","""event"",""trial"",""time""
""fullscreenenter"",""0"",""1673""
","
","
","""event"",""trial"",""time""
""fullscreenenter"",""0"",""1673""
","
","null","<p></p>","null","","","","","","","","","","","","","","","","","","","","","","","",""
"","do_trial","59","245174","0.0-39.0-0.0","""event"",""trial"",""time""
""fullscreenenter"",""0"",""1673""
","
","
","""event"",""trial"",""time""
""fullscreenenter"",""0"",""1673""
","
","348.5","","","","","","","","51","0,1,1","6","blank","250","null","0.48524721087366873","0.1490110345153949","0.3765133172734387","1","","","","","","","","",""
"","html-keyboard-response","60","246189","0.0-39.0-1.0","""event"",""trial"",""time""
""fullscreenenter"",""0"",""1673""
","
","
","""event"",""trial"",""time""
""fullscreenenter"",""0"",""1673""
","
","null","<p></p>","null","","","","","","","","","","","","","","","","","","","","","","","",""
"","do_recog","61","249689","0.0-40.0-0.0","""event"",""trial"",""time""
""fullscreenenter"",""0"",""1673""
","
","
","""event"",""trial"",""time""
""fullscreenenter"",""0"",""1673""
","
","1990.699999988079","","","","","","","","56","","","","251","probe-108","","","","","1","[object Object]","31","0","0","","","",""
"","html-keyboard-response","62","250701","0.0-40.0-1.0","""event"",""trial"",""time""
""fullscreenenter"",""0"",""1673""
","
","
","""event"",""trial"",""time""
""fullscreenenter"",""0"",""1673""
","
","null","<p></p>","null","","","","","","","","","","","","","","","","","","","","","","","",""
"","do_trial","63","254821","0.0-41.0-0.0","""event"",""trial"",""time""
""fullscreenenter"",""0"",""1673""
","
","
","""event"",""trial"",""time""
""fullscreenenter"",""0"",""1673""
","
","1584.3999999761581","","","","","","","","49","1,0,0","6","blank","252","null","0.538384209583835","0.1832984078359173","0.22866264272081943","1","","","","","","","","",""
"","html-keyboard-response","64","255834","0.0-41.0-1.0","""event"",""trial"",""time""
""fullscreenenter"",""0"",""1673""
","
","
","""event"",""trial"",""time""
""fullscreenenter"",""0"",""1673""
","
","null","<p></p>","null","","","","","","","","","","","","","","","","","","","","","","","",""
"","do_trial","65","259597","0.0-42.0-0.0","""event"",""trial"",""time""
""fullscreenenter"",""0"",""1673""
","
","
","""event"",""trial"",""time""
""fullscreenenter"",""0"",""1673""
","
","1220.1000000238419","","","","","","","","50","1,0,0","6","blank","253","null","0.6168880646433782","0.10816614294424533","0.19334147920569153","0","","","","","","","","",""
"","html-keyboard-response","66","260603","0.0-42.0-1.0","""event"",""trial"",""time""
""fullscreenenter"",""0"",""1673""
","
","
","""event"",""trial"",""time""
""fullscreenenter"",""0"",""1673""
","
","null","<p></p>","null","","","","","","","","","","","","","","","","","","","","","","","",""
"","do_trial","67","263170","0.0-43.0-0.0","""event"",""trial"",""time""
""fullscreenenter"",""0"",""1673""
","
","
","""event"",""trial"",""time""
""fullscreenenter"",""0"",""1673""
","
","18.80000001192093","","","","","","","","49","0,0,0","6","blank","254","null","0.5809080536229564","0.12916367350419672","0.10701774063918579","0","","","","","","","","",""
"","html-keyboard-response","68","264178","0.0-43.0-1.0","""event"",""trial"",""time""
""fullscreenenter"",""0"",""1673""
","
","
","""event"",""trial"",""time""
""fullscreenenter"",""0"",""1673""
","
","null","<p></p>","null","","","","","","","","","","","","","","","","","","","","","","","",""
"","do_trial","69","266861","0.0-44.0-0.0","""event"",""trial"",""time""
""fullscreenenter"",""0"",""1673""
","
","
","""event"",""trial"",""time""
""fullscreenenter"",""0"",""1673""
","
","147.69999998807907","","","","","","","","51","1,0,1","6","blank","255","null","0.6359109116366732","0.08335594445611294","0.29416301326204813","1","","","","","","","","",""
"","html-keyboard-response","70","267865","0.0-44.0-1.0","""event"",""trial"",""time""
""fullscreenenter"",""0"",""1673""
","
","
","""event"",""trial"",""time""
""fullscreenenter"",""0"",""1673""
","
","null","<p></p>","null","","","","","","","","","","","","","","","","","","","","","","","",""
"","do_trial","71","270811","0.0-45.0-0.0","""event"",""trial"",""time""
""fullscreenenter"",""0"",""1673""
","
","
","""event"",""trial"",""time""
""fullscreenenter"",""0"",""1673""
","
","405.30000001192093","","","","","","","","49","0,0,0","6","blank","256","null","0.6534988282217533","0.08293434643234907","0.2709329681874996","0","","","","","","","","",""
"","html-keyboard-response","72","271827","0.0-45.0-1.0","""event"",""trial"",""time""
""fullscreenenter"",""0"",""1673""
","
","
","""event"",""trial"",""time""
""fullscreenenter"",""0"",""1673""
","
","null","<p></p>","null","","","","","","","","","","","","","","","","","","","","","","","",""
"","do_recog","73","275165","0.0-46.0-0.0","""event"",""trial"",""time""
""fullscreenenter"",""0"",""1673""
","
","
","""event"",""trial"",""time""
""fullscreenenter"",""0"",""1673""
","
","1825.6000000238419","","","","","","","","56","","","","257","probe-167","","","","","1","[object Object]","192","4","0","","","",""
"","html-keyboard-response","74","276176","0.0-46.0-1.0","""event"",""trial"",""time""
""fullscreenenter"",""0"",""1673""
","
","
","""event"",""trial"",""time""
""fullscreenenter"",""0"",""1673""
","
","null","<p></p>","null","","","","","","","","","","","","","","","","","","","","","","","",""
"","do_trial","75","279473","0.0-47.0-0.0","""event"",""trial"",""time""
""fullscreenenter"",""0"",""1673""
","
","
","""event"",""trial"",""time""
""fullscreenenter"",""0"",""1673""
","
","757.5","","","","","","","","50","1,0,0","6","blank","258","null","0.5887561722052521","0.11831617286822681","0.21285736663859617","0","","","","","","","","",""
"","html-keyboard-response","76","280486","0.0-47.0-1.0","""event"",""trial"",""time""
""fullscreenenter"",""0"",""1673""
","
","
","""event"",""trial"",""time""
""fullscreenenter"",""0"",""1673""
","
","null","<p></p>","null","","","","","","","","","","","","","","","","","","","","","","","",""
"","do_recog","77","284009","0.0-48.0-0.0","""event"",""trial"",""time""
""fullscreenenter"",""0"",""1673""
","
","
","""event"",""trial"",""time""
""fullscreenenter"",""0"",""1673""
","
","2006.800000011921","","","","","","","","55","","","","259","probe-149","","","","","1","[object Object]","75","1","0","","","",""
"","html-keyboard-response","78","285011","0.0-48.0-1.0","""event"",""trial"",""time""
""fullscreenenter"",""0"",""1673""
","
","
","""event"",""trial"",""time""
""fullscreenenter"",""0"",""1673""
","
","null","<p></p>","null","","","","","","","","","","","","","","","","","","","","","","","",""
"","do_trial","79","289203","0.0-49.0-0.0","""event"",""trial"",""time""
""fullscreenenter"",""0"",""1673""
","
","
","""event"",""trial"",""time""
""fullscreenenter"",""0"",""1673""
","
","1650.9000000357628","","","","","","","","50","1,0,0","6","blank","260","null","0.5317658900932257","0.10000268838390718","0.3489449876449656","0","","","","","","","","",""
"","html-keyboard-response","80","290208","0.0-49.0-1.0","""event"",""trial"",""time""
""fullscreenenter"",""0"",""1673""
","
","
","""event"",""trial"",""time""
""fullscreenenter"",""0"",""1673""
","
","null","<p></p>","null","","","","","","","","","","","","","","","","","","","","","","","",""
"","do_trial","81","292791","0.0-50.0-0.0","""event"",""trial"",""time""
""fullscreenenter"",""0"",""1673""
","
","
","""event"",""trial"",""time""
""fullscreenenter"",""0"",""1673""
","
","46.40000003576279","","","","","","","","49","1,0,0","6","blank","261","null","0.5556621604400894","0.11800640569450366","0.2765662522986162","1","","","","","","","","",""
"","html-keyboard-response","82","293806","0.0-50.0-1.0","""event"",""trial"",""time""
""fullscreenenter"",""0"",""1673""
","
","
","""event"",""trial"",""time""
""fullscreenenter"",""0"",""1673""
","
","null","<p></p>","null","","","","","","","","","","","","","","","","","","","","","","","",""
"","do_trial","83","296671","0.0-51.0-0.0","""event"",""trial"",""time""
""fullscreenenter"",""0"",""1673""
","
","
","""event"",""trial"",""time""
""fullscreenenter"",""0"",""1673""
","
","319.9000000357628","","","","","","","","51","1,0,0","6","blank","262","null","0.6641812866141379","0.05933831554371017","0.39102787674633976","0","","","","","","","","",""
"","html-keyboard-response","84","297679","0.0-51.0-1.0","""event"",""trial"",""time""
""fullscreenenter"",""0"",""1673""
","
","
","""event"",""trial"",""time""
""fullscreenenter"",""0"",""1673""
","
","null","<p></p>","null","","","","","","","","","","","","","","","","","","","","","","","",""
"","do_trial","85","300475","0.0-52.0-0.0","""event"",""trial"",""time""
""fullscreenenter"",""0"",""1673""
","
","
","""event"",""trial"",""time""
""fullscreenenter"",""0"",""1673""
","
","255","","","","","","","","50","1,0,1","6","blank","263","null","0.6144653617887987","0.07043511932950457","0.3401723364919132","0","","","","","","","","",""
"","html-keyboard-response","86","301476","0.0-52.0-1.0","""event"",""trial"",""time""
""fullscreenenter"",""0"",""1673""
","
","
","""event"",""trial"",""time""
""fullscreenenter"",""0"",""1673""
","
","null","<p></p>","null","","","","","","","","","","","","","","","","","","","","","","","",""
"","do_trial","87","304439","0.0-53.0-0.0","""event"",""trial"",""time""
""fullscreenenter"",""0"",""1673""
","
","
","""event"",""trial"",""time""
""fullscreenenter"",""0"",""1673""
","
","426.30000001192093","","","","","","","","49","0,0,1","6","blank","264","null","0.5557184678657214","0.1892983104840488","0.34916341368738885","0","","","","","","","","",""
"","html-keyboard-response","88","305449","0.0-53.0-1.0","""event"",""trial"",""time""
""fullscreenenter"",""0"",""1673""
","
","
","""event"",""trial"",""time""
""fullscreenenter"",""0"",""1673""
","
","null","<p></p>","null","","","","","","","","","","","","","","","","","","","","","","","",""
"","do_recog","89","309235","0.0-54.0-0.0","""event"",""trial"",""time""
""fullscreenenter"",""0"",""1673""
","
","
","""event"",""trial"",""time""
""fullscreenenter"",""0"",""1673""
","
","2276","","","","","","","","53","","","","265","probe-57","","","","","1","[object Object]","157","3","1","","","",""
"","html-keyboard-response","90","310236","0.0-54.0-1.0","""event"",""trial"",""time""
""fullscreenenter"",""0"",""1673""
","
","
","""event"",""trial"",""time""
""fullscreenenter"",""0"",""1673""
","
","null","<p></p>","null","","","","","","","","","","","","","","","","","","","","","","","",""
"","do_trial","91","313305","0.0-55.0-0.0","""event"",""trial"",""time""
""fullscreenenter"",""0"",""1673""
","
","
","""event"",""trial"",""time""
""fullscreenenter"",""0"",""1673""
","
","521.8999999761581","","","","","","","","50","1,0,0","6","blank","266","null","0.5958636943846259","0.1830762489544703","0.15162960562650335","0","","","","","","","","",""
"","html-keyboard-response","92","314309","0.0-55.0-1.0","""event"",""trial"",""time""
""fullscreenenter"",""0"",""1673""
","
","
","""event"",""trial"",""time""
""fullscreenenter"",""0"",""1673""
","
","null","<p></p>","null","","","","","","","","","","","","","","","","","","","","","","","",""
"","do_recog","93","318313","0.0-56.0-0.0","""event"",""trial"",""time""
""fullscreenenter"",""0"",""1673""
","
","
","""event"",""trial"",""time""
""fullscreenenter"",""0"",""1673""
","
","2496.600000023842","","","","","","","","53","","","","267","probe-236","","","","","0","[object Object]","null","null","0","","","",""
"","html-keyboard-response","94","319322","0.0-56.0-1.0","""event"",""trial"",""time""
""fullscreenenter"",""0"",""1673""
","
","
","""event"",""trial"",""time""
""fullscreenenter"",""0"",""1673""
","
","null","<p></p>","null","","","","","","","","","","","","","","","","","","","","","","","",""
"","do_trial","95","322150","0.0-57.0-0.0","""event"",""trial"",""time""
""fullscreenenter"",""0"",""1673""
","
","
","""event"",""trial"",""time""
""fullscreenenter"",""0"",""1673""
","
","284.4000000357628","","","","","","","","50","0,1,0","6","blank","268","null","0.5089905934154705","0.35354314077953514","0.2326557804222678","1","","","","","","","","",""
"","html-keyboard-response","96","323157","0.0-57.0-1.0","""event"",""trial"",""time""
""fullscreenenter"",""0"",""1673""
","
","
","""event"",""trial"",""time""
""fullscreenenter"",""0"",""1673""
","
","null","<p></p>","null","","","","","","","","","","","","","","","","","","","","","","","",""
"","break","97","324232","0.0-58.0-0.0","""event"",""trial"",""time""
""fullscreenenter"",""0"",""1673""
","
","
","""event"",""trial"",""time""
""fullscreenenter"",""0"",""1673""
","
","1074.800000011921","<div class='center'><p>Time to take a quick break! You have 2 minutes to rest, but you can move on sooner if you'd like.</p><p> Press the <b>space bar</b> to continue.</p></div>","32","","","","","","","","","","","","","","","","","","","","","","","",""
"","do_recog","98","327495","0.0-58.0-1.0","""event"",""trial"",""time""
""fullscreenenter"",""0"",""1673""
","
","
","""event"",""trial"",""time""
""fullscreenenter"",""0"",""1673""
","
","1749.5","","","","","","","","53","","","","269","probe-15","","","","","1","[object Object]","196","4","1","","","",""
"","html-keyboard-response","99","328496","0.0-58.0-2.0","""event"",""trial"",""time""
""fullscreenenter"",""0"",""1673""
""fullscreenexit"",""100"",""330517""
""blur"",""100"",""331009""
","""event"",""trial"",""time""
""blur"",""100"",""331009""
","
","""event"",""trial"",""time""
""fullscreenenter"",""0"",""1673""
","""event"",""trial"",""time""
""fullscreenexit"",""100"",""330517""
","null","<p></p>","null","","","","","","","","","","","","","","","","","","","","","","","",""
"","do_trial","100","332627","0.0-59.0-0.0","""event"",""trial"",""time""
""fullscreenenter"",""0"",""1673""
""fullscreenexit"",""100"",""330517""
""blur"",""100"",""331009""
","""event"",""trial"",""time""
""blur"",""100"",""331009""
","
","""event"",""trial"",""time""
""fullscreenenter"",""0"",""1673""
","""event"",""trial"",""time""
""fullscreenexit"",""100"",""330517""
","638.8000000119209","","","","","","","","50","1,0,0","6","blank","270","null","0.582221230486617","0.2411632646931008","0.33778009181398105","0","","","","","","","","",""
"","html-keyboard-response","101","334618","0.0-59.0-1.0","""event"",""trial"",""time""
""fullscreenenter"",""0"",""1673""
""fullscreenexit"",""100"",""330517""
""blur"",""100"",""331009""
""focus"",""102"",""335727""
","""event"",""trial"",""time""
""blur"",""100"",""331009""
","""event"",""trial"",""time""
""focus"",""102"",""335727""
","""event"",""trial"",""time""
""fullscreenenter"",""0"",""1673""
","""event"",""trial"",""time""
""fullscreenexit"",""100"",""330517""
","null","<p></p>","null","","","","","","","","","","","","","","","","","","","","","","","",""
"","do_recog","102","340635","0.0-60.0-0.0","""event"",""trial"",""time""
""fullscreenenter"",""0"",""1673""
""fullscreenexit"",""100"",""330517""
""blur"",""100"",""331009""
""focus"",""102"",""335727""
","""event"",""trial"",""time""
""blur"",""100"",""331009""
","""event"",""trial"",""time""
""focus"",""102"",""335727""
","""event"",""trial"",""time""
""fullscreenenter"",""0"",""1673""
","""event"",""trial"",""time""
""fullscreenexit"",""100"",""330517""
","null","","","","","","","","null","","","","271","probe-222","","","","","1","[object Object]","74","1","0","","","",""
"","html-keyboard-response","103","341637","0.0-60.0-1.0","""event"",""trial"",""time""
""fullscreenenter"",""0"",""1673""
""fullscreenexit"",""100"",""330517""
""blur"",""100"",""331009""
""focus"",""102"",""335727""
","""event"",""trial"",""time""
""blur"",""100"",""331009""
","""event"",""trial"",""time""
""focus"",""102"",""335727""
","""event"",""trial"",""time""
""fullscreenenter"",""0"",""1673""
","""event"",""trial"",""time""
""fullscreenexit"",""100"",""330517""
","null","<p></p>","null","","","","","","","","","","","","","","","","","","","","","","","",""
"","do_trial","104","344638","0.0-61.0-0.0","""event"",""trial"",""time""
""fullscreenenter"",""0"",""1673""
""fullscreenexit"",""100"",""330517""
""blur"",""100"",""331009""
""focus"",""102"",""335727""
","""event"",""trial"",""time""
""blur"",""100"",""331009""
","""event"",""trial"",""time""
""focus"",""102"",""335727""
","""event"",""trial"",""time""
""fullscreenenter"",""0"",""1673""
","""event"",""trial"",""time""
""fullscreenexit"",""100"",""330517""
","458.0999999642372","","","","","","","","50","0,1,0","6","blank","272","null","0.6830412709690358","0.21423083034587373","0.2716890517062241","1","","","","","","","","",""
"","html-keyboard-response","105","345639","0.0-61.0-1.0","""event"",""trial"",""time""
""fullscreenenter"",""0"",""1673""
""fullscreenexit"",""100"",""330517""
""blur"",""100"",""331009""
""focus"",""102"",""335727""
","""event"",""trial"",""time""
""blur"",""100"",""331009""
","""event"",""trial"",""time""
""focus"",""102"",""335727""
","""event"",""trial"",""time""
""fullscreenenter"",""0"",""1673""
","""event"",""trial"",""time""
""fullscreenexit"",""100"",""330517""
","null","<p></p>","null","","","","","","","","","","","","","","","","","","","","","","","",""
"","do_trial","106","348576","0.0-62.0-0.0","""event"",""trial"",""time""
""fullscreenenter"",""0"",""1673""
""fullscreenexit"",""100"",""330517""
""blur"",""100"",""331009""
""focus"",""102"",""335727""
","""event"",""trial"",""time""
""blur"",""100"",""331009""
","""event"",""trial"",""time""
""focus"",""102"",""335727""
","""event"",""trial"",""time""
""fullscreenenter"",""0"",""1673""
","""event"",""trial"",""time""
""fullscreenexit"",""100"",""330517""
","399.4000000357628","","","","","","","","49","0,0,1","6","blank","273","null","0.6144657900424784","0.18852803704005897","0.33786197462115847","0","","","","","","","","",""
"","html-keyboard-response","107","349578","0.0-62.0-1.0","""event"",""trial"",""time""
""fullscreenenter"",""0"",""1673""
""fullscreenexit"",""100"",""330517""
""blur"",""100"",""331009""
""focus"",""102"",""335727""
","""event"",""trial"",""time""
""blur"",""100"",""331009""
","""event"",""trial"",""time""
""focus"",""102"",""335727""
","""event"",""trial"",""time""
""fullscreenenter"",""0"",""1673""
","""event"",""trial"",""time""
""fullscreenexit"",""100"",""330517""
","null","<p></p>","null","","","","","","","","","","","","","","","","","","","","","","","",""
"","do_trial","108","352783","0.0-63.0-0.0","""event"",""trial"",""time""
""fullscreenenter"",""0"",""1673""
""fullscreenexit"",""100"",""330517""
""blur"",""100"",""331009""
""focus"",""102"",""335727""
","""event"",""trial"",""time""
""blur"",""100"",""331009""
","""event"",""trial"",""time""
""focus"",""102"",""335727""
","""event"",""trial"",""time""
""fullscreenenter"",""0"",""1673""
","""event"",""trial"",""time""
""fullscreenexit"",""100"",""330517""
","669","","","","","","","","50","1,0,0","6","blank","274","null","0.6510471436789992","0.2116423704407438","0.222582234152595","0","","","","","","","","",""
"","html-keyboard-response","109","353791","0.0-63.0-1.0","""event"",""trial"",""time""
""fullscreenenter"",""0"",""1673""
""fullscreenexit"",""100"",""330517""
""blur"",""100"",""331009""
""focus"",""102"",""335727""
","""event"",""trial"",""time""
""blur"",""100"",""331009""
","""event"",""trial"",""time""
""focus"",""102"",""335727""
","""event"",""trial"",""time""
""fullscreenenter"",""0"",""1673""
","""event"",""trial"",""time""
""fullscreenexit"",""100"",""330517""
","null","<p></p>","null","","","","","","","","","","","","","","","","","","","","","","","",""
"","do_trial","110","357133","0.0-64.0-0.0","""event"",""trial"",""time""
""fullscreenenter"",""0"",""1673""
""fullscreenexit"",""100"",""330517""
""blur"",""100"",""331009""
""focus"",""102"",""335727""
","""event"",""trial"",""time""
""blur"",""100"",""331009""
","""event"",""trial"",""time""
""focus"",""102"",""335727""
","""event"",""trial"",""time""
""fullscreenenter"",""0"",""1673""
","""event"",""trial"",""time""
""fullscreenexit"",""100"",""330517""
","808.1999999880791","","","","","","","","49","1,0,1","6","blank","275","null","0.6708990279013907","0.3235617405242441","0.3347152672567107","1","","","","","","","","",""
"","html-keyboard-response","111","358149","0.0-64.0-1.0","""event"",""trial"",""time""
""fullscreenenter"",""0"",""1673""
""fullscreenexit"",""100"",""330517""
""blur"",""100"",""331009""
""focus"",""102"",""335727""
","""event"",""trial"",""time""
""blur"",""100"",""331009""
","""event"",""trial"",""time""
""focus"",""102"",""335727""
","""event"",""trial"",""time""
""fullscreenenter"",""0"",""1673""
","""event"",""trial"",""time""
""fullscreenexit"",""100"",""330517""
","null","<p></p>","null","","","","","","","","","","","","","","","","","","","","","","","",""
"","do_trial","112","361096","0.0-65.0-0.0","""event"",""trial"",""time""
""fullscreenenter"",""0"",""1673""
""fullscreenexit"",""100"",""330517""
""blur"",""100"",""331009""
""focus"",""102"",""335727""
","""event"",""trial"",""time""
""blur"",""100"",""331009""
","""event"",""trial"",""time""
""focus"",""102"",""335727""
","""event"",""trial"",""time""
""fullscreenenter"",""0"",""1673""
","""event"",""trial"",""time""
""fullscreenexit"",""100"",""330517""
","402","","","","","","","","50","1,0,0","6","blank","276","null","0.5061873690157461","0.4331315429605001","0.36391235904713376","0","","","","","","","","",""
"","html-keyboard-response","113","362106","0.0-65.0-1.0","""event"",""trial"",""time""
""fullscreenenter"",""0"",""1673""
""fullscreenexit"",""100"",""330517""
""blur"",""100"",""331009""
""focus"",""102"",""335727""
","""event"",""trial"",""time""
""blur"",""100"",""331009""
","""event"",""trial"",""time""
""focus"",""102"",""335727""
","""event"",""trial"",""time""
""fullscreenenter"",""0"",""1673""
","""event"",""trial"",""time""
""fullscreenexit"",""100"",""330517""
","null","<p></p>","null","","","","","","","","","","","","","","","","","","","","","","","",""
"","do_recog","114","365164","0.0-66.0-0.0","""event"",""trial"",""time""
""fullscreenenter"",""0"",""1673""
""fullscreenexit"",""100"",""330517""
""blur"",""100"",""331009""
""focus"",""102"",""335727""
","""event"",""trial"",""time""
""blur"",""100"",""331009""
","""event"",""trial"",""time""
""focus"",""102"",""335727""
","""event"",""trial"",""time""
""fullscreenenter"",""0"",""1673""
","""event"",""trial"",""time""
""fullscreenexit"",""100"",""330517""
","1539.9000000357628","","","","","","","","53","","","","277","probe-119","","","","","1","[object Object]","195","4","1","","","",""
"","html-keyboard-response","115","366178","0.0-66.0-1.0","""event"",""trial"",""time""
""fullscreenenter"",""0"",""1673""
""fullscreenexit"",""100"",""330517""
""blur"",""100"",""331009""
""focus"",""102"",""335727""
","""event"",""trial"",""time""
""blur"",""100"",""331009""
","""event"",""trial"",""time""
""focus"",""102"",""335727""
","""event"",""trial"",""time""
""fullscreenenter"",""0"",""1673""
","""event"",""trial"",""time""
""fullscreenexit"",""100"",""330517""
","null","<p></p>","null","","","","","","","","","","","","","","","","","","","","","","","",""
"","do_trial","116","369300","0.0-67.0-0.0","""event"",""trial"",""time""
""fullscreenenter"",""0"",""1673""
""fullscreenexit"",""100"",""330517""
""blur"",""100"",""331009""
""focus"",""102"",""335727""
","""event"",""trial"",""time""
""blur"",""100"",""331009""
","""event"",""trial"",""time""
""focus"",""102"",""335727""
","""event"",""trial"",""time""
""fullscreenenter"",""0"",""1673""
","""event"",""trial"",""time""
""fullscreenexit"",""100"",""330517""
","580.8000000119209","","","","","","","","49","0,0,1","6","blank","278","null","0.5316076251901357","0.5176458395649547","0.2056359044926871","0","","","","","","","","",""
"","html-keyboard-response","117","370312","0.0-67.0-1.0","""event"",""trial"",""time""
""fullscreenenter"",""0"",""1673""
""fullscreenexit"",""100"",""330517""
""blur"",""100"",""331009""
""focus"",""102"",""335727""
","""event"",""trial"",""time""
""blur"",""100"",""331009""
","""event"",""trial"",""time""
""focus"",""102"",""335727""
","""event"",""trial"",""time""
""fullscreenenter"",""0"",""1673""
","""event"",""trial"",""time""
""fullscreenexit"",""100"",""330517""
","null","<p></p>","null","","","","","","","","","","","","","","","","","","","","","","","",""
"","do_recog","118","373671","0.0-68.0-0.0","""event"",""trial"",""time""
""fullscreenenter"",""0"",""1673""
""fullscreenexit"",""100"",""330517""
""blur"",""100"",""331009""
""focus"",""102"",""335727""
","""event"",""trial"",""time""
""blur"",""100"",""331009""
","""event"",""trial"",""time""
""focus"",""102"",""335727""
","""event"",""trial"",""time""
""fullscreenenter"",""0"",""1673""
","""event"",""trial"",""time""
""fullscreenexit"",""100"",""330517""
","1854.1000000238419","","","","","","","","56","","","","279","probe-241","","","","","0","[object Object]","null","null","1","","","",""
"","html-keyboard-response","119","374673","0.0-68.0-1.0","""event"",""trial"",""time""
""fullscreenenter"",""0"",""1673""
""fullscreenexit"",""100"",""330517""
""blur"",""100"",""331009""
""focus"",""102"",""335727""
","""event"",""trial"",""time""
""blur"",""100"",""331009""
","""event"",""trial"",""time""
""focus"",""102"",""335727""
","""event"",""trial"",""time""
""fullscreenenter"",""0"",""1673""
","""event"",""trial"",""time""
""fullscreenexit"",""100"",""330517""
","null","<p></p>","null","","","","","","","","","","","","","","","","","","","","","","","",""
"","do_trial","120","377621","0.0-69.0-0.0","""event"",""trial"",""time""
""fullscreenenter"",""0"",""1673""
""fullscreenexit"",""100"",""330517""
""blur"",""100"",""331009""
""focus"",""102"",""335727""
","""event"",""trial"",""time""
""blur"",""100"",""331009""
","""event"",""trial"",""time""
""focus"",""102"",""335727""
","""event"",""trial"",""time""
""fullscreenenter"",""0"",""1673""
","""event"",""trial"",""time""
""fullscreenexit"",""100"",""330517""
","406.69999998807907","","","","","","","","50","1,0,0","6","blank","280","null","0.6396771674641528","0.13439277080055584","0.22739685389562733","0","","","","","","","","",""
"","html-keyboard-response","121","378629","0.0-69.0-1.0","""event"",""trial"",""time""
""fullscreenenter"",""0"",""1673""
""fullscreenexit"",""100"",""330517""
""blur"",""100"",""331009""
""focus"",""102"",""335727""
","""event"",""trial"",""time""
""blur"",""100"",""331009""
","""event"",""trial"",""time""
""focus"",""102"",""335727""
","""event"",""trial"",""time""
""fullscreenenter"",""0"",""1673""
","""event"",""trial"",""time""
""fullscreenexit"",""100"",""330517""
","null","<p></p>","null","","","","","","","","","","","","","","","","","","","","","","","",""
"","do_recog","122","381807","0.0-70.0-0.0","""event"",""trial"",""time""
""fullscreenenter"",""0"",""1673""
""fullscreenexit"",""100"",""330517""
""blur"",""100"",""331009""
""focus"",""102"",""335727""
","""event"",""trial"",""time""
""blur"",""100"",""331009""
","""event"",""trial"",""time""
""focus"",""102"",""335727""
","""event"",""trial"",""time""
""fullscreenenter"",""0"",""1673""
","""event"",""trial"",""time""
""fullscreenexit"",""100"",""330517""
","1673.7000000476837","","","","","","","","56","","","","281","probe-122","","","","","1","[object Object]","155","3","0","","","",""
"","html-keyboard-response","123","382812","0.0-70.0-1.0","""event"",""trial"",""time""
""fullscreenenter"",""0"",""1673""
""fullscreenexit"",""100"",""330517""
""blur"",""100"",""331009""
""focus"",""102"",""335727""
","""event"",""trial"",""time""
""blur"",""100"",""331009""
","""event"",""trial"",""time""
""focus"",""102"",""335727""
","""event"",""trial"",""time""
""fullscreenenter"",""0"",""1673""
","""event"",""trial"",""time""
""fullscreenexit"",""100"",""330517""
","null","<p></p>","null","","","","","","","","","","","","","","","","","","","","","","","",""
"","do_trial","124","386466","0.0-71.0-0.0","""event"",""trial"",""time""
""fullscreenenter"",""0"",""1673""
""fullscreenexit"",""100"",""330517""
""blur"",""100"",""331009""
""focus"",""102"",""335727""
","""event"",""trial"",""time""
""blur"",""100"",""331009""
","""event"",""trial"",""time""
""focus"",""102"",""335727""
","""event"",""trial"",""time""
""fullscreenenter"",""0"",""1673""
","""event"",""trial"",""time""
""fullscreenexit"",""100"",""330517""
","1115.5","","","","","","","","49","1,0,1","6","blank","282","null","0.6973476085189547","0.10530495487706397","0.2850689993060721","1","","","","","","","","",""
"","html-keyboard-response","125","387474","0.0-71.0-1.0","""event"",""trial"",""time""
""fullscreenenter"",""0"",""1673""
""fullscreenexit"",""100"",""330517""
""blur"",""100"",""331009""
""focus"",""102"",""335727""
","""event"",""trial"",""time""
""blur"",""100"",""331009""
","""event"",""trial"",""time""
""focus"",""102"",""335727""
","""event"",""trial"",""time""
""fullscreenenter"",""0"",""1673""
","""event"",""trial"",""time""
""fullscreenexit"",""100"",""330517""
","null","<p></p>","null","","","","","","","","","","","","","","","","","","","","","","","",""
"","do_recog","126","390383","0.0-72.0-0.0","""event"",""trial"",""time""
""fullscreenenter"",""0"",""1673""
""fullscreenexit"",""100"",""330517""
""blur"",""100"",""331009""
""focus"",""102"",""335727""
","""event"",""trial"",""time""
""blur"",""100"",""331009""
","""event"",""trial"",""time""
""focus"",""102"",""335727""
","""event"",""trial"",""time""
""fullscreenenter"",""0"",""1673""
","""event"",""trial"",""time""
""fullscreenexit"",""100"",""330517""
","1404.199999988079","","","","","","","","53","","","","283","probe-113","","","","","1","[object Object]","76","1","1","","","",""
"","html-keyboard-response","127","391390","0.0-72.0-1.0","""event"",""trial"",""time""
""fullscreenenter"",""0"",""1673""
""fullscreenexit"",""100"",""330517""
""blur"",""100"",""331009""
""focus"",""102"",""335727""
","""event"",""trial"",""time""
""blur"",""100"",""331009""
","""event"",""trial"",""time""
""focus"",""102"",""335727""
","""event"",""trial"",""time""
""fullscreenenter"",""0"",""1673""
","""event"",""trial"",""time""
""fullscreenexit"",""100"",""330517""
","null","<p></p>","null","","","","","","","","","","","","","","","","","","","","","","","",""
"","do_trial","128","394443","0.0-73.0-0.0","""event"",""trial"",""time""
""fullscreenenter"",""0"",""1673""
""fullscreenexit"",""100"",""330517""
""blur"",""100"",""331009""
""focus"",""102"",""335727""
","""event"",""trial"",""time""
""blur"",""100"",""331009""
","""event"",""trial"",""time""
""focus"",""102"",""335727""
","""event"",""trial"",""time""
""fullscreenenter"",""0"",""1673""
","""event"",""trial"",""time""
""fullscreenexit"",""100"",""330517""
","513.9000000357628","","","","","","","","50","0,0,0","6","blank","284","null","0.6791838271355887","0.1877805720192764","0.34907079649012346","0","","","","","","","","",""
"","html-keyboard-response","129","395446","0.0-73.0-1.0","""event"",""trial"",""time""
""fullscreenenter"",""0"",""1673""
""fullscreenexit"",""100"",""330517""
""blur"",""100"",""331009""
""focus"",""102"",""335727""
","""event"",""trial"",""time""
""blur"",""100"",""331009""
","""event"",""trial"",""time""
""focus"",""102"",""335727""
","""event"",""trial"",""time""
""fullscreenenter"",""0"",""1673""
","""event"",""trial"",""time""
""fullscreenexit"",""100"",""330517""
","null","<p></p>","null","","","","","","","","","","","","","","","","","","","","","","","",""
"","do_recog","130","398699","0.0-74.0-0.0","""event"",""trial"",""time""
""fullscreenenter"",""0"",""1673""
""fullscreenexit"",""100"",""330517""
""blur"",""100"",""331009""
""focus"",""102"",""335727""
","""event"",""trial"",""time""
""blur"",""100"",""331009""
","""event"",""trial"",""time""
""focus"",""102"",""335727""
","""event"",""trial"",""time""
""fullscreenenter"",""0"",""1673""
","""event"",""trial"",""time""
""fullscreenexit"",""100"",""330517""
","1736.6000000238419","","","","","","","","53","","","","285","probe-146","","","","","1","[object Object]","33","0","1","","","",""
"","html-keyboard-response","131","399700","0.0-74.0-1.0","""event"",""trial"",""time""
""fullscreenenter"",""0"",""1673""
""fullscreenexit"",""100"",""330517""
""blur"",""100"",""331009""
""focus"",""102"",""335727""
","""event"",""trial"",""time""
""blur"",""100"",""331009""
","""event"",""trial"",""time""
""focus"",""102"",""335727""
","""event"",""trial"",""time""
""fullscreenenter"",""0"",""1673""
","""event"",""trial"",""time""
""fullscreenexit"",""100"",""330517""
","null","<p></p>","null","","","","","","","","","","","","","","","","","","","","","","","",""
"","do_trial","132","402691","0.0-75.0-0.0","""event"",""trial"",""time""
""fullscreenenter"",""0"",""1673""
""fullscreenexit"",""100"",""330517""
""blur"",""100"",""331009""
""focus"",""102"",""335727""
","""event"",""trial"",""time""
""blur"",""100"",""331009""
","""event"",""trial"",""time""
""focus"",""102"",""335727""
","""event"",""trial"",""time""
""fullscreenenter"",""0"",""1673""
","""event"",""trial"",""time""
""fullscreenexit"",""100"",""330517""
","451.89999997615814","","","","","","","","51","1,1,0","6","blank","286","null","0.639093535071268","0.15813064465956636","0.32186174834466724","0","","","","","","","","",""
"","html-keyboard-response","133","403701","0.0-75.0-1.0","""event"",""trial"",""time""
""fullscreenenter"",""0"",""1673""
""fullscreenexit"",""100"",""330517""
""blur"",""100"",""331009""
""focus"",""102"",""335727""
","""event"",""trial"",""time""
""blur"",""100"",""331009""
","""event"",""trial"",""time""
""focus"",""102"",""335727""
","""event"",""trial"",""time""
""fullscreenenter"",""0"",""1673""
","""event"",""trial"",""time""
""fullscreenexit"",""100"",""330517""
","null","<p></p>","null","","","","","","","","","","","","","","","","","","","","","","","",""
"","do_trial","134","406569","0.0-76.0-0.0","""event"",""trial"",""time""
""fullscreenenter"",""0"",""1673""
""fullscreenexit"",""100"",""330517""
""blur"",""100"",""331009""
""focus"",""102"",""335727""
","""event"",""trial"",""time""
""blur"",""100"",""331009""
","""event"",""trial"",""time""
""focus"",""102"",""335727""
","""event"",""trial"",""time""
""fullscreenenter"",""0"",""1673""
","""event"",""trial"",""time""
""fullscreenexit"",""100"",""330517""
","322.80000001192093","","","","","","","","49","1,0,1","6","blank","287","null","0.5488355340466309","0.20281977039670007","0.39648303330654655","1","","","","","","","","",""
"","html-keyboard-response","135","407575","0.0-76.0-1.0","""event"",""trial"",""time""
""fullscreenenter"",""0"",""1673""
""fullscreenexit"",""100"",""330517""
""blur"",""100"",""331009""
""focus"",""102"",""335727""
","""event"",""trial"",""time""
""blur"",""100"",""331009""
","""event"",""trial"",""time""
""focus"",""102"",""335727""
","""event"",""trial"",""time""
""fullscreenenter"",""0"",""1673""
","""event"",""trial"",""time""
""fullscreenexit"",""100"",""330517""
","null","<p></p>","null","","","","","","","","","","","","","","","","","","","","","","","",""
"","do_recog","136","410713","0.0-77.0-0.0","""event"",""trial"",""time""
""fullscreenenter"",""0"",""1673""
""fullscreenexit"",""100"",""330517""
""blur"",""100"",""331009""
""focus"",""102"",""335727""
","""event"",""trial"",""time""
""blur"",""100"",""331009""
","""event"",""trial"",""time""
""focus"",""102"",""335727""
","""event"",""trial"",""time""
""fullscreenenter"",""0"",""1673""
","""event"",""trial"",""time""
""fullscreenexit"",""100"",""330517""
","1623.300000011921","","","","","","","","53","","","","288","probe-198","","","","","1","[object Object]","34","0","1","","","",""
"","html-keyboard-response","137","411714","0.0-77.0-1.0","""event"",""trial"",""time""
""fullscreenenter"",""0"",""1673""
""fullscreenexit"",""100"",""330517""
""blur"",""100"",""331009""
""focus"",""102"",""335727""
","""event"",""trial"",""time""
""blur"",""100"",""331009""
","""event"",""trial"",""time""
""focus"",""102"",""335727""
","""event"",""trial"",""time""
""fullscreenenter"",""0"",""1673""
","""event"",""trial"",""time""
""fullscreenexit"",""100"",""330517""
","null","<p></p>","null","","","","","","","","","","","","","","","","","","","","","","","",""
"","do_trial","138","414810","0.0-78.0-0.0","""event"",""trial"",""time""
""fullscreenenter"",""0"",""1673""
""fullscreenexit"",""100"",""330517""
""blur"",""100"",""331009""
""focus"",""102"",""335727""
","""event"",""trial"",""time""
""blur"",""100"",""331009""
","""event"",""trial"",""time""
""focus"",""102"",""335727""
","""event"",""trial"",""time""
""fullscreenenter"",""0"",""1673""
","""event"",""trial"",""time""
""fullscreenexit"",""100"",""330517""
","558.1000000238419","","","","","","","","50","1,1,1","6","blank","289","null","0.7578218342420755","0.3274251699454443","0.21896128246025862","1","","","","","","","","",""
"","html-keyboard-response","139","415826","0.0-78.0-1.0","""event"",""trial"",""time""
""fullscreenenter"",""0"",""1673""
""fullscreenexit"",""100"",""330517""
""blur"",""100"",""331009""
""focus"",""102"",""335727""
","""event"",""trial"",""time""
""blur"",""100"",""331009""
","""event"",""trial"",""time""
""focus"",""102"",""335727""
","""event"",""trial"",""time""
""fullscreenenter"",""0"",""1673""
","""event"",""trial"",""time""
""fullscreenexit"",""100"",""330517""
","null","<p></p>","null","","","","","","","","","","","","","","","","","","","","","","","",""
"","do_recog","140","419223","0.0-79.0-0.0","""event"",""trial"",""time""
""fullscreenenter"",""0"",""1673""
""fullscreenexit"",""100"",""330517""
""blur"",""100"",""331009""
""focus"",""102"",""335727""
","""event"",""trial"",""time""
""blur"",""100"",""331009""
","""event"",""trial"",""time""
""focus"",""102"",""335727""
","""event"",""trial"",""time""
""fullscreenenter"",""0"",""1673""
","""event"",""trial"",""time""
""fullscreenexit"",""100"",""330517""
","1884.3999999761581","","","","","","","","56","","","","290","probe-242","","","","","0","[object Object]","null","null","1","","","",""
"","html-keyboard-response","141","420229","0.0-79.0-1.0","""event"",""trial"",""time""
""fullscreenenter"",""0"",""1673""
""fullscreenexit"",""100"",""330517""
""blur"",""100"",""331009""
""focus"",""102"",""335727""
","""event"",""trial"",""time""
""blur"",""100"",""331009""
","""event"",""trial"",""time""
""focus"",""102"",""335727""
","""event"",""trial"",""time""
""fullscreenenter"",""0"",""1673""
","""event"",""trial"",""time""
""fullscreenexit"",""100"",""330517""
","null","<p></p>","null","","","","","","","","","","","","","","","","","","","","","","","",""
"","do_trial","142","423207","0.0-80.0-0.0","""event"",""trial"",""time""
""fullscreenenter"",""0"",""1673""
""fullscreenexit"",""100"",""330517""
""blur"",""100"",""331009""
""focus"",""102"",""335727""
","""event"",""trial"",""time""
""blur"",""100"",""331009""
","""event"",""trial"",""time""
""focus"",""102"",""335727""
","""event"",""trial"",""time""
""fullscreenenter"",""0"",""1673""
","""event"",""trial"",""time""
""fullscreenexit"",""100"",""330517""
","434.89999997615814","","","","","","","","49","1,0,0","6","blank","291","null","0.6225239936576956","0.17786929871737414","0.30723086285581297","1","","","","","","","","",""
"","html-keyboard-response","143","424208","0.0-80.0-1.0","""event"",""trial"",""time""
""fullscreenenter"",""0"",""1673""
""fullscreenexit"",""100"",""330517""
""blur"",""100"",""331009""
""focus"",""102"",""335727""
","""event"",""trial"",""time""
""blur"",""100"",""331009""
","""event"",""trial"",""time""
""focus"",""102"",""335727""
","""event"",""trial"",""time""
""fullscreenenter"",""0"",""1673""
","""event"",""trial"",""time""
""fullscreenexit"",""100"",""330517""
","null","<p></p>","null","","","","","","","","","","","","","","","","","","","","","","","",""
"","do_recog","144","428086","0.0-81.0-0.0","""event"",""trial"",""time""
""fullscreenenter"",""0"",""1673""
""fullscreenexit"",""100"",""330517""
""blur"",""100"",""331009""
""focus"",""102"",""335727""
","""event"",""trial"",""time""
""blur"",""100"",""331009""
","""event"",""trial"",""time""
""focus"",""102"",""335727""
","""event"",""trial"",""time""
""fullscreenenter"",""0"",""1673""
","""event"",""trial"",""time""
""fullscreenexit"",""100"",""330517""
","2359.099999964237","","","","","","","","53","","","","292","probe-29","","","","","1","[object Object]","72","1","1","","","",""
"","html-keyboard-response","145","429100","0.0-81.0-1.0","""event"",""trial"",""time""
""fullscreenenter"",""0"",""1673""
""fullscreenexit"",""100"",""330517""
""blur"",""100"",""331009""
""focus"",""102"",""335727""
","""event"",""trial"",""time""
""blur"",""100"",""331009""
","""event"",""trial"",""time""
""focus"",""102"",""335727""
","""event"",""trial"",""time""
""fullscreenenter"",""0"",""1673""
","""event"",""trial"",""time""
""fullscreenexit"",""100"",""330517""
","null","<p></p>","null","","","","","","","","","","","","","","","","","","","","","","","",""
"","do_trial","146","432499","0.0-82.0-0.0","""event"",""trial"",""time""
""fullscreenenter"",""0"",""1673""
""fullscreenexit"",""100"",""330517""
""blur"",""100"",""331009""
""focus"",""102"",""335727""
","""event"",""trial"",""time""
""blur"",""100"",""331009""
","""event"",""trial"",""time""
""focus"",""102"",""335727""
","""event"",""trial"",""time""
""fullscreenenter"",""0"",""1673""
","""event"",""trial"",""time""
""fullscreenexit"",""100"",""330517""
","852.6000000238419","","","","","","","","50","1,0,0","6","blank","293","null","0.6120307800690279","0.18762465146486718","0.3206129110059363","0","","","","","","","","",""
"","html-keyboard-response","147","433515","0.0-82.0-1.0","""event"",""trial"",""time""
""fullscreenenter"",""0"",""1673""
""fullscreenexit"",""100"",""330517""
""blur"",""100"",""331009""
""focus"",""102"",""335727""
","""event"",""trial"",""time""
""blur"",""100"",""331009""
","""event"",""trial"",""time""
""focus"",""102"",""335727""
","""event"",""trial"",""time""
""fullscreenenter"",""0"",""1673""
","""event"",""trial"",""time""
""fullscreenexit"",""100"",""330517""
","null","<p></p>","null","","","","","","","","","","","","","","","","","","","","","","","",""
"","do_trial","148","436393","0.0-83.0-0.0","""event"",""trial"",""time""
""fullscreenenter"",""0"",""1673""
""fullscreenexit"",""100"",""330517""
""blur"",""100"",""331009""
""focus"",""102"",""335727""
","""event"",""trial"",""time""
""blur"",""100"",""331009""
","""event"",""trial"",""time""
""focus"",""102"",""335727""
","""event"",""trial"",""time""
""fullscreenenter"",""0"",""1673""
","""event"",""trial"",""time""
""fullscreenexit"",""100"",""330517""
","340.80000001192093","","","","","","","","49","0,0,0","6","blank","294","null","0.7427637316522727","0.22887943615399028","0.3721047385928561","0","","","","","","","","",""
"","html-keyboard-response","149","437399","0.0-83.0-1.0","""event"",""trial"",""time""
""fullscreenenter"",""0"",""1673""
""fullscreenexit"",""100"",""330517""
""blur"",""100"",""331009""
""focus"",""102"",""335727""
","""event"",""trial"",""time""
""blur"",""100"",""331009""
","""event"",""trial"",""time""
""focus"",""102"",""335727""
","""event"",""trial"",""time""
""fullscreenenter"",""0"",""1673""
","""event"",""trial"",""time""
""fullscreenexit"",""100"",""330517""
","null","<p></p>","null","","","","","","","","","","","","","","","","","","","","","","","",""
"","do_trial","150","440173","0.0-84.0-0.0","""event"",""trial"",""time""
""fullscreenenter"",""0"",""1673""
""fullscreenexit"",""100"",""330517""
""blur"",""100"",""331009""
""focus"",""102"",""335727""
","""event"",""trial"",""time""
""blur"",""100"",""331009""
","""event"",""trial"",""time""
""focus"",""102"",""335727""
","""event"",""trial"",""time""
""fullscreenenter"",""0"",""1673""
","""event"",""trial"",""time""
""fullscreenexit"",""100"",""330517""
","225.10000002384186","","","","","","","","51","1,0,0","6","blank","295","null","0.7449188478789222","0.12244405412969307","0.3449613857525571","0","","","","","","","","",""
"","html-keyboard-response","151","441185","0.0-84.0-1.0","""event"",""trial"",""time""
""fullscreenenter"",""0"",""1673""
""fullscreenexit"",""100"",""330517""
""blur"",""100"",""331009""
""focus"",""102"",""335727""
","""event"",""trial"",""time""
""blur"",""100"",""331009""
","""event"",""trial"",""time""
""focus"",""102"",""335727""
","""event"",""trial"",""time""
""fullscreenenter"",""0"",""1673""
","""event"",""trial"",""time""
""fullscreenexit"",""100"",""330517""
","null","<p></p>","null","","","","","","","","","","","","","","","","","","","","","","","",""
"","do_trial","152","444079","0.0-85.0-0.0","""event"",""trial"",""time""
""fullscreenenter"",""0"",""1673""
""fullscreenexit"",""100"",""330517""
""blur"",""100"",""331009""
""focus"",""102"",""335727""
","""event"",""trial"",""time""
""blur"",""100"",""331009""
","""event"",""trial"",""time""
""focus"",""102"",""335727""
","""event"",""trial"",""time""
""fullscreenenter"",""0"",""1673""
","""event"",""trial"",""time""
""fullscreenexit"",""100"",""330517""
","351.5","","","","","","","","50","1,0,0","6","blank","296","null","0.546210193521237","0.18862952525756518","0.2259351054915325","0","","","","","","","","",""
"","html-keyboard-response","153","445083","0.0-85.0-1.0","""event"",""trial"",""time""
""fullscreenenter"",""0"",""1673""
""fullscreenexit"",""100"",""330517""
""blur"",""100"",""331009""
""focus"",""102"",""335727""
","""event"",""trial"",""time""
""blur"",""100"",""331009""
","""event"",""trial"",""time""
""focus"",""102"",""335727""
","""event"",""trial"",""time""
""fullscreenenter"",""0"",""1673""
","""event"",""trial"",""time""
""fullscreenexit"",""100"",""330517""
","null","<p></p>","null","","","","","","","","","","","","","","","","","","","","","","","",""
"","do_recog","154","448545","0.0-86.0-0.0","""event"",""trial"",""time""
""fullscreenenter"",""0"",""1673""
""fullscreenexit"",""100"",""330517""
""blur"",""100"",""331009""
""focus"",""102"",""335727""
","""event"",""trial"",""time""
""blur"",""100"",""331009""
","""event"",""trial"",""time""
""focus"",""102"",""335727""
","""event"",""trial"",""time""
""fullscreenenter"",""0"",""1673""
","""event"",""trial"",""time""
""fullscreenexit"",""100"",""330517""
","1948.199999988079","","","","","","","","53","","","","297","probe-141","","","","","1","[object Object]","198","4","1","","","",""
"","html-keyboard-response","155","449560","0.0-86.0-1.0","""event"",""trial"",""time""
""fullscreenenter"",""0"",""1673""
""fullscreenexit"",""100"",""330517""
""blur"",""100"",""331009""
""focus"",""102"",""335727""
","""event"",""trial"",""time""
""blur"",""100"",""331009""
","""event"",""trial"",""time""
""focus"",""102"",""335727""
","""event"",""trial"",""time""
""fullscreenenter"",""0"",""1673""
","""event"",""trial"",""time""
""fullscreenexit"",""100"",""330517""
","null","<p></p>","null","","","","","","","","","","","","","","","","","","","","","","","",""
"","do_trial","156","453010","0.0-87.0-0.0","""event"",""trial"",""time""
""fullscreenenter"",""0"",""1673""
""fullscreenexit"",""100"",""330517""
""blur"",""100"",""331009""
""focus"",""102"",""335727""
","""event"",""trial"",""time""
""blur"",""100"",""331009""
","""event"",""trial"",""time""
""focus"",""102"",""335727""
","""event"",""trial"",""time""
""fullscreenenter"",""0"",""1673""
","""event"",""trial"",""time""
""fullscreenexit"",""100"",""330517""
","912.8000000119209","","","","","","","","49","0,0,0","6","blank","298","null","0.5002527780468592","0.21304061677537556","0.10872037246031747","0","","","","","","","","",""
"","html-keyboard-response","157","454023","0.0-87.0-1.0","""event"",""trial"",""time""
""fullscreenenter"",""0"",""1673""
""fullscreenexit"",""100"",""330517""
""blur"",""100"",""331009""
""focus"",""102"",""335727""
","""event"",""trial"",""time""
""blur"",""100"",""331009""
","""event"",""trial"",""time""
""focus"",""102"",""335727""
","""event"",""trial"",""time""
""fullscreenenter"",""0"",""1673""
","""event"",""trial"",""time""
""fullscreenexit"",""100"",""330517""
","null","<p></p>","null","","","","","","","","","","","","","","","","","","","","","","","",""
"","do_trial","158","457291","0.0-88.0-0.0","""event"",""trial"",""time""
""fullscreenenter"",""0"",""1673""
""fullscreenexit"",""100"",""330517""
""blur"",""100"",""331009""
""focus"",""102"",""335727""
","""event"",""trial"",""time""
""blur"",""100"",""331009""
","""event"",""trial"",""time""
""focus"",""102"",""335727""
","""event"",""trial"",""time""
""fullscreenenter"",""0"",""1673""
","""event"",""trial"",""time""
""fullscreenexit"",""100"",""330517""
","722.0999999642372","","","","","","","","51","1,0,0","6","blank","299","null","0.616765018600357","0.24132555093552635","0.1188932357308743","0","","","","","","","","",""
"","html-keyboard-response","159","458293","0.0-88.0-1.0","""event"",""trial"",""time""
""fullscreenenter"",""0"",""1673""
""fullscreenexit"",""100"",""330517""
""blur"",""100"",""331009""
""focus"",""102"",""335727""
","""event"",""trial"",""time""
""blur"",""100"",""331009""
","""event"",""trial"",""time""
""focus"",""102"",""335727""
","""event"",""trial"",""time""
""fullscreenenter"",""0"",""1673""
","""event"",""trial"",""time""
""fullscreenexit"",""100"",""330517""
","null","<p></p>","null","","","","","","","","","","","","","","","","","","","","","","","",""
"","do_trial","160","461464","0.0-89.0-0.0","""event"",""trial"",""time""
""fullscreenenter"",""0"",""1673""
""fullscreenexit"",""100"",""330517""
""blur"",""100"",""331009""
""focus"",""102"",""335727""
","""event"",""trial"",""time""
""blur"",""100"",""331009""
","""event"",""trial"",""time""
""focus"",""102"",""335727""
","""event"",""trial"",""time""
""fullscreenenter"",""0"",""1673""
","""event"",""trial"",""time""
""fullscreenexit"",""100"",""330517""
","636.1000000238419","","","","","","","","50","0,0,1","6","blank","300","null","0.4165750617811058","0.37772131471584686","0.24490889967814256","0","","","","","","","","",""
"","html-keyboard-response","161","462478","0.0-89.0-1.0","""event"",""trial"",""time""
""fullscreenenter"",""0"",""1673""
""fullscreenexit"",""100"",""330517""
""blur"",""100"",""331009""
""focus"",""102"",""335727""
","""event"",""trial"",""time""
""blur"",""100"",""331009""
","""event"",""trial"",""time""
""focus"",""102"",""335727""
","""event"",""trial"",""time""
""fullscreenenter"",""0"",""1673""
","""event"",""trial"",""time""
""fullscreenexit"",""100"",""330517""
","null","<p></p>","null","","","","","","","","","","","","","","","","","","","","","","","",""
"","do_trial","162","465597","0.0-90.0-0.0","""event"",""trial"",""time""
""fullscreenenter"",""0"",""1673""
""fullscreenexit"",""100"",""330517""
""blur"",""100"",""331009""
""focus"",""102"",""335727""
","""event"",""trial"",""time""
""blur"",""100"",""331009""
","""event"",""trial"",""time""
""focus"",""102"",""335727""
","""event"",""trial"",""time""
""fullscreenenter"",""0"",""1673""
","""event"",""trial"",""time""
""fullscreenexit"",""100"",""330517""
","579.3999999761581","","","","","","","","51","0,1,1","6","blank","301","null","0.4219729869729166","0.5570288385819455","0.1637940012550238","1","","","","","","","","",""
"","html-keyboard-response","163","466598","0.0-90.0-1.0","""event"",""trial"",""time""
""fullscreenenter"",""0"",""1673""
""fullscreenexit"",""100"",""330517""
""blur"",""100"",""331009""
""focus"",""102"",""335727""
","""event"",""trial"",""time""
""blur"",""100"",""331009""
","""event"",""trial"",""time""
""focus"",""102"",""335727""
","""event"",""trial"",""time""
""fullscreenenter"",""0"",""1673""
","""event"",""trial"",""time""
""fullscreenexit"",""100"",""330517""
","null","<p></p>","null","","","","","","","","","","","","","","","","","","","","","","","",""
"","do_trial","164","469853","0.0-91.0-0.0","""event"",""trial"",""time""
""fullscreenenter"",""0"",""1673""
""fullscreenexit"",""100"",""330517""
""blur"",""100"",""331009""
""focus"",""102"",""335727""
","""event"",""trial"",""time""
""blur"",""100"",""331009""
","""event"",""trial"",""time""
""focus"",""102"",""335727""
","""event"",""trial"",""time""
""fullscreenenter"",""0"",""1673""
","""event"",""trial"",""time""
""fullscreenexit"",""100"",""330517""
","707","","","","","","","","49","0,1,0","6","blank","302","null","0.2207736009733882","0.5873496567400941","0.10766180753621699","0","","","","","","","","",""
"","html-keyboard-response","165","470853","0.0-91.0-1.0","""event"",""trial"",""time""
""fullscreenenter"",""0"",""1673""
""fullscreenexit"",""100"",""330517""
""blur"",""100"",""331009""
""focus"",""102"",""335727""
","""event"",""trial"",""time""
""blur"",""100"",""331009""
","""event"",""trial"",""time""
""focus"",""102"",""335727""
","""event"",""trial"",""time""
""fullscreenenter"",""0"",""1673""
","""event"",""trial"",""time""
""fullscreenexit"",""100"",""330517""
","null","<p></p>","null","","","","","","","","","","","","","","","","","","","","","","","",""
"","do_recog","166","473977","0.0-92.0-0.0","""event"",""trial"",""time""
""fullscreenenter"",""0"",""1673""
""fullscreenexit"",""100"",""330517""
""blur"",""100"",""331009""
""focus"",""102"",""335727""
","""event"",""trial"",""time""
""blur"",""100"",""331009""
","""event"",""trial"",""time""
""focus"",""102"",""335727""
","""event"",""trial"",""time""
""fullscreenenter"",""0"",""1673""
","""event"",""trial"",""time""
""fullscreenexit"",""100"",""330517""
","1618.6000000238419","","","","","","","","54","","","","303","probe-201","","","","","1","[object Object]","158","3","1","","","",""
"","html-keyboard-response","167","474982","0.0-92.0-1.0","""event"",""trial"",""time""
""fullscreenenter"",""0"",""1673""
""fullscreenexit"",""100"",""330517""
""blur"",""100"",""331009""
""focus"",""102"",""335727""
","""event"",""trial"",""time""
""blur"",""100"",""331009""
","""event"",""trial"",""time""
""focus"",""102"",""335727""
","""event"",""trial"",""time""
""fullscreenenter"",""0"",""1673""
","""event"",""trial"",""time""
""fullscreenexit"",""100"",""330517""
","null","<p></p>","null","","","","","","","","","","","","","","","","","","","","","","","",""
"","do_trial","168","478805","0.0-93.0-0.0","""event"",""trial"",""time""
""fullscreenenter"",""0"",""1673""
""fullscreenexit"",""100"",""330517""
""blur"",""100"",""331009""
""focus"",""102"",""335727""
","""event"",""trial"",""time""
""blur"",""100"",""331009""
","""event"",""trial"",""time""
""focus"",""102"",""335727""
","""event"",""trial"",""time""
""fullscreenenter"",""0"",""1673""
","""event"",""trial"",""time""
""fullscreenexit"",""100"",""330517""
","1274.8999999761581","","","","","","","","49","0,0,1","6","blank","304","null","0.16037319642073783","0.7198501465849547","0.08000832989183879","0","","","","","","","","",""
"","html-keyboard-response","169","479817","0.0-93.0-1.0","""event"",""trial"",""time""
""fullscreenenter"",""0"",""1673""
""fullscreenexit"",""100"",""330517""
""blur"",""100"",""331009""
""focus"",""102"",""335727""
","""event"",""trial"",""time""
""blur"",""100"",""331009""
","""event"",""trial"",""time""
""focus"",""102"",""335727""
","""event"",""trial"",""time""
""fullscreenenter"",""0"",""1673""
","""event"",""trial"",""time""
""fullscreenexit"",""100"",""330517""
","null","<p></p>","null","","","","","","","","","","","","","","","","","","","","","","","",""
"","do_recog","170","483729","0.0-94.0-0.0","""event"",""trial"",""time""
""fullscreenenter"",""0"",""1673""
""fullscreenexit"",""100"",""330517""
""blur"",""100"",""331009""
""focus"",""102"",""335727""
","""event"",""trial"",""time""
""blur"",""100"",""331009""
","""event"",""trial"",""time""
""focus"",""102"",""335727""
","""event"",""trial"",""time""
""fullscreenenter"",""0"",""1673""
","""event"",""trial"",""time""
""fullscreenexit"",""100"",""330517""
","2399.599999964237","","","","","","","","54","","","","305","probe-195","","","","","1","[object Object]","35","0","1","","","",""
"","html-keyboard-response","171","484730","0.0-94.0-1.0","""event"",""trial"",""time""
""fullscreenenter"",""0"",""1673""
""fullscreenexit"",""100"",""330517""
""blur"",""100"",""331009""
""focus"",""102"",""335727""
","""event"",""trial"",""time""
""blur"",""100"",""331009""
","""event"",""trial"",""time""
""focus"",""102"",""335727""
","""event"",""trial"",""time""
""fullscreenenter"",""0"",""1673""
","""event"",""trial"",""time""
""fullscreenexit"",""100"",""330517""
","null","<p></p>","null","","","","","","","","","","","","","","","","","","","","","","","",""
"","do_trial","172","489226","0.0-95.0-0.0","""event"",""trial"",""time""
""fullscreenenter"",""0"",""1673""
""fullscreenexit"",""100"",""330517""
""blur"",""100"",""331009""
""focus"",""102"",""335727""
","""event"",""trial"",""time""
""blur"",""100"",""331009""
","""event"",""trial"",""time""
""focus"",""102"",""335727""
","""event"",""trial"",""time""
""fullscreenenter"",""0"",""1673""
","""event"",""trial"",""time""
""fullscreenexit"",""100"",""330517""
","1959.4000000357628","","","","","","","","50","1,0,0","6","blank","306","null","0.32204626288184074","0.6167440779706862","0.05124883515366146","0","","","","","","","","",""
"","html-keyboard-response","173","490226","0.0-95.0-1.0","""event"",""trial"",""time""
""fullscreenenter"",""0"",""1673""
""fullscreenexit"",""100"",""330517""
""blur"",""100"",""331009""
""focus"",""102"",""335727""
","""event"",""trial"",""time""
""blur"",""100"",""331009""
","""event"",""trial"",""time""
""focus"",""102"",""335727""
","""event"",""trial"",""time""
""fullscreenenter"",""0"",""1673""
","""event"",""trial"",""time""
""fullscreenexit"",""100"",""330517""
","null","<p></p>","null","","","","","","","","","","","","","","","","","","","","","","","",""
"","do_trial","174","493155","0.0-96.0-0.0","""event"",""trial"",""time""
""fullscreenenter"",""0"",""1673""
""fullscreenexit"",""100"",""330517""
""blur"",""100"",""331009""
""focus"",""102"",""335727""
","""event"",""trial"",""time""
""blur"",""100"",""331009""
","""event"",""trial"",""time""
""focus"",""102"",""335727""
","""event"",""trial"",""time""
""fullscreenenter"",""0"",""1673""
","""event"",""trial"",""time""
""fullscreenexit"",""100"",""330517""
","391","","","","","","","","49","0,1,0","6","blank","307","null","0.3998213680857228","0.7688612445327441","0.08326007035713155","0","","","","","","","","",""
"","html-keyboard-response","175","494166","0.0-96.0-1.0","""event"",""trial"",""time""
""fullscreenenter"",""0"",""1673""
""fullscreenexit"",""100"",""330517""
""blur"",""100"",""331009""
""focus"",""102"",""335727""
","""event"",""trial"",""time""
""blur"",""100"",""331009""
","""event"",""trial"",""time""
""focus"",""102"",""335727""
","""event"",""trial"",""time""
""fullscreenenter"",""0"",""1673""
","""event"",""trial"",""time""
""fullscreenexit"",""100"",""330517""
","null","<p></p>","null","","","","","","","","","","","","","","","","","","","","","","","",""
"","do_trial","176","497038","0.0-97.0-0.0","""event"",""trial"",""time""
""fullscreenenter"",""0"",""1673""
""fullscreenexit"",""100"",""330517""
""blur"",""100"",""331009""
""focus"",""102"",""335727""
","""event"",""trial"",""time""
""blur"",""100"",""331009""
","""event"",""trial"",""time""
""focus"",""102"",""335727""
","""event"",""trial"",""time""
""fullscreenenter"",""0"",""1673""
","""event"",""trial"",""time""
""fullscreenexit"",""100"",""330517""
","324","","","","","","","","49","0,1,0","6","blank","308","null","0.2435596627758401","0.7028758790175317","0.09980538540025695","0","","","","","","","","",""
"","html-keyboard-response","177","498040","0.0-97.0-1.0","""event"",""trial"",""time""
""fullscreenenter"",""0"",""1673""
""fullscreenexit"",""100"",""330517""
""blur"",""100"",""331009""
""focus"",""102"",""335727""
","""event"",""trial"",""time""
""blur"",""100"",""331009""
","""event"",""trial"",""time""
""focus"",""102"",""335727""
","""event"",""trial"",""time""
""fullscreenenter"",""0"",""1673""
","""event"",""trial"",""time""
""fullscreenexit"",""100"",""330517""
","null","<p></p>","null","","","","","","","","","","","","","","","","","","","","","","","",""
"","break","178","498683","0.0-98.0-0.0","""event"",""trial"",""time""
""fullscreenenter"",""0"",""1673""
""fullscreenexit"",""100"",""330517""
""blur"",""100"",""331009""
""focus"",""102"",""335727""
","""event"",""trial"",""time""
""blur"",""100"",""331009""
","""event"",""trial"",""time""
""focus"",""102"",""335727""
","""event"",""trial"",""time""
""fullscreenenter"",""0"",""1673""
","""event"",""trial"",""time""
""fullscreenexit"",""100"",""330517""
","642.4000000357628","<div class='center'><p>Time to take a quick break! You have 2 minutes to rest, but you can move on sooner if you'd like.</p><p> Press the <b>space bar</b> to continue.</p></div>","32","","","","","","","","","","","","","","","","","","","","","","","",""
"","do_recog","179","502364","0.0-98.0-1.0","""event"",""trial"",""time""
""fullscreenenter"",""0"",""1673""
""fullscreenexit"",""100"",""330517""
""blur"",""100"",""331009""
""focus"",""102"",""335727""
""blur"",""180"",""502979""
","""event"",""trial"",""time""
""blur"",""100"",""331009""
""blur"",""180"",""502979""
","""event"",""trial"",""time""
""focus"",""102"",""335727""
","""event"",""trial"",""time""
""fullscreenenter"",""0"",""1673""
","""event"",""trial"",""time""
""fullscreenexit"",""100"",""330517""
","2165.600000023842","","","","","","","","56","","","","309","probe-209","","","","","1","[object Object]","71","1","0","","","",""
"","html-keyboard-response","180","503631","0.0-98.0-2.0","""event"",""trial"",""time""
""fullscreenenter"",""0"",""1673""
""fullscreenexit"",""100"",""330517""
""blur"",""100"",""331009""
""focus"",""102"",""335727""
""blur"",""180"",""502979""
","""event"",""trial"",""time""
""blur"",""100"",""331009""
""blur"",""180"",""502979""
","""event"",""trial"",""time""
""focus"",""102"",""335727""
","""event"",""trial"",""time""
""fullscreenenter"",""0"",""1673""
","""event"",""trial"",""time""
""fullscreenexit"",""100"",""330517""
","null","<p></p>","null","","","","","","","","","","","","","","","","","","","","","","","",""
"","do_trial","181","511619","0.0-99.0-0.0","""event"",""trial"",""time""
""fullscreenenter"",""0"",""1673""
""fullscreenexit"",""100"",""330517""
""blur"",""100"",""331009""
""focus"",""102"",""335727""
""blur"",""180"",""502979""
","""event"",""trial"",""time""
""blur"",""100"",""331009""
""blur"",""180"",""502979""
","""event"",""trial"",""time""
""focus"",""102"",""335727""
","""event"",""trial"",""time""
""fullscreenenter"",""0"",""1673""
","""event"",""trial"",""time""
""fullscreenexit"",""100"",""330517""
","null","","","","","","","","null","1,0,1","6","blank","310","null","0.21782948523291656","0.626824858901884","0.23045167086872181","","","","","","","","","",""
"","html-keyboard-response","182","512619","0.0-99.0-1.0","""event"",""trial"",""time""
""fullscreenenter"",""0"",""1673""
""fullscreenexit"",""100"",""330517""
""blur"",""100"",""331009""
""focus"",""102"",""335727""
""blur"",""180"",""502979""
""focus"",""183"",""516795""
","""event"",""trial"",""time""
""blur"",""100"",""331009""
""blur"",""180"",""502979""
","""event"",""trial"",""time""
""focus"",""102"",""335727""
""focus"",""183"",""516795""
","""event"",""trial"",""time""
""fullscreenenter"",""0"",""1673""
","""event"",""trial"",""time""
""fullscreenexit"",""100"",""330517""
","null","<p></p>","null","","","","","","","","","","","","","","","","","","","","","","","",""
"","do_recog","183","518635","0.0-100.0-0.0","""event"",""trial"",""time""
""fullscreenenter"",""0"",""1673""
""fullscreenexit"",""100"",""330517""
""blur"",""100"",""331009""
""focus"",""102"",""335727""
""blur"",""180"",""502979""
""focus"",""183"",""516795""
","""event"",""trial"",""time""
""blur"",""100"",""331009""
""blur"",""180"",""502979""
","""event"",""trial"",""time""
""focus"",""102"",""335727""
""focus"",""183"",""516795""
","""event"",""trial"",""time""
""fullscreenenter"",""0"",""1673""
","""event"",""trial"",""time""
""fullscreenexit"",""100"",""330517""
","null","","","","","","","","null","","","","311","probe-191","","","","","1","[object Object]","152","3","0","","","",""
"","html-keyboard-response","184","519645","0.0-100.0-1.0","""event"",""trial"",""time""
""fullscreenenter"",""0"",""1673""
""fullscreenexit"",""100"",""330517""
""blur"",""100"",""331009""
""focus"",""102"",""335727""
""blur"",""180"",""502979""
""focus"",""183"",""516795""
","""event"",""trial"",""time""
""blur"",""100"",""331009""
""blur"",""180"",""502979""
","""event"",""trial"",""time""
""focus"",""102"",""335727""
""focus"",""183"",""516795""
","""event"",""trial"",""time""
""fullscreenenter"",""0"",""1673""
","""event"",""trial"",""time""
""fullscreenexit"",""100"",""330517""
","null","<p></p>","null","","","","","","","","","","","","","","","","","","","","","","","",""
"","do_trial","185","522712","0.0-101.0-0.0","""event"",""trial"",""time""
""fullscreenenter"",""0"",""1673""
""fullscreenexit"",""100"",""330517""
""blur"",""100"",""331009""
""focus"",""102"",""335727""
""blur"",""180"",""502979""
""focus"",""183"",""516795""
","""event"",""trial"",""time""
""blur"",""100"",""331009""
""blur"",""180"",""502979""
","""event"",""trial"",""time""
""focus"",""102"",""335727""
""focus"",""183"",""516795""
","""event"",""trial"",""time""
""fullscreenenter"",""0"",""1673""
","""event"",""trial"",""time""
""fullscreenexit"",""100"",""330517""
","532.8000000119209","","","","","","","","51","1,1,0","6","blank","312","null","0.2944315457783339","0.7100801758804174","0.19297159152682303","0","","","","","","","","",""
"","html-keyboard-response","186","523720","0.0-101.0-1.0","""event"",""trial"",""time""
""fullscreenenter"",""0"",""1673""
""fullscreenexit"",""100"",""330517""
""blur"",""100"",""331009""
""focus"",""102"",""335727""
""blur"",""180"",""502979""
""focus"",""183"",""516795""
","""event"",""trial"",""time""
""blur"",""100"",""331009""
""blur"",""180"",""502979""
","""event"",""trial"",""time""
""focus"",""102"",""335727""
""focus"",""183"",""516795""
","""event"",""trial"",""time""
""fullscreenenter"",""0"",""1673""
","""event"",""trial"",""time""
""fullscreenexit"",""100"",""330517""
","null","<p></p>","null","","","","","","","","","","","","","","","","","","","","","","","",""
"","do_trial","187","526828","0.0-102.0-0.0","""event"",""trial"",""time""
""fullscreenenter"",""0"",""1673""
""fullscreenexit"",""100"",""330517""
""blur"",""100"",""331009""
""focus"",""102"",""335727""
""blur"",""180"",""502979""
""focus"",""183"",""516795""
","""event"",""trial"",""time""
""blur"",""100"",""331009""
""blur"",""180"",""502979""
","""event"",""trial"",""time""
""focus"",""102"",""335727""
""focus"",""183"",""516795""
","""event"",""trial"",""time""
""fullscreenenter"",""0"",""1673""
","""event"",""trial"",""time""
""fullscreenexit"",""100"",""330517""
","561.5","","","","","","","","50","0,1,0","6","blank","313","null","0.1444027829255639","0.5479419288712106","0.09003819771370715","1","","","","","","","","",""
"","html-keyboard-response","188","527839","0.0-102.0-1.0","""event"",""trial"",""time""
""fullscreenenter"",""0"",""1673""
""fullscreenexit"",""100"",""330517""
""blur"",""100"",""331009""
""focus"",""102"",""335727""
""blur"",""180"",""502979""
""focus"",""183"",""516795""
","""event"",""trial"",""time""
""blur"",""100"",""331009""
""blur"",""180"",""502979""
","""event"",""trial"",""time""
""focus"",""102"",""335727""
""focus"",""183"",""516795""
","""event"",""trial"",""time""
""fullscreenenter"",""0"",""1673""
","""event"",""trial"",""time""
""fullscreenexit"",""100"",""330517""
","null","<p></p>","null","","","","","","","","","","","","","","","","","","","","","","","",""
"","do_trial","189","531224","0.0-103.0-0.0","""event"",""trial"",""time""
""fullscreenenter"",""0"",""1673""
""fullscreenexit"",""100"",""330517""
""blur"",""100"",""331009""
""focus"",""102"",""335727""
""blur"",""180"",""502979""
""focus"",""183"",""516795""
","""event"",""trial"",""time""
""blur"",""100"",""331009""
""blur"",""180"",""502979""
","""event"",""trial"",""time""
""focus"",""102"",""335727""
""focus"",""183"",""516795""
","""event"",""trial"",""time""
""fullscreenenter"",""0"",""1673""
","""event"",""trial"",""time""
""fullscreenexit"",""100"",""330517""
","851.1999999880791","","","","","","","","49","1,1,1","6","blank","314","null","0.2918444625634213","0.519010985140035","0.24056986133378175","1","","","","","","","","",""
"","html-keyboard-response","190","532233","0.0-103.0-1.0","""event"",""trial"",""time""
""fullscreenenter"",""0"",""1673""
""fullscreenexit"",""100"",""330517""
""blur"",""100"",""331009""
""focus"",""102"",""335727""
""blur"",""180"",""502979""
""focus"",""183"",""516795""
","""event"",""trial"",""time""
""blur"",""100"",""331009""
""blur"",""180"",""502979""
","""event"",""trial"",""time""
""focus"",""102"",""335727""
""focus"",""183"",""516795""
","""event"",""trial"",""time""
""fullscreenenter"",""0"",""1673""
","""event"",""trial"",""time""
""fullscreenexit"",""100"",""330517""
","null","<p></p>","null","","","","","","","","","","","","","","","","","","","","","","","",""
"","do_recog","191","535496","0.0-104.0-0.0","""event"",""trial"",""time""
""fullscreenenter"",""0"",""1673""
""fullscreenexit"",""100"",""330517""
""blur"",""100"",""331009""
""focus"",""102"",""335727""
""blur"",""180"",""502979""
""focus"",""183"",""516795""
","""event"",""trial"",""time""
""blur"",""100"",""331009""
""blur"",""180"",""502979""
","""event"",""trial"",""time""
""focus"",""102"",""335727""
""focus"",""183"",""516795""
","""event"",""trial"",""time""
""fullscreenenter"",""0"",""1673""
","""event"",""trial"",""time""
""fullscreenexit"",""100"",""330517""
","1751.7000000476837","","","","","","","","53","","","","315","probe-148","","","","","1","[object Object]","30","0","1","","","",""
"","html-keyboard-response","192","536498","0.0-104.0-1.0","""event"",""trial"",""time""
""fullscreenenter"",""0"",""1673""
""fullscreenexit"",""100"",""330517""
""blur"",""100"",""331009""
""focus"",""102"",""335727""
""blur"",""180"",""502979""
""focus"",""183"",""516795""
","""event"",""trial"",""time""
""blur"",""100"",""331009""
""blur"",""180"",""502979""
","""event"",""trial"",""time""
""focus"",""102"",""335727""
""focus"",""183"",""516795""
","""event"",""trial"",""time""
""fullscreenenter"",""0"",""1673""
","""event"",""trial"",""time""
""fullscreenexit"",""100"",""330517""
","null","<p></p>","null","","","","","","","","","","","","","","","","","","","","","","","",""
"","do_trial","193","541036","0.0-105.0-0.0","""event"",""trial"",""time""
""fullscreenenter"",""0"",""1673""
""fullscreenexit"",""100"",""330517""
""blur"",""100"",""331009""
""focus"",""102"",""335727""
""blur"",""180"",""502979""
""focus"",""183"",""516795""
","""event"",""trial"",""time""
""blur"",""100"",""331009""
""blur"",""180"",""502979""
","""event"",""trial"",""time""
""focus"",""102"",""335727""
""focus"",""183"",""516795""
","""event"",""trial"",""time""
""fullscreenenter"",""0"",""1673""
","""event"",""trial"",""time""
""fullscreenexit"",""100"",""330517""
","1992.9000000357628","","","","","","","","51","0,0,0","6","blank","316","null","0.4114209771476163","0.511326896595051","0.10333645008330976","0","","","","","","","","",""
"","html-keyboard-response","194","542050","0.0-105.0-1.0","""event"",""trial"",""time""
""fullscreenenter"",""0"",""1673""
""fullscreenexit"",""100"",""330517""
""blur"",""100"",""331009""
""focus"",""102"",""335727""
""blur"",""180"",""502979""
""focus"",""183"",""516795""
","""event"",""trial"",""time""
