"success","trial_type","trial_index","time_elapsed","internal_node_id","interactions","blur_events","focus_events","fullscreenenter_events","fullscreenexit_events","rt","stimulus","key_press","subject_id","participant_id","age","gender","prompt","response","choice_outcomes","context_n","context_img_id","trial_n","probe_img_id","pR_red","pR_white","pR_black","outcome","is_valid","image_to_show","probed_trial","probed_context","correct","probe","probed_trial_n","probed_context_n","context_im"
"true","fullscreen","0","7016","0.0-0.0","""event"",""trial"",""time""
""fullscreenenter"",""0"",""6033""
","
","
","""event"",""trial"",""time""
""fullscreenenter"",""0"",""6033""
","
","","","","","","","","","","","","","","","","","","","","","","","","","","",""
"","pavlovia","1","7022","0.0-1.0","""event"",""trial"",""time""
""fullscreenenter"",""0"",""6033""
","
","
","""event"",""trial"",""time""
""fullscreenenter"",""0"",""6033""
","
","","","","","","","","","","","","","","","","","","","","","","","","","","",""
"","welc_back","2","16940","0.0-2.0","""event"",""trial"",""time""
""fullscreenenter"",""0"",""6033""
","
","
","""event"",""trial"",""time""
""fullscreenenter"",""0"",""6033""
","
","null","run_exp/static/audio/clip_29_welcome_back.m4a","null","456","923","13","Male","<div class='center'><p>Welcome to day 2!</p><p> Yesterday, you were the head captain of a pirate ship. You asked your fellow pirates to rob other ships of their gold across six different islands.</p></div>","","","","","","","","","","","","","","","","","","",""
"","html-keyboard-response","3","18407","0.0-3.0","""event"",""trial"",""time""
""fullscreenenter"",""0"",""6033""
","
","
","""event"",""trial"",""time""
""fullscreenenter"",""0"",""6033""
","
","1465.0999999940395","<div class='center'><p>Welcome to day 2!</p><p> Yesterday, you were the head captain of a pirate ship. You asked your fellow pirates to rob other ships of their gold across six different islands.</p><p><b>[Press the space bar to continue]</b></p></div>","32","","","","","","","","","","","","","","","","","","","","","","","",""
"","day_1_summary_goal","4","35600","0.0-4.0","""event"",""trial"",""time""
""fullscreenenter"",""0"",""6033""
","
","
","""event"",""trial"",""time""
""fullscreenenter"",""0"",""6033""
","
","null","run_exp/static/audio/clip_30_goal_of_game.m4a","null","","","","","<div class='center'><p>Today, like yesterday, you get to pick which pirate you want to rob the next ship.</p><p>If the pirate is successful in robbing a ship, you get gold coins that look like this: </p><p><img src='run_exp/static/images/tutorial/reward.png' height='150'></p><p> If they were not successful in robbing the ship, then you will get no gold coins and you'll see a big red x like this: </p><p><img src='run_exp/static/images/tutorial/reward_no.png' height='150'></p></div>","","","","","","","","","","","","","","","","","","",""
"","html-keyboard-response","5","36623","0.0-5.0","""event"",""trial"",""time""
""fullscreenenter"",""0"",""6033""
","
","
","""event"",""trial"",""time""
""fullscreenenter"",""0"",""6033""
","
","1021.2999999970198","<div class='center'><p>Today, like yesterday, you get to pick which pirate you want to rob the next ship.</p><p>If the pirate is successful in robbing a ship, you get gold coins that look like this: </p><p><img src='run_exp/static/images/tutorial/reward.png' height='150'></p><p> If they were not successful in robbing the ship, then you will get no gold coins and you'll see a big red x like this: </p><p><img src='run_exp/static/images/tutorial/reward_no.png' height='150'></p><p><b>[Press the space bar to continue]</b></p></div>","32","","","","","","","","","","","","","","","","","","","","","","","",""
"","day_1_summary_pick","6","51321","0.0-6.0","""event"",""trial"",""time""
""fullscreenenter"",""0"",""6033""
","
","
","""event"",""trial"",""time""
""fullscreenenter"",""0"",""6033""
","
","null","run_exp/static/audio/clip_31_how_to_pick_a_pirate.m4a","null","","","","","<div class='center'><p>Also, just like yesterday, you will use the 1,2,3 keys on your keyboard to pick a pirate. Press '1' to choose red beard, '2' to choose white beard, and '3' to choose black beard . You only have 3 seconds to pick a pirate, so please make a choice quickly!</p></div>","","","","","","","","","","","","","","","","","","",""
"","html-keyboard-response","7","52617","0.0-7.0","""event"",""trial"",""time""
""fullscreenenter"",""0"",""6033""
","
","
","""event"",""trial"",""time""
""fullscreenenter"",""0"",""6033""
","
","1294.800000011921","<div class='center'><p>Also, just like yesterday, you will use the 1,2,3 keys on your keyboard to pick a pirate. Press '1' to choose red beard, '2' to choose white beard, and '3' to choose black beard . You only have 3 seconds to pick a pirate, so please make a choice quickly!</p><p><b>[Press the space bar to continue]</b></p></div>","32","","","","","","","","","","","","","","","","","","","","","","","",""
"","test_phase_begin","8","83001","0.0-8.0","""event"",""trial"",""time""
""fullscreenenter"",""0"",""6033""
","
","
","""event"",""trial"",""time""
""fullscreenenter"",""0"",""6033""
","
","null","run_exp/static/audio/clip_32_final_place.m4a","null","","","","","<div class='center'><p>You’ve arrived at the final island of your journey! Unfortunately, it’s very foggy out, so you won’t be able to see it in the distance like the other islands you've visited.</p><p>You’ll still be deciding which pirate you want to rob a ship like before. However, because of the fog, you also won’t be able to see the ship.</p><p>This means you do not have to remember the ships you rob on this island.</p><p>Unlike yesterday, you won't be visiting multiple islands today. You will stay on this island for the entire game. This game will last ~30 minutes.</p></div>","","","","","","","","","","","","","","","","","","",""
"","html-keyboard-response","9","91062","0.0-9.0","""event"",""trial"",""time""
""fullscreenenter"",""0"",""6033""
","
","
","""event"",""trial"",""time""
""fullscreenenter"",""0"",""6033""
","
","8059.0999999940395","<div class='center'><p>You’ve arrived at the final island of your journey! Unfortunately, it’s very foggy out, so you won’t be able to see it in the distance like the other islands you've visited.</p><p>You’ll still be deciding which pirate you want to rob a ship like before. However, because of the fog, you also won’t be able to see the ship.</p><p>This means you do not have to remember the ships you rob on this island.</p><p>Unlike yesterday, you won't be visiting multiple islands today. You will stay on this island for the entire game. This game will last ~30 minutes.</p><p><b>[Press the space bar to continue]</b></p></div>","32","","","","","","","","","","","","","","","","","","","","","","","",""
"","explain_probe_1","10","98781","0.0-10.0","""event"",""trial"",""time""
""fullscreenenter"",""0"",""6033""
","
","
","""event"",""trial"",""time""
""fullscreenenter"",""0"",""6033""
","
","null","run_exp/static/audio/clip_33_recognition_1.m4a","null","","","","","<div class='center'><p> Sometimes you’ll be shown a ship, and you will be asked if you saw this ship on a past island.</p><p> Here is an example of what you will see.</p><p><img src='run_exp/static/images/tutorial/example_recog_trial.png' height='500'></p></div>","","","","","","","","","","","","","","","","","","",""
"","html-keyboard-response","11","100582","0.0-11.0","""event"",""trial"",""time""
""fullscreenenter"",""0"",""6033""
","
","
","""event"",""trial"",""time""
""fullscreenenter"",""0"",""6033""
","
","1798.6000000089407","<div class='center'><p> Sometimes you’ll be shown a ship, and you will be asked if you saw this ship on a past island.</p><p> Here is an example of what you will see.</p><p><img src='run_exp/static/images/tutorial/example_recog_trial.png' height='500'></p><p><b>[Press the space bar to continue]</b></p></div>","32","","","","","","","","","","","","","","","","","","","","","","","",""
"","explain_probe_2","12","122301","0.0-12.0","""event"",""trial"",""time""
""fullscreenenter"",""0"",""6033""
","
","
","""event"",""trial"",""time""
""fullscreenenter"",""0"",""6033""
","
","null","run_exp/static/audio/clip_34_recognition_2.m4a","null","","","","","<div class='center'><p> You will press the 5, 6, 7, 8 keys on your keyboard to respond.</p><p>If you are sure you saw the ship, press <b>5</b> on your keyboard.</p><p> If you think you saw it before but aren't sure, then press <b>6</b>.</p><p> If you think you have <b>not</b> seen it before but aren't sure, then press <b>7</b>.</p><p> If you are sure you did <b>not</b> see the ship before, then press <b>8</b>.</p><p><img src='run_exp/static/images/tutorial/example_recog_trial.png' height='500'></p></div>","","","","","","","","","","","","","","","","","","",""
"","html-keyboard-response","13","123988","0.0-13.0","""event"",""trial"",""time""
""fullscreenenter"",""0"",""6033""
","
","
","""event"",""trial"",""time""
""fullscreenenter"",""0"",""6033""
","
","1685.2999999970198","<div class='center'><p> You will press the 5, 6, 7, 8 keys on your keyboard to respond.</p><p>If you are sure you saw the ship, press <b>5</b> on your keyboard.</p><p> If you think you saw it before but aren't sure, then press <b>6</b>.</p><p> If you think you have <b>not</b> seen it before but aren't sure, then press <b>7</b>.</p><p> If you are sure you did <b>not</b> see the ship before, then press <b>8</b>.</p><p><img src='run_exp/static/images/tutorial/example_recog_trial.png' height='500'></p><p><b>[Press the space bar to continue]</b></p></div>","32","","","","","","","","","","","","","","","","","","","","","","","",""
"","explain_outcome","14","141181","0.0-14.0","""event"",""trial"",""time""
""fullscreenenter"",""0"",""6033""
","
","
","""event"",""trial"",""time""
""fullscreenenter"",""0"",""6033""
","
","null","run_exp/static/audio/clip_35_recognition_3.m4a","null","","","","","<div class='center'><p> If you remember correctly, then you’ll get a gold coin like this: </p><p><img src='run_exp/static/images/tutorial/reward_small.png' height='200'></p><p>If you do not remember correctly, then you'll see a red x like this: </p><p><img src='run_exp/static/images/tutorial/reward_no.png' height='200'></p><p>Importantly, when you are shown a ship, take the time to remind yourself which island you saw it on. This will help you in the next part of the study.</p></div>","","","","","","","","","","","","","","","","","","",""
"","html-keyboard-response","15","142482","0.0-15.0","""event"",""trial"",""time""
""fullscreenenter"",""0"",""6033""
","
","
","""event"",""trial"",""time""
""fullscreenenter"",""0"",""6033""
","
","1299.3999999910593","<div class='center'><p> If you remember correctly, then you’ll get a gold coin like this: </p><p><img src='run_exp/static/images/tutorial/reward_small.png' height='200'></p><p>If you do not remember correctly, then you'll see a red x like this: </p><p><img src='run_exp/static/images/tutorial/reward_no.png' height='200'></p><p>Importantly, when you are shown a ship, take the time to remind yourself which island you saw it on. This will help you in the next part of the study.</p><p><b>[Press the space bar to continue]</b></p></div>","32","","","","","","","","","","","","","","","","","","","","","","","",""
"","begin_test_phase","16","158301","0.0-16.0","""event"",""trial"",""time""
""fullscreenenter"",""0"",""6033""
","
","
","""event"",""trial"",""time""
""fullscreenenter"",""0"",""6033""
","
","null","run_exp/static/audio/clip_36_begin_final.m4a","null","","","","","<div class='center'><p>Let's go over the important points again. Your job is to: </p><p>1. Pick the pirate who is best at robbing ships and will bring you back gold coins. </p><p>2. Correctly remember whether or not you saw a ship before. If you did see the ship before, remind yourself on which island you saw it. </p></div>","","","","","","","","","","","","","","","","","","",""
"","html-keyboard-response","17","162214","0.0-17.0","""event"",""trial"",""time""
""fullscreenenter"",""0"",""6033""
","
","
","""event"",""trial"",""time""
""fullscreenenter"",""0"",""6033""
","
","3837.4000000059605","<div class='center'><p>Let's go over the important points again. Your job is to: </p><p>1. Pick the pirate who is best at robbing ships and will bring you back gold coins. </p><p>2. Correctly remember whether or not you saw a ship before. If you did see the ship before, remind yourself on which island you saw it. </p><p><b>[Press the space bar to continue]</b></p></div>","32","","","","","","","","","","","","","","","","","","","","","","","",""
"","do_welcome","18","166231","0.0-18.0","""event"",""trial"",""time""
""fullscreenenter"",""0"",""6033""
","
","
","""event"",""trial"",""time""
""fullscreenenter"",""0"",""6033""
","
","null","","","","","","","","null","","","","","","","","","","","","","","","","","",""
"","do_trial","19","170491","0.0-19.0-0.0","""event"",""trial"",""time""
""fullscreenenter"",""0"",""6033""
","
","
","""event"",""trial"",""time""
""fullscreenenter"",""0"",""6033""
","
","1670.7999999970198","","","","","","","","50","0,0,0","6","blank","230","null","0.3256937356094173","0.11321604746337682","0.6743267853911453","0","","","","","","","","",""
"","html-keyboard-response","20","171511","0.0-19.0-1.0","""event"",""trial"",""time""
""fullscreenenter"",""0"",""6033""
","
","
","""event"",""trial"",""time""
""fullscreenenter"",""0"",""6033""
","
","null","<p></p>","null","","","","","","","","","","","","","","","","","","","","","","","",""
"","do_trial","21","174431","0.0-20.0-0.0","""event"",""trial"",""time""
""fullscreenenter"",""0"",""6033""
","
","
","""event"",""trial"",""time""
""fullscreenenter"",""0"",""6033""
","
","329","","","","","","","","51","1,0,0","6","blank","231","null","0.3609947260517834","0.1396828796218333","0.5855192918422104","0","","","","","","","","",""
"","html-keyboard-response","22","175440","0.0-20.0-1.0","""event"",""trial"",""time""
""fullscreenenter"",""0"",""6033""
","
","
","""event"",""trial"",""time""
""fullscreenenter"",""0"",""6033""
","
","null","<p></p>","null","","","","","","","","","","","","","","","","","","","","","","","",""
"","do_trial","23","178025","0.0-21.0-0.0","""event"",""trial"",""time""
""fullscreenenter"",""0"",""6033""
","
","
","""event"",""trial"",""time""
""fullscreenenter"",""0"",""6033""
","
","0.20000000298023224","","","","","","","","49","1,0,1","6","blank","232","null","0.3158980818246163","0.1016779802124027","0.6828527257263408","1","","","","","","","","",""
"","html-keyboard-response","24","179029","0.0-21.0-1.0","""event"",""trial"",""time""
""fullscreenenter"",""0"",""6033""
","
","
","""event"",""trial"",""time""
""fullscreenenter"",""0"",""6033""
","
","null","<p></p>","null","","","","","","","","","","","","","","","","","","","","","","","",""
"","do_trial","25","181851","0.0-22.0-0.0","""event"",""trial"",""time""
""fullscreenenter"",""0"",""6033""
","
","
","""event"",""trial"",""time""
""fullscreenenter"",""0"",""6033""
","
","242.70000000298023","","","","","","","","49","1,0,1","6","blank","233","null","0.42361073915196157","0.12412266856155534","0.5362247968465694","1","","","","","","","","",""
"","html-keyboard-response","26","182860","0.0-22.0-1.0","""event"",""trial"",""time""
""fullscreenenter"",""0"",""6033""
","
","
","""event"",""trial"",""time""
""fullscreenenter"",""0"",""6033""
","
","null","<p></p>","null","","","","","","","","","","","","","","","","","","","","","","","",""
"","do_trial","27","185455","0.0-23.0-0.0","""event"",""trial"",""time""
""fullscreenenter"",""0"",""6033""
","
","
","""event"",""trial"",""time""
""fullscreenenter"",""0"",""6033""
","
","0.20000000298023224","","","","","","","","49","1,0,1","6","blank","234","null","0.3475714908502816","0.16168993354070035","0.4317528741679364","1","","","","","","","","",""
"","html-keyboard-response","28","186460","0.0-23.0-1.0","""event"",""trial"",""time""
""fullscreenenter"",""0"",""6033""
","
","
","""event"",""trial"",""time""
""fullscreenenter"",""0"",""6033""
","
","null","<p></p>","null","","","","","","","","","","","","","","","","","","","","","","","",""
"","do_trial","29","189085","0.0-24.0-0.0","""event"",""trial"",""time""
""fullscreenenter"",""0"",""6033""
","
","
","""event"",""trial"",""time""
""fullscreenenter"",""0"",""6033""
","
","52.099999994039536","","","","","","","","49","1,0,0","6","blank","235","null","0.25466165261035834","0.13914241851665124","0.5390344029962457","1","","","","","","","","",""
"","html-keyboard-response","30","190089","0.0-24.0-1.0","""event"",""trial"",""time""
""fullscreenenter"",""0"",""6033""
","
","
","""event"",""trial"",""time""
""fullscreenenter"",""0"",""6033""
","
","null","<p></p>","null","","","","","","","","","","","","","","","","","","","","","","","",""
"","do_trial","31","192664","0.0-25.0-0.0","""event"",""trial"",""time""
""fullscreenenter"",""0"",""6033""
","
","
","""event"",""trial"",""time""
""fullscreenenter"",""0"",""6033""
","
","0.10000000894069672","","","","","","","","49","0,0,1","6","blank","236","null","0.3355389635700636","0.12147640371157054","0.6689464259751875","0","","","","","","","","",""
"","html-keyboard-response","32","193680","0.0-25.0-1.0","""event"",""trial"",""time""
""fullscreenenter"",""0"",""6033""
","
","
","""event"",""trial"",""time""
""fullscreenenter"",""0"",""6033""
","
","null","<p></p>","null","","","","","","","","","","","","","","","","","","","","","","","",""
"","do_trial","33","196970","0.0-26.0-0.0","""event"",""trial"",""time""
""fullscreenenter"",""0"",""6033""
","
","
","""event"",""trial"",""time""
""fullscreenenter"",""0"",""6033""
","
","719.0999999940395","","","","","","","","50","0,0,1","6","blank","237","null","0.40835043157614154","0.2186362703067303","0.6892609068657926","0","","","","","","","","",""
"","html-keyboard-response","34","197974","0.0-26.0-1.0","""event"",""trial"",""time""
""fullscreenenter"",""0"",""6033""
","
","
","""event"",""trial"",""time""
""fullscreenenter"",""0"",""6033""
","
","null","<p></p>","null","","","","","","","","","","","","","","","","","","","","","","","",""
"","do_trial","35","200553","0.0-27.0-0.0","""event"",""trial"",""time""
""fullscreenenter"",""0"",""6033""
","
","
","""event"",""trial"",""time""
""fullscreenenter"",""0"",""6033""
","
","0.09999999403953552","","","","","","","","51","0,0,1","6","blank","238","null","0.2425053766360248","0.19012145218290943","0.5833164538310437","1","","","","","","","","",""
"","html-keyboard-response","36","201565","0.0-27.0-1.0","""event"",""trial"",""time""
""fullscreenenter"",""0"",""6033""
","
","
","""event"",""trial"",""time""
""fullscreenenter"",""0"",""6033""
","
","null","<p></p>","null","","","","","","","","","","","","","","","","","","","","","","","",""
"","do_trial","37","204327","0.0-28.0-0.0","""event"",""trial"",""time""
""fullscreenenter"",""0"",""6033""
","
","
","""event"",""trial"",""time""
""fullscreenenter"",""0"",""6033""
","
","188.29999999701977","","","","","","","","51","0,0,1","6","blank","239","null","0.21970844737291298","0.13049243550759196","0.5271677979228084","1","","","","","","","","",""
"","html-keyboard-response","38","205339","0.0-28.0-1.0","""event"",""trial"",""time""
""fullscreenenter"",""0"",""6033""
","
","
","""event"",""trial"",""time""
""fullscreenenter"",""0"",""6033""
","
","null","<p></p>","null","","","","","","","","","","","","","","","","","","","","","","","",""
"","do_trial","39","208041","0.0-29.0-0.0","""event"",""trial"",""time""
""fullscreenenter"",""0"",""6033""
","
","
","""event"",""trial"",""time""
""fullscreenenter"",""0"",""6033""
","
","133","","","","","","","","51","0,0,0","6","blank","240","null","0.39825537407267947","0.19609168423635637","0.5562504050306935","0","","","","","","","","",""
"","html-keyboard-response","40","209053","0.0-29.0-1.0","""event"",""trial"",""time""
""fullscreenenter"",""0"",""6033""
","
","
","""event"",""trial"",""time""
""fullscreenenter"",""0"",""6033""
","
","null","<p></p>","null","","","","","","","","","","","","","","","","","","","","","","","",""
"","do_trial","41","211712","0.0-30.0-0.0","""event"",""trial"",""time""
""fullscreenenter"",""0"",""6033""
","
","
","""event"",""trial"",""time""
""fullscreenenter"",""0"",""6033""
","
","79.5","","","","","","","","50","0,0,1","6","blank","241","null","0.3921393917282521","0.14520415908949108","0.5042975050308701","0","","","","","","","","",""
"","html-keyboard-response","42","212719","0.0-30.0-1.0","""event"",""trial"",""time""
""fullscreenenter"",""0"",""6033""
","
","
","""event"",""trial"",""time""
""fullscreenenter"",""0"",""6033""
","
","null","<p></p>","null","","","","","","","","","","","","","","","","","","","","","","","",""
"","do_trial","43","215466","0.0-31.0-0.0","""event"",""trial"",""time""
""fullscreenenter"",""0"",""6033""
","
","
","""event"",""trial"",""time""
""fullscreenenter"",""0"",""6033""
","
","185.80000001192093","","","","","","","","49","0,1,0","6","blank","242","null","0.17864832546761442","0.3231914404784357","0.4426379938423591","0","","","","","","","","",""
"","html-keyboard-response","44","216468","0.0-31.0-1.0","""event"",""trial"",""time""
""fullscreenenter"",""0"",""6033""
","
","
","""event"",""trial"",""time""
""fullscreenenter"",""0"",""6033""
","
","null","<p></p>","null","","","","","","","","","","","","","","","","","","","","","","","",""
"","do_trial","45","219055","0.0-32.0-0.0","""event"",""trial"",""time""
""fullscreenenter"",""0"",""6033""
","
","
","""event"",""trial"",""time""
""fullscreenenter"",""0"",""6033""
","
","0","","","","","","","","50","0,1,0","6","blank","243","null","0.05329288092101031","0.4100391361081184","0.26390889904088943","1","","","","","","","","",""
"","html-keyboard-response","46","220063","0.0-32.0-1.0","""event"",""trial"",""time""
""fullscreenenter"",""0"",""6033""
","
","
","""event"",""trial"",""time""
""fullscreenenter"",""0"",""6033""
","
","null","<p></p>","null","","","","","","","","","","","","","","","","","","","","","","","",""
"","do_trial","47","222653","0.0-33.0-0.0","""event"",""trial"",""time""
""fullscreenenter"",""0"",""6033""
","
","
","""event"",""trial"",""time""
""fullscreenenter"",""0"",""6033""
","
","15.299999997019768","","","","","","","","50","0,0,0","6","blank","244","null","0.1687684951300796","0.5079535576376045","0.16788516025036274","0","","","","","","","","",""
"","html-keyboard-response","48","223663","0.0-33.0-1.0","""event"",""trial"",""time""
""fullscreenenter"",""0"",""6033""
","
","
","""event"",""trial"",""time""
""fullscreenenter"",""0"",""6033""
","
","null","<p></p>","null","","","","","","","","","","","","","","","","","","","","","","","",""
"","do_recog","49","229684","0.0-34.0-0.0","""event"",""trial"",""time""
""fullscreenenter"",""0"",""6033""
","
","
","""event"",""trial"",""time""
""fullscreenenter"",""0"",""6033""
","
","null","","","","","","","","null","","","","245","probe-240","","","","","0","[object Object]","null","null","0","","","",""
"","html-keyboard-response","50","230690","0.0-34.0-1.0","""event"",""trial"",""time""
""fullscreenenter"",""0"",""6033""
","
","
","""event"",""trial"",""time""
""fullscreenenter"",""0"",""6033""
","
","null","<p></p>","null","","","","","","","","","","","","","","","","","","","","","","","",""
"","do_trial","51","234240","0.0-35.0-0.0","""event"",""trial"",""time""
""fullscreenenter"",""0"",""6033""
","
","
","""event"",""trial"",""time""
""fullscreenenter"",""0"",""6033""
","
","980.0999999940395","","","","","","","","50","0,1,0","6","blank","246","null","0.0968310261578423","0.5652638118877882","0.23255867968583765","1","","","","","","","","",""
"","html-keyboard-response","52","235245","0.0-35.0-1.0","""event"",""trial"",""time""
""fullscreenenter"",""0"",""6033""
","
","
","""event"",""trial"",""time""
""fullscreenenter"",""0"",""6033""
","
","null","<p></p>","null","","","","","","","","","","","","","","","","","","","","","","","",""
"","do_trial","53","238429","0.0-36.0-0.0","""event"",""trial"",""time""
""fullscreenenter"",""0"",""6033""
","
","
","""event"",""trial"",""time""
""fullscreenenter"",""0"",""6033""
","
","617.7999999970198","","","","","","","","50","0,0,0","6","blank","247","null","0.05055364578146179","0.5640154859529553","0.33990341185627587","0","","","","","","","","",""
"","html-keyboard-response","54","239433","0.0-36.0-1.0","""event"",""trial"",""time""
""fullscreenenter"",""0"",""6033""
","
","
","""event"",""trial"",""time""
""fullscreenenter"",""0"",""6033""
","
","null","<p></p>","null","","","","","","","","","","","","","","","","","","","","","","","",""
"","do_trial","55","242089","0.0-37.0-0.0","""event"",""trial"",""time""
""fullscreenenter"",""0"",""6033""
","
","
","""event"",""trial"",""time""
""fullscreenenter"",""0"",""6033""
","
","78.80000001192093","","","","","","","","49","0,1,0","6","blank","248","null","0.09740823220058686","0.6561134328818823","0.38065893226709535","0","","","","","","","","",""
"","html-keyboard-response","56","243092","0.0-37.0-1.0","""event"",""trial"",""time""
""fullscreenenter"",""0"",""6033""
","
","
","""event"",""trial"",""time""
""fullscreenenter"",""0"",""6033""
","
","null","<p></p>","null","","","","","","","","","","","","","","","","","","","","","","","",""
"","do_trial","57","245861","0.0-38.0-0.0","""event"",""trial"",""time""
""fullscreenenter"",""0"",""6033""
","
","
","""event"",""trial"",""time""
""fullscreenenter"",""0"",""6033""
","
","204.70000000298023","","","","","","","","51","0,1,1","6","blank","249","null","0.05897899246353799","0.7228525111273361","0.5520836233110059","1","","","","","","","","",""
"","html-keyboard-response","58","246870","0.0-38.0-1.0","""event"",""trial"",""time""
""fullscreenenter"",""0"",""6033""
","
","
","""event"",""trial"",""time""
""fullscreenenter"",""0"",""6033""
","
","null","<p></p>","null","","","","","","","","","","","","","","","","","","","","","","","",""
"","do_recog","59","249564","0.0-39.0-0.0","""event"",""trial"",""time""
""fullscreenenter"",""0"",""6033""
","
","
","""event"",""trial"",""time""
""fullscreenenter"",""0"",""6033""
","
","1175.5","","","","","","","","53","","","","250","probe-191","","","","","1","[object Object]","119","2","1","","","",""
"","html-keyboard-response","60","250578","0.0-39.0-1.0","""event"",""trial"",""time""
""fullscreenenter"",""0"",""6033""
","
","
","""event"",""trial"",""time""
""fullscreenenter"",""0"",""6033""
","
","null","<p></p>","null","","","","","","","","","","","","","","","","","","","","","","","",""
"","do_trial","61","253963","0.0-40.0-0.0","""event"",""trial"",""time""
""fullscreenenter"",""0"",""6033""
","
","
","""event"",""trial"",""time""
""fullscreenenter"",""0"",""6033""
","
","816.7000000029802","","","","","","","","50","0,1,0","6","blank","251","null","0.1475607353890495","0.7028658798760432","0.3139044442899197","1","","","","","","","","",""
"","html-keyboard-response","62","254978","0.0-40.0-1.0","""event"",""trial"",""time""
""fullscreenenter"",""0"",""6033""
","
","
","""event"",""trial"",""time""
""fullscreenenter"",""0"",""6033""
","
","null","<p></p>","null","","","","","","","","","","","","","","","","","","","","","","","",""
"","do_trial","63","257901","0.0-41.0-0.0","""event"",""trial"",""time""
""fullscreenenter"",""0"",""6033""
","
","
","""event"",""trial"",""time""
""fullscreenenter"",""0"",""6033""
","
","350.1000000089407","","","","","","","","50","0,0,1","6","blank","252","null","0.24147067928692437","0.6861691547820827","0.3509600372348888","0","","","","","","","","",""
"","html-keyboard-response","64","258906","0.0-41.0-1.0","""event"",""trial"",""time""
""fullscreenenter"",""0"",""6033""
","
","
","""event"",""trial"",""time""
""fullscreenenter"",""0"",""6033""
","
","null","<p></p>","null","","","","","","","","","","","","","","","","","","","","","","","",""
"","do_trial","65","261933","0.0-42.0-0.0","""event"",""trial"",""time""
""fullscreenenter"",""0"",""6033""
","
","
","""event"",""trial"",""time""
""fullscreenenter"",""0"",""6033""
","
","451","","","","","","","","51","0,0,0","6","blank","253","null","0.21385444465144435","0.6893568656955114","0.28484462366869756","0","","","","","","","","",""
"","html-keyboard-response","66","262947","0.0-42.0-1.0","""event"",""trial"",""time""
""fullscreenenter"",""0"",""6033""
","
","
","""event"",""trial"",""time""
""fullscreenenter"",""0"",""6033""
","
","null","<p></p>","null","","","","","","","","","","","","","","","","","","","","","","","",""
"","do_trial","67","265535","0.0-43.0-0.0","""event"",""trial"",""time""
""fullscreenenter"",""0"",""6033""
","
","
","""event"",""trial"",""time""
""fullscreenenter"",""0"",""6033""
","
","18.599999994039536","","","","","","","","51","0,1,1","6","blank","254","null","0.18717791304764564","0.6497252922304729","0.354756897962127","1","","","","","","","","",""
"","html-keyboard-response","68","266540","0.0-43.0-1.0","""event"",""trial"",""time""
""fullscreenenter"",""0"",""6033""
","
","
","""event"",""trial"",""time""
""fullscreenenter"",""0"",""6033""
","
","null","<p></p>","null","","","","","","","","","","","","","","","","","","","","","","","",""
"","do_trial","69","270119","0.0-44.0-0.0","""event"",""trial"",""time""
""fullscreenenter"",""0"",""6033""
","
","
","""event"",""trial"",""time""
""fullscreenenter"",""0"",""6033""
","
","1016","","","","","","","","49","0,1,1","6","blank","255","null","0.08578282979111283","0.5813405812293206","0.4095435019654461","0","","","","","","","","",""
"","html-keyboard-response","70","271130","0.0-44.0-1.0","""event"",""trial"",""time""
""fullscreenenter"",""0"",""6033""
","
","
","""event"",""trial"",""time""
""fullscreenenter"",""0"",""6033""
","
","null","<p></p>","null","","","","","","","","","","","","","","","","","","","","","","","",""
"","do_trial","71","273934","0.0-45.0-0.0","""event"",""trial"",""time""
""fullscreenenter"",""0"",""6033""
","
","
","""event"",""trial"",""time""
""fullscreenenter"",""0"",""6033""
","
","242.20000000298023","","","","","","","","49","1,0,1","6","blank","256","null","0.2382728184627241","0.5869827408379521","0.4014033359944014","1","","","","","","","","",""
"","html-keyboard-response","72","274946","0.0-45.0-1.0","""event"",""trial"",""time""
""fullscreenenter"",""0"",""6033""
","
","
","""event"",""trial"",""time""
""fullscreenenter"",""0"",""6033""
","
","null","<p></p>","null","","","","","","","","","","","","","","","","","","","","","","","",""
"","do_trial","73","277579","0.0-46.0-0.0","""event"",""trial"",""time""
""fullscreenenter"",""0"",""6033""
","
","
","""event"",""trial"",""time""
""fullscreenenter"",""0"",""6033""
","
","54.5","","","","","","","","50","0,1,1","6","blank","257","null","0.16319084725488245","0.6212638156080474","0.18298186735632357","1","","","","","","","","",""
"","html-keyboard-response","74","278583","0.0-46.0-1.0","""event"",""trial"",""time""
""fullscreenenter"",""0"",""6033""
","
","
","""event"",""trial"",""time""
""fullscreenenter"",""0"",""6033""
","
","null","<p></p>","null","","","","","","","","","","","","","","","","","","","","","","","",""
"","do_recog","75","281111","0.0-47.0-0.0","""event"",""trial"",""time""
""fullscreenenter"",""0"",""6033""
","
","
","""event"",""trial"",""time""
""fullscreenenter"",""0"",""6033""
","
","1014.9000000059605","","","","","","","","55","","","","258","probe-51","","","","","1","[object Object]","194","4","0","","","",""
"","html-keyboard-response","76","282125","0.0-47.0-1.0","""event"",""trial"",""time""
""fullscreenenter"",""0"",""6033""
","
","
","""event"",""trial"",""time""
""fullscreenenter"",""0"",""6033""
","
","null","<p></p>","null","","","","","","","","","","","","","","","","","","","","","","","",""
"","do_trial","77","286816","0.0-48.0-0.0","""event"",""trial"",""time""
""fullscreenenter"",""0"",""6033""
","
","
","""event"",""trial"",""time""
""fullscreenenter"",""0"",""6033""
","
","2126.2000000029802","","","","","","","","50","1,0,0","6","blank","259","null","0.17478577715831498","0.5587882329471329","0.1314700589643475","0","","","","","","","","",""
"","html-keyboard-response","78","287821","0.0-48.0-1.0","""event"",""trial"",""time""
""fullscreenenter"",""0"",""6033""
","
","
","""event"",""trial"",""time""
""fullscreenenter"",""0"",""6033""
","
","null","<p></p>","null","","","","","","","","","","","","","","","","","","","","","","","",""
"","do_trial","79","290822","0.0-49.0-0.0","""event"",""trial"",""time""
""fullscreenenter"",""0"",""6033""
","
","
","""event"",""trial"",""time""
""fullscreenenter"",""0"",""6033""
","
","426.69999998807907","","","","","","","","49","0,1,0","6","blank","260","null","0.1986320585204081","0.7552160147131705","0.18419860135797728","0","","","","","","","","",""
"","html-keyboard-response","80","291833","0.0-49.0-1.0","""event"",""trial"",""time""
""fullscreenenter"",""0"",""6033""
","
","
","""event"",""trial"",""time""
""fullscreenenter"",""0"",""6033""
","
","null","<p></p>","null","","","","","","","","","","","","","","","","","","","","","","","",""
"","do_trial","81","295209","0.0-50.0-0.0","""event"",""trial"",""time""
""fullscreenenter"",""0"",""6033""
","
","
","""event"",""trial"",""time""
""fullscreenenter"",""0"",""6033""
","
","807.5","","","","","","","","51","0,1,1","6","blank","261","null","0.24531232391363053","0.6643707926714677","0.3931283756249957","1","","","","","","","","",""
"","html-keyboard-response","82","296212","0.0-50.0-1.0","""event"",""trial"",""time""
""fullscreenenter"",""0"",""6033""
","
","
","""event"",""trial"",""time""
""fullscreenenter"",""0"",""6033""
","
","null","<p></p>","null","","","","","","","","","","","","","","","","","","","","","","","",""
"","do_trial","83","299279","0.0-51.0-0.0","""event"",""trial"",""time""
""fullscreenenter"",""0"",""6033""
","
","
","""event"",""trial"",""time""
""fullscreenenter"",""0"",""6033""
","
","490.69999998807907","","","","","","","","50","1,0,0","6","blank","262","null","0.2413677937942853","0.7300420825444682","0.555110311196147","0","","","","","","","","",""
"","html-keyboard-response","84","300289","0.0-51.0-1.0","""event"",""trial"",""time""
""fullscreenenter"",""0"",""6033""
","
","
","""event"",""trial"",""time""
""fullscreenenter"",""0"",""6033""
","
","null","<p></p>","null","","","","","","","","","","","","","","","","","","","","","","","",""
"","do_trial","85","303144","0.0-52.0-0.0","""event"",""trial"",""time""
""fullscreenenter"",""0"",""6033""
","
","
","""event"",""trial"",""time""
""fullscreenenter"",""0"",""6033""
","
","285.20000000298023","","","","","","","","49","1,0,1","6","blank","263","null","0.1680554315091771","0.5205448571896104","0.360830280274034","1","","","","","","","","",""
"","html-keyboard-response","86","304155","0.0-52.0-1.0","""event"",""trial"",""time""
""fullscreenenter"",""0"",""6033""
","
","
","""event"",""trial"",""time""
""fullscreenenter"",""0"",""6033""
","
","null","<p></p>","null","","","","","","","","","","","","","","","","","","","","","","","",""
"","do_recog","87","307346","0.0-53.0-0.0","""event"",""trial"",""time""
""fullscreenenter"",""0"",""6033""
","
","
","""event"",""trial"",""time""
""fullscreenenter"",""0"",""6033""
","
","1676","","","","","","","","55","","","","264","probe-71","","","","","1","[object Object]","79","1","0","","","",""
"","html-keyboard-response","88","308354","0.0-53.0-1.0","""event"",""trial"",""time""
""fullscreenenter"",""0"",""6033""
","
","
","""event"",""trial"",""time""
""fullscreenenter"",""0"",""6033""
","
","null","<p></p>","null","","","","","","","","","","","","","","","","","","","","","","","",""
"","do_trial","89","311379","0.0-54.0-0.0","""event"",""trial"",""time""
""fullscreenenter"",""0"",""6033""
","
","
","""event"",""trial"",""time""
""fullscreenenter"",""0"",""6033""
","
","456.90000000596046","","","","","","","","50","0,1,0","6","blank","265","null","0.052500710082216726","0.4707181485344198","0.3401507162585529","1","","","","","","","","",""
"","html-keyboard-response","90","312387","0.0-54.0-1.0","""event"",""trial"",""time""
""fullscreenenter"",""0"",""6033""
","
","
","""event"",""trial"",""time""
""fullscreenenter"",""0"",""6033""
","
","null","<p></p>","null","","","","","","","","","","","","","","","","","","","","","","","",""
"","do_recog","91","315971","0.0-55.0-0.0","""event"",""trial"",""time""
""fullscreenenter"",""0"",""6033""
","
","
","""event"",""trial"",""time""
""fullscreenenter"",""0"",""6033""
","
","2072.2000000029802","","","","","","","","54","","","","266","probe-196","","","","","1","[object Object]","33","0","1","","","",""
"","html-keyboard-response","92","316976","0.0-55.0-1.0","""event"",""trial"",""time""
""fullscreenenter"",""0"",""6033""
","
","
","""event"",""trial"",""time""
""fullscreenenter"",""0"",""6033""
","
","null","<p></p>","null","","","","","","","","","","","","","","","","","","","","","","","",""
"","do_trial","93","320201","0.0-56.0-0.0","""event"",""trial"",""time""
""fullscreenenter"",""0"",""6033""
","
","
","""event"",""trial"",""time""
""fullscreenenter"",""0"",""6033""
","
","649.4000000059605","","","","","","","","50","1,1,1","6","blank","267","null","0.05460193598189159","0.4878139829538497","0.32110182288991396","1","","","","","","","","",""
"","html-keyboard-response","94","321205","0.0-56.0-1.0","""event"",""trial"",""time""
""fullscreenenter"",""0"",""6033""
","
","
","""event"",""trial"",""time""
""fullscreenenter"",""0"",""6033""
","
","null","<p></p>","null","","","","","","","","","","","","","","","","","","","","","","","",""
"","do_recog","95","324035","0.0-57.0-0.0","""event"",""trial"",""time""
""fullscreenenter"",""0"",""6033""
","
","
","""event"",""trial"",""time""
""fullscreenenter"",""0"",""6033""
","
","1321","","","","","","","","56","","","","268","probe-237","","","","","0","[object Object]","null","null","1","","","",""
"","html-keyboard-response","96","325037","0.0-57.0-1.0","""event"",""trial"",""time""
""fullscreenenter"",""0"",""6033""
","
","
","""event"",""trial"",""time""
""fullscreenenter"",""0"",""6033""
","
","null","<p></p>","null","","","","","","","","","","","","","","","","","","","","","","","",""
"","break","97","355417","0.0-58.0-0.0","""event"",""trial"",""time""
""fullscreenenter"",""0"",""6033""
","
","
","""event"",""trial"",""time""
""fullscreenenter"",""0"",""6033""
","
","30377.39999999106","<div class='center'><p>Time to take a quick break! You have 2 minutes to rest, but you can move on sooner if you'd like.</p><p> Press the <b>space bar</b> to continue.</p></div>","32","","","","","","","","","","","","","","","","","","","","","","","",""
"","do_trial","98","358631","0.0-58.0-1.0","""event"",""trial"",""time""
""fullscreenenter"",""0"",""6033""
","
","
","""event"",""trial"",""time""
""fullscreenenter"",""0"",""6033""
","
","639.7000000029802","","","","","","","","50","0,0,0","6","blank","269","null","0.06929212616010422","0.4296953271909578","0.32258034088593285","0","","","","","","","","",""
"","html-keyboard-response","99","359641","0.0-58.0-2.0","""event"",""trial"",""time""
""fullscreenenter"",""0"",""6033""
","
","
","""event"",""trial"",""time""
""fullscreenenter"",""0"",""6033""
","
","null","<p></p>","null","","","","","","","","","","","","","","","","","","","","","","","",""
"","do_trial","100","362245","0.0-59.0-0.0","""event"",""trial"",""time""
""fullscreenenter"",""0"",""6033""
","
","
","""event"",""trial"",""time""
""fullscreenenter"",""0"",""6033""
","
","11.899999991059303","","","","","","","","51","0,1,0","6","blank","270","null","0.07007871959241033","0.6133284224132152","0.3882550182026354","0","","","","","","","","",""
"","html-keyboard-response","101","363257","0.0-59.0-1.0","""event"",""trial"",""time""
""fullscreenenter"",""0"",""6033""
","
","
","""event"",""trial"",""time""
""fullscreenenter"",""0"",""6033""
","
","null","<p></p>","null","","","","","","","","","","","","","","","","","","","","","","","",""
"","do_trial","102","366084","0.0-60.0-0.0","""event"",""trial"",""time""
""fullscreenenter"",""0"",""6033""
","
","
","""event"",""trial"",""time""
""fullscreenenter"",""0"",""6033""
","
","267.59999999403954","","","","","","","","49","0,1,1","6","blank","271","null","0.17715283837411555","0.7652449223855731","0.27759797985339","0","","","","","","","","",""
"","html-keyboard-response","103","367090","0.0-60.0-1.0","""event"",""trial"",""time""
""fullscreenenter"",""0"",""6033""
","
","
","""event"",""trial"",""time""
""fullscreenenter"",""0"",""6033""
","
","null","<p></p>","null","","","","","","","","","","","","","","","","","","","","","","","",""
"","do_recog","104","370460","0.0-61.0-0.0","""event"",""trial"",""time""
""fullscreenenter"",""0"",""6033""
","
","
","""event"",""trial"",""time""
""fullscreenenter"",""0"",""6033""
","
","1853","","","","","","","","55","","","","272","probe-82","","","","","1","[object Object]","39","0","0","","","",""
"","html-keyboard-response","105","371472","0.0-61.0-1.0","""event"",""trial"",""time""
""fullscreenenter"",""0"",""6033""
","
","
","""event"",""trial"",""time""
""fullscreenenter"",""0"",""6033""
","
","null","<p></p>","null","","","","","","","","","","","","","","","","","","","","","","","",""
"","do_trial","106","374678","0.0-62.0-0.0","""event"",""trial"",""time""
""fullscreenenter"",""0"",""6033""
","
","
","""event"",""trial"",""time""
""fullscreenenter"",""0"",""6033""
","
","636.1000000089407","","","","","","","","50","0,1,0","6","blank","273","null","0.06951879112939524","0.6240250353011108","0.31521864241824216","1","","","","","","","","",""
"","html-keyboard-response","107","375686","0.0-62.0-1.0","""event"",""trial"",""time""
""fullscreenenter"",""0"",""6033""
","
","
","""event"",""trial"",""time""
""fullscreenenter"",""0"",""6033""
","
","null","<p></p>","null","","","","","","","","","","","","","","","","","","","","","","","",""
"","do_recog","108","379190","0.0-63.0-0.0","""event"",""trial"",""time""
""fullscreenenter"",""0"",""6033""
","
","
","""event"",""trial"",""time""
""fullscreenenter"",""0"",""6033""
","
","1987.0999999940395","","","","","","","","56","","","","274","probe-153","","","","","1","[object Object]","32","0","0","","","",""
"","html-keyboard-response","109","380197","0.0-63.0-1.0","""event"",""trial"",""time""
""fullscreenenter"",""0"",""6033""
","
","
","""event"",""trial"",""time""
""fullscreenenter"",""0"",""6033""
","
","null","<p></p>","null","","","","","","","","","","","","","","","","","","","","","","","",""
"","do_trial","110","383372","0.0-64.0-0.0","""event"",""trial"",""time""
""fullscreenenter"",""0"",""6033""
","
","
","""event"",""trial"",""time""
""fullscreenenter"",""0"",""6033""
","
","600.8999999910593","","","","","","","","50","1,1,0","6","blank","275","null","0.11437952388126123","0.6103788171189115","0.17762019208143628","1","","","","","","","","",""
"","html-keyboard-response","111","384376","0.0-64.0-1.0","""event"",""trial"",""time""
""fullscreenenter"",""0"",""6033""
","
","
","""event"",""trial"",""time""
""fullscreenenter"",""0"",""6033""
","
","null","<p></p>","null","","","","","","","","","","","","","","","","","","","","","","","",""
"","do_trial","112","387478","0.0-65.0-0.0","""event"",""trial"",""time""
""fullscreenenter"",""0"",""6033""
","
","
","""event"",""trial"",""time""
""fullscreenenter"",""0"",""6033""
","
","537.8999999910593","","","","","","","","49","0,1,1","6","blank","276","null","0.14248932609910545","0.5627069080953158","0.18303711841182177","0","","","","","","","","",""
"","html-keyboard-response","113","388489","0.0-65.0-1.0","""event"",""trial"",""time""
""fullscreenenter"",""0"",""6033""
","
","
","""event"",""trial"",""time""
""fullscreenenter"",""0"",""6033""
","
","null","<p></p>","null","","","","","","","","","","","","","","","","","","","","","","","",""
"","do_recog","114","391183","0.0-66.0-0.0","""event"",""trial"",""time""
""fullscreenenter"",""0"",""6033""
","
","
","""event"",""trial"",""time""
""fullscreenenter"",""0"",""6033""
","
","1179.2000000029802","","","","","","","","53","","","","277","probe-179","","","","","1","[object Object]","153","3","1","","","",""
"","html-keyboard-response","115","392188","0.0-66.0-1.0","""event"",""trial"",""time""
""fullscreenenter"",""0"",""6033""
","
","
","""event"",""trial"",""time""
""fullscreenenter"",""0"",""6033""
","
","null","<p></p>","null","","","","","","","","","","","","","","","","","","","","","","","",""
"","do_trial","116","395544","0.0-67.0-0.0","""event"",""trial"",""time""
""fullscreenenter"",""0"",""6033""
","
","
","""event"",""trial"",""time""
""fullscreenenter"",""0"",""6033""
","
","791.7000000029802","","","","","","","","50","0,0,0","6","blank","278","null","0.19691098829507941","0.5859719723567409","0.2842140653182923","0","","","","","","","","",""
"","html-keyboard-response","117","396557","0.0-67.0-1.0","""event"",""trial"",""time""
""fullscreenenter"",""0"",""6033""
","
","
","""event"",""trial"",""time""
""fullscreenenter"",""0"",""6033""
","
","null","<p></p>","null","","","","","","","","","","","","","","","","","","","","","","","",""
"","do_trial","118","399463","0.0-68.0-0.0","""event"",""trial"",""time""
""fullscreenenter"",""0"",""6033""
","
","
","""event"",""trial"",""time""
""fullscreenenter"",""0"",""6033""
","
","322.79999999701977","","","","","","","","51","0,1,0","6","blank","279","null","0.15799349493058765","0.5043729363509479","0.3446160773790018","0","","","","","","","","",""
"","html-keyboard-response","119","400465","0.0-68.0-1.0","""event"",""trial"",""time""
""fullscreenenter"",""0"",""6033""
","
","
","""event"",""trial"",""time""
""fullscreenenter"",""0"",""6033""
","
","null","<p></p>","null","","","","","","","","","","","","","","","","","","","","","","","",""
"","do_trial","120","403513","0.0-69.0-0.0","""event"",""trial"",""time""
""fullscreenenter"",""0"",""6033""
","
","
","""event"",""trial"",""time""
""fullscreenenter"",""0"",""6033""
","
","466.70000000298023","","","","","","","","49","0,1,0","6","blank","280","null","0.0506885243344386","0.5303308508775997","0.4300997194963889","0","","","","","","","","",""
"","html-keyboard-response","121","404518","0.0-69.0-1.0","""event"",""trial"",""time""
""fullscreenenter"",""0"",""6033""
","
","
","""event"",""trial"",""time""
""fullscreenenter"",""0"",""6033""
","
","null","<p></p>","null","","","","","","","","","","","","","","","","","","","","","","","",""
"","do_trial","122","407382","0.0-70.0-0.0","""event"",""trial"",""time""
""fullscreenenter"",""0"",""6033""
","
","
","""event"",""trial"",""time""
""fullscreenenter"",""0"",""6033""
","
","286.3999999910593","","","","","","","","50","0,1,0","6","blank","281","null","0.0613733066254863","0.6661420154690123","0.3794229163643413","1","","","","","","","","",""
"","html-keyboard-response","123","408393","0.0-70.0-1.0","""event"",""trial"",""time""
""fullscreenenter"",""0"",""6033""
","
","
","""event"",""trial"",""time""
""fullscreenenter"",""0"",""6033""
","
","null","<p></p>","null","","","","","","","","","","","","","","","","","","","","","","","",""
"","do_trial","124","411031","0.0-71.0-0.0","""event"",""trial"",""time""
""fullscreenenter"",""0"",""6033""
","
","
","""event"",""trial"",""time""
""fullscreenenter"",""0"",""6033""
","
","62.29999999701977","","","","","","","","51","0,1,0","6","blank","282","null","0.14898088075586655","0.4262736482277098","0.3863178982901224","0","","","","","","","","",""
"","html-keyboard-response","125","412043","0.0-71.0-1.0","""event"",""trial"",""time""
""fullscreenenter"",""0"",""6033""
","
","
","""event"",""trial"",""time""
""fullscreenenter"",""0"",""6033""
","
","null","<p></p>","null","","","","","","","","","","","","","","","","","","","","","","","",""
"","do_trial","126","414803","0.0-72.0-0.0","""event"",""trial"",""time""
""fullscreenenter"",""0"",""6033""
","
","
","""event"",""trial"",""time""
""fullscreenenter"",""0"",""6033""
","
","166.20000000298023","","","","","","","","51","0,0,0","6","blank","283","null","0.06556079891483217","0.33046219817059613","0.4671782095895086","0","","","","","","","","",""
"","html-keyboard-response","127","415809","0.0-72.0-1.0","""event"",""trial"",""time""
""fullscreenenter"",""0"",""6033""
","
","
","""event"",""trial"",""time""
""fullscreenenter"",""0"",""6033""
","
","null","<p></p>","null","","","","","","","","","","","","","","","","","","","","","","","",""
"","do_recog","128","419083","0.0-73.0-0.0","""event"",""trial"",""time""
""fullscreenenter"",""0"",""6033""
","
","
","""event"",""trial"",""time""
""fullscreenenter"",""0"",""6033""
","
","1764.5999999940395","","","","","","","","56","","","","284","probe-95","","","","","1","[object Object]","73","1","0","","","",""
"","html-keyboard-response","129","420094","0.0-73.0-1.0","""event"",""trial"",""time""
""fullscreenenter"",""0"",""6033""
","
","
","""event"",""trial"",""time""
""fullscreenenter"",""0"",""6033""
","
","null","<p></p>","null","","","","","","","","","","","","","","","","","","","","","","","",""
"","do_trial","130","423291","0.0-74.0-0.0","""event"",""trial"",""time""
""fullscreenenter"",""0"",""6033""
","
","
","""event"",""trial"",""time""
""fullscreenenter"",""0"",""6033""
","
","640.2000000029802","","","","","","","","50","0,0,1","6","blank","285","null","0.057701751490933546","0.27070914819055886","0.45330464452227276","0","","","","","","","","",""
"","html-keyboard-response","131","424296","0.0-74.0-1.0","""event"",""trial"",""time""
""fullscreenenter"",""0"",""6033""
","
","
","""event"",""trial"",""time""
""fullscreenenter"",""0"",""6033""
","
","null","<p></p>","null","","","","","","","","","","","","","","","","","","","","","","","",""
"","do_recog","132","427161","0.0-75.0-0.0","""event"",""trial"",""time""
""fullscreenenter"",""0"",""6033""
","
","
","""event"",""trial"",""time""
""fullscreenenter"",""0"",""6033""
","
","1355.2000000029802","","","","","","","","53","","","","286","probe-21","","","","","1","[object Object]","70","1","1","","","",""
"","html-keyboard-response","133","428172","0.0-75.0-1.0","""event"",""trial"",""time""
""fullscreenenter"",""0"",""6033""
","
","
","""event"",""trial"",""time""
""fullscreenenter"",""0"",""6033""
","
","null","<p></p>","null","","","","","","","","","","","","","","","","","","","","","","","",""
"","do_trial","134","431423","0.0-76.0-0.0","""event"",""trial"",""time""
""fullscreenenter"",""0"",""6033""
","
","
","""event"",""trial"",""time""
""fullscreenenter"",""0"",""6033""
","
","687","","","","","","","","49","0,0,1","6","blank","287","null","0.06450188225086997","0.4332639985976784","0.4749918297128074","0","","","","","","","","",""
"","html-keyboard-response","135","432426","0.0-76.0-1.0","""event"",""trial"",""time""
""fullscreenenter"",""0"",""6033""
","
","
","""event"",""trial"",""time""
""fullscreenenter"",""0"",""6033""
","
","null","<p></p>","null","","","","","","","","","","","","","","","","","","","","","","","",""
"","do_trial","136","435557","0.0-77.0-0.0","""event"",""trial"",""time""
""fullscreenenter"",""0"",""6033""
","
","
","""event"",""trial"",""time""
""fullscreenenter"",""0"",""6033""
","
","569.8999999910593","","","","","","","","51","0,1,0","6","blank","288","null","0.13029792199809315","0.5225965752175771","0.3570034945322445","0","","","","","","","","",""
"","html-keyboard-response","137","436562","0.0-77.0-1.0","""event"",""trial"",""time""
""fullscreenenter"",""0"",""6033""
","
","
","""event"",""trial"",""time""
""fullscreenenter"",""0"",""6033""
","
","null","<p></p>","null","","","","","","","","","","","","","","","","","","","","","","","",""
"","do_trial","138","439757","0.0-78.0-0.0","""event"",""trial"",""time""
""fullscreenenter"",""0"",""6033""
","
","
","""event"",""trial"",""time""
""fullscreenenter"",""0"",""6033""
","
","612.0999999940395","","","","","","","","50","0,1,0","6","blank","289","null","0.1515643956247774","0.4900896301627064","0.27922929739180036","1","","","","","","","","",""
"","html-keyboard-response","139","440759","0.0-78.0-1.0","""event"",""trial"",""time""
""fullscreenenter"",""0"",""6033""
","
","
","""event"",""trial"",""time""
""fullscreenenter"",""0"",""6033""
","
","null","<p></p>","null","","","","","","","","","","","","","","","","","","","","","","","",""
"","do_trial","140","443851","0.0-79.0-0.0","""event"",""trial"",""time""
""fullscreenenter"",""0"",""6033""
","
","
","""event"",""trial"",""time""
""fullscreenenter"",""0"",""6033""
","
","517.8999999910593","","","","","","","","49","0,0,0","6","blank","290","null","0.07248949580899469","0.5557167816074084","0.14890184518945973","0","","","","","","","","",""
"","html-keyboard-response","141","444859","0.0-79.0-1.0","""event"",""trial"",""time""
""fullscreenenter"",""0"",""6033""
","
","
","""event"",""trial"",""time""
""fullscreenenter"",""0"",""6033""
","
","null","<p></p>","null","","","","","","","","","","","","","","","","","","","","","","","",""
"","do_recog","142","447801","0.0-80.0-0.0","""event"",""trial"",""time""
""fullscreenenter"",""0"",""6033""
","
","
","""event"",""trial"",""time""
""fullscreenenter"",""0"",""6033""
","
","1426.8999999910593","","","","","","","","54","","","","291","probe-94","","","","","1","[object Object]","72","1","1","","","",""
"","html-keyboard-response","143","448805","0.0-80.0-1.0","""event"",""trial"",""time""
""fullscreenenter"",""0"",""6033""
","
","
","""event"",""trial"",""time""
""fullscreenenter"",""0"",""6033""
","
","null","<p></p>","null","","","","","","","","","","","","","","","","","","","","","","","",""
"","do_trial","144","452072","0.0-81.0-0.0","""event"",""trial"",""time""
""fullscreenenter"",""0"",""6033""
","
","
","""event"",""trial"",""time""
""fullscreenenter"",""0"",""6033""
","
","702.5999999940395","","","","","","","","49","0,1,0","6","blank","292","null","0.2850436270149509","0.7592631512233665","0.1260078199190873","0","","","","","","","","",""
"","html-keyboard-response","145","453083","0.0-81.0-1.0","""event"",""trial"",""time""
""fullscreenenter"",""0"",""6033""
","
","
","""event"",""trial"",""time""
""fullscreenenter"",""0"",""6033""
","
","null","<p></p>","null","","","","","","","","","","","","","","","","","","","","","","","",""
"","do_recog","146","455658","0.0-82.0-0.0","""event"",""trial"",""time""
""fullscreenenter"",""0"",""6033""
","
","
","""event"",""trial"",""time""
""fullscreenenter"",""0"",""6033""
","
","1062.699999988079","","","","","","","","56","","","","293","probe-232","","","","","0","[object Object]","null","null","1","","","",""
"","html-keyboard-response","147","456665","0.0-82.0-1.0","""event"",""trial"",""time""
""fullscreenenter"",""0"",""6033""
","
","
","""event"",""trial"",""time""
""fullscreenenter"",""0"",""6033""
","
","null","<p></p>","null","","","","","","","","","","","","","","","","","","","","","","","",""
"","do_trial","148","459889","0.0-83.0-0.0","""event"",""trial"",""time""
""fullscreenenter"",""0"",""6033""
","
","
","""event"",""trial"",""time""
""fullscreenenter"",""0"",""6033""
","
","653.2999999970198","","","","","","","","49","0,1,1","6","blank","294","null","0.3715587000105636","0.726812364638145","0.06556574094775193","0","","","","","","","","",""
"","html-keyboard-response","149","460897","0.0-83.0-1.0","""event"",""trial"",""time""
""fullscreenenter"",""0"",""6033""
","
","
","""event"",""trial"",""time""
""fullscreenenter"",""0"",""6033""
","
","null","<p></p>","null","","","","","","","","","","","","","","","","","","","","","","","",""
"","do_trial","150","464650","0.0-84.0-0.0","""event"",""trial"",""time""
""fullscreenenter"",""0"",""6033""
","
","
","""event"",""trial"",""time""
""fullscreenenter"",""0"",""6033""
","
","1184.8999999910593","","","","","","","","51","0,0,0","6","blank","295","null","0.4599470462209459","0.47805569723737285","0.06732867565994792","0","","","","","","","","",""
"","html-keyboard-response","151","465662","0.0-84.0-1.0","""event"",""trial"",""time""
""fullscreenenter"",""0"",""6033""
","
","
","""event"",""trial"",""time""
""fullscreenenter"",""0"",""6033""
","
","null","<p></p>","null","","","","","","","","","","","","","","","","","","","","","","","",""
"","do_trial","152","468746","0.0-85.0-0.0","""event"",""trial"",""time""
""fullscreenenter"",""0"",""6033""
","
","
","""event"",""trial"",""time""
""fullscreenenter"",""0"",""6033""
","
","510.20000000298023","","","","","","","","51","1,0,0","6","blank","296","null","0.6258124269719847","0.399050513591655","0.27026016301850886","0","","","","","","","","",""
"","html-keyboard-response","153","469750","0.0-85.0-1.0","""event"",""trial"",""time""
""fullscreenenter"",""0"",""6033""
","
","
","""event"",""trial"",""time""
""fullscreenenter"",""0"",""6033""
","
","null","<p></p>","null","","","","","","","","","","","","","","","","","","","","","","","",""
"","do_recog","154","472528","0.0-86.0-0.0","""event"",""trial"",""time""
""fullscreenenter"",""0"",""6033""
","
","
","""event"",""trial"",""time""
""fullscreenenter"",""0"",""6033""
","
","1264.699999988079","","","","","","","","56","","","","297","probe-98","","","","","1","[object Object]","38","0","0","","","",""
"","html-keyboard-response","155","473545","0.0-86.0-1.0","""event"",""trial"",""time""
""fullscreenenter"",""0"",""6033""
","
","
","""event"",""trial"",""time""
""fullscreenenter"",""0"",""6033""
","
","null","<p></p>","null","","","","","","","","","","","","","","","","","","","","","","","",""
"","do_trial","156","476684","0.0-87.0-0.0","""event"",""trial"",""time""
""fullscreenenter"",""0"",""6033""
","
","
","""event"",""trial"",""time""
""fullscreenenter"",""0"",""6033""
","
","573.2999999970198","","","","","","","","50","0,0,0","6","blank","298","null","0.5065375188292619","0.312738855392234","0.25640879116514015","0","","","","","","","","",""
"","html-keyboard-response","157","477693","0.0-87.0-1.0","""event"",""trial"",""time""
""fullscreenenter"",""0"",""6033""
","
","
","""event"",""trial"",""time""
""fullscreenenter"",""0"",""6033""
","
","null","<p></p>","null","","","","","","","","","","","","","","","","","","","","","","","",""
"","do_recog","158","480785","0.0-88.0-0.0","""event"",""trial"",""time""
""fullscreenenter"",""0"",""6033""
","
","
","""event"",""trial"",""time""
""fullscreenenter"",""0"",""6033""
","
","1573.0999999940395","","","","","","","","56","","","","299","probe-54","","","","","1","[object Object]","37","0","0","","","",""
"","html-keyboard-response","159","481792","0.0-88.0-1.0","""event"",""trial"",""time""
""fullscreenenter"",""0"",""6033""
","
","
","""event"",""trial"",""time""
""fullscreenenter"",""0"",""6033""
","
","null","<p></p>","null","","","","","","","","","","","","","","","","","","","","","","","",""
"","do_trial","160","484739","0.0-89.0-0.0","""event"",""trial"",""time""
""fullscreenenter"",""0"",""6033""
","
","
","""event"",""trial"",""time""
""fullscreenenter"",""0"",""6033""
","
","379.40000000596046","","","","","","","","51","0,0,0","6","blank","300","null","0.5486851812759644","0.10194210746493937","0.24924748999843666","0","","","","","","","","",""
"","html-keyboard-response","161","485741","0.0-89.0-1.0","""event"",""trial"",""time""
""fullscreenenter"",""0"",""6033""
","
","
","""event"",""trial"",""time""
""fullscreenenter"",""0"",""6033""
","
","null","<p></p>","null","","","","","","","","","","","","","","","","","","","","","","","",""
"","do_recog","162","488674","0.0-90.0-0.0","""event"",""trial"",""time""
""fullscreenenter"",""0"",""6033""
","
","
","""event"",""trial"",""time""
""fullscreenenter"",""0"",""6033""
","
","1417.2999999970198","","","","","","","","55","","","","301","probe-244","","","","","0","[object Object]","null","null","1","","","",""
"","html-keyboard-response","163","489691","0.0-90.0-1.0","""event"",""trial"",""time""
""fullscreenenter"",""0"",""6033""
","
","
","""event"",""trial"",""time""
""fullscreenenter"",""0"",""6033""
","
","null","<p></p>","null","","","","","","","","","","","","","","","","","","","","","","","",""
"","do_trial","164","492792","0.0-91.0-0.0","""event"",""trial"",""time""
""fullscreenenter"",""0"",""6033""
","
","
","""event"",""trial"",""time""
""fullscreenenter"",""0"",""6033""
","
","540.5999999940395","","","","","","","","49","1,0,0","6","blank","302","null","0.47686128453653204","0.13472231268977453","0.2515417527260891","1","","","","","","","","",""
"","html-keyboard-response","165","493798","0.0-91.0-1.0","""event"",""trial"",""time""
""fullscreenenter"",""0"",""6033""
","
","
","""event"",""trial"",""time""
""fullscreenenter"",""0"",""6033""
","
","null","<p></p>","null","","","","","","","","","","","","","","","","","","","","","","","",""
"","do_recog","166","496707","0.0-92.0-0.0","""event"",""trial"",""time""
""fullscreenenter"",""0"",""6033""
","
","
","""event"",""trial"",""time""
""fullscreenenter"",""0"",""6033""
","
","1391.6000000089407","","","","","","","","55","","","","303","probe-23","","","","","1","[object Object]","115","2","0","","","",""
"","html-keyboard-response","167","497719","0.0-92.0-1.0","""event"",""trial"",""time""
""fullscreenenter"",""0"",""6033""
","
","
","""event"",""trial"",""time""
""fullscreenenter"",""0"",""6033""
","
","null","<p></p>","null","","","","","","","","","","","","","","","","","","","","","","","",""
"","do_trial","168","500905","0.0-93.0-0.0","""event"",""trial"",""time""
""fullscreenenter"",""0"",""6033""
","
","
","""event"",""trial"",""time""
""fullscreenenter"",""0"",""6033""
","
","620.5","","","","","","","","49","1,0,0","6","blank","304","null","0.6863939214064042","0.156974394665043","0.28919898578273173","1","","","","","","","","",""
"","html-keyboard-response","169","501907","0.0-93.0-1.0","""event"",""trial"",""time""
""fullscreenenter"",""0"",""6033""
","
","
","""event"",""trial"",""time""
""fullscreenenter"",""0"",""6033""
","
","null","<p></p>","null","","","","","","","","","","","","","","","","","","","","","","","",""
"","do_trial","170","505157","0.0-94.0-0.0","""event"",""trial"",""time""
""fullscreenenter"",""0"",""6033""
","
","
","""event"",""trial"",""time""
""fullscreenenter"",""0"",""6033""
","
","664.7999999970198","","","","","","","","51","1,0,0","6","blank","305","null","0.5443312996598553","0.06421432631264523","0.17435819148409273","0","","","","","","","","",""
"","html-keyboard-response","171","506161","0.0-94.0-1.0","""event"",""trial"",""time""
""fullscreenenter"",""0"",""6033""
","
","
","""event"",""trial"",""time""
""fullscreenenter"",""0"",""6033""
","
","null","<p></p>","null","","","","","","","","","","","","","","","","","","","","","","","",""
"","do_recog","172","509450","0.0-95.0-0.0","""event"",""trial"",""time""
""fullscreenenter"",""0"",""6033""
","
","
","""event"",""trial"",""time""
""fullscreenenter"",""0"",""6033""
","
","1778.4000000059605","","","","","","","","56","","","","306","probe-160","","","","","1","[object Object]","159","3","0","","","",""
"","html-keyboard-response","173","510454","0.0-95.0-1.0","""event"",""trial"",""time""
""fullscreenenter"",""0"",""6033""
","
","
","""event"",""trial"",""time""
""fullscreenenter"",""0"",""6033""
","
","null","<p></p>","null","","","","","","","","","","","","","","","","","","","","","","","",""
"","do_trial","174","513591","0.0-96.0-0.0","""event"",""trial"",""time""
""fullscreenenter"",""0"",""6033""
","
","
","""event"",""trial"",""time""
""fullscreenenter"",""0"",""6033""
","
","562.7999999970198","","","","","","","","49","0,0,0","6","blank","307","null","0.5302784202713352","0.15271154082326047","0.2424010185770098","0","","","","","","","","",""
"","html-keyboard-response","175","514600","0.0-96.0-1.0","""event"",""trial"",""time""
""fullscreenenter"",""0"",""6033""
","
","
","""event"",""trial"",""time""
""fullscreenenter"",""0"",""6033""
","
","null","<p></p>","null","","","","","","","","","","","","","","","","","","","","","","","",""
"","do_trial","176","517996","0.0-97.0-0.0","""event"",""trial"",""time""
""fullscreenenter"",""0"",""6033""
","
","
","""event"",""trial"",""time""
""fullscreenenter"",""0"",""6033""
","
","826.2000000029802","","","","","","","","51","0,0,0","6","blank","308","null","0.49267895756699226","0.15009008734089355","0.23141398338474367","0","","","","","","","","",""
"","html-keyboard-response","177","519009","0.0-97.0-1.0","""event"",""trial"",""time""
""fullscreenenter"",""0"",""6033""
","
","
","""event"",""trial"",""time""
""fullscreenenter"",""0"",""6033""
","
","null","<p></p>","null","","","","","","","","","","","","","","","","","","","","","","","",""
"","break","178","585196","0.0-98.0-0.0","""event"",""trial"",""time""
""fullscreenenter"",""0"",""6033""
","
","
","""event"",""trial"",""time""
""fullscreenenter"",""0"",""6033""
","
","66185.5","<div class='center'><p>Time to take a quick break! You have 2 minutes to rest, but you can move on sooner if you'd like.</p><p> Press the <b>space bar</b> to continue.</p></div>","32","","","","","","","","","","","","","","","","","","","","","","","",""
"","do_trial","179","588826","0.0-98.0-1.0","""event"",""trial"",""time""
""fullscreenenter"",""0"",""6033""
","
","
","""event"",""trial"",""time""
""fullscreenenter"",""0"",""6033""
","
","1057.7999999970198","","","","","","","","50","1,0,0","6","blank","309","null","0.47577961599576457","0.10453147814009865","0.2753433278271836","0","","","","","","","","",""
"","html-keyboard-response","180","589832","0.0-98.0-2.0","""event"",""trial"",""time""
""fullscreenenter"",""0"",""6033""
","
","
","""event"",""trial"",""time""
""fullscreenenter"",""0"",""6033""
","
","null","<p></p>","null","","","","","","","","","","","","","","","","","","","","","","","",""
"","do_recog","181","592836","0.0-99.0-0.0","""event"",""trial"",""time""
""fullscreenenter"",""0"",""6033""
","
","
","""event"",""trial"",""time""
""fullscreenenter"",""0"",""6033""
","
","1497.7000000029802","","","","","","","","55","","","","310","probe-248","","","","","0","[object Object]","null","null","1","","","",""
"","html-keyboard-response","182","593846","0.0-99.0-1.0","""event"",""trial"",""time""
""fullscreenenter"",""0"",""6033""
","
","
","""event"",""trial"",""time""
""fullscreenenter"",""0"",""6033""
","
","null","<p></p>","null","","","","","","","","","","","","","","","","","","","","","","","",""
"","do_trial","183","596962","0.0-100.0-0.0","""event"",""trial"",""time""
""fullscreenenter"",""0"",""6033""
","
","
","""event"",""trial"",""time""
""fullscreenenter"",""0"",""6033""
","
","541.5999999940395","","","","","","","","50","1,0,0","6","blank","311","null","0.42539071981344817","0.1658490220312377","0.19958457663989332","0","","","","","","","","",""
"","html-keyboard-response","184","597971","0.0-100.0-1.0","""event"",""trial"",""time""
""fullscreenenter"",""0"",""6033""
","
","
","""event"",""trial"",""time""
""fullscreenenter"",""0"",""6033""
","
","null","<p></p>","null","","","","","","","","","","","","","","","","","","","","","","","",""
"","do_recog","185","601148","0.0-101.0-0.0","""event"",""trial"",""time""
""fullscreenenter"",""0"",""6033""
","
","
","""event"",""trial"",""time""
""fullscreenenter"",""0"",""6033""
","
","1667.699999988079","","","","","","","","54","","","","312","probe-14","","","","","1","[object Object]","113","2","1","","","",""
"","html-keyboard-response","186","602161","0.0-101.0-1.0","""event"",""trial"",""time""
""fullscreenenter"",""0"",""6033""
","
","
","""event"",""trial"",""time""
""fullscreenenter"",""0"",""6033""
","
","null","<p></p>","null","","","","","","","","","","","","","","","","","","","","","","","",""
"","do_trial","187","605061","0.0-102.0-0.0","""event"",""trial"",""time""
""fullscreenenter"",""0"",""6033""
","
","
","""event"",""trial"",""time""
""fullscreenenter"",""0"",""6033""
","
","333.5","","","","","","","","49","1,0,0","6","blank","313","null","0.4169194594841173","0.07438313917844008","0.34960393124549455","1","","","","","","","","",""
"","html-keyboard-response","188","606065","0.0-102.0-1.0","""event"",""trial"",""time""
""fullscreenenter"",""0"",""6033""
","
","
","""event"",""trial"",""time""
""fullscreenenter"",""0"",""6033""
","
","null","<p></p>","null","","","","","","","","","","","","","","","","","","","","","","","",""
"","do_trial","189","609293","0.0-103.0-0.0","""event"",""trial"",""time""
""fullscreenenter"",""0"",""6033""
","
","
","""event"",""trial"",""time""
""fullscreenenter"",""0"",""6033""
","
","648.7999999970198","","","","","","","","51","1,0,1","6","blank","314","null","0.5113150566526343","0.1057446886052867","0.4015753970500531","1","","","","","","","","",""
"","html-keyboard-response","190","610297","0.0-103.0-1.0","""event"",""trial"",""time""
""fullscreenenter"",""0"",""6033""
","
","
","""event"",""trial"",""time""
""fullscreenenter"",""0"",""6033""
","
","null","<p></p>","null","","","","","","","","","","","","","","","","","","","","","","","",""
"","do_trial","191","614110","0.0-104.0-0.0","""event"",""trial"",""time""
""fullscreenenter"",""0"",""6033""
","
","
","""event"",""trial"",""time""
""fullscreenenter"",""0"",""6033""
","
","1236.7000000029802","","","","","","","","50","0,0,0","6","blank","315","null","0.6504111361473186","0.11974682146398717","0.4294440062588087","0","","","","","","","","",""
"","html-keyboard-response","192","615112","0.0-104.0-1.0","""event"",""trial"",""time""
""fullscreenenter"",""0"",""6033""
","
","
","""event"",""trial"",""time""
""fullscreenenter"",""0"",""6033""
","
","null","<p></p>","null","","","","","","","","","","","","","","","","","","","","","","","",""
"","do_trial","193","618179","0.0-105.0-0.0","""event"",""trial"",""time""
""fullscreenenter"",""0"",""6033""
","
","
","""event"",""trial"",""time""
""fullscreenenter"",""0"",""6033""
","
","502.20000000298023","","","","","","","","49","1,0,0","6","blank","316","null","0.573275204942772","0.21758216658152305","0.43143377377860626","1","","","","","","","","",""
"","html-keyboard-response","194","619191","0.0-105.0-1.0","""event"",""trial"",""time""
""fullscreenenter"",""0"",""6033""
","
","
","""event"",""trial"",""time""
""fullscreenenter"",""0"",""6033""
","
","null","<p></p>","null","","","","","","","","","","","","","","","","","","","","","","","",""
"","do_trial","195","621760","0.0-106.0-0.0","""event"",""trial"",""time""
""fullscreenenter"",""0"",""6033""
","
","
","""event"",""trial"",""time""
""fullscreenenter"",""0"",""6033""
","
","0.09999999403953552","","","","","","","","51","1,0,0","6","blank","317","null","0.5266443140273175","0.2893779603173808","0.39081584269421066","0","","","","","","","","",""
"","html-keyboard-response","196","622763","0.0-106.0-1.0","""event"",""trial"",""time""
""fullscreenenter"",""0"",""6033""
","
","
","""event"",""trial"",""time""
""fullscreenenter"",""0"",""6033""
","
","null","<p></p>","null","","","","","","","","","","","","","","","","","","","","","","","",""
"","do_trial","197","625324","0.0-107.0-0.0","""event"",""trial"",""time""
""fullscreenenter"",""0"",""6033""
","
","
","""event"",""trial"",""time""
""fullscreenenter"",""0"",""6033""
","
","0.19999998807907104","","","","","","","","51","0,1,0","6","blank","318","null","0.5437362695157271","0.2713706650871706","0.3889581656265985","0","","","","","","","","",""
"","html-keyboard-response","198","626328","0.0-107.0-1.0","""event"",""trial"",""time""
""fullscreenenter"",""0"",""6033""
","
","
","""event"",""trial"",""time""
""fullscreenenter"",""0"",""6033""
","
","null","<p></p>","null","","","","","","","","","","","","","","","","","","","","","","","",""
"","do_recog","199","629441","0.0-108.0-0.0","""event"",""trial"",""time""
""fullscreenenter"",""0"",""6033""
","
","
","""event"",""trial"",""time""
""fullscreenenter"",""0"",""6033""
","
","1600.2999999970198","","","","","","","","54","","","","319","probe-30","","","","","1","[object Object]","76","1","1","","","",""
"","html-keyboard-response","200","630444","0.0-108.0-1.0","""event"",""trial"",""time""
""fullscreenenter"",""0"",""6033""
","
","
","""event"",""trial"",""time""
""fullscreenenter"",""0"",""6033""
","
","null","<p></p>","null","","","","","","","","","","","","","","","","","","","","","","","",""
"","do_trial","201","633526","0.0-109.0-0.0","""event"",""trial"",""time""
""fullscreenenter"",""0"",""6033""
","
","
","""event"",""trial"",""time""
""fullscreenenter"",""0"",""6033""
","
","517","","","","","","","","49","0,0,0","6","blank","320","null","0.5732024184753565","0.3462832408214958","0.37735132458912063","0","","","","","","","","",""
"","html-keyboard-response","202","634538","0.0-109.0-1.0","""event"",""trial"",""time""
""fullscreenenter"",""0"",""6033""
","
","
","""event"",""trial"",""time""
""fullscreenenter"",""0"",""6033""
","
","null","<p></p>","null","","","","","","","","","","","","","","","","","","","","","","","",""
"","do_trial","203","637156","0.0-110.0-0.0","""event"",""trial"",""time""
""fullscreenenter"",""0"",""6033""
","
","
","""event"",""trial"",""time""
""fullscreenenter"",""0"",""6033""
","
","45.69999998807907","","","","","","","","50","1,0,0","6","blank","321","null","0.4235634066580032","0.28148863998172025","0.19452682416991948","0","","","","","","","","",""
"","html-keyboard-response","204","638167","0.0-110.0-1.0","""event"",""trial"",""time""
""fullscreenenter"",""0"",""6033""
","
","
","""event"",""trial"",""time""
""fullscreenenter"",""0"",""6033""
","
","null","<p></p>","null","","","","","","","","","","","","","","","","","","","","","","","",""
"","do_trial","205","640922","0.0-111.0-0.0","""event"",""trial"",""time""
""fullscreenenter"",""0"",""6033""
","
","
","""event"",""trial"",""time""
""fullscreenenter"",""0"",""6033""
","
","181.5","","","","","","","","49","0,0,0","6","blank","322","null","0.42652616287780165","0.1277815950023126","0.3268629959005431","0","","","","","","","","",""
"","html-keyboard-response","206","641934","0.0-111.0-1.0","""event"",""trial"",""time""
""fullscreenenter"",""0"",""6033""
","
","
","""event"",""trial"",""time""
""fullscreenenter"",""0"",""6033""
","
","null","<p></p>","null","","","","","","","","","","","","","","","","","","","","","","","",""
"","do_trial","207","645074","0.0-112.0-0.0","""event"",""trial"",""time""
""fullscreenenter"",""0"",""6033""
","
","
","""event"",""trial"",""time""
""fullscreenenter"",""0"",""6033""
","
","574","","","","","","","","49","0,0,0","6","blank","323","null","0.5319741525130828","0.06484610230065213","0.39296449228466485","0","","","","","","","","",""
"","html-keyboard-response","208","646081","0.0-112.0-1.0","""event"",""trial"",""time""
""fullscreenenter"",""0"",""6033""
","
","
","""event"",""trial"",""time""
""fullscreenenter"",""0"",""6033""
","
","null","<p></p>","null","","","","","","","","","","","","","","","","","","","","","","","",""
"","do_trial","209","649136","0.0-113.0-0.0","""event"",""trial"",""time""
""fullscreenenter"",""0"",""6033""
","
","
","""event"",""trial"",""time""
""fullscreenenter"",""0"",""6033""
","
","459.6000000089407","","","","","","","","50","1,0,1","6","blank","324","null","0.6134216165245668","0.10971364328847233","0.33033714567153416","0","","","","","","","","",""
"","html-keyboard-response","210","650140","0.0-113.0-1.0","""event"",""trial"",""time""
""fullscreenenter"",""0"",""6033""
","
","
","""event"",""trial"",""time""
""fullscreenenter"",""0"",""6033""
","
","null","<p></p>","null","","","","","","","","","","","","","","","","","","","","","","","",""
"","do_trial","211","653029","0.0-114.0-0.0","""event"",""trial"",""time""
""fullscreenenter"",""0"",""6033""
","
","
","""event"",""trial"",""time""
""fullscreenenter"",""0"",""6033""
","
","324.59999999403954","","","","","","","","51","1,1,0","6","blank","325","null","0.6043558541899665","0.10823708992520077","0.29220259685201777","0","","","","","","","","",""
"","html-keyboard-response","212","654033","0.0-114.0-1.0","""event"",""trial"",""time""
""fullscreenenter"",""0"",""6033""
","
","
","""event"",""trial"",""time""
""fullscreenenter"",""0"",""6033""
","
","null","<p></p>","null","","","","","","","","","","","","","","","","","","","","","","","",""
"","do_trial","213","656922","0.0-115.0-0.0","""event"",""trial"",""time""
""fullscreenenter"",""0"",""6033""
","
","
","""event"",""trial"",""time""
""fullscreenenter"",""0"",""6033""
","
","317.1000000089407","","","","","","","","49","0,0,1","6","blank","326","null","0.6024725428001688","0.10657680287743582","0.2573424097078808","0","","","","","","","","",""
"","html-keyboard-response","214","657930","0.0-115.0-1.0","""event"",""trial"",""time""
""fullscreenenter"",""0"",""6033""
","
","
","""event"",""trial"",""time""
""fullscreenenter"",""0"",""6033""
","
","null","<p></p>","null","","","","","","","","","","","","","","","","","","","","","","","",""
"","do_recog","215","660816","0.0-116.0-0.0","""event"",""trial"",""time""
""fullscreenenter"",""0"",""6033""
","
","
","""event"",""trial"",""time""
""fullscreenenter"",""0"",""6033""
","
","1376.7000000029802","","","","","","","","54","","","","327","probe-09","","","","","1","[object Object]","74","1","1","","","",""
"","html-keyboard-response","216","661828","0.0-116.0-1.0","""event"",""trial"",""time""
""fullscreenenter"",""0"",""6033""
","
","
","""event"",""trial"",""time""
""fullscreenenter"",""0"",""6033""
","
","null","<p></p>","null","","","","","","","","","","","","","","","","","","","","","","","",""
"","do_trial","217","664414","0.0-117.0-0.0","""event"",""trial"",""time""
""fullscreenenter"",""0"",""6033""
","
","
","""event"",""trial"",""time""
""fullscreenenter"",""0"",""6033""
","
","0.19999998807907104","","","","","","","","50","1,0,0","6","blank","328","null","0.6762565448035055","0.07624371596723124","0.19668432664180008","0","","","","","","","","",""
"","html-keyboard-response","218","665418","0.0-117.0-1.0","""event"",""trial"",""time""
""fullscreenenter"",""0"",""6033""
","
","
","""event"",""trial"",""time""
""fullscreenenter"",""0"",""6033""
","
","null","<p></p>","null","","","","","","","","","","","","","","","","","","","","","","","",""
"","do_trial","219","668034","0.0-118.0-0.0","""event"",""trial"",""time""
""fullscreenenter"",""0"",""6033""
","
","
","""event"",""trial"",""time""
""fullscreenenter"",""0"",""6033""
","
","46.8999999910593","","","","","","","","50","1,1,0","6","blank","329","null","0.6831320214290965","0.15497379896713084","0.28747126650840465","1","","","","","","","","",""
"","html-keyboard-response","220","669036","0.0-118.0-1.0","""event"",""trial"",""time""
""fullscreenenter"",""0"",""6033""
","
","
","""event"",""trial"",""time""
""fullscreenenter"",""0"",""6033""
","
","null","<p></p>","null","","","","","","","","","","","","","","","","","","","","","","","",""
"","do_trial","221","671848","0.0-119.0-0.0","""event"",""trial"",""time""
""fullscreenenter"",""0"",""6033""
","
","
","""event"",""trial"",""time""
""fullscreenenter"",""0"",""6033""
","
","238.29999999701977","","","","","","","","50","1,0,0","6","blank","330","null","0.654159730738177","0.09861111316363909","0.3731654211395544","0","","","","","","","","",""
"","html-keyboard-response","222","672853","0.0-119.0-1.0","""event"",""trial"",""time""
""fullscreenenter"",""0"",""6033""
","
","
","""event"",""trial"",""time""
""fullscreenenter"",""0"",""6033""
","
","null","<p></p>","null","","","","","","","","","","","","","","","","","","","","","","","",""
"","do_recog","223","675780","0.0-120.0-0.0","""event"",""trial"",""time""
""fullscreenenter"",""0"",""6033""
","
","
","""event"",""trial"",""time""
""fullscreenenter"",""0"",""6033""
","
","1417.9000000059605","","","","","","","","55","","","","331","probe-252","","","","","0","[object Object]","null","null","1","","","",""
"","html-keyboard-response","224","676791","0.0-120.0-1.0","""event"",""trial"",""time""
""fullscreenenter"",""0"",""6033""
","
","
","""event"",""trial"",""time""
""fullscreenenter"",""0"",""6033""
","
","null","<p></p>","null","","","","","","","","","","","","","","","","","","","","","","","",""
"","do_trial","225","679758","0.0-121.0-0.0","""event"",""trial"",""time""
""fullscreenenter"",""0"",""6033""
","
","
","""event"",""trial"",""time""
""fullscreenenter"",""0"",""6033""
","
","389.5","","","","","","","","50","0,1,0","6","blank","332","null","0.5241791301038345","0.10472588084977828","0.38011588096345506","1","","","","","","","","",""
"","html-keyboard-response","226","680763","0.0-121.0-1.0","""event"",""trial"",""time""
""fullscreenenter"",""0"",""6033""
","
","
","""event"",""trial"",""time""
""fullscreenenter"",""0"",""6033""
","
","null","<p></p>","null","","","","","","","","","","","","","","","","","","","","","","","",""
"","do_trial","227","683427","0.0-122.0-0.0","""event"",""trial"",""time""
""fullscreenenter"",""0"",""6033""
","
","
","""event"",""trial"",""time""
""fullscreenenter"",""0"",""6033""
","
","82.3999999910593","","","","","","","","50","1,1,0","6","blank","333","null","0.7330242423951461","0.09090101313644723","0.2698462475365859","1","","","","","","","","",""
"","html-keyboard-response","228","684434","0.0-122.0-1.0","""event"",""trial"",""time""
""fullscreenenter"",""0"",""6033""
","
","
","""event"",""trial"",""time""
""fullscreenenter"",""0"",""6033""
","
","null","<p></p>","null","","","","","","","","","","","","","","","","","","","","","","","",""
"","do_trial","229","687206","0.0-123.0-0.0","""event"",""trial"",""time""
""fullscreenenter"",""0"",""6033""
","
","
","""event"",""trial"",""time""
""fullscreenenter"",""0"",""6033""
","
","197.40000000596046","","","","","","","","51","1,0,0","6","blank","334","null","0.595733702648634","0.07491109370848975","0.2173667185386124","0","","","","","","","","",""
"","html-keyboard-response","230","688210","0.0-123.0-1.0","""event"",""trial"",""time""
""fullscreenenter"",""0"",""6033""
","
","
","""event"",""trial"",""time""
""fullscreenenter"",""0"",""6033""
","
","null","<p></p>","null","","","","","","","","","","","","","","","","","","","","","","","",""
"","do_recog","231","691110","0.0-124.0-0.0","""event"",""trial"",""time""
""fullscreenenter"",""0"",""6033""
","
","
","""event"",""trial"",""time""
""fullscreenenter"",""0"",""6033""
","
","1392.0999999940395","","","","","","","","55","","","","335","probe-150","","","","","1","[object Object]","77","1","0","","","",""
"","html-keyboard-response","232","692112","0.0-124.0-1.0","""event"",""trial"",""time""
""fullscreenenter"",""0"",""6033""
","
","
","""event"",""trial"",""time""
""fullscreenenter"",""0"",""6033""
","
","null","<p></p>","null","","","","","","","","","","","","","","","","","","","","","","","",""
"","do_trial","233","695586","0.0-125.0-0.0","""event"",""trial"",""time""
""fullscreenenter"",""0"",""6033""
","
","
","""event"",""trial"",""time""
""fullscreenenter"",""0"",""6033""
","
","888.2999999970198","","","","","","","","50","0,0,1","6","blank","336","null","0.4129144336408578","0.05800905834006237","0.230654926738409","0","","","","","","","","",""
"","html-keyboard-response","234","696587","0.0-125.0-1.0","""event"",""trial"",""time""
""fullscreenenter"",""0"",""6033""
","
","
","""event"",""trial"",""time""
""fullscreenenter"",""0"",""6033""
","
","null","<p></p>","null","","","","","","","","","","","","","","","","","","","","","","","",""
"","do_recog","235","700247","0.0-126.0-0.0","""event"",""trial"",""time""
""fullscreenenter"",""0"",""6033""
","
","
","""event"",""trial"",""time""
""fullscreenenter"",""0"",""6033""
","
","2137.1000000089407","","","","","","","","55","","","","337","probe-55","","","","","1","[object Object]","117","2","0","","","",""
"","html-keyboard-response","236","701258","0.0-126.0-1.0","""event"",""trial"",""time""
""fullscreenenter"",""0"",""6033""
","
","
","""event"",""trial"",""time""
""fullscreenenter"",""0"",""6033""
","
","null","<p></p>","null","","","","","","","","","","","","","","","","","","","","","","","",""
"","do_trial","237","705718","0.0-127.0-0.0","""event"",""trial"",""time""
""fullscreenenter"",""0"",""6033""
","
","
","""event"",""trial"",""time""
""fullscreenenter"",""0"",""6033""
","
","1889.7000000029802","","","","","","","","49","1,0,0","6","blank","338","null","0.6004933034835166","0.0731598645495151","0.33917737465539455","1","","","","","","","","",""
"","html-keyboard-response","238","706720","0.0-127.0-1.0","""event"",""trial"",""time""
""fullscreenenter"",""0"",""6033""
","
","
","""event"",""trial"",""time""
""fullscreenenter"",""0"",""6033""
","
","null","<p></p>","null","","","","","","","","","","","","","","","","","","","","","","","",""
"","do_trial","239","709404","0.0-128.0-0.0","""event"",""trial"",""time""
""fullscreenenter"",""0"",""6033""
","
","
","""event"",""trial"",""time""
""fullscreenenter"",""0"",""6033""
","
","110.29999999701977","","","","","","","","49","1,0,1","6","blank","339","null","0.665838802916593","0.1219981688655285","0.4246223488788462","1","","","","","","","","",""
"","html-keyboard-response","240","710410","0.0-128.0-1.0","""event"",""trial"",""time""
""fullscreenenter"",""0"",""6033""
","
","
","""event"",""trial"",""time""
""fullscreenenter"",""0"",""6033""
","
","null","<p></p>","null","","","","","","","","","","","","","","","","","","","","","","","",""
"","do_trial","241","713297","0.0-129.0-0.0","""event"",""trial"",""time""
""fullscreenenter"",""0"",""6033""
","
","
","""event"",""trial"",""time""
""fullscreenenter"",""0"",""6033""
","
","305.79999999701977","","","","","","","","50","1,0,0","6","blank","340","null","0.8401368608761038","0.1423352845951159","0.35738509124554574","0","","","","","","","","",""
"","html-keyboard-response","242","714299","0.0-129.0-1.0","""event"",""trial"",""time""
""fullscreenenter"",""0"",""6033""
","
","
","""event"",""trial"",""time""
""fullscreenenter"",""0"",""6033""
","
","null","<p></p>","null","","","","","","","","","","","","","","","","","","","","","","","",""
"","do_recog","243","716939","0.0-130.0-0.0","""event"",""trial"",""time""
""fullscreenenter"",""0"",""6033""
","
","
","""event"",""trial"",""time""
""fullscreenenter"",""0"",""6033""
","
","1120.0999999940395","","","","","","","","54","","","","341","probe-171","","","","","1","[object Object]","158","3","1","","","",""
"","html-keyboard-response","244","717947","0.0-130.0-1.0","""event"",""trial"",""time""
""fullscreenenter"",""0"",""6033""
","
","
","""event"",""trial"",""time""
""fullscreenenter"",""0"",""6033""
","
","null","<p></p>","null","","","","","","","","","","","","","","","","","","","","","","","",""
"","do_trial","245","720584","0.0-131.0-0.0","""event"",""trial"",""time""
""fullscreenenter"",""0"",""6033""
","
","
","""event"",""trial"",""time""
""fullscreenenter"",""0"",""6033""
","
","55.400000005960464","","","","","","","","50","1,0,0","6","blank","342","null","0.6490077814102924","0.05489269428322561","0.27932318882220186","0","","","","","","","","",""
"","html-keyboard-response","246","721597","0.0-131.0-1.0","""event"",""trial"",""time""
""fullscreenenter"",""0"",""6033""
","
","
","""event"",""trial"",""time""
""fullscreenenter"",""0"",""6033""
","
","null","<p></p>","null","","","","","","","","","","","","","","","","","","","","","","","",""
"","do_trial","247","724164","0.0-132.0-0.0","""event"",""trial"",""time""
""fullscreenenter"",""0"",""6033""
","
","
","""event"",""trial"",""time""
""fullscreenenter"",""0"",""6033""
","
","0","","","","","","","","51","1,1,0","6","blank","343","null","0.7124485966622269","0.11971652545797642","0.2012277079059971","0","","","","","","","","",""
"","html-keyboard-response","248","725169","0.0-132.0-1.0","""event"",""trial"",""time""
""fullscreenenter"",""0"",""6033""
","
","
","""event"",""trial"",""time""
""fullscreenenter"",""0"",""6033""
","
","null","<p></p>","null","","","","","","","","","","","","","","","","","","","","","","","",""
"","do_trial","249","727803","0.0-133.0-0.0","""event"",""trial"",""time""
""fullscreenenter"",""0"",""6033""
","
","
","""event"",""trial"",""time""
""fullscreenenter"",""0"",""6033""
","
","67.20000000298023","","","","","","","","50","0,0,1","6","blank","344","null","0.6372382340475017","0.10571554845717945","0.24164762851641267","0","","","","","","","","",""
"","html-keyboard-response","250","728811","0.0-133.0-1.0","""event"",""trial"",""time""
""fullscreenenter"",""0"",""6033""
","
","
","""event"",""trial"",""time""
""fullscreenenter"",""0"",""6033""
","
","null","<p></p>","null","","","","","","","","","","","","","","","","","","","","","","","",""
"","do_trial","251","731850","0.0-134.0-0.0","""event"",""trial"",""time""
""fullscreenenter"",""0"",""6033""
","
","
","""event"",""trial"",""time""
""fullscreenenter"",""0"",""6033""
","
","471.30000001192093","","","","","","","","49","1,0,0","6","blank","345","null","0.6303676041068639","0.11927654187947692","0.26246285894326393","1","","","","","","","","",""
"","html-keyboard-response","252","732866","0.0-134.0-1.0","""event"",""trial"",""time""
""fullscreenenter"",""0"",""6033""
","
","
","""event"",""trial"",""time""
""fullscreenenter"",""0"",""6033""
","
","null","<p></p>","null","","","","","","","","","","","","","","","","","","","","","","","",""
"","do_trial","253","735429","0.0-135.0-0.0","""event"",""trial"",""time""
""fullscreenenter"",""0"",""6033""
","
","
","""event"",""trial"",""time""
""fullscreenenter"",""0"",""6033""
","
","0.09999999403953552","","","","","","","","50","1,0,0","6","blank","346","null","0.643748744108086","0.11621945718200768","0.3190063594377968","0","","","","","","","","",""
"","html-keyboard-response","254","736445","0.0-135.0-1.0","""event"",""trial"",""time""
""fullscreenenter"",""0"",""6033""
","
","
","""event"",""trial"",""time""
""fullscreenenter"",""0"",""6033""
","
","null","<p></p>","null","","","","","","","","","","","","","","","","","","","","","","","",""
"","do_trial","255","739576","0.0-136.0-0.0","""event"",""trial"",""time""
""fullscreenenter"",""0"",""6033""
","
","
","""event"",""trial"",""time""
""fullscreenenter"",""0"",""6033""
","
","549.2000000029802","","","","","","","","51","1,0,1","6","blank","347","null","0.6079703481385005","0.09114211537288265","0.42874376898670996","1","","","","","","","","",""
"","html-keyboard-response","256","740579","0.0-136.0-1.0","""event"",""trial"",""time""
""fullscreenenter"",""0"",""6033""
","
","
","""event"",""trial"",""time""
""fullscreenenter"",""0"",""6033""
","
","null","<p></p>","null","","","","","","","","","","","","","","","","","","","","","","","",""
"","do_recog","257","743841","0.0-137.0-0.0","""event"",""trial"",""time""
""fullscreenenter"",""0"",""6033""
","
","
","""event"",""trial"",""time""
""fullscreenenter"",""0"",""6033""
","
","1747.2000000029802","","","","","","","","54","","","","348","probe-206","","","","","1","[object Object]","190","4","1","","","",""
"","html-keyboard-response","258","744846","0.0-137.0-1.0","""event"",""trial"",""time""
""fullscreenenter"",""0"",""6033""
","
","
","""event"",""trial"",""time""
""fullscreenenter"",""0"",""6033""
","
","null","<p></p>","null","","","","","","","","","","","","","","","","","","","","","","","",""
"","break","259","831938","0.0-138.0-0.0","""event"",""trial"",""time""
""fullscreenenter"",""0"",""6033""
","
","
","""event"",""trial"",""time""
""fullscreenenter"",""0"",""6033""
","
","87090.5","<div class='center'><p>Time to take a quick break! You have 2 minutes to rest, but you can move on sooner if you'd like.</p><p> Press the <b>space bar</b> to continue.</p></div>","32","","","","","","","","","","","","","","","","","","","","","","","",""
"","do_trial","260","836298","0.0-138.0-1.0","""event"",""trial"",""time""
""fullscreenenter"",""0"",""6033""
","
","
","""event"",""trial"",""time""
""fullscreenenter"",""0"",""6033""
","
","1780.4000000059605","","","","","","","","49","0,0,1","6","blank","349","null","0.38341124057437176","0.2312721526764913","0.3733627566271712","0","","","","","","","","",""
"","html-keyboard-response","261","837311","0.0-138.0-2.0","""event"",""trial"",""time""
""fullscreenenter"",""0"",""6033""
","
","
","""event"",""trial"",""time""
""fullscreenenter"",""0"",""6033""
","
","null","<p></p>","null","","","","","","","","","","","","","","","","","","","","","","","",""
"","do_trial","262","840284","0.0-139.0-0.0","""event"",""trial"",""time""
""fullscreenenter"",""0"",""6033""
","
","
","""event"",""trial"",""time""
""fullscreenenter"",""0"",""6033""
","
","408.90000000596046","","","","","","","","49","0,0,0","6","blank","350","null","0.29782219489736295","0.22987524774632118","0.3775135283829201","0","","","","","","","","",""
"","html-keyboard-response","263","841287","0.0-139.0-1.0","""event"",""trial"",""time""
""fullscreenenter"",""0"",""6033""
","
","
","""event"",""trial"",""time""
""fullscreenenter"",""0"",""6033""
","
","null","<p></p>","null","","","","","","","","","","","","","","","","","","","","","","","",""
"","do_trial","264","844048","0.0-140.0-0.0","""event"",""trial"",""time""
""fullscreenenter"",""0"",""6033""
","
","
","""event"",""trial"",""time""
""fullscreenenter"",""0"",""6033""
","
","179.20000000298023","","","","","","","","50","0,0,1","6","blank","351","null","0.25808746895447976","0.2766536749041349","0.3803875558212586","0","","","","","","","","",""
"","html-keyboard-response","265","845053","0.0-140.0-1.0","""event"",""trial"",""time""
""fullscreenenter"",""0"",""6033""
","
","
","""event"",""trial"",""time""
""fullscreenenter"",""0"",""6033""
","
","null","<p></p>","null","","","","","","","","","","","","","","","","","","","","","","","",""
"","do_trial","266","847655","0.0-141.0-0.0","""event"",""trial"",""time""
""fullscreenenter"",""0"",""6033""
","
","
","""event"",""trial"",""time""
""fullscreenenter"",""0"",""6033""
","
","28.599999994039536","","","","","","","","50","0,0,1","6","blank","352","null","0.05274055488509362","0.2826759966934408","0.4053124201908094","0","","","","","","","","",""
"","html-keyboard-response","267","848664","0.0-141.0-1.0","""event"",""trial"",""time""
""fullscreenenter"",""0"",""6033""
","
","
","""event"",""trial"",""time""
""fullscreenenter"",""0"",""6033""
","
","null","<p></p>","null","","","","","","","","","","","","","","","","","","","","","","","",""
"","do_trial","268","851421","0.0-142.0-0.0","""event"",""trial"",""time""
""fullscreenenter"",""0"",""6033""
","
","
","""event"",""trial"",""time""
""fullscreenenter"",""0"",""6033""
","
","192.59999999403954","","","","","","","","51","0,1,0","6","blank","353","null","0.16402268084366878","0.3326996265645469","0.4771740510887596","0","","","","","","","","",""
"","html-keyboard-response","269","852429","0.0-142.0-1.0","""event"",""trial"",""time""
""fullscreenenter"",""0"",""6033""
","
","
","""event"",""trial"",""time""
""fullscreenenter"",""0"",""6033""
","
","null","<p></p>","null","","","","","","","","","","","","","","","","","","","","","","","",""
"","do_trial","270","855081","0.0-143.0-0.0","""event"",""trial"",""time""
""fullscreenenter"",""0"",""6033""
","
","
","""event"",""trial"",""time""
""fullscreenenter"",""0"",""6033""
","
","89.29999999701977","","","","","","","","50","0,0,1","6","blank","354","null","0.13467684830532375","0.31299715011344853","0.44617466676710477","0","","","","","","","","",""
"","html-keyboard-response","271","856084","0.0-143.0-1.0","""event"",""trial"",""time""
""fullscreenenter"",""0"",""6033""
","
","
","""event"",""trial"",""time""
""fullscreenenter"",""0"",""6033""
","
","null","<p></p>","null","","","","","","","","","","","","","","","","","","","","","","","",""
"","do_trial","272","858665","0.0-144.0-0.0","""event"",""trial"",""time""
""fullscreenenter"",""0"",""6033""
","
","
","""event"",""trial"",""time""
""fullscreenenter"",""0"",""6033""
","
","0.5999999940395355","","","","","","","","51","0,0,0","6","blank","355","null","0.07949812897496723","0.26966717001883916","0.3755795971938079","0","","","","","","","","",""
"","html-keyboard-response","273","859676","0.0-144.0-1.0","""event"",""trial"",""time""
""fullscreenenter"",""0"",""6033""
","
","
","""event"",""trial"",""time""
""fullscreenenter"",""0"",""6033""
","
","null","<p></p>","null","","","","","","","","","","","","","","","","","","","","","","","",""
"","do_recog","274","862981","0.0-145.0-0.0","""event"",""trial"",""time""
""fullscreenenter"",""0"",""6033""
","
","
","""event"",""trial"",""time""
""fullscreenenter"",""0"",""6033""
","
","1795.7000000029802","","","","","","","","54","","","","356","probe-227","","","","","1","[object Object]","152","3","1","","","",""
"","html-keyboard-response","275","863984","0.0-145.0-1.0","""event"",""trial"",""time""
""fullscreenenter"",""0"",""6033""
","
","
","""event"",""trial"",""time""
""fullscreenenter"",""0"",""6033""
","
","null","<p></p>","null","","","","","","","","","","","","","","","","","","","","","","","",""
"","do_trial","276","866764","0.0-146.0-0.0","""event"",""trial"",""time""
""fullscreenenter"",""0"",""6033""
","
","
","""event"",""trial"",""time""
""fullscreenenter"",""0"",""6033""
","
","197","","","","","","","","51","0,1,0","6","blank","357","null","0.13911148207863794","0.24692785803043385","0.556844614675133","0","","","","","","","","",""
