"success","trial_type","trial_index","time_elapsed","internal_node_id","interactions","blur_events","focus_events","fullscreenenter_events","fullscreenexit_events","rt","stimulus","key_press","subject_id","participant_id","age","gender","prompt","response","choice_outcomes","context_n","context_img_id","trial_n","probe_img_id","pR_red","pR_white","pR_black","outcome","is_valid","image_to_show","probed_trial","probed_context","correct","probe","probed_trial_n","probed_context_n","context_im"
"true","fullscreen","0","31822","0.0-0.0","""event"",""trial"",""time""
""fullscreenenter"",""0"",""30851""
","
","
","""event"",""trial"",""time""
""fullscreenenter"",""0"",""30851""
","
","","","","","","","","","","","","","","","","","","","","","","","","","","",""
"","pavlovia","1","31829","0.0-1.0","""event"",""trial"",""time""
""fullscreenenter"",""0"",""30851""
","
","
","""event"",""trial"",""time""
""fullscreenenter"",""0"",""30851""
","
","","","","","","","","","","","","","","","","","","","","","","","","","","",""
"","welc_back","2","41643","0.0-2.0","""event"",""trial"",""time""
""fullscreenenter"",""0"",""30851""
","
","
","""event"",""trial"",""time""
""fullscreenenter"",""0"",""30851""
","
","null","run_exp/static/audio/clip_29_welcome_back.m4a","null","1118","1149","17","Female","<div class='center'><p>Welcome to day 2!</p><p> Yesterday, you were the head captain of a pirate ship. You asked your fellow pirates to rob other ships of their gold across six different islands.</p></div>","","","","","","","","","","","","","","","","","","",""
"","html-keyboard-response","3","42551","0.0-3.0","""event"",""trial"",""time""
""fullscreenenter"",""0"",""30851""
","
","
","""event"",""trial"",""time""
""fullscreenenter"",""0"",""30851""
","
","905.1999999880791","<div class='center'><p>Welcome to day 2!</p><p> Yesterday, you were the head captain of a pirate ship. You asked your fellow pirates to rob other ships of their gold across six different islands.</p><p><b>[Press the space bar to continue]</b></p></div>","32","","","","","","","","","","","","","","","","","","","","","","","",""
"","day_1_summary_goal","4","59733","0.0-4.0","""event"",""trial"",""time""
""fullscreenenter"",""0"",""30851""
","
","
","""event"",""trial"",""time""
""fullscreenenter"",""0"",""30851""
","
","null","run_exp/static/audio/clip_30_goal_of_game.m4a","null","","","","","<div class='center'><p>Today, like yesterday, you get to pick which pirate you want to rob the next ship.</p><p>If the pirate is successful in robbing a ship, you get gold coins that look like this: </p><p><img src='run_exp/static/images/tutorial/reward.png' height='150'></p><p> If they were not successful in robbing the ship, then you will get no gold coins and you'll see a big red x like this: </p><p><img src='run_exp/static/images/tutorial/reward_no.png' height='150'></p></div>","","","","","","","","","","","","","","","","","","",""
"","html-keyboard-response","5","60203","0.0-5.0","""event"",""trial"",""time""
""fullscreenenter"",""0"",""30851""
","
","
","""event"",""trial"",""time""
""fullscreenenter"",""0"",""30851""
","
","467.19999998807907","<div class='center'><p>Today, like yesterday, you get to pick which pirate you want to rob the next ship.</p><p>If the pirate is successful in robbing a ship, you get gold coins that look like this: </p><p><img src='run_exp/static/images/tutorial/reward.png' height='150'></p><p> If they were not successful in robbing the ship, then you will get no gold coins and you'll see a big red x like this: </p><p><img src='run_exp/static/images/tutorial/reward_no.png' height='150'></p><p><b>[Press the space bar to continue]</b></p></div>","32","","","","","","","","","","","","","","","","","","","","","","","",""
"","day_1_summary_pick","6","74880","0.0-6.0","""event"",""trial"",""time""
""fullscreenenter"",""0"",""30851""
","
","
","""event"",""trial"",""time""
""fullscreenenter"",""0"",""30851""
","
","null","run_exp/static/audio/clip_31_how_to_pick_a_pirate.m4a","null","","","","","<div class='center'><p>Also, just like yesterday, you will use the 1,2,3 keys on your keyboard to pick a pirate. Press '1' to choose red beard, '2' to choose white beard, and '3' to choose black beard . You only have 3 seconds to pick a pirate, so please make a choice quickly!</p></div>","","","","","","","","","","","","","","","","","","",""
"","html-keyboard-response","7","75290","0.0-7.0","""event"",""trial"",""time""
""fullscreenenter"",""0"",""30851""
","
","
","""event"",""trial"",""time""
""fullscreenenter"",""0"",""30851""
","
","409","<div class='center'><p>Also, just like yesterday, you will use the 1,2,3 keys on your keyboard to pick a pirate. Press '1' to choose red beard, '2' to choose white beard, and '3' to choose black beard . You only have 3 seconds to pick a pirate, so please make a choice quickly!</p><p><b>[Press the space bar to continue]</b></p></div>","32","","","","","","","","","","","","","","","","","","","","","","","",""
"","test_phase_begin","8","91371","0.0-8.0","""event"",""trial"",""time""
""fullscreenenter"",""0"",""30851""
","
","
","""event"",""trial"",""time""
""fullscreenenter"",""0"",""30851""
","
","null","run_exp/static/audio/clip_32_final_place.m4a","null","","","","","<div class='center'><p>You’ve arrived at the final island of your journey! Unfortunately, it’s very foggy out, so you won’t be able to see it in the distance like the other islands you've visited.</p><p>You’ll still be deciding which pirate you want to rob a ship like before. However, because of the fog, you also won’t be able to see the ship.</p><p>This means you do not have to remember the ships you rob on this island.</p><p>Unlike yesterday, you won't be visiting multiple islands today. You will stay on this island for the entire game. This game will last ~30 minutes.</p></div>","","","","","","","","","","","","","","","","","","",""
"","html-keyboard-response","9","101732","0.0-9.0","""event"",""trial"",""time""
""fullscreenenter"",""0"",""30851""
","
","
","""event"",""trial"",""time""
""fullscreenenter"",""0"",""30851""
","
","10359.5","<div class='center'><p>You’ve arrived at the final island of your journey! Unfortunately, it’s very foggy out, so you won’t be able to see it in the distance like the other islands you've visited.</p><p>You’ll still be deciding which pirate you want to rob a ship like before. However, because of the fog, you also won’t be able to see the ship.</p><p>This means you do not have to remember the ships you rob on this island.</p><p>Unlike yesterday, you won't be visiting multiple islands today. You will stay on this island for the entire game. This game will last ~30 minutes.</p><p><b>[Press the space bar to continue]</b></p></div>","32","","","","","","","","","","","","","","","","","","","","","","","",""
"","explain_probe_1","10","109423","0.0-10.0","""event"",""trial"",""time""
""fullscreenenter"",""0"",""30851""
","
","
","""event"",""trial"",""time""
""fullscreenenter"",""0"",""30851""
","
","null","run_exp/static/audio/clip_33_recognition_1.m4a","null","","","","","<div class='center'><p> Sometimes you’ll be shown a ship, and you will be asked if you saw this ship on a past island.</p><p> Here is an example of what you will see.</p><p><img src='run_exp/static/images/tutorial/example_recog_trial.png' height='500'></p></div>","","","","","","","","","","","","","","","","","","",""
"","html-keyboard-response","11","114122","0.0-11.0","""event"",""trial"",""time""
""fullscreenenter"",""0"",""30851""
","
","
","""event"",""trial"",""time""
""fullscreenenter"",""0"",""30851""
","
","4696.199999988079","<div class='center'><p> Sometimes you’ll be shown a ship, and you will be asked if you saw this ship on a past island.</p><p> Here is an example of what you will see.</p><p><img src='run_exp/static/images/tutorial/example_recog_trial.png' height='500'></p><p><b>[Press the space bar to continue]</b></p></div>","32","","","","","","","","","","","","","","","","","","","","","","","",""
"","explain_probe_2","12","127352","0.0-12.0","""event"",""trial"",""time""
""fullscreenenter"",""0"",""30851""
","
","
","""event"",""trial"",""time""
""fullscreenenter"",""0"",""30851""
","
","null","run_exp/static/audio/clip_34_recognition_2.m4a","null","","","","","<div class='center'><p> You will press the 5, 6, 7, 8 keys on your keyboard to respond.</p><p>If you are sure you saw the ship, press <b>5</b> on your keyboard.</p><p> If you think you saw it before but aren't sure, then press <b>6</b>.</p><p> If you think you have <b>not</b> seen it before but aren't sure, then press <b>7</b>.</p><p> If you are sure you did <b>not</b> see the ship before, then press <b>8</b>.</p><p><img src='run_exp/static/images/tutorial/example_recog_trial.png' height='500'></p></div>","","","","","","","","","","","","","","","","","","",""
"","html-keyboard-response","13","128877","0.0-13.0","""event"",""trial"",""time""
""fullscreenenter"",""0"",""30851""
","
","
","""event"",""trial"",""time""
""fullscreenenter"",""0"",""30851""
","
","1523.5","<div class='center'><p> You will press the 5, 6, 7, 8 keys on your keyboard to respond.</p><p>If you are sure you saw the ship, press <b>5</b> on your keyboard.</p><p> If you think you saw it before but aren't sure, then press <b>6</b>.</p><p> If you think you have <b>not</b> seen it before but aren't sure, then press <b>7</b>.</p><p> If you are sure you did <b>not</b> see the ship before, then press <b>8</b>.</p><p><img src='run_exp/static/images/tutorial/example_recog_trial.png' height='500'></p><p><b>[Press the space bar to continue]</b></p></div>","32","","","","","","","","","","","","","","","","","","","","","","","",""
"","explain_outcome","14","132668","0.0-14.0","""event"",""trial"",""time""
""fullscreenenter"",""0"",""30851""
","
","
","""event"",""trial"",""time""
""fullscreenenter"",""0"",""30851""
","
","null","run_exp/static/audio/clip_35_recognition_3.m4a","null","","","","","<div class='center'><p> If you remember correctly, then you’ll get a gold coin like this: </p><p><img src='run_exp/static/images/tutorial/reward_small.png' height='200'></p><p>If you do not remember correctly, then you'll see a red x like this: </p><p><img src='run_exp/static/images/tutorial/reward_no.png' height='200'></p><p>Importantly, when you are shown a ship, take the time to remind yourself which island you saw it on. This will help you in the next part of the study.</p></div>","","","","","","","","","","","","","","","","","","",""
"","html-keyboard-response","15","133356","0.0-15.0","""event"",""trial"",""time""
""fullscreenenter"",""0"",""30851""
","
","
","""event"",""trial"",""time""
""fullscreenenter"",""0"",""30851""
","
","687","<div class='center'><p> If you remember correctly, then you’ll get a gold coin like this: </p><p><img src='run_exp/static/images/tutorial/reward_small.png' height='200'></p><p>If you do not remember correctly, then you'll see a red x like this: </p><p><img src='run_exp/static/images/tutorial/reward_no.png' height='200'></p><p>Importantly, when you are shown a ship, take the time to remind yourself which island you saw it on. This will help you in the next part of the study.</p><p><b>[Press the space bar to continue]</b></p></div>","32","","","","","","","","","","","","","","","","","","","","","","","",""
"","begin_test_phase","16","149167","0.0-16.0","""event"",""trial"",""time""
""fullscreenenter"",""0"",""30851""
","
","
","""event"",""trial"",""time""
""fullscreenenter"",""0"",""30851""
","
","null","run_exp/static/audio/clip_36_begin_final.m4a","null","","","","","<div class='center'><p>Let's go over the important points again. Your job is to: </p><p>1. Pick the pirate who is best at robbing ships and will bring you back gold coins. </p><p>2. Correctly remember whether or not you saw a ship before. If you did see the ship before, remind yourself on which island you saw it. </p></div>","","","","","","","","","","","","","","","","","","",""
"","html-keyboard-response","17","151282","0.0-17.0","""event"",""trial"",""time""
""fullscreenenter"",""0"",""30851""
","
","
","""event"",""trial"",""time""
""fullscreenenter"",""0"",""30851""
","
","2077.400000035763","<div class='center'><p>Let's go over the important points again. Your job is to: </p><p>1. Pick the pirate who is best at robbing ships and will bring you back gold coins. </p><p>2. Correctly remember whether or not you saw a ship before. If you did see the ship before, remind yourself on which island you saw it. </p><p><b>[Press the space bar to continue]</b></p></div>","32","","","","","","","","","","","","","","","","","","","","","","","",""
"","do_welcome","18","155294","0.0-18.0","""event"",""trial"",""time""
""fullscreenenter"",""0"",""30851""
","
","
","""event"",""trial"",""time""
""fullscreenenter"",""0"",""30851""
","
","null","","","","","","","","null","","","","","","","","","","","","","","","","","",""
"","do_trial","19","158611","0.0-19.0-0.0","""event"",""trial"",""time""
""fullscreenenter"",""0"",""30851""
","
","
","""event"",""trial"",""time""
""fullscreenenter"",""0"",""30851""
","
","770.2999999523163","","","","","","","","49","0,1,0","6","blank","230","null","0.08060465222067312","0.7070332651757545","0.191268429233448","0","","","","","","","","",""
"","html-keyboard-response","20","159617","0.0-19.0-1.0","""event"",""trial"",""time""
""fullscreenenter"",""0"",""30851""
","
","
","""event"",""trial"",""time""
""fullscreenenter"",""0"",""30851""
","
","null","<p></p>","null","","","","","","","","","","","","","","","","","","","","","","","",""
"","do_trial","21","163651","0.0-20.0-0.0","""event"",""trial"",""time""
""fullscreenenter"",""0"",""30851""
","
","
","""event"",""trial"",""time""
""fullscreenenter"",""0"",""30851""
","
","1481.699999988079","","","","","","","","49","0,0,1","6","blank","231","null","0.09738247534914671","0.6362448889654916","0.32469248889361046","0","","","","","","","","",""
"","html-keyboard-response","22","164657","0.0-20.0-1.0","""event"",""trial"",""time""
""fullscreenenter"",""0"",""30851""
","
","
","""event"",""trial"",""time""
""fullscreenenter"",""0"",""30851""
","
","null","<p></p>","null","","","","","","","","","","","","","","","","","","","","","","","",""
"","do_trial","23","167565","0.0-21.0-0.0","""event"",""trial"",""time""
""fullscreenenter"",""0"",""30851""
","
","
","""event"",""trial"",""time""
""fullscreenenter"",""0"",""30851""
","
","354.30000001192093","","","","","","","","49","0,0,1","6","blank","232","null","0.2584912888310055","0.5294468979536633","0.3886579485840025","0","","","","","","","","",""
"","html-keyboard-response","24","168568","0.0-21.0-1.0","""event"",""trial"",""time""
""fullscreenenter"",""0"",""30851""
","
","
","""event"",""trial"",""time""
""fullscreenenter"",""0"",""30851""
","
","null","<p></p>","null","","","","","","","","","","","","","","","","","","","","","","","",""
"","do_trial","25","171395","0.0-22.0-0.0","""event"",""trial"",""time""
""fullscreenenter"",""0"",""30851""
","
","
","""event"",""trial"",""time""
""fullscreenenter"",""0"",""30851""
","
","276.30000001192093","","","","","","","","49","0,1,0","6","blank","233","null","0.21055339467876122","0.6135684309457817","0.38068916594830193","0","","","","","","","","",""
"","html-keyboard-response","26","172400","0.0-22.0-1.0","""event"",""trial"",""time""
""fullscreenenter"",""0"",""30851""
","
","
","""event"",""trial"",""time""
""fullscreenenter"",""0"",""30851""
","
","null","<p></p>","null","","","","","","","","","","","","","","","","","","","","","","","",""
"","do_trial","27","175211","0.0-23.0-0.0","""event"",""trial"",""time""
""fullscreenenter"",""0"",""30851""
","
","
","""event"",""trial"",""time""
""fullscreenenter"",""0"",""30851""
","
","259.9000000357628","","","","","","","","49","0,1,0","6","blank","234","null","0.19257245120284505","0.4825385969601989","0.2771708165129342","0","","","","","","","","",""
"","html-keyboard-response","28","176215","0.0-23.0-1.0","""event"",""trial"",""time""
""fullscreenenter"",""0"",""30851""
","
","
","""event"",""trial"",""time""
""fullscreenenter"",""0"",""30851""
","
","null","<p></p>","null","","","","","","","","","","","","","","","","","","","","","","","",""
"","do_trial","29","179044","0.0-24.0-0.0","""event"",""trial"",""time""
""fullscreenenter"",""0"",""30851""
","
","
","""event"",""trial"",""time""
""fullscreenenter"",""0"",""30851""
","
","272.9000000357628","","","","","","","","50","1,0,0","6","blank","235","null","0.24976544333263256","0.5171097871094681","0.21495309396454484","0","","","","","","","","",""
"","html-keyboard-response","30","180049","0.0-24.0-1.0","""event"",""trial"",""time""
""fullscreenenter"",""0"",""30851""
","
","
","""event"",""trial"",""time""
""fullscreenenter"",""0"",""30851""
","
","null","<p></p>","null","","","","","","","","","","","","","","","","","","","","","","","",""
"","do_trial","31","182845","0.0-25.0-0.0","""event"",""trial"",""time""
""fullscreenenter"",""0"",""30851""
","
","
","""event"",""trial"",""time""
""fullscreenenter"",""0"",""30851""
","
","242","","","","","","","","50","0,1,1","6","blank","236","null","0.05072426335438841","0.5415632791348766","0.20868611859662675","1","","","","","","","","",""
"","html-keyboard-response","32","183848","0.0-25.0-1.0","""event"",""trial"",""time""
""fullscreenenter"",""0"",""30851""
","
","
","""event"",""trial"",""time""
""fullscreenenter"",""0"",""30851""
","
","null","<p></p>","null","","","","","","","","","","","","","","","","","","","","","","","",""
"","do_trial","33","186885","0.0-26.0-0.0","""event"",""trial"",""time""
""fullscreenenter"",""0"",""30851""
","
","
","""event"",""trial"",""time""
""fullscreenenter"",""0"",""30851""
","
","484.4000000357628","","","","","","","","50","1,1,0","6","blank","237","null","0.15952367180655072","0.5452134859403325","0.1853173899088749","1","","","","","","","","",""
"","html-keyboard-response","34","187889","0.0-26.0-1.0","""event"",""trial"",""time""
""fullscreenenter"",""0"",""30851""
","
","
","""event"",""trial"",""time""
""fullscreenenter"",""0"",""30851""
","
","null","<p></p>","null","","","","","","","","","","","","","","","","","","","","","","","",""
"","do_trial","35","190696","0.0-27.0-0.0","""event"",""trial"",""time""
""fullscreenenter"",""0"",""30851""
","
","
","""event"",""trial"",""time""
""fullscreenenter"",""0"",""30851""
","
","254.69999998807907","","","","","","","","50","0,1,0","6","blank","238","null","0.07008743228074991","0.5607762946229472","0.05184609093339024","1","","","","","","","","",""
"","html-keyboard-response","36","191700","0.0-27.0-1.0","""event"",""trial"",""time""
""fullscreenenter"",""0"",""30851""
","
","
","""event"",""trial"",""time""
""fullscreenenter"",""0"",""30851""
","
","null","<p></p>","null","","","","","","","","","","","","","","","","","","","","","","","",""
"","do_trial","37","194695","0.0-28.0-0.0","""event"",""trial"",""time""
""fullscreenenter"",""0"",""30851""
","
","
","""event"",""trial"",""time""
""fullscreenenter"",""0"",""30851""
","
","441.10000002384186","","","","","","","","50","0,0,0","6","blank","239","null","0.1935929249407918","0.5769017670743137","0.13022648575693382","0","","","","","","","","",""
"","html-keyboard-response","38","195699","0.0-28.0-1.0","""event"",""trial"",""time""
""fullscreenenter"",""0"",""30851""
","
","
","""event"",""trial"",""time""
""fullscreenenter"",""0"",""30851""
","
","null","<p></p>","null","","","","","","","","","","","","","","","","","","","","","","","",""
"","do_trial","39","198735","0.0-29.0-0.0","""event"",""trial"",""time""
""fullscreenenter"",""0"",""30851""
","
","
","""event"",""trial"",""time""
""fullscreenenter"",""0"",""30851""
","
","489.5999999642372","","","","","","","","51","0,0,0","6","blank","240","null","0.288238636876559","0.49388725116793886","0.08644486421425183","0","","","","","","","","",""
"","html-keyboard-response","40","199738","0.0-29.0-1.0","""event"",""trial"",""time""
""fullscreenenter"",""0"",""30851""
","
","
","""event"",""trial"",""time""
""fullscreenenter"",""0"",""30851""
","
","null","<p></p>","null","","","","","","","","","","","","","","","","","","","","","","","",""
"","do_trial","41","202770","0.0-30.0-0.0","""event"",""trial"",""time""
""fullscreenenter"",""0"",""30851""
","
","
","""event"",""trial"",""time""
""fullscreenenter"",""0"",""30851""
","
","479.5","","","","","","","","51","0,0,0","6","blank","241","null","0.27765872629010435","0.5353395462091072","0.08292794092166483","0","","","","","","","","",""
"","html-keyboard-response","42","203774","0.0-30.0-1.0","""event"",""trial"",""time""
""fullscreenenter"",""0"",""30851""
","
","
","""event"",""trial"",""time""
""fullscreenenter"",""0"",""30851""
","
","null","<p></p>","null","","","","","","","","","","","","","","","","","","","","","","","",""
"","do_recog","43","209786","0.0-31.0-0.0","""event"",""trial"",""time""
""fullscreenenter"",""0"",""30851""
","
","
","""event"",""trial"",""time""
""fullscreenenter"",""0"",""30851""
","
","null","","","","","","","","null","","","","242","probe-114","","","","","1","[object Object]","34","0","0","","","",""
"","html-keyboard-response","44","210794","0.0-31.0-1.0","""event"",""trial"",""time""
""fullscreenenter"",""0"",""30851""
","
","
","""event"",""trial"",""time""
""fullscreenenter"",""0"",""30851""
","
","null","<p></p>","null","","","","","","","","","","","","","","","","","","","","","","","",""
"","do_trial","45","215352","0.0-32.0-0.0","""event"",""trial"",""time""
""fullscreenenter"",""0"",""30851""
","
","
","""event"",""trial"",""time""
""fullscreenenter"",""0"",""30851""
","
","1997.8999999761581","","","","","","","","51","1,1,0","6","blank","243","null","0.36333131015967524","0.438240874410862","0.06679732264972453","0","","","","","","","","",""
"","html-keyboard-response","46","216355","0.0-32.0-1.0","""event"",""trial"",""time""
""fullscreenenter"",""0"",""30851""
","
","
","""event"",""trial"",""time""
""fullscreenenter"",""0"",""30851""
","
","null","<p></p>","null","","","","","","","","","","","","","","","","","","","","","","","",""
"","do_trial","47","219228","0.0-33.0-0.0","""event"",""trial"",""time""
""fullscreenenter"",""0"",""30851""
","
","
","""event"",""trial"",""time""
""fullscreenenter"",""0"",""30851""
","
","315.60000002384186","","","","","","","","51","0,0,0","6","blank","244","null","0.44250074253676297","0.3477055359226616","0.11779599528508726","0","","","","","","","","",""
"","html-keyboard-response","48","220235","0.0-33.0-1.0","""event"",""trial"",""time""
""fullscreenenter"",""0"",""30851""
","
","
","""event"",""trial"",""time""
""fullscreenenter"",""0"",""30851""
","
","null","<p></p>","null","","","","","","","","","","","","","","","","","","","","","","","",""
"","do_trial","49","223043","0.0-34.0-0.0","""event"",""trial"",""time""
""fullscreenenter"",""0"",""30851""
","
","
","""event"",""trial"",""time""
""fullscreenenter"",""0"",""30851""
","
","251.60000002384186","","","","","","","","50","0,0,0","6","blank","245","null","0.5574505371867656","0.3380371036902387","0.200151185296864","0","","","","","","","","",""
"","html-keyboard-response","50","224048","0.0-34.0-1.0","""event"",""trial"",""time""
""fullscreenenter"",""0"",""30851""
","
","
","""event"",""trial"",""time""
""fullscreenenter"",""0"",""30851""
","
","null","<p></p>","null","","","","","","","","","","","","","","","","","","","","","","","",""
"","do_trial","51","226899","0.0-35.0-0.0","""event"",""trial"",""time""
""fullscreenenter"",""0"",""30851""
","
","
","""event"",""trial"",""time""
""fullscreenenter"",""0"",""30851""
","
","301.89999997615814","","","","","","","","50","1,0,0","6","blank","246","null","0.5255707503163872","0.39814576012255454","0.1811463989105719","0","","","","","","","","",""
"","html-keyboard-response","52","227903","0.0-35.0-1.0","""event"",""trial"",""time""
""fullscreenenter"",""0"",""30851""
","
","
","""event"",""trial"",""time""
""fullscreenenter"",""0"",""30851""
","
","null","<p></p>","null","","","","","","","","","","","","","","","","","","","","","","","",""
"","do_trial","53","230778","0.0-36.0-0.0","""event"",""trial"",""time""
""fullscreenenter"",""0"",""30851""
","
","
","""event"",""trial"",""time""
""fullscreenenter"",""0"",""30851""
","
","322.7999999523163","","","","","","","","50","0,0,0","6","blank","247","null","0.5742428916597423","0.37150494805159795","0.0734412810732329","0","","","","","","","","",""
"","html-keyboard-response","54","231784","0.0-36.0-1.0","""event"",""trial"",""time""
""fullscreenenter"",""0"",""30851""
","
","
","""event"",""trial"",""time""
""fullscreenenter"",""0"",""30851""
","
","null","<p></p>","null","","","","","","","","","","","","","","","","","","","","","","","",""
"","do_trial","55","234585","0.0-37.0-0.0","""event"",""trial"",""time""
""fullscreenenter"",""0"",""30851""
","
","
","""event"",""trial"",""time""
""fullscreenenter"",""0"",""30851""
","
","250.5","","","","","","","","50","1,0,1","6","blank","248","null","0.649173655232685","0.3770218962069416","0.12788033070352625","0","","","","","","","","",""
"","html-keyboard-response","56","235589","0.0-37.0-1.0","""event"",""trial"",""time""
""fullscreenenter"",""0"",""30851""
","
","
","""event"",""trial"",""time""
""fullscreenenter"",""0"",""30851""
","
","null","<p></p>","null","","","","","","","","","","","","","","","","","","","","","","","",""
"","do_recog","57","239664","0.0-38.0-0.0","""event"",""trial"",""time""
""fullscreenenter"",""0"",""30851""
","
","
","""event"",""trial"",""time""
""fullscreenenter"",""0"",""30851""
","
","2565.100000023842","","","","","","","","54","","","","249","probe-40","","","","","1","[object Object]","39","0","1","","","",""
"","html-keyboard-response","58","240670","0.0-38.0-1.0","""event"",""trial"",""time""
""fullscreenenter"",""0"",""30851""
","
","
","""event"",""trial"",""time""
""fullscreenenter"",""0"",""30851""
","
","null","<p></p>","null","","","","","","","","","","","","","","","","","","","","","","","",""
"","do_trial","59","244485","0.0-39.0-0.0","""event"",""trial"",""time""
""fullscreenenter"",""0"",""30851""
","
","
","""event"",""trial"",""time""
""fullscreenenter"",""0"",""30851""
","
","1267.8999999761581","","","","","","","","50","1,1,1","6","blank","250","null","0.8113030047702399","0.32667498618777807","0.19079905958149357","1","","","","","","","","",""
"","html-keyboard-response","60","245488","0.0-39.0-1.0","""event"",""trial"",""time""
""fullscreenenter"",""0"",""30851""
","
","
","""event"",""trial"",""time""
""fullscreenenter"",""0"",""30851""
","
","null","<p></p>","null","","","","","","","","","","","","","","","","","","","","","","","",""
"","do_trial","61","248319","0.0-40.0-0.0","""event"",""trial"",""time""
""fullscreenenter"",""0"",""30851""
","
","
","""event"",""trial"",""time""
""fullscreenenter"",""0"",""30851""
","
","277.69999998807907","","","","","","","","50","1,1,0","6","blank","251","null","0.6405943891432919","0.21314561364786033","0.09673766846601929","1","","","","","","","","",""
"","html-keyboard-response","62","249321","0.0-40.0-1.0","""event"",""trial"",""time""
""fullscreenenter"",""0"",""30851""
","
","
","""event"",""trial"",""time""
""fullscreenenter"",""0"",""30851""
","
","null","<p></p>","null","","","","","","","","","","","","","","","","","","","","","","","",""
"","do_trial","63","252183","0.0-41.0-0.0","""event"",""trial"",""time""
""fullscreenenter"",""0"",""30851""
","
","
","""event"",""trial"",""time""
""fullscreenenter"",""0"",""30851""
","
","309.80000001192093","","","","","","","","50","1,0,1","6","blank","252","null","0.6529710779425298","0.34128499893746933","0.22066144789582262","0","","","","","","","","",""
"","html-keyboard-response","64","253188","0.0-41.0-1.0","""event"",""trial"",""time""
""fullscreenenter"",""0"",""30851""
","
","
","""event"",""trial"",""time""
""fullscreenenter"",""0"",""30851""
","
","null","<p></p>","null","","","","","","","","","","","","","","","","","","","","","","","",""
"","do_trial","65","255998","0.0-42.0-0.0","""event"",""trial"",""time""
""fullscreenenter"",""0"",""30851""
","
","
","""event"",""trial"",""time""
""fullscreenenter"",""0"",""30851""
","
","255.89999997615814","","","","","","","","50","1,0,0","6","blank","253","null","0.7928399089516157","0.24181688440928972","0.11019990592853518","0","","","","","","","","",""
"","html-keyboard-response","66","257002","0.0-42.0-1.0","""event"",""trial"",""time""
""fullscreenenter"",""0"",""30851""
","
","
","""event"",""trial"",""time""
""fullscreenenter"",""0"",""30851""
","
","null","<p></p>","null","","","","","","","","","","","","","","","","","","","","","","","",""
"","do_trial","67","259804","0.0-43.0-0.0","""event"",""trial"",""time""
""fullscreenenter"",""0"",""30851""
","
","
","""event"",""trial"",""time""
""fullscreenenter"",""0"",""30851""
","
","251.80000001192093","","","","","","","","50","1,0,0","6","blank","254","null","0.7221167364281311","0.23011346392171814","0.1775493214787561","0","","","","","","","","",""
"","html-keyboard-response","68","260807","0.0-43.0-1.0","""event"",""trial"",""time""
""fullscreenenter"",""0"",""30851""
","
","
","""event"",""trial"",""time""
""fullscreenenter"",""0"",""30851""
","
","null","<p></p>","null","","","","","","","","","","","","","","","","","","","","","","","",""
"","do_trial","69","263569","0.0-44.0-0.0","""event"",""trial"",""time""
""fullscreenenter"",""0"",""30851""
","
","
","""event"",""trial"",""time""
""fullscreenenter"",""0"",""30851""
","
","203.79999995231628","","","","","","","","50","1,0,0","6","blank","255","null","0.6390827384522377","0.26590542793232014","0.12629682250382993","0","","","","","","","","",""
"","html-keyboard-response","70","264576","0.0-44.0-1.0","""event"",""trial"",""time""
""fullscreenenter"",""0"",""30851""
","
","
","""event"",""trial"",""time""
""fullscreenenter"",""0"",""30851""
","
","null","<p></p>","null","","","","","","","","","","","","","","","","","","","","","","","",""
"","do_recog","71","268159","0.0-45.0-0.0","""event"",""trial"",""time""
""fullscreenenter"",""0"",""30851""
","
","
","""event"",""trial"",""time""
""fullscreenenter"",""0"",""30851""
","
","2070.2999999523163","","","","","","","","54","","","","256","probe-21","","","","","1","[object Object]","31","0","1","","","",""
"","html-keyboard-response","72","269162","0.0-45.0-1.0","""event"",""trial"",""time""
""fullscreenenter"",""0"",""30851""
","
","
","""event"",""trial"",""time""
""fullscreenenter"",""0"",""30851""
","
","null","<p></p>","null","","","","","","","","","","","","","","","","","","","","","","","",""
"","do_trial","73","272299","0.0-46.0-0.0","""event"",""trial"",""time""
""fullscreenenter"",""0"",""30851""
","
","
","""event"",""trial"",""time""
""fullscreenenter"",""0"",""30851""
","
","583","","","","","","","","50","1,0,0","6","blank","257","null","0.6831720503703099","0.2839760273404508","0.0745705413245884","0","","","","","","","","",""
"","html-keyboard-response","74","273305","0.0-46.0-1.0","""event"",""trial"",""time""
""fullscreenenter"",""0"",""30851""
","
","
","""event"",""trial"",""time""
""fullscreenenter"",""0"",""30851""
","
","null","<p></p>","null","","","","","","","","","","","","","","","","","","","","","","","",""
"","do_trial","75","276320","0.0-47.0-0.0","""event"",""trial"",""time""
""fullscreenenter"",""0"",""30851""
","
","
","""event"",""trial"",""time""
""fullscreenenter"",""0"",""30851""
","
","462.30000001192093","","","","","","","","50","1,0,0","6","blank","258","null","0.6747741118657387","0.26679251608747506","0.0754798540420636","0","","","","","","","","",""
"","html-keyboard-response","76","277327","0.0-47.0-1.0","""event"",""trial"",""time""
""fullscreenenter"",""0"",""30851""
","
","
","""event"",""trial"",""time""
""fullscreenenter"",""0"",""30851""
","
","null","<p></p>","null","","","","","","","","","","","","","","","","","","","","","","","",""
"","do_trial","77","280157","0.0-48.0-0.0","""event"",""trial"",""time""
""fullscreenenter"",""0"",""30851""
","
","
","""event"",""trial"",""time""
""fullscreenenter"",""0"",""30851""
","
","275.80000001192093","","","","","","","","50","1,0,0","6","blank","259","null","0.7008656517636774","0.34559980834795384","0.12902668584929688","0","","","","","","","","",""
"","html-keyboard-response","78","281159","0.0-48.0-1.0","""event"",""trial"",""time""
""fullscreenenter"",""0"",""30851""
","
","
","""event"",""trial"",""time""
""fullscreenenter"",""0"",""30851""
","
","null","<p></p>","null","","","","","","","","","","","","","","","","","","","","","","","",""
"","do_trial","79","284115","0.0-49.0-0.0","""event"",""trial"",""time""
""fullscreenenter"",""0"",""30851""
","
","
","""event"",""trial"",""time""
""fullscreenenter"",""0"",""30851""
","
","400.2999999523163","","","","","","","","49","1,0,0","6","blank","260","null","0.6351806549716936","0.31697180080652837","0.08445848466706042","1","","","","","","","","",""
"","html-keyboard-response","80","285120","0.0-49.0-1.0","""event"",""trial"",""time""
""fullscreenenter"",""0"",""30851""
","
","
","""event"",""trial"",""time""
""fullscreenenter"",""0"",""30851""
","
","null","<p></p>","null","","","","","","","","","","","","","","","","","","","","","","","",""
"","do_recog","81","288116","0.0-50.0-0.0","""event"",""trial"",""time""
""fullscreenenter"",""0"",""30851""
","
","
","""event"",""trial"",""time""
""fullscreenenter"",""0"",""30851""
","
","1485","","","","","","","","54","","","","261","probe-105","","","","","1","[object Object]","35","0","1","","","",""
"","html-keyboard-response","82","289121","0.0-50.0-1.0","""event"",""trial"",""time""
""fullscreenenter"",""0"",""30851""
","
","
","""event"",""trial"",""time""
""fullscreenenter"",""0"",""30851""
","
","null","<p></p>","null","","","","","","","","","","","","","","","","","","","","","","","",""
"","do_trial","83","292154","0.0-51.0-0.0","""event"",""trial"",""time""
""fullscreenenter"",""0"",""30851""
","
","
","""event"",""trial"",""time""
""fullscreenenter"",""0"",""30851""
","
","474.5","","","","","","","","49","1,1,0","6","blank","262","null","0.670315671254908","0.35620008535716113","0.10709013959968884","1","","","","","","","","",""
"","html-keyboard-response","84","293157","0.0-51.0-1.0","""event"",""trial"",""time""
""fullscreenenter"",""0"",""30851""
","
","
","""event"",""trial"",""time""
""fullscreenenter"",""0"",""30851""
","
","null","<p></p>","null","","","","","","","","","","","","","","","","","","","","","","","",""
"","do_trial","85","296112","0.0-52.0-0.0","""event"",""trial"",""time""
""fullscreenenter"",""0"",""30851""
","
","
","""event"",""trial"",""time""
""fullscreenenter"",""0"",""30851""
","
","398.80000001192093","","","","","","","","49","1,0,0","6","blank","263","null","0.6700260789472509","0.2912734505134739","0.34683148789522006","1","","","","","","","","",""
"","html-keyboard-response","86","297117","0.0-52.0-1.0","""event"",""trial"",""time""
""fullscreenenter"",""0"",""30851""
","
","
","""event"",""trial"",""time""
""fullscreenenter"",""0"",""30851""
","
","null","<p></p>","null","","","","","","","","","","","","","","","","","","","","","","","",""
"","do_trial","87","299809","0.0-53.0-0.0","""event"",""trial"",""time""
""fullscreenenter"",""0"",""30851""
","
","
","""event"",""trial"",""time""
""fullscreenenter"",""0"",""30851""
","
","140","","","","","","","","49","0,0,0","6","blank","264","null","0.5790031969804867","0.36904365406321465","0.1423891507919242","0","","","","","","","","",""
"","html-keyboard-response","88","300816","0.0-53.0-1.0","""event"",""trial"",""time""
""fullscreenenter"",""0"",""30851""
","
","
","""event"",""trial"",""time""
""fullscreenenter"",""0"",""30851""
","
","null","<p></p>","null","","","","","","","","","","","","","","","","","","","","","","","",""
"","do_recog","89","303508","0.0-54.0-0.0","""event"",""trial"",""time""
""fullscreenenter"",""0"",""30851""
","
","
","""event"",""trial"",""time""
""fullscreenenter"",""0"",""30851""
","
","1178","","","","","","","","55","","","","265","probe-113","","","","","1","[object Object]","71","1","0","","","",""
"","html-keyboard-response","90","304511","0.0-54.0-1.0","""event"",""trial"",""time""
""fullscreenenter"",""0"",""30851""
","
","
","""event"",""trial"",""time""
""fullscreenenter"",""0"",""30851""
","
","null","<p></p>","null","","","","","","","","","","","","","","","","","","","","","","","",""
"","do_trial","91","307427","0.0-55.0-0.0","""event"",""trial"",""time""
""fullscreenenter"",""0"",""30851""
","
","
","""event"",""trial"",""time""
""fullscreenenter"",""0"",""30851""
","
","358.2999999523163","","","","","","","","49","0,0,0","6","blank","266","null","0.5960210062963819","0.49702460811362514","0.16283952205935623","0","","","","","","","","",""
"","html-keyboard-response","92","308432","0.0-55.0-1.0","""event"",""trial"",""time""
""fullscreenenter"",""0"",""30851""
","
","
","""event"",""trial"",""time""
""fullscreenenter"",""0"",""30851""
","
","null","<p></p>","null","","","","","","","","","","","","","","","","","","","","","","","",""
"","do_trial","93","311241","0.0-56.0-0.0","""event"",""trial"",""time""
""fullscreenenter"",""0"",""30851""
","
","
","""event"",""trial"",""time""
""fullscreenenter"",""0"",""30851""
","
","257.19999998807907","","","","","","","","49","1,0,0","6","blank","267","null","0.5300675017658611","0.36813806422242507","0.25872879566975415","1","","","","","","","","",""
"","html-keyboard-response","94","312245","0.0-56.0-1.0","""event"",""trial"",""time""
""fullscreenenter"",""0"",""30851""
","
","
","""event"",""trial"",""time""
""fullscreenenter"",""0"",""30851""
","
","null","<p></p>","null","","","","","","","","","","","","","","","","","","","","","","","",""
"","do_trial","95","315196","0.0-57.0-0.0","""event"",""trial"",""time""
""fullscreenenter"",""0"",""30851""
","
","
","""event"",""trial"",""time""
""fullscreenenter"",""0"",""30851""
","
","397.19999998807907","","","","","","","","49","1,0,0","6","blank","268","null","0.4599814491310886","0.3632845417844607","0.3051641246492391","1","","","","","","","","",""
"","html-keyboard-response","96","316199","0.0-57.0-1.0","""event"",""trial"",""time""
""fullscreenenter"",""0"",""30851""
","
","
","""event"",""trial"",""time""
""fullscreenenter"",""0"",""30851""
","
","null","<p></p>","null","","","","","","","","","","","","","","","","","","","","","","","",""
"","break","97","327626","0.0-58.0-0.0","""event"",""trial"",""time""
""fullscreenenter"",""0"",""30851""
","
","
","""event"",""trial"",""time""
""fullscreenenter"",""0"",""30851""
","
","11424.5","<div class='center'><p>Time to take a quick break! You have 2 minutes to rest, but you can move on sooner if you'd like.</p><p> Press the <b>space bar</b> to continue.</p></div>","32","","","","","","","","","","","","","","","","","","","","","","","",""
"","do_recog","98","331708","0.0-58.0-1.0","""event"",""trial"",""time""
""fullscreenenter"",""0"",""30851""
","
","
","""event"",""trial"",""time""
""fullscreenenter"",""0"",""30851""
","
","2571.199999988079","","","","","","","","55","","","","269","probe-222","","","","","1","[object Object]","76","1","0","","","",""
"","html-keyboard-response","99","332714","0.0-58.0-2.0","""event"",""trial"",""time""
""fullscreenenter"",""0"",""30851""
","
","
","""event"",""trial"",""time""
""fullscreenenter"",""0"",""30851""
","
","null","<p></p>","null","","","","","","","","","","","","","","","","","","","","","","","",""
"","do_trial","100","337122","0.0-59.0-0.0","""event"",""trial"",""time""
""fullscreenenter"",""0"",""30851""
","
","
","""event"",""trial"",""time""
""fullscreenenter"",""0"",""30851""
","
","1852.199999988079","","","","","","","","49","0,1,1","6","blank","270","null","0.4491018599799756","0.3527663422281093","0.2645108082546808","0","","","","","","","","",""
"","html-keyboard-response","101","338125","0.0-59.0-1.0","""event"",""trial"",""time""
""fullscreenenter"",""0"",""30851""
","
","
","""event"",""trial"",""time""
""fullscreenenter"",""0"",""30851""
","
","null","<p></p>","null","","","","","","","","","","","","","","","","","","","","","","","",""
"","do_recog","102","341236","0.0-60.0-0.0","""event"",""trial"",""time""
""fullscreenenter"",""0"",""30851""
","
","
","""event"",""trial"",""time""
""fullscreenenter"",""0"",""30851""
","
","1599.8999999761581","","","","","","","","56","","","","271","probe-214","","","","","1","[object Object]","151","3","0","","","",""
"","html-keyboard-response","103","342240","0.0-60.0-1.0","""event"",""trial"",""time""
""fullscreenenter"",""0"",""30851""
","
","
","""event"",""trial"",""time""
""fullscreenenter"",""0"",""30851""
","
","null","<p></p>","null","","","","","","","","","","","","","","","","","","","","","","","",""
"","do_trial","104","345356","0.0-61.0-0.0","""event"",""trial"",""time""
""fullscreenenter"",""0"",""30851""
","
","
","""event"",""trial"",""time""
""fullscreenenter"",""0"",""30851""
","
","562.5","","","","","","","","49","1,0,1","6","blank","272","null","0.5635424625721052","0.29193836331431505","0.21623503411791273","1","","","","","","","","",""
"","html-keyboard-response","105","346359","0.0-61.0-1.0","""event"",""trial"",""time""
""fullscreenenter"",""0"",""30851""
","
","
","""event"",""trial"",""time""
""fullscreenenter"",""0"",""30851""
","
","null","<p></p>","null","","","","","","","","","","","","","","","","","","","","","","","",""
"","do_recog","106","349427","0.0-62.0-0.0","""event"",""trial"",""time""
""fullscreenenter"",""0"",""30851""
","
","
","""event"",""trial"",""time""
""fullscreenenter"",""0"",""30851""
","
","1557.4000000357628","","","","","","","","56","","","","273","probe-08","","","","","1","[object Object]","153","3","0","","","",""
"","html-keyboard-response","107","350431","0.0-62.0-1.0","""event"",""trial"",""time""
""fullscreenenter"",""0"",""30851""
","
","
","""event"",""trial"",""time""
""fullscreenenter"",""0"",""30851""
","
","null","<p></p>","null","","","","","","","","","","","","","","","","","","","","","","","",""
"","do_trial","108","353449","0.0-63.0-0.0","""event"",""trial"",""time""
""fullscreenenter"",""0"",""30851""
","
","
","""event"",""trial"",""time""
""fullscreenenter"",""0"",""30851""
","
","464.89999997615814","","","","","","","","49","0,0,0","6","blank","274","null","0.5825219427565306","0.20473013089301376","0.15416519841161477","0","","","","","","","","",""
"","html-keyboard-response","109","354454","0.0-63.0-1.0","""event"",""trial"",""time""
""fullscreenenter"",""0"",""30851""
","
","
","""event"",""trial"",""time""
""fullscreenenter"",""0"",""30851""
","
","null","<p></p>","null","","","","","","","","","","","","","","","","","","","","","","","",""
"","do_trial","110","357369","0.0-64.0-0.0","""event"",""trial"",""time""
""fullscreenenter"",""0"",""30851""
","
","
","""event"",""trial"",""time""
""fullscreenenter"",""0"",""30851""
","
","362.2999999523163","","","","","","","","49","1,0,0","6","blank","275","null","0.6602052087258108","0.3105686554565175","0.11510415391879303","1","","","","","","","","",""
"","html-keyboard-response","111","358374","0.0-64.0-1.0","""event"",""trial"",""time""
""fullscreenenter"",""0"",""30851""
","
","
","""event"",""trial"",""time""
""fullscreenenter"",""0"",""30851""
","
","null","<p></p>","null","","","","","","","","","","","","","","","","","","","","","","","",""
"","do_trial","112","361331","0.0-65.0-0.0","""event"",""trial"",""time""
""fullscreenenter"",""0"",""30851""
","
","
","""event"",""trial"",""time""
""fullscreenenter"",""0"",""30851""
","
","405.30000001192093","","","","","","","","49","0,0,1","6","blank","276","null","0.639649502900844","0.330824098388541","0.14026677660086562","0","","","","","","","","",""
"","html-keyboard-response","113","362335","0.0-65.0-1.0","""event"",""trial"",""time""
""fullscreenenter"",""0"",""30851""
","
","
","""event"",""trial"",""time""
""fullscreenenter"",""0"",""30851""
","
","null","<p></p>","null","","","","","","","","","","","","","","","","","","","","","","","",""
"","do_trial","114","365143","0.0-66.0-0.0","""event"",""trial"",""time""
""fullscreenenter"",""0"",""30851""
","
","
","""event"",""trial"",""time""
""fullscreenenter"",""0"",""30851""
","
","253.5","","","","","","","","49","1,0,0","6","blank","277","null","0.6885765861435956","0.4235313413516872","0.21579992475928556","1","","","","","","","","",""
"","html-keyboard-response","115","366147","0.0-66.0-1.0","""event"",""trial"",""time""
""fullscreenenter"",""0"",""30851""
","
","
","""event"",""trial"",""time""
""fullscreenenter"",""0"",""30851""
","
","null","<p></p>","null","","","","","","","","","","","","","","","","","","","","","","","",""
"","do_recog","116","369201","0.0-67.0-0.0","""event"",""trial"",""time""
""fullscreenenter"",""0"",""30851""
","
","
","""event"",""trial"",""time""
""fullscreenenter"",""0"",""30851""
","
","1545.800000011921","","","","","","","","56","","","","278","probe-218","","","","","1","[object Object]","111","2","0","","","",""
"","html-keyboard-response","117","370205","0.0-67.0-1.0","""event"",""trial"",""time""
""fullscreenenter"",""0"",""30851""
","
","
","""event"",""trial"",""time""
""fullscreenenter"",""0"",""30851""
","
","null","<p></p>","null","","","","","","","","","","","","","","","","","","","","","","","",""
"","do_trial","118","373148","0.0-68.0-0.0","""event"",""trial"",""time""
""fullscreenenter"",""0"",""30851""
","
","
","""event"",""trial"",""time""
""fullscreenenter"",""0"",""30851""
","
","387.69999998807907","","","","","","","","49","1,0,0","6","blank","279","null","0.7183545681887245","0.35593767327329234","0.35590704026875386","1","","","","","","","","",""
"","html-keyboard-response","119","374151","0.0-68.0-1.0","""event"",""trial"",""time""
""fullscreenenter"",""0"",""30851""
","
","
","""event"",""trial"",""time""
""fullscreenenter"",""0"",""30851""
","
","null","<p></p>","null","","","","","","","","","","","","","","","","","","","","","","","",""
"","do_recog","120","377504","0.0-69.0-0.0","""event"",""trial"",""time""
""fullscreenenter"",""0"",""30851""
","
","
","""event"",""trial"",""time""
""fullscreenenter"",""0"",""30851""
","
","1843.6000000238419","","","","","","","","53","","","","280","probe-215","","","","","1","[object Object]","156","3","1","","","",""
"","html-keyboard-response","121","378508","0.0-69.0-1.0","""event"",""trial"",""time""
""fullscreenenter"",""0"",""30851""
","
","
","""event"",""trial"",""time""
""fullscreenenter"",""0"",""30851""
","
","null","<p></p>","null","","","","","","","","","","","","","","","","","","","","","","","",""
"","do_trial","122","381621","0.0-70.0-0.0","""event"",""trial"",""time""
""fullscreenenter"",""0"",""30851""
","
","
","""event"",""trial"",""time""
""fullscreenenter"",""0"",""30851""
","
","560.3999999761581","","","","","","","","49","1,1,0","6","blank","281","null","0.7543355558586862","0.4570806960452305","0.08708780489747373","1","","","","","","","","",""
"","html-keyboard-response","123","382625","0.0-70.0-1.0","""event"",""trial"",""time""
""fullscreenenter"",""0"",""30851""
","
","
","""event"",""trial"",""time""
""fullscreenenter"",""0"",""30851""
","
","null","<p></p>","null","","","","","","","","","","","","","","","","","","","","","","","",""
"","do_trial","124","385543","0.0-71.0-0.0","""event"",""trial"",""time""
""fullscreenenter"",""0"",""30851""
","
","
","""event"",""trial"",""time""
""fullscreenenter"",""0"",""30851""
","
","368","","","","","","","","49","1,0,0","6","blank","282","null","0.7303827561015095","0.2899150643981425","0.08449893740654123","1","","","","","","","","",""
"","html-keyboard-response","125","386547","0.0-71.0-1.0","""event"",""trial"",""time""
""fullscreenenter"",""0"",""30851""
","
","
","""event"",""trial"",""time""
""fullscreenenter"",""0"",""30851""
","
","null","<p></p>","null","","","","","","","","","","","","","","","","","","","","","","","",""
"","do_recog","126","389559","0.0-72.0-0.0","""event"",""trial"",""time""
""fullscreenenter"",""0"",""30851""
","
","
","""event"",""trial"",""time""
""fullscreenenter"",""0"",""30851""
","
","1500.300000011921","","","","","","","","56","","","","283","probe-198","","","","","1","[object Object]","112","2","0","","","",""
"","html-keyboard-response","127","390561","0.0-72.0-1.0","""event"",""trial"",""time""
""fullscreenenter"",""0"",""30851""
","
","
","""event"",""trial"",""time""
""fullscreenenter"",""0"",""30851""
","
","null","<p></p>","null","","","","","","","","","","","","","","","","","","","","","","","",""
"","do_trial","128","393399","0.0-73.0-0.0","""event"",""trial"",""time""
""fullscreenenter"",""0"",""30851""
","
","
","""event"",""trial"",""time""
""fullscreenenter"",""0"",""30851""
","
","284.5","","","","","","","","49","0,0,0","6","blank","284","null","0.5999216758486174","0.29986182959662006","0.08439391575048599","0","","","","","","","","",""
"","html-keyboard-response","129","394402","0.0-73.0-1.0","""event"",""trial"",""time""
""fullscreenenter"",""0"",""30851""
","
","
","""event"",""trial"",""time""
""fullscreenenter"",""0"",""30851""
","
","null","<p></p>","null","","","","","","","","","","","","","","","","","","","","","","","",""
"","do_trial","130","397242","0.0-74.0-0.0","""event"",""trial"",""time""
""fullscreenenter"",""0"",""30851""
","
","
","""event"",""trial"",""time""
""fullscreenenter"",""0"",""30851""
","
","289.4000000357628","","","","","","","","50","0,0,0","6","blank","285","null","0.6318535414334263","0.202571956578682","0.11864072295441432","0","","","","","","","","",""
"","html-keyboard-response","131","398246","0.0-74.0-1.0","""event"",""trial"",""time""
""fullscreenenter"",""0"",""30851""
","
","
","""event"",""trial"",""time""
""fullscreenenter"",""0"",""30851""
","
","null","<p></p>","null","","","","","","","","","","","","","","","","","","","","","","","",""
"","do_trial","132","401071","0.0-75.0-0.0","""event"",""trial"",""time""
""fullscreenenter"",""0"",""30851""
","
","
","""event"",""trial"",""time""
""fullscreenenter"",""0"",""30851""
","
","273","","","","","","","","50","1,1,1","6","blank","286","null","0.7278237115115332","0.31679528944031726","0.11423502561038851","1","","","","","","","","",""
"","html-keyboard-response","133","402076","0.0-75.0-1.0","""event"",""trial"",""time""
""fullscreenenter"",""0"",""30851""
","
","
","""event"",""trial"",""time""
""fullscreenenter"",""0"",""30851""
","
","null","<p></p>","null","","","","","","","","","","","","","","","","","","","","","","","",""
"","do_trial","134","404948","0.0-76.0-0.0","""event"",""trial"",""time""
""fullscreenenter"",""0"",""30851""
","
","
","""event"",""trial"",""time""
""fullscreenenter"",""0"",""30851""
","
","316.4000000357628","","","","","","","","50","1,1,1","6","blank","287","null","0.743116015148465","0.3881035546651538","0.23274283272959523","1","","","","","","","","",""
"","html-keyboard-response","135","405953","0.0-76.0-1.0","""event"",""trial"",""time""
""fullscreenenter"",""0"",""30851""
","
","
","""event"",""trial"",""time""
""fullscreenenter"",""0"",""30851""
","
","null","<p></p>","null","","","","","","","","","","","","","","","","","","","","","","","",""
"","do_trial","136","408812","0.0-77.0-0.0","""event"",""trial"",""time""
""fullscreenenter"",""0"",""30851""
","
","
","""event"",""trial"",""time""
""fullscreenenter"",""0"",""30851""
","
","308","","","","","","","","49","1,0,0","6","blank","288","null","0.7522012340669746","0.2799019048981036","0.17762019864816214","1","","","","","","","","",""
"","html-keyboard-response","137","409818","0.0-77.0-1.0","""event"",""trial"",""time""
""fullscreenenter"",""0"",""30851""
","
","
","""event"",""trial"",""time""
""fullscreenenter"",""0"",""30851""
","
","null","<p></p>","null","","","","","","","","","","","","","","","","","","","","","","","",""
"","do_recog","138","413083","0.0-78.0-0.0","""event"",""trial"",""time""
""fullscreenenter"",""0"",""30851""
","
","
","""event"",""trial"",""time""
""fullscreenenter"",""0"",""30851""
","
","1756.1000000238419","","","","","","","","56","","","","289","probe-206","","","","","1","[object Object]","33","0","0","","","",""
"","html-keyboard-response","139","414086","0.0-78.0-1.0","""event"",""trial"",""time""
""fullscreenenter"",""0"",""30851""
","
","
","""event"",""trial"",""time""
""fullscreenenter"",""0"",""30851""
","
","null","<p></p>","null","","","","","","","","","","","","","","","","","","","","","","","",""
"","do_trial","140","417203","0.0-79.0-0.0","""event"",""trial"",""time""
""fullscreenenter"",""0"",""30851""
","
","
","""event"",""trial"",""time""
""fullscreenenter"",""0"",""30851""
","
","566.5999999642372","","","","","","","","49","0,0,0","6","blank","290","null","0.5733909965134804","0.41099369000341157","0.19323783916027004","0","","","","","","","","",""
"","html-keyboard-response","141","418206","0.0-79.0-1.0","""event"",""trial"",""time""
""fullscreenenter"",""0"",""30851""
","
","
","""event"",""trial"",""time""
""fullscreenenter"",""0"",""30851""
","
","null","<p></p>","null","","","","","","","","","","","","","","","","","","","","","","","",""
"","do_recog","142","421250","0.0-80.0-0.0","""event"",""trial"",""time""
""fullscreenenter"",""0"",""30851""
","
","
","""event"",""trial"",""time""
""fullscreenenter"",""0"",""30851""
","
","1534.2999999523163","","","","","","","","53","","","","291","probe-167","","","","","1","[object Object]","74","1","1","","","",""
"","html-keyboard-response","143","422256","0.0-80.0-1.0","""event"",""trial"",""time""
""fullscreenenter"",""0"",""30851""
","
","
","""event"",""trial"",""time""
""fullscreenenter"",""0"",""30851""
","
","null","<p></p>","null","","","","","","","","","","","","","","","","","","","","","","","",""
"","do_trial","144","425367","0.0-81.0-0.0","""event"",""trial"",""time""
""fullscreenenter"",""0"",""30851""
","
","
","""event"",""trial"",""time""
""fullscreenenter"",""0"",""30851""
","
","556.6999999880791","","","","","","","","49","0,0,0","6","blank","292","null","0.593462870278362","0.29380507944027767","0.06672785093199025","0","","","","","","","","",""
"","html-keyboard-response","145","426370","0.0-81.0-1.0","""event"",""trial"",""time""
""fullscreenenter"",""0"",""30851""
","
","
","""event"",""trial"",""time""
""fullscreenenter"",""0"",""30851""
","
","null","<p></p>","null","","","","","","","","","","","","","","","","","","","","","","","",""
"","do_recog","146","429840","0.0-82.0-0.0","""event"",""trial"",""time""
""fullscreenenter"",""0"",""30851""
","
","
","""event"",""trial"",""time""
""fullscreenenter"",""0"",""30851""
","
","1956.4000000357628","","","","","","","","53","","","","293","probe-162","","","","","1","[object Object]","154","3","1","","","",""
"","html-keyboard-response","147","430842","0.0-82.0-1.0","""event"",""trial"",""time""
""fullscreenenter"",""0"",""30851""
","
","
","""event"",""trial"",""time""
""fullscreenenter"",""0"",""30851""
","
","null","<p></p>","null","","","","","","","","","","","","","","","","","","","","","","","",""
"","do_trial","148","433958","0.0-83.0-0.0","""event"",""trial"",""time""
""fullscreenenter"",""0"",""30851""
","
","
","""event"",""trial"",""time""
""fullscreenenter"",""0"",""30851""
","
","563.1999999880791","","","","","","","","49","1,1,0","6","blank","294","null","0.5620630524581026","0.37463454903719184","0.09865205837161377","1","","","","","","","","",""
"","html-keyboard-response","149","434965","0.0-83.0-1.0","""event"",""trial"",""time""
""fullscreenenter"",""0"",""30851""
","
","
","""event"",""trial"",""time""
""fullscreenenter"",""0"",""30851""
","
","null","<p></p>","null","","","","","","","","","","","","","","","","","","","","","","","",""
"","do_trial","150","437932","0.0-84.0-0.0","""event"",""trial"",""time""
""fullscreenenter"",""0"",""30851""
","
","
","""event"",""trial"",""time""
""fullscreenenter"",""0"",""30851""
","
","413.4000000357628","","","","","","","","49","0,0,0","6","blank","295","null","0.4569367817834026","0.34031507681075973","0.09882713631735016","0","","","","","","","","",""
"","html-keyboard-response","151","438937","0.0-84.0-1.0","""event"",""trial"",""time""
""fullscreenenter"",""0"",""30851""
","
","
","""event"",""trial"",""time""
""fullscreenenter"",""0"",""30851""
","
","null","<p></p>","null","","","","","","","","","","","","","","","","","","","","","","","",""
"","do_trial","152","441741","0.0-85.0-0.0","""event"",""trial"",""time""
""fullscreenenter"",""0"",""30851""
","
","
","""event"",""trial"",""time""
""fullscreenenter"",""0"",""30851""
","
","252","","","","","","","","50","0,0,0","6","blank","296","null","0.318390469751268","0.23500045874860767","0.2059900858926889","0","","","","","","","","",""
"","html-keyboard-response","153","442746","0.0-85.0-1.0","""event"",""trial"",""time""
""fullscreenenter"",""0"",""30851""
","
","
","""event"",""trial"",""time""
""fullscreenenter"",""0"",""30851""
","
","null","<p></p>","null","","","","","","","","","","","","","","","","","","","","","","","",""
"","do_trial","154","445568","0.0-86.0-0.0","""event"",""trial"",""time""
""fullscreenenter"",""0"",""30851""
","
","
","""event"",""trial"",""time""
""fullscreenenter"",""0"",""30851""
","
","268.30000001192093","","","","","","","","50","1,0,1","6","blank","297","null","0.36570077665771134","0.16441874718350416","0.38221988706748633","0","","","","","","","","",""
"","html-keyboard-response","155","446573","0.0-86.0-1.0","""event"",""trial"",""time""
""fullscreenenter"",""0"",""30851""
","
","
","""event"",""trial"",""time""
""fullscreenenter"",""0"",""30851""
","
","null","<p></p>","null","","","","","","","","","","","","","","","","","","","","","","","",""
"","do_trial","156","449394","0.0-87.0-0.0","""event"",""trial"",""time""
""fullscreenenter"",""0"",""30851""
","
","
","""event"",""trial"",""time""
""fullscreenenter"",""0"",""30851""
","
","268.2999999523163","","","","","","","","50","0,0,1","6","blank","298","null","0.37510984380252027","0.08642570949570208","0.506143578714889","0","","","","","","","","",""
"","html-keyboard-response","157","450402","0.0-87.0-1.0","""event"",""trial"",""time""
""fullscreenenter"",""0"",""30851""
","
","
","""event"",""trial"",""time""
""fullscreenenter"",""0"",""30851""
","
","null","<p></p>","null","","","","","","","","","","","","","","","","","","","","","","","",""
"","do_trial","158","453188","0.0-88.0-0.0","""event"",""trial"",""time""
""fullscreenenter"",""0"",""30851""
","
","
","""event"",""trial"",""time""
""fullscreenenter"",""0"",""30851""
","
","233.80000001192093","","","","","","","","50","0,1,0","6","blank","299","null","0.2209963817392373","0.22071100363077592","0.5562482702902191","1","","","","","","","","",""
"","html-keyboard-response","159","454194","0.0-88.0-1.0","""event"",""trial"",""time""
""fullscreenenter"",""0"",""30851""
","
","
","""event"",""trial"",""time""
""fullscreenenter"",""0"",""30851""
","
","null","<p></p>","null","","","","","","","","","","","","","","","","","","","","","","","",""
"","do_recog","160","457062","0.0-89.0-0.0","""event"",""trial"",""time""
""fullscreenenter"",""0"",""30851""
","
","
","""event"",""trial"",""time""
""fullscreenenter"",""0"",""30851""
","
","1355.5","","","","","","","","53","","","","300","probe-155","","","","","1","[object Object]","38","0","1","","","",""
"","html-keyboard-response","161","458065","0.0-89.0-1.0","""event"",""trial"",""time""
""fullscreenenter"",""0"",""30851""
","
","
","""event"",""trial"",""time""
""fullscreenenter"",""0"",""30851""
","
","null","<p></p>","null","","","","","","","","","","","","","","","","","","","","","","","",""
"","do_trial","162","460967","0.0-90.0-0.0","""event"",""trial"",""time""
""fullscreenenter"",""0"",""30851""
","
","
","""event"",""trial"",""time""
""fullscreenenter"",""0"",""30851""
","
","348.19999998807907","","","","","","","","49","1,0,0","6","blank","301","null","0.3359895333431357","0.09269724675416778","0.5605971448977282","1","","","","","","","","",""
"","html-keyboard-response","163","461971","0.0-90.0-1.0","""event"",""trial"",""time""
""fullscreenenter"",""0"",""30851""
","
","
","""event"",""trial"",""time""
""fullscreenenter"",""0"",""30851""
","
","null","<p></p>","null","","","","","","","","","","","","","","","","","","","","","","","",""
"","do_trial","164","464813","0.0-91.0-0.0","""event"",""trial"",""time""
""fullscreenenter"",""0"",""30851""
","
","
","""event"",""trial"",""time""
""fullscreenenter"",""0"",""30851""
","
","287.4000000357628","","","","","","","","49","0,0,0","6","blank","302","null","0.29844325814600686","0.06781299079369381","0.571793900275767","0","","","","","","","","",""
"","html-keyboard-response","165","465818","0.0-91.0-1.0","""event"",""trial"",""time""
""fullscreenenter"",""0"",""30851""
","
","
","""event"",""trial"",""time""
""fullscreenenter"",""0"",""30851""
","
","null","<p></p>","null","","","","","","","","","","","","","","","","","","","","","","","",""
"","do_trial","166","468620","0.0-92.0-0.0","""event"",""trial"",""time""
""fullscreenenter"",""0"",""30851""
","
","
","""event"",""trial"",""time""
""fullscreenenter"",""0"",""30851""
","
","248.19999998807907","","","","","","","","49","0,0,0","6","blank","303","null","0.2588326886318261","0.07574531603970139","0.7216281837216252","0","","","","","","","","",""
"","html-keyboard-response","167","469625","0.0-92.0-1.0","""event"",""trial"",""time""
""fullscreenenter"",""0"",""30851""
","
","
","""event"",""trial"",""time""
""fullscreenenter"",""0"",""30851""
","
","null","<p></p>","null","","","","","","","","","","","","","","","","","","","","","","","",""
"","do_trial","168","472407","0.0-93.0-0.0","""event"",""trial"",""time""
""fullscreenenter"",""0"",""30851""
","
","
","""event"",""trial"",""time""
""fullscreenenter"",""0"",""30851""
","
","226.30000001192093","","","","","","","","49","0,0,1","6","blank","304","null","0.26572731869828703","0.07750429060856247","0.7685270840542018","0","","","","","","","","",""
"","html-keyboard-response","169","473413","0.0-93.0-1.0","""event"",""trial"",""time""
""fullscreenenter"",""0"",""30851""
","
","
","""event"",""trial"",""time""
""fullscreenenter"",""0"",""30851""
","
","null","<p></p>","null","","","","","","","","","","","","","","","","","","","","","","","",""
"","do_trial","170","476230","0.0-94.0-0.0","""event"",""trial"",""time""
""fullscreenenter"",""0"",""30851""
","
","
","""event"",""trial"",""time""
""fullscreenenter"",""0"",""30851""
","
","257.5","","","","","","","","50","0,0,0","6","blank","305","null","0.17836024010051948","0.24918924633993678","0.7443850057785667","0","","","","","","","","",""
"","html-keyboard-response","171","477237","0.0-94.0-1.0","""event"",""trial"",""time""
""fullscreenenter"",""0"",""30851""
","
","
","""event"",""trial"",""time""
""fullscreenenter"",""0"",""30851""
","
","null","<p></p>","null","","","","","","","","","","","","","","","","","","","","","","","",""
"","do_trial","172","480057","0.0-95.0-0.0","""event"",""trial"",""time""
""fullscreenenter"",""0"",""30851""
","
","
","""event"",""trial"",""time""
""fullscreenenter"",""0"",""30851""
","
","261.30000001192093","","","","","","","","50","0,1,1","6","blank","306","null","0.37470894036586755","0.1982529329569406","0.879326005418945","1","","","","","","","","",""
"","html-keyboard-response","173","481065","0.0-95.0-1.0","""event"",""trial"",""time""
""fullscreenenter"",""0"",""30851""
","
","
","""event"",""trial"",""time""
""fullscreenenter"",""0"",""30851""
","
","null","<p></p>","null","","","","","","","","","","","","","","","","","","","","","","","",""
"","do_recog","174","483821","0.0-96.0-0.0","""event"",""trial"",""time""
""fullscreenenter"",""0"",""30851""
","
","
","""event"",""trial"",""time""
""fullscreenenter"",""0"",""30851""
","
","1245","","","","","","","","53","","","","307","probe-176","","","","","1","[object Object]","193","4","1","","","",""
"","html-keyboard-response","175","484824","0.0-96.0-1.0","""event"",""trial"",""time""
""fullscreenenter"",""0"",""30851""
","
","
","""event"",""trial"",""time""
""fullscreenenter"",""0"",""30851""
","
","null","<p></p>","null","","","","","","","","","","","","","","","","","","","","","","","",""
"","do_trial","176","487879","0.0-97.0-0.0","""event"",""trial"",""time""
""fullscreenenter"",""0"",""30851""
","
","
","""event"",""trial"",""time""
""fullscreenenter"",""0"",""30851""
","
","496.69999998807907","","","","","","","","50","0,0,1","6","blank","308","null","0.37749391764273227","0.0990687153793067","0.7229456801687588","0","","","","","","","","",""
"","html-keyboard-response","177","488887","0.0-97.0-1.0","""event"",""trial"",""time""
""fullscreenenter"",""0"",""30851""
","
","
","""event"",""trial"",""time""
""fullscreenenter"",""0"",""30851""
","
","null","<p></p>","null","","","","","","","","","","","","","","","","","","","","","","","",""
"","break","178","489750","0.0-98.0-0.0","""event"",""trial"",""time""
""fullscreenenter"",""0"",""30851""
","
","
","""event"",""trial"",""time""
""fullscreenenter"",""0"",""30851""
","
","860","<div class='center'><p>Time to take a quick break! You have 2 minutes to rest, but you can move on sooner if you'd like.</p><p> Press the <b>space bar</b> to continue.</p></div>","32","","","","","","","","","","","","","","","","","","","","","","","",""
"","do_trial","179","492950","0.0-98.0-1.0","""event"",""trial"",""time""
""fullscreenenter"",""0"",""30851""
","
","
","""event"",""trial"",""time""
""fullscreenenter"",""0"",""30851""
","
","649","","","","","","","","50","0,0,1","6","blank","309","null","0.3278600281567221","0.1052282194503837","0.6434502874288188","0","","","","","","","","",""
"","html-keyboard-response","180","493957","0.0-98.0-2.0","""event"",""trial"",""time""
""fullscreenenter"",""0"",""30851""
","
","
","""event"",""trial"",""time""
""fullscreenenter"",""0"",""30851""
","
","null","<p></p>","null","","","","","","","","","","","","","","","","","","","","","","","",""
"","do_trial","181","496942","0.0-99.0-0.0","""event"",""trial"",""time""
""fullscreenenter"",""0"",""30851""
","
","
","""event"",""trial"",""time""
""fullscreenenter"",""0"",""30851""
","
","432.5","","","","","","","","49","0,0,1","6","blank","310","null","0.23332221290947172","0.060445394013396554","0.5588743944430213","0","","","","","","","","",""
"","html-keyboard-response","182","497947","0.0-99.0-1.0","""event"",""trial"",""time""
""fullscreenenter"",""0"",""30851""
","
","
","""event"",""trial"",""time""
""fullscreenenter"",""0"",""30851""
","
","null","<p></p>","null","","","","","","","","","","","","","","","","","","","","","","","",""
"","do_recog","183","500588","0.0-100.0-0.0","""event"",""trial"",""time""
""fullscreenenter"",""0"",""30851""
","
","
","""event"",""trial"",""time""
""fullscreenenter"",""0"",""30851""
","
","1126.8999999761581","","","","","","","","53","","","","311","probe-236","","","","","0","[object Object]","null","null","0","","","",""
"","html-keyboard-response","184","501592","0.0-100.0-1.0","""event"",""trial"",""time""
""fullscreenenter"",""0"",""30851""
","
","
","""event"",""trial"",""time""
""fullscreenenter"",""0"",""30851""
","
","null","<p></p>","null","","","","","","","","","","","","","","","","","","","","","","","",""
"","do_trial","185","504751","0.0-101.0-0.0","""event"",""trial"",""time""
""fullscreenenter"",""0"",""30851""
","
","
","""event"",""trial"",""time""
""fullscreenenter"",""0"",""30851""
","
","600","","","","","","","","49","0,0,0","6","blank","312","null","0.26733534627993516","0.07219336384414997","0.5019917368676519","0","","","","","","","","",""
"","html-keyboard-response","186","505755","0.0-101.0-1.0","""event"",""trial"",""time""
""fullscreenenter"",""0"",""30851""
","
","
","""event"",""trial"",""time""
""fullscreenenter"",""0"",""30851""
","
","null","<p></p>","null","","","","","","","","","","","","","","","","","","","","","","","",""
"","do_recog","187","508572","0.0-102.0-0.0","""event"",""trial"",""time""
""fullscreenenter"",""0"",""30851""
","
","
","""event"",""trial"",""time""
""fullscreenenter"",""0"",""30851""
","
","1307.1000000238419","","","","","","","","56","","","","313","probe-49","","","","","1","[object Object]","198","4","0","","","",""
"","html-keyboard-response","188","509578","0.0-102.0-1.0","""event"",""trial"",""time""
""fullscreenenter"",""0"",""30851""
","
","
","""event"",""trial"",""time""
""fullscreenenter"",""0"",""30851""
","
","null","<p></p>","null","","","","","","","","","","","","","","","","","","","","","","","",""
"","do_trial","189","512523","0.0-103.0-0.0","""event"",""trial"",""time""
""fullscreenenter"",""0"",""30851""
","
","
","""event"",""trial"",""time""
""fullscreenenter"",""0"",""30851""
","
","390.5","","","","","","","","49","0,0,0","6","blank","314","null","0.11010603340924853","0.15938560223978873","0.522841566591354","0","","","","","","","","",""
"","html-keyboard-response","190","513529","0.0-103.0-1.0","""event"",""trial"",""time""
""fullscreenenter"",""0"",""30851""
","
","
","""event"",""trial"",""time""
""fullscreenenter"",""0"",""30851""
","
","null","<p></p>","null","","","","","","","","","","","","","","","","","","","","","","","",""
"","do_trial","191","516388","0.0-104.0-0.0","""event"",""trial"",""time""
""fullscreenenter"",""0"",""30851""
","
","
","""event"",""trial"",""time""
""fullscreenenter"",""0"",""30851""
","
","306.30000001192093","","","","","","","","49","1,0,1","6","blank","315","null","0.215800304225062","0.1956251915177645","0.5651553309212874","1","","","","","","","","",""
"","html-keyboard-response","192","517391","0.0-104.0-1.0","""event"",""trial"",""time""
""fullscreenenter"",""0"",""30851""
","
","
","""event"",""trial"",""time""
""fullscreenenter"",""0"",""30851""
","
","null","<p></p>","null","","","","","","","","","","","","","","","","","","","","","","","",""
"","do_recog","193","520129","0.0-105.0-0.0","""event"",""trial"",""time""
""fullscreenenter"",""0"",""30851""
","
","
","""event"",""trial"",""time""
""fullscreenenter"",""0"",""30851""
","
","1224.8999999761581","","","","","","","","56","","","","316","probe-244","","","","","0","[object Object]","null","null","1","","","",""
"","html-keyboard-response","194","521133","0.0-105.0-1.0","""event"",""trial"",""time""
""fullscreenenter"",""0"",""30851""
","
","
","""event"",""trial"",""time""
""fullscreenenter"",""0"",""30851""
","
","null","<p></p>","null","","","","","","","","","","","","","","","","","","","","","","","",""
"","do_trial","195","524085","0.0-106.0-0.0","""event"",""trial"",""time""
""fullscreenenter"",""0"",""30851""
","
","
","""event"",""trial"",""time""
""fullscreenenter"",""0"",""30851""
","
","398.7000000476837","","","","","","","","49","1,0,1","6","blank","317","null","0.305941236454425","0.07117418781648273","0.5387999363029689","1","","","","","","","","",""
"","html-keyboard-response","196","525088","0.0-106.0-1.0","""event"",""trial"",""time""
""fullscreenenter"",""0"",""30851""
","
","
","""event"",""trial"",""time""
""fullscreenenter"",""0"",""30851""
","
","null","<p></p>","null","","","","","","","","","","","","","","","","","","","","","","","",""
"","do_recog","197","527313","0.0-107.0-0.0","""event"",""trial"",""time""
""fullscreenenter"",""0"",""30851""
","
","
","""event"",""trial"",""time""
""fullscreenenter"",""0"",""30851""
","
","715.8999999761581","","","","","","","","54","","","","318","probe-224","","","","","1","[object Object]","152","3","1","","","",""
"","html-keyboard-response","198","528320","0.0-107.0-1.0","""event"",""trial"",""time""
""fullscreenenter"",""0"",""30851""
","
","
","""event"",""trial"",""time""
""fullscreenenter"",""0"",""30851""
","
","null","<p></p>","null","","","","","","","","","","","","","","","","","","","","","","","",""
"","do_trial","199","531879","0.0-108.0-0.0","""event"",""trial"",""time""
""fullscreenenter"",""0"",""30851""
","
","
","""event"",""trial"",""time""
""fullscreenenter"",""0"",""30851""
","
","1001.5","","","","","","","","50","0,0,0","6","blank","319","null","0.43360503773158515","0.05452677267664719","0.4669639235814184","0","","","","","","","","",""
"","html-keyboard-response","200","532886","0.0-108.0-1.0","""event"",""trial"",""time""
""fullscreenenter"",""0"",""30851""
","
","
","""event"",""trial"",""time""
""fullscreenenter"",""0"",""30851""
","
","null","<p></p>","null","","","","","","","","","","","","","","","","","","","","","","","",""
"","do_trial","201","535740","0.0-109.0-0.0","""event"",""trial"",""time""
""fullscreenenter"",""0"",""30851""
","
","
","""event"",""trial"",""time""
""fullscreenenter"",""0"",""30851""
","
","302.30000001192093","","","","","","","","50","0,0,1","6","blank","320","null","0.38666014667781495","0.07864756143363752","0.6059242004498695","0","","","","","","","","",""
"","html-keyboard-response","202","536745","0.0-109.0-1.0","""event"",""trial"",""time""
""fullscreenenter"",""0"",""30851""
","
","
","""event"",""trial"",""time""
""fullscreenenter"",""0"",""30851""
","
","null","<p></p>","null","","","","","","","","","","","","","","","","","","","","","","","",""
"","do_recog","203","539367","0.0-110.0-0.0","""event"",""trial"",""time""
""fullscreenenter"",""0"",""30851""
","
","
","""event"",""trial"",""time""
""fullscreenenter"",""0"",""30851""
","
","1113.5","","","","","","","","53","","","","321","probe-10","","","","","1","[object Object]","117","2","1","","","",""
"","html-keyboard-response","204","540371","0.0-110.0-1.0","""event"",""trial"",""time""
""fullscreenenter"",""0"",""30851""
","
","
","""event"",""trial"",""time""
""fullscreenenter"",""0"",""30851""
","
","null","<p></p>","null","","","","","","","","","","","","","","","","","","","","","","","",""
"","do_trial","205","543371","0.0-111.0-0.0","""event"",""trial"",""time""
""fullscreenenter"",""0"",""30851""
","
","
","""event"",""trial"",""time""
""fullscreenenter"",""0"",""30851""
","
","446.4000000357628","","","","","","","","50","1,0,1","6","blank","322","null","0.2532079021941788","0.08913051463447506","0.5943977426453474","0","","","","","","","","",""
"","html-keyboard-response","206","544377","0.0-111.0-1.0","""event"",""trial"",""time""
""fullscreenenter"",""0"",""30851""
","
","
","""event"",""trial"",""time""
""fullscreenenter"",""0"",""30851""
","
","null","<p></p>","null","","","","","","","","","","","","","","","","","","","","","","","",""
"","do_trial","207","547233","0.0-112.0-0.0","""event"",""trial"",""time""
""fullscreenenter"",""0"",""30851""
","
","
","""event"",""trial"",""time""
""fullscreenenter"",""0"",""30851""
","
","303.5","","","","","","","","50","0,1,1","6","blank","323","null","0.23970614322640973","0.06471056641076275","0.6328491599523173","1","","","","","","","","",""
"","html-keyboard-response","208","548237","0.0-112.0-1.0","""event"",""trial"",""time""
""fullscreenenter"",""0"",""30851""
","
","
","""event"",""trial"",""time""
""fullscreenenter"",""0"",""30851""
","
","null","<p></p>","null","","","","","","","","","","","","","","","","","","","","","","","",""
"","do_trial","209","551171","0.0-113.0-0.0","""event"",""trial"",""time""
""fullscreenenter"",""0"",""30851""
","
","
","""event"",""trial"",""time""
""fullscreenenter"",""0"",""30851""
","
","380.30000001192093","","","","","","","","49","0,0,0","6","blank","324","null","0.44234228282401733","0.12305485616899596","0.6006021938641716","0","","","","","","","","",""
"","html-keyboard-response","210","552178","0.0-113.0-1.0","""event"",""trial"",""time""
""fullscreenenter"",""0"",""30851""
","
","
","""event"",""trial"",""time""
""fullscreenenter"",""0"",""30851""
","
","null","<p></p>","null","","","","","","","","","","","","","","","","","","","","","","","",""
"","do_trial","211","555152","0.0-114.0-0.0","""event"",""trial"",""time""
""fullscreenenter"",""0"",""30851""
","
","
","""event"",""trial"",""time""
""fullscreenenter"",""0"",""30851""
","
","421.60000002384186","","","","","","","","50","0,0,0","6","blank","325","null","0.36971364730078327","0.12793516850378542","0.5984442603468351","0","","","","","","","","",""
"","html-keyboard-response","212","556155","0.0-114.0-1.0","""event"",""trial"",""time""
""fullscreenenter"",""0"",""30851""
","
","
","""event"",""trial"",""time""
""fullscreenenter"",""0"",""30851""
","
","null","<p></p>","null","","","","","","","","","","","","","","","","","","","","","","","",""
"","do_recog","213","558782","0.0-115.0-0.0","""event"",""trial"",""time""
""fullscreenenter"",""0"",""30851""
","
","
","""event"",""trial"",""time""
""fullscreenenter"",""0"",""30851""
","
","1118.300000011921","","","","","","","","53","","","","326","probe-173","","","","","1","[object Object]","73","1","1","","","",""
"","html-keyboard-response","214","559785","0.0-115.0-1.0","""event"",""trial"",""time""
""fullscreenenter"",""0"",""30851""
","
","
","""event"",""trial"",""time""
""fullscreenenter"",""0"",""30851""
","
","null","<p></p>","null","","","","","","","","","","","","","","","","","","","","","","","",""
"","do_trial","215","562644","0.0-116.0-0.0","""event"",""trial"",""time""
""fullscreenenter"",""0"",""30851""
","
","
","""event"",""trial"",""time""
""fullscreenenter"",""0"",""30851""
","
","307.4000000357628","","","","","","","","49","1,1,0","6","blank","327","null","0.47456083674260413","0.14803161029506046","0.6040556585092323","1","","","","","","","","",""
"","html-keyboard-response","216","563651","0.0-116.0-1.0","""event"",""trial"",""time""
""fullscreenenter"",""0"",""30851""
","
","
","""event"",""trial"",""time""
""fullscreenenter"",""0"",""30851""
","
","null","<p></p>","null","","","","","","","","","","","","","","","","","","","","","","","",""
"","do_recog","217","566789","0.0-117.0-0.0","""event"",""trial"",""time""
""fullscreenenter"",""0"",""30851""
","
","
","""event"",""trial"",""time""
""fullscreenenter"",""0"",""30851""
","
","1627.800000011921","","","","","","","","56","","","","328","probe-204","","","","","1","[object Object]","32","0","0","","","",""
"","html-keyboard-response","218","567793","0.0-117.0-1.0","""event"",""trial"",""time""
""fullscreenenter"",""0"",""30851""
","
","
","""event"",""trial"",""time""
""fullscreenenter"",""0"",""30851""
","
","null","<p></p>","null","","","","","","","","","","","","","","","","","","","","","","","",""
"","do_trial","219","570786","0.0-118.0-0.0","""event"",""trial"",""time""
""fullscreenenter"",""0"",""30851""
","
","
","""event"",""trial"",""time""
""fullscreenenter"",""0"",""30851""
","
","436.30000001192093","","","","","","","","50","0,0,1","6","blank","329","null","0.36081699673812123","0.21810352256780052","0.7493125796216227","0","","","","","","","","",""
"","html-keyboard-response","220","571791","0.0-118.0-1.0","""event"",""trial"",""time""
""fullscreenenter"",""0"",""30851""
","
","
","""event"",""trial"",""time""
""fullscreenenter"",""0"",""30851""
","
","null","<p></p>","null","","","","","","","","","","","","","","","","","","","","","","","",""
"","do_recog","221","574317","0.0-119.0-0.0","""event"",""trial"",""time""
""fullscreenenter"",""0"",""30851""
","
","
","""event"",""trial"",""time""
""fullscreenenter"",""0"",""30851""
","
","1015.5","","","","","","","","53","","","","330","probe-134","","","","","1","[object Object]","150","3","1","","","",""
"","html-keyboard-response","222","575323","0.0-119.0-1.0","""event"",""trial"",""time""
""fullscreenenter"",""0"",""30851""
","
","
","""event"",""trial"",""time""
""fullscreenenter"",""0"",""30851""
","
","null","<p></p>","null","","","","","","","","","","","","","","","","","","","","","","","",""
"","do_trial","223","578307","0.0-120.0-0.0","""event"",""trial"",""time""
""fullscreenenter"",""0"",""30851""
","
","
","""event"",""trial"",""time""
""fullscreenenter"",""0"",""30851""
","
","433.89999997615814","","","","","","","","49","0,0,1","6","blank","331","null","0.24892018924399964","0.17777630336223518","0.6208862879765191","0","","","","","","","","",""
"","html-keyboard-response","224","579311","0.0-120.0-1.0","""event"",""trial"",""time""
""fullscreenenter"",""0"",""30851""
","
","
","""event"",""trial"",""time""
""fullscreenenter"",""0"",""30851""
","
","null","<p></p>","null","","","","","","","","","","","","","","","","","","","","","","","",""
"","do_trial","225","582331","0.0-121.0-0.0","""event"",""trial"",""time""
""fullscreenenter"",""0"",""30851""
","
","
","""event"",""trial"",""time""
""fullscreenenter"",""0"",""30851""
","
","463.5","","","","","","","","49","0,0,1","6","blank","332","null","0.3616817285677131","0.1287363166455902","0.6435555121299052","0","","","","","","","","",""
"","html-keyboard-response","226","583337","0.0-121.0-1.0","""event"",""trial"",""time""
""fullscreenenter"",""0"",""30851""
","
","
","""event"",""trial"",""time""
""fullscreenenter"",""0"",""30851""
","
","null","<p></p>","null","","","","","","","","","","","","","","","","","","","","","","","",""
"","do_trial","227","586228","0.0-122.0-0.0","""event"",""trial"",""time""
""fullscreenenter"",""0"",""30851""
","
","
","""event"",""trial"",""time""
""fullscreenenter"",""0"",""30851""
","
","337.69999998807907","","","","","","","","49","0,0,1","6","blank","333","null","0.3603395510552658","0.052178282325239106","0.5433407354012058","0","","","","","","","","",""
"","html-keyboard-response","228","587231","0.0-122.0-1.0","""event"",""trial"",""time""
""fullscreenenter"",""0"",""30851""
","
","
","""event"",""trial"",""time""
""fullscreenenter"",""0"",""30851""
","
","null","<p></p>","null","","","","","","","","","","","","","","","","","","","","","","","",""
"","do_trial","229","590154","0.0-123.0-0.0","""event"",""trial"",""time""
""fullscreenenter"",""0"",""30851""
","
","
","""event"",""trial"",""time""
""fullscreenenter"",""0"",""30851""
","
","376.5","","","","","","","","49","0,0,0","6","blank","334","null","0.29519359397919853","0.09702749443634456","0.4453752453775501","0","","","","","","","","",""
"","html-keyboard-response","230","591157","0.0-123.0-1.0","""event"",""trial"",""time""
""fullscreenenter"",""0"",""30851""
","
","
","""event"",""trial"",""time""
""fullscreenenter"",""0"",""30851""
","
","null","<p></p>","null","","","","","","","","","","","","","","","","","","","","","","","",""
"","do_trial","231","593982","0.0-124.0-0.0","""event"",""trial"",""time""
""fullscreenenter"",""0"",""30851""
","
","
","""event"",""trial"",""time""
""fullscreenenter"",""0"",""30851""
","
","268.2999999523163","","","","","","","","51","0,1,0","6","blank","335","null","0.19759516531213414","0.1810034031952867","0.4548932585282449","0","","","","","","","","",""
"","html-keyboard-response","232","594990","0.0-124.0-1.0","""event"",""trial"",""time""
""fullscreenenter"",""0"",""30851""
","
","
","""event"",""trial"",""time""
""fullscreenenter"",""0"",""30851""
","
","null","<p></p>","null","","","","","","","","","","","","","","","","","","","","","","","",""
"","do_recog","233","597655","0.0-125.0-0.0","""event"",""trial"",""time""
""fullscreenenter"",""0"",""30851""
","
","
","""event"",""trial"",""time""
""fullscreenenter"",""0"",""30851""
","
","1153","","","","","","","","53","","","","336","probe-15","","","","","1","[object Object]","110","2","1","","","",""
"","html-keyboard-response","234","598659","0.0-125.0-1.0","""event"",""trial"",""time""
""fullscreenenter"",""0"",""30851""
","
","
","""event"",""trial"",""time""
""fullscreenenter"",""0"",""30851""
","
","null","<p></p>","null","","","","","","","","","","","","","","","","","","","","","","","",""
"","do_trial","235","601499","0.0-126.0-0.0","""event"",""trial"",""time""
""fullscreenenter"",""0"",""30851""
","
","
","""event"",""trial"",""time""
""fullscreenenter"",""0"",""30851""
","
","286.39999997615814","","","","","","","","51","1,0,1","6","blank","337","null","0.14422073372467656","0.1441314831297912","0.5611023012939306","1","","","","","","","","",""
"","html-keyboard-response","236","602502","0.0-126.0-1.0","""event"",""trial"",""time""
""fullscreenenter"",""0"",""30851""
","
","
","""event"",""trial"",""time""
""fullscreenenter"",""0"",""30851""
","
","null","<p></p>","null","","","","","","","","","","","","","","","","","","","","","","","",""
"","do_trial","237","605400","0.0-127.0-0.0","""event"",""trial"",""time""
""fullscreenenter"",""0"",""30851""
","
","
","""event"",""trial"",""time""
""fullscreenenter"",""0"",""30851""
","
","346.69999998807907","","","","","","","","51","0,1,1","6","blank","338","null","0.12630225129502043","0.2713349901909352","0.6478826924211838","1","","","","","","","","",""
"","html-keyboard-response","238","606404","0.0-127.0-1.0","""event"",""trial"",""time""
""fullscreenenter"",""0"",""30851""
","
","
","""event"",""trial"",""time""
""fullscreenenter"",""0"",""30851""
","
","null","<p></p>","null","","","","","","","","","","","","","","","","","","","","","","","",""
"","do_trial","239","609252","0.0-128.0-0.0","""event"",""trial"",""time""
""fullscreenenter"",""0"",""30851""
","
","
","""event"",""trial"",""time""
""fullscreenenter"",""0"",""30851""
","
","293.10000002384186","","","","","","","","51","1,0,1","6","blank","339","null","0.31819387085581163","0.16320628233724424","0.8136969912793253","1","","","","","","","","",""
"","html-keyboard-response","240","610255","0.0-128.0-1.0","""event"",""trial"",""time""
""fullscreenenter"",""0"",""30851""
","
","
","""event"",""trial"",""time""
""fullscreenenter"",""0"",""30851""
","
","null","<p></p>","null","","","","","","","","","","","","","","","","","","","","","","","",""
"","do_recog","241","612762","0.0-129.0-0.0","""event"",""trial"",""time""
""fullscreenenter"",""0"",""30851""
","
","
","""event"",""trial"",""time""
""fullscreenenter"",""0"",""30851""
","
","998.5999999642372","","","","","","","","53","","","","340","probe-180","","","","","1","[object Object]","155","3","1","","","",""
"","html-keyboard-response","242","613766","0.0-129.0-1.0","""event"",""trial"",""time""
""fullscreenenter"",""0"",""30851""
","
","
","""event"",""trial"",""time""
""fullscreenenter"",""0"",""30851""
","
","null","<p></p>","null","","","","","","","","","","","","","","","","","","","","","","","",""
"","do_trial","243","616608","0.0-130.0-0.0","""event"",""trial"",""time""
""fullscreenenter"",""0"",""30851""
","
","
","""event"",""trial"",""time""
""fullscreenenter"",""0"",""30851""
","
","290.4000000357628","","","","","","","","51","1,0,1","6","blank","341","null","0.3315735531255032","0.15203456984872138","0.6889255466094343","1","","","","","","","","",""
"","html-keyboard-response","244","617611","0.0-130.0-1.0","""event"",""trial"",""time""
""fullscreenenter"",""0"",""30851""
","
","
","""event"",""trial"",""time""
""fullscreenenter"",""0"",""30851""
","
","null","<p></p>","null","","","","","","","","","","","","","","","","","","","","","","","",""
"","do_trial","245","620534","0.0-131.0-0.0","""event"",""trial"",""time""
""fullscreenenter"",""0"",""30851""
","
","
","""event"",""trial"",""time""
""fullscreenenter"",""0"",""30851""
","
","366.5","","","","","","","","51","0,0,1","6","blank","342","null","0.3235436363876673","0.09228361120042182","0.4089230415280207","1","","","","","","","","",""
"","html-keyboard-response","246","621542","0.0-131.0-1.0","""event"",""trial"",""time""
""fullscreenenter"",""0"",""30851""
","
","
","""event"",""trial"",""time""
""fullscreenenter"",""0"",""30851""
","
","null","<p></p>","null","","","","","","","","","","","","","","","","","","","","","","","",""
"","do_trial","247","624445","0.0-132.0-0.0","""event"",""trial"",""time""
""fullscreenenter"",""0"",""30851""
","
","
","""event"",""trial"",""time""
""fullscreenenter"",""0"",""30851""
","
","351.60000002384186","","","","","","","","51","0,0,0","6","blank","343","null","0.3485511987655006","0.12168272138260675","0.45317759088326975","0","","","","","","","","",""
"","html-keyboard-response","248","625449","0.0-132.0-1.0","""event"",""trial"",""time""
""fullscreenenter"",""0"",""30851""
","
","
","""event"",""trial"",""time""
""fullscreenenter"",""0"",""30851""
","
","null","<p></p>","null","","","","","","","","","","","","","","","","","","","","","","","",""
"","do_trial","249","628480","0.0-133.0-0.0","""event"",""trial"",""time""
""fullscreenenter"",""0"",""30851""
","
","
","""event"",""trial"",""time""
""fullscreenenter"",""0"",""30851""
","
","478.7999999523163","","","","","","","","51","0,0,1","6","blank","344","null","0.32092084069771404","0.0915490952189037","0.5249567252884547","1","","","","","","","","",""
"","html-keyboard-response","250","629482","0.0-133.0-1.0","""event"",""trial"",""time""
""fullscreenenter"",""0"",""30851""
","
","
","""event"",""trial"",""time""
""fullscreenenter"",""0"",""30851""
","
","null","<p></p>","null","","","","","","","","","","","","","","","","","","","","","","","",""
"","do_recog","251","632492","0.0-134.0-0.0","""event"",""trial"",""time""
""fullscreenenter"",""0"",""30851""
","
","
","""event"",""trial"",""time""
""fullscreenenter"",""0"",""30851""
","
","1498.199999988079","","","","","","","","53","","","","345","probe-184","","","","","1","[object Object]","119","2","1","","","",""
"","html-keyboard-response","252","633495","0.0-134.0-1.0","""event"",""trial"",""time""
""fullscreenenter"",""0"",""30851""
","
","
","""event"",""trial"",""time""
""fullscreenenter"",""0"",""30851""
","
","null","<p></p>","null","","","","","","","","","","","","","","","","","","","","","","","",""
"","do_trial","253","636496","0.0-135.0-0.0","""event"",""trial"",""time""
""fullscreenenter"",""0"",""30851""
","
","
","""event"",""trial"",""time""
""fullscreenenter"",""0"",""30851""
","
","445.80000001192093","","","","","","","","51","0,0,0","6","blank","346","null","0.40627705051372254","0.23692782740294846","0.511855645302808","0","","","","","","","","",""
"","html-keyboard-response","254","637501","0.0-135.0-1.0","""event"",""trial"",""time""
""fullscreenenter"",""0"",""30851""
","
","
","""event"",""trial"",""time""
""fullscreenenter"",""0"",""30851""
","
","null","<p></p>","null","","","","","","","","","","","","","","","","","","","","","","","",""
"","do_recog","255","640017","0.0-136.0-0.0","""event"",""trial"",""time""
""fullscreenenter"",""0"",""30851""
","
","
","""event"",""trial"",""time""
""fullscreenenter"",""0"",""30851""
","
","1007.1999999880791","","","","","","","","53","","","","347","probe-71","","","","","1","[object Object]","79","1","1","","","",""
"","html-keyboard-response","256","641022","0.0-136.0-1.0","""event"",""trial"",""time""
""fullscreenenter"",""0"",""30851""
","
","
","""event"",""trial"",""time""
""fullscreenenter"",""0"",""30851""
","
","null","<p></p>","null","","","","","","","","","","","","","","","","","","","","","","","",""
"","do_trial","257","644019","0.0-137.0-0.0","""event"",""trial"",""time""
""fullscreenenter"",""0"",""30851""
","
","
","""event"",""trial"",""time""
""fullscreenenter"",""0"",""30851""
","
","443","","","","","","","","51","1,0,0","6","blank","348","null","0.3751684541405939","0.14967000270702557","0.3711884390654146","0","","","","","","","","",""
"","html-keyboard-response","258","645026","0.0-137.0-1.0","""event"",""trial"",""time""
""fullscreenenter"",""0"",""30851""
","
","
","""event"",""trial"",""time""
""fullscreenenter"",""0"",""30851""
","
","null","<p></p>","null","","","","","","","","","","","","","","","","","","","","","","","",""
"","break","259","645695","0.0-138.0-0.0","""event"",""trial"",""time""
""fullscreenenter"",""0"",""30851""
","
","
","""event"",""trial"",""time""
""fullscreenenter"",""0"",""30851""
","
","667","<div class='center'><p>Time to take a quick break! You have 2 minutes to rest, but you can move on sooner if you'd like.</p><p> Press the <b>space bar</b> to continue.</p></div>","32","","","","","","","","","","","","","","","","","","","","","","","",""
"","do_trial","260","648804","0.0-138.0-1.0","""event"",""trial"",""time""
""fullscreenenter"",""0"",""30851""
","
","
","""event"",""trial"",""time""
""fullscreenenter"",""0"",""30851""
","
","587.6999999880791","","","","","","","","51","0,0,1","6","blank","349","null","0.364646010244242","0.18821103088826036","0.3419154522102922","1","","","","","","","","",""
"","html-keyboard-response","261","649810","0.0-138.0-2.0","""event"",""trial"",""time""
""fullscreenenter"",""0"",""30851""
","
","
","""event"",""trial"",""time""
""fullscreenenter"",""0"",""30851""
","
","null","<p></p>","null","","","","","","","","","","","","","","","","","","","","","","","",""
"","do_trial","262","652676","0.0-139.0-0.0","""event"",""trial"",""time""
""fullscreenenter"",""0"",""30851""
","
","
","""event"",""trial"",""time""
""fullscreenenter"",""0"",""30851""
","
","310.5999999642372","","","","","","","","51","0,0,0","6","blank","350","null","0.38124824162752446","0.07299712900064927","0.28306183841865806","0","","","","","","","","",""
"","html-keyboard-response","263","653684","0.0-139.0-1.0","""event"",""trial"",""time""
""fullscreenenter"",""0"",""30851""
","
","
","""event"",""trial"",""time""
""fullscreenenter"",""0"",""30851""
","
","null","<p></p>","null","","","","","","","","","","","","","","","","","","","","","","","",""
"","do_recog","264","656586","0.0-140.0-0.0","""event"",""trial"",""time""
""fullscreenenter"",""0"",""30851""
","
","
","""event"",""trial"",""time""
""fullscreenenter"",""0"",""30851""
","
","1392.9000000357628","","","","","","","","53","","","","351","probe-252","","","","","0","[object Object]","null","null","0","","","",""
"","html-keyboard-response","265","657592","0.0-140.0-1.0","""event"",""trial"",""time""
""fullscreenenter"",""0"",""30851""
","
","
","""event"",""trial"",""time""
""fullscreenenter"",""0"",""30851""
","
","null","<p></p>","null","","","","","","","","","","","","","","","","","","","","","","","",""
"","do_trial","266","660455","0.0-141.0-0.0","""event"",""trial"",""time""
""fullscreenenter"",""0"",""30851""
","
","
","""event"",""trial"",""time""
""fullscreenenter"",""0"",""30851""
","
","311.69999998807907","","","","","","","","51","0,0,0","6","blank","352","null","0.589309966424837","0.0881482838181767","0.3616488467456515","0","","","","","","","","",""
"","html-keyboard-response","267","661459","0.0-141.0-1.0","""event"",""trial"",""time""
""fullscreenenter"",""0"",""30851""
","
","
","""event"",""trial"",""time""
""fullscreenenter"",""0"",""30851""
","
","null","<p></p>","null","","","","","","","","","","","","","","","","","","","","","","","",""
"","do_trial","268","664320","0.0-142.0-0.0","""event"",""trial"",""time""
""fullscreenenter"",""0"",""30851""
","
","
","""event"",""trial"",""time""
""fullscreenenter"",""0"",""30851""
","
","309.60000002384186","","","","","","","","50","1,0,0","6","blank","353","null","0.7035685527080148","0.07190960001462422","0.22069561849319327","0","","","","","","","","",""
"","html-keyboard-response","269","665327","0.0-142.0-1.0","""event"",""trial"",""time""
""fullscreenenter"",""0"",""30851""
","
","
","""event"",""trial"",""time""
""fullscreenenter"",""0"",""30851""
","
","null","<p></p>","null","","","","","","","","","","","","","","","","","","","","","","","",""
"","do_trial","270","668134","0.0-143.0-0.0","""event"",""trial"",""time""
""fullscreenenter"",""0"",""30851""
","
","
","""event"",""trial"",""time""
""fullscreenenter"",""0"",""30851""
","
","247.9000000357628","","","","","","","","51","1,0,0","6","blank","354","null","0.5886949284702601","0.12164165544890525","0.1804508994563814","0","","","","","","","","",""
"","html-keyboard-response","271","669138","0.0-143.0-1.0","""event"",""trial"",""time""
""fullscreenenter"",""0"",""30851""
","
","
","""event"",""trial"",""time""
""fullscreenenter"",""0"",""30851""
","
","null","<p></p>","null","","","","","","","","","","","","","","","","","","","","","","","",""
"","do_trial","272","672044","0.0-144.0-0.0","""event"",""trial"",""time""
""fullscreenenter"",""0"",""30851""
","
","
","""event"",""trial"",""time""
""fullscreenenter"",""0"",""30851""
","
","351.0999999642372","","","","","","","","49","1,0,0","6","blank","355","null","0.5902110219935153","0.1378053795706829","0.21600766569571228","1","","","","","","","","",""
"","html-keyboard-response","273","673052","0.0-144.0-1.0","""event"",""trial"",""time""
""fullscreenenter"",""0"",""30851""
","
","
","""event"",""trial"",""time""
""fullscreenenter"",""0"",""30851""
","
","null","<p></p>","null","","","","","","","","","","","","","","","","","","","","","","","",""
"","do_trial","274","675965","0.0-145.0-0.0","""event"",""trial"",""time""
""fullscreenenter"",""0"",""30851""
","
","
","""event"",""trial"",""time""
""fullscreenenter"",""0"",""30851""
","
","361.19999998807907","","","","","","","","50","0,0,1","6","blank","356","null","0.6712934469027446","0.16791138562580177","0.16725042048218225","0","","","","","","","","",""
"","html-keyboard-response","275","676969","0.0-145.0-1.0","""event"",""trial"",""time""
""fullscreenenter"",""0"",""30851""
","
","
","""event"",""trial"",""time""
""fullscreenenter"",""0"",""30851""
","
","null","<p></p>","null","","","","","","","","","","","","","","","","","","","","","","","",""
"","do_trial","276","679889","0.0-146.0-0.0","""event"",""trial"",""time""
""fullscreenenter"",""0"",""30851""
","
","
