"success","trial_type","trial_index","time_elapsed","internal_node_id","interactions","blur_events","focus_events","fullscreenenter_events","fullscreenexit_events","rt","stimulus","key_press","subject_id","participant_id","age","gender","prompt","response","choice_outcomes","context_n","context_img_id","trial_n","probe_img_id","pR_red","pR_white","pR_black","outcome","is_valid","image_to_show","probed_trial","probed_context","correct","probe","probed_trial_n","probed_context_n","context_im"
"true","fullscreen","0","2864","0.0-0.0","""event"",""trial"",""time""
""fullscreenenter"",""0"",""1875""
","
","
","""event"",""trial"",""time""
""fullscreenenter"",""0"",""1875""
","
","","","","","","","","","","","","","","","","","","","","","","","","","","",""
"","pavlovia","1","2868","0.0-1.0","""event"",""trial"",""time""
""fullscreenenter"",""0"",""1875""
","
","
","""event"",""trial"",""time""
""fullscreenenter"",""0"",""1875""
","
","","","","","","","","","","","","","","","","","","","","","","","","","","",""
"","welc_back","2","12725","0.0-2.0","""event"",""trial"",""time""
""fullscreenenter"",""0"",""1875""
","
","
","""event"",""trial"",""time""
""fullscreenenter"",""0"",""1875""
","
","null","run_exp/static/audio/clip_29_welcome_back.m4a","null","1483","1756","25","Female","<div class='center'><p>Welcome to day 2!</p><p> Yesterday, you were the head captain of a pirate ship. You asked your fellow pirates to rob other ships of their gold across six different islands.</p></div>","","","","","","","","","","","","","","","","","","",""
"","html-keyboard-response","3","13450","0.0-3.0","""event"",""trial"",""time""
""fullscreenenter"",""0"",""1875""
","
","
","""event"",""trial"",""time""
""fullscreenenter"",""0"",""1875""
","
","723.6999998092651","<div class='center'><p>Welcome to day 2!</p><p> Yesterday, you were the head captain of a pirate ship. You asked your fellow pirates to rob other ships of their gold across six different islands.</p><p><b>[Press the space bar to continue]</b></p></div>","32","","","","","","","","","","","","","","","","","","","","","","","",""
"","day_1_summary_goal","4","30624","0.0-4.0","""event"",""trial"",""time""
""fullscreenenter"",""0"",""1875""
","
","
","""event"",""trial"",""time""
""fullscreenenter"",""0"",""1875""
","
","null","run_exp/static/audio/clip_30_goal_of_game.m4a","null","","","","","<div class='center'><p>Today, like yesterday, you get to pick which pirate you want to rob the next ship.</p><p>If the pirate is successful in robbing a ship, you get gold coins that look like this: </p><p><img src='run_exp/static/images/tutorial/reward.png' height='150'></p><p> If they were not successful in robbing the ship, then you will get no gold coins and you'll see a big red x like this: </p><p><img src='run_exp/static/images/tutorial/reward_no.png' height='150'></p></div>","","","","","","","","","","","","","","","","","","",""
"","html-keyboard-response","5","30966","0.0-5.0","""event"",""trial"",""time""
""fullscreenenter"",""0"",""1875""
","
","
","""event"",""trial"",""time""
""fullscreenenter"",""0"",""1875""
","
","340.3999996185303","<div class='center'><p>Today, like yesterday, you get to pick which pirate you want to rob the next ship.</p><p>If the pirate is successful in robbing a ship, you get gold coins that look like this: </p><p><img src='run_exp/static/images/tutorial/reward.png' height='150'></p><p> If they were not successful in robbing the ship, then you will get no gold coins and you'll see a big red x like this: </p><p><img src='run_exp/static/images/tutorial/reward_no.png' height='150'></p><p><b>[Press the space bar to continue]</b></p></div>","32","","","","","","","","","","","","","","","","","","","","","","","",""
"","day_1_summary_pick","6","45644","0.0-6.0","""event"",""trial"",""time""
""fullscreenenter"",""0"",""1875""
","
","
","""event"",""trial"",""time""
""fullscreenenter"",""0"",""1875""
","
","null","run_exp/static/audio/clip_31_how_to_pick_a_pirate.m4a","null","","","","","<div class='center'><p>Also, just like yesterday, you will use the 1,2,3 keys on your keyboard to pick a pirate. Press '1' to choose red beard, '2' to choose white beard, and '3' to choose black beard . You only have 3 seconds to pick a pirate, so please make a choice quickly!</p></div>","","","","","","","","","","","","","","","","","","",""
"","html-keyboard-response","7","46037","0.0-7.0","""event"",""trial"",""time""
""fullscreenenter"",""0"",""1875""
","
","
","""event"",""trial"",""time""
""fullscreenenter"",""0"",""1875""
","
","391.90000009536743","<div class='center'><p>Also, just like yesterday, you will use the 1,2,3 keys on your keyboard to pick a pirate. Press '1' to choose red beard, '2' to choose white beard, and '3' to choose black beard . You only have 3 seconds to pick a pirate, so please make a choice quickly!</p><p><b>[Press the space bar to continue]</b></p></div>","32","","","","","","","","","","","","","","","","","","","","","","","",""
"","test_phase_begin","8","76424","0.0-8.0","""event"",""trial"",""time""
""fullscreenenter"",""0"",""1875""
","
","
","""event"",""trial"",""time""
""fullscreenenter"",""0"",""1875""
","
","null","run_exp/static/audio/clip_32_final_place.m4a","null","","","","","<div class='center'><p>You’ve arrived at the final island of your journey! Unfortunately, it’s very foggy out, so you won’t be able to see it in the distance like the other islands you've visited.</p><p>You’ll still be deciding which pirate you want to rob a ship like before. However, because of the fog, you also won’t be able to see the ship.</p><p>This means you do not have to remember the ships you rob on this island.</p><p>Unlike yesterday, you won't be visiting multiple islands today. You will stay on this island for the entire game. This game will last ~30 minutes.</p></div>","","","","","","","","","","","","","","","","","","",""
"","html-keyboard-response","9","76737","0.0-9.0","""event"",""trial"",""time""
""fullscreenenter"",""0"",""1875""
","
","
","""event"",""trial"",""time""
""fullscreenenter"",""0"",""1875""
","
","312.09999990463257","<div class='center'><p>You’ve arrived at the final island of your journey! Unfortunately, it’s very foggy out, so you won’t be able to see it in the distance like the other islands you've visited.</p><p>You’ll still be deciding which pirate you want to rob a ship like before. However, because of the fog, you also won’t be able to see the ship.</p><p>This means you do not have to remember the ships you rob on this island.</p><p>Unlike yesterday, you won't be visiting multiple islands today. You will stay on this island for the entire game. This game will last ~30 minutes.</p><p><b>[Press the space bar to continue]</b></p></div>","32","","","","","","","","","","","","","","","","","","","","","","","",""
"","explain_probe_1","10","84444","0.0-10.0","""event"",""trial"",""time""
""fullscreenenter"",""0"",""1875""
","
","
","""event"",""trial"",""time""
""fullscreenenter"",""0"",""1875""
","
","null","run_exp/static/audio/clip_33_recognition_1.m4a","null","","","","","<div class='center'><p> Sometimes you’ll be shown a ship, and you will be asked if you saw this ship on a past island.</p><p> Here is an example of what you will see.</p><p><img src='run_exp/static/images/tutorial/example_recog_trial.png' height='500'></p></div>","","","","","","","","","","","","","","","","","","",""
"","html-keyboard-response","11","86193","0.0-11.0","""event"",""trial"",""time""
""fullscreenenter"",""0"",""1875""
","
","
","""event"",""trial"",""time""
""fullscreenenter"",""0"",""1875""
","
","1746.9000000953674","<div class='center'><p> Sometimes you’ll be shown a ship, and you will be asked if you saw this ship on a past island.</p><p> Here is an example of what you will see.</p><p><img src='run_exp/static/images/tutorial/example_recog_trial.png' height='500'></p><p><b>[Press the space bar to continue]</b></p></div>","32","","","","","","","","","","","","","","","","","","","","","","","",""
"","explain_probe_2","12","107904","0.0-12.0","""event"",""trial"",""time""
""fullscreenenter"",""0"",""1875""
","
","
","""event"",""trial"",""time""
""fullscreenenter"",""0"",""1875""
","
","null","run_exp/static/audio/clip_34_recognition_2.m4a","null","","","","","<div class='center'><p> You will press the 5, 6, 7, 8 keys on your keyboard to respond.</p><p>If you are sure you saw the ship, press <b>5</b> on your keyboard.</p><p> If you think you saw it before but aren't sure, then press <b>6</b>.</p><p> If you think you have <b>not</b> seen it before but aren't sure, then press <b>7</b>.</p><p> If you are sure you did <b>not</b> see the ship before, then press <b>8</b>.</p><p><img src='run_exp/static/images/tutorial/example_recog_trial.png' height='500'></p></div>","","","","","","","","","","","","","","","","","","",""
"","html-keyboard-response","13","108629","0.0-13.0","""event"",""trial"",""time""
""fullscreenenter"",""0"",""1875""
","
","
","""event"",""trial"",""time""
""fullscreenenter"",""0"",""1875""
","
","723.7000002861023","<div class='center'><p> You will press the 5, 6, 7, 8 keys on your keyboard to respond.</p><p>If you are sure you saw the ship, press <b>5</b> on your keyboard.</p><p> If you think you saw it before but aren't sure, then press <b>6</b>.</p><p> If you think you have <b>not</b> seen it before but aren't sure, then press <b>7</b>.</p><p> If you are sure you did <b>not</b> see the ship before, then press <b>8</b>.</p><p><img src='run_exp/static/images/tutorial/example_recog_trial.png' height='500'></p><p><b>[Press the space bar to continue]</b></p></div>","32","","","","","","","","","","","","","","","","","","","","","","","",""
"","explain_outcome","14","125824","0.0-14.0","""event"",""trial"",""time""
""fullscreenenter"",""0"",""1875""
","
","
","""event"",""trial"",""time""
""fullscreenenter"",""0"",""1875""
","
","null","run_exp/static/audio/clip_35_recognition_3.m4a","null","","","","","<div class='center'><p> If you remember correctly, then you’ll get a gold coin like this: </p><p><img src='run_exp/static/images/tutorial/reward_small.png' height='200'></p><p>If you do not remember correctly, then you'll see a red x like this: </p><p><img src='run_exp/static/images/tutorial/reward_no.png' height='200'></p><p>Importantly, when you are shown a ship, take the time to remind yourself which island you saw it on. This will help you in the next part of the study.</p></div>","","","","","","","","","","","","","","","","","","",""
"","html-keyboard-response","15","130762","0.0-15.0","""event"",""trial"",""time""
""fullscreenenter"",""0"",""1875""
","
","
","""event"",""trial"",""time""
""fullscreenenter"",""0"",""1875""
","
","4936.200000286102","<div class='center'><p> If you remember correctly, then you’ll get a gold coin like this: </p><p><img src='run_exp/static/images/tutorial/reward_small.png' height='200'></p><p>If you do not remember correctly, then you'll see a red x like this: </p><p><img src='run_exp/static/images/tutorial/reward_no.png' height='200'></p><p>Importantly, when you are shown a ship, take the time to remind yourself which island you saw it on. This will help you in the next part of the study.</p><p><b>[Press the space bar to continue]</b></p></div>","32","","","","","","","","","","","","","","","","","","","","","","","",""
"","begin_test_phase","16","146565","0.0-16.0","""event"",""trial"",""time""
""fullscreenenter"",""0"",""1875""
","
","
","""event"",""trial"",""time""
""fullscreenenter"",""0"",""1875""
","
","null","run_exp/static/audio/clip_36_begin_final.m4a","null","","","","","<div class='center'><p>Let's go over the important points again. Your job is to: </p><p>1. Pick the pirate who is best at robbing ships and will bring you back gold coins. </p><p>2. Correctly remember whether or not you saw a ship before. If you did see the ship before, remind yourself on which island you saw it. </p></div>","","","","","","","","","","","","","","","","","","",""
"","html-keyboard-response","17","148308","0.0-17.0","""event"",""trial"",""time""
""fullscreenenter"",""0"",""1875""
","
","
","""event"",""trial"",""time""
""fullscreenenter"",""0"",""1875""
","
","1706.1999998092651","<div class='center'><p>Let's go over the important points again. Your job is to: </p><p>1. Pick the pirate who is best at robbing ships and will bring you back gold coins. </p><p>2. Correctly remember whether or not you saw a ship before. If you did see the ship before, remind yourself on which island you saw it. </p><p><b>[Press the space bar to continue]</b></p></div>","32","","","","","","","","","","","","","","","","","","","","","","","",""
"","do_welcome","18","152329","0.0-18.0","""event"",""trial"",""time""
""fullscreenenter"",""0"",""1875""
","
","
","""event"",""trial"",""time""
""fullscreenenter"",""0"",""1875""
","
","null","","","","","","","","null","","","","","","","","","","","","","","","","","",""
"","do_trial","19","156338","0.0-19.0-0.0","""event"",""trial"",""time""
""fullscreenenter"",""0"",""1875""
","
","
","""event"",""trial"",""time""
""fullscreenenter"",""0"",""1875""
","
","1444.0999999046326","","","","","","","","49","0,0,1","6","blank","230","null","0.19259327170855023","0.4511699335523356","0.40997510334452103","0","","","","","","","","",""
"","html-keyboard-response","20","157345","0.0-19.0-1.0","""event"",""trial"",""time""
""fullscreenenter"",""0"",""1875""
","
","
","""event"",""trial"",""time""
""fullscreenenter"",""0"",""1875""
","
","null","<p></p>","null","","","","","","","","","","","","","","","","","","","","","","","",""
"","do_trial","21","160183","0.0-20.0-0.0","""event"",""trial"",""time""
""fullscreenenter"",""0"",""1875""
","
","
","""event"",""trial"",""time""
""fullscreenenter"",""0"",""1875""
","
","277.5","","","","","","","","49","0,0,0","6","blank","231","null","0.1411592321942339","0.5698462684845618","0.3791383789339644","0","","","","","","","","",""
"","html-keyboard-response","22","161194","0.0-20.0-1.0","""event"",""trial"",""time""
""fullscreenenter"",""0"",""1875""
","
","
","""event"",""trial"",""time""
""fullscreenenter"",""0"",""1875""
","
","null","<p></p>","null","","","","","","","","","","","","","","","","","","","","","","","",""
"","do_trial","23","164020","0.0-21.0-0.0","""event"",""trial"",""time""
""fullscreenenter"",""0"",""1875""
","
","
","""event"",""trial"",""time""
""fullscreenenter"",""0"",""1875""
","
","274.40000009536743","","","","","","","","51","0,0,0","6","blank","232","null","0.09894407394632117","0.4268076742401905","0.27440896871569126","0","","","","","","","","",""
"","html-keyboard-response","24","165038","0.0-21.0-1.0","""event"",""trial"",""time""
""fullscreenenter"",""0"",""1875""
","
","
","""event"",""trial"",""time""
""fullscreenenter"",""0"",""1875""
","
","null","<p></p>","null","","","","","","","","","","","","","","","","","","","","","","","",""
"","do_trial","25","167873","0.0-22.0-0.0","""event"",""trial"",""time""
""fullscreenenter"",""0"",""1875""
","
","
","""event"",""trial"",""time""
""fullscreenenter"",""0"",""1875""
","
","294.3999996185303","","","","","","","","51","0,1,0","6","blank","233","null","0.2231951097760239","0.4335628984011205","0.2887885913358847","0","","","","","","","","",""
"","html-keyboard-response","26","168882","0.0-22.0-1.0","""event"",""trial"",""time""
""fullscreenenter"",""0"",""1875""
","
","
","""event"",""trial"",""time""
""fullscreenenter"",""0"",""1875""
","
","null","<p></p>","null","","","","","","","","","","","","","","","","","","","","","","","",""
"","do_trial","27","171691","0.0-23.0-0.0","""event"",""trial"",""time""
""fullscreenenter"",""0"",""1875""
","
","
","""event"",""trial"",""time""
""fullscreenenter"",""0"",""1875""
","
","266.1000003814697","","","","","","","","51","0,1,1","6","blank","234","null","0.051551634019711766","0.5218087146719053","0.3589187148131363","1","","","","","","","","",""
"","html-keyboard-response","28","172705","0.0-23.0-1.0","""event"",""trial"",""time""
""fullscreenenter"",""0"",""1875""
","
","
","""event"",""trial"",""time""
""fullscreenenter"",""0"",""1875""
","
","null","<p></p>","null","","","","","","","","","","","","","","","","","","","","","","","",""
"","do_trial","29","175632","0.0-24.0-0.0","""event"",""trial"",""time""
""fullscreenenter"",""0"",""1875""
","
","
","""event"",""trial"",""time""
""fullscreenenter"",""0"",""1875""
","
","368.30000019073486","","","","","","","","51","0,1,1","6","blank","235","null","0.1869132234935303","0.6419378908915827","0.20164707822624073","1","","","","","","","","",""
"","html-keyboard-response","30","176635","0.0-24.0-1.0","""event"",""trial"",""time""
""fullscreenenter"",""0"",""1875""
","
","
","""event"",""trial"",""time""
""fullscreenenter"",""0"",""1875""
","
","null","<p></p>","null","","","","","","","","","","","","","","","","","","","","","","","",""
"","do_trial","31","179690","0.0-25.0-0.0","""event"",""trial"",""time""
""fullscreenenter"",""0"",""1875""
","
","
","""event"",""trial"",""time""
""fullscreenenter"",""0"",""1875""
","
","495.09999990463257","","","","","","","","51","1,1,0","6","blank","236","null","0.05579819258877919","0.7136102386690005","0.1875190465794831","0","","","","","","","","",""
"","html-keyboard-response","32","180697","0.0-25.0-1.0","""event"",""trial"",""time""
""fullscreenenter"",""0"",""1875""
","
","
","""event"",""trial"",""time""
""fullscreenenter"",""0"",""1875""
","
","null","<p></p>","null","","","","","","","","","","","","","","","","","","","","","","","",""
"","do_trial","33","183504","0.0-26.0-0.0","""event"",""trial"",""time""
""fullscreenenter"",""0"",""1875""
","
","
","""event"",""trial"",""time""
""fullscreenenter"",""0"",""1875""
","
","248.90000009536743","","","","","","","","51","0,1,0","6","blank","237","null","0.16476389195026767","0.7734234652502139","0.15638914400709997","0","","","","","","","","",""
"","html-keyboard-response","34","184515","0.0-26.0-1.0","""event"",""trial"",""time""
""fullscreenenter"",""0"",""1875""
","
","
","""event"",""trial"",""time""
""fullscreenenter"",""0"",""1875""
","
","null","<p></p>","null","","","","","","","","","","","","","","","","","","","","","","","",""
"","do_trial","35","187464","0.0-27.0-0.0","""event"",""trial"",""time""
""fullscreenenter"",""0"",""1875""
","
","
","""event"",""trial"",""time""
""fullscreenenter"",""0"",""1875""
","
","381.90000009536743","","","","","","","","50","0,1,1","6","blank","238","null","0.1634227584277211","0.6242649358426289","0.33050853027249316","1","","","","","","","","",""
"","html-keyboard-response","36","188481","0.0-27.0-1.0","""event"",""trial"",""time""
""fullscreenenter"",""0"",""1875""
","
","
","""event"",""trial"",""time""
""fullscreenenter"",""0"",""1875""
","
","null","<p></p>","null","","","","","","","","","","","","","","","","","","","","","","","",""
"","do_trial","37","191376","0.0-28.0-0.0","""event"",""trial"",""time""
""fullscreenenter"",""0"",""1875""
","
","
","""event"",""trial"",""time""
""fullscreenenter"",""0"",""1875""
","
","341","","","","","","","","50","0,0,0","6","blank","239","null","0.12130843421328176","0.4863788762815648","0.34460112558194284","0","","","","","","","","",""
"","html-keyboard-response","38","192388","0.0-28.0-1.0","""event"",""trial"",""time""
""fullscreenenter"",""0"",""1875""
","
","
","""event"",""trial"",""time""
""fullscreenenter"",""0"",""1875""
","
","null","<p></p>","null","","","","","","","","","","","","","","","","","","","","","","","",""
"","do_trial","39","195222","0.0-29.0-0.0","""event"",""trial"",""time""
""fullscreenenter"",""0"",""1875""
","
","
","""event"",""trial"",""time""
""fullscreenenter"",""0"",""1875""
","
","279.2000002861023","","","","","","","","50","0,0,1","6","blank","240","null","0.07040104010311676","0.3240246066869926","0.3878871175325718","0","","","","","","","","",""
"","html-keyboard-response","40","196228","0.0-29.0-1.0","""event"",""trial"",""time""
""fullscreenenter"",""0"",""1875""
","
","
","""event"",""trial"",""time""
""fullscreenenter"",""0"",""1875""
","
","null","<p></p>","null","","","","","","","","","","","","","","","","","","","","","","","",""
"","do_trial","41","199028","0.0-30.0-0.0","""event"",""trial"",""time""
""fullscreenenter"",""0"",""1875""
","
","
","""event"",""trial"",""time""
""fullscreenenter"",""0"",""1875""
","
","239.09999990463257","","","","","","","","49","0,0,1","6","blank","241","null","0.08504675338437298","0.285770935417404","0.4588867805698411","0","","","","","","","","",""
"","html-keyboard-response","42","200039","0.0-30.0-1.0","""event"",""trial"",""time""
""fullscreenenter"",""0"",""1875""
","
","
","""event"",""trial"",""time""
""fullscreenenter"",""0"",""1875""
","
","null","<p></p>","null","","","","","","","","","","","","","","","","","","","","","","","",""
"","do_trial","43","202876","0.0-31.0-0.0","""event"",""trial"",""time""
""fullscreenenter"",""0"",""1875""
","
","
","""event"",""trial"",""time""
""fullscreenenter"",""0"",""1875""
","
","276.7999997138977","","","","","","","","49","0,1,1","6","blank","242","null","0.10183324485484903","0.21150139861037137","0.573728185722364","0","","","","","","","","",""
"","html-keyboard-response","44","203884","0.0-31.0-1.0","""event"",""trial"",""time""
""fullscreenenter"",""0"",""1875""
","
","
","""event"",""trial"",""time""
""fullscreenenter"",""0"",""1875""
","
","null","<p></p>","null","","","","","","","","","","","","","","","","","","","","","","","",""
"","do_trial","45","206720","0.0-32.0-0.0","""event"",""trial"",""time""
""fullscreenenter"",""0"",""1875""
","
","
","""event"",""trial"",""time""
""fullscreenenter"",""0"",""1875""
","
","267.8999996185303","","","","","","","","49","0,0,1","6","blank","243","null","0.18222556909491097","0.3251694243661647","0.559531433711182","0","","","","","","","","",""
"","html-keyboard-response","46","207733","0.0-32.0-1.0","""event"",""trial"",""time""
""fullscreenenter"",""0"",""1875""
","
","
","""event"",""trial"",""time""
""fullscreenenter"",""0"",""1875""
","
","null","<p></p>","null","","","","","","","","","","","","","","","","","","","","","","","",""
"","do_recog","47","213753","0.0-33.0-0.0","""event"",""trial"",""time""
""fullscreenenter"",""0"",""1875""
","
","
","""event"",""trial"",""time""
""fullscreenenter"",""0"",""1875""
","
","null","","","","","","","","null","","","","244","probe-89","","","","","1","[object Object]","193","4","0","","","",""
"","html-keyboard-response","48","214761","0.0-33.0-1.0","""event"",""trial"",""time""
""fullscreenenter"",""0"",""1875""
","
","
","""event"",""trial"",""time""
""fullscreenenter"",""0"",""1875""
","
","null","<p></p>","null","","","","","","","","","","","","","","","","","","","","","","","",""
"","do_trial","49","218212","0.0-34.0-0.0","""event"",""trial"",""time""
""fullscreenenter"",""0"",""1875""
","
","
","""event"",""trial"",""time""
""fullscreenenter"",""0"",""1875""
","
","897.6999998092651","","","","","","","","49","0,0,0","6","blank","245","null","0.0545278391936475","0.21960572261503283","0.5734826453485201","0","","","","","","","","",""
"","html-keyboard-response","50","219214","0.0-34.0-1.0","""event"",""trial"",""time""
""fullscreenenter"",""0"",""1875""
","
","
","""event"",""trial"",""time""
""fullscreenenter"",""0"",""1875""
","
","null","<p></p>","null","","","","","","","","","","","","","","","","","","","","","","","",""
"","do_trial","51","222079","0.0-35.0-0.0","""event"",""trial"",""time""
""fullscreenenter"",""0"",""1875""
","
","
","""event"",""trial"",""time""
""fullscreenenter"",""0"",""1875""
","
","326.80000019073486","","","","","","","","49","0,0,1","6","blank","246","null","0.18899702874961474","0.10997289581396173","0.5950857181988668","0","","","","","","","","",""
"","html-keyboard-response","52","223086","0.0-35.0-1.0","""event"",""trial"",""time""
""fullscreenenter"",""0"",""1875""
","
","
","""event"",""trial"",""time""
""fullscreenenter"",""0"",""1875""
","
","null","<p></p>","null","","","","","","","","","","","","","","","","","","","","","","","",""
"","do_recog","53","226183","0.0-36.0-0.0","""event"",""trial"",""time""
""fullscreenenter"",""0"",""1875""
","
","
","""event"",""trial"",""time""
""fullscreenenter"",""0"",""1875""
","
","1579.8000001907349","","","","","","","","53","","","","247","probe-85","","","","","1","[object Object]","154","3","1","","","",""
"","html-keyboard-response","54","227197","0.0-36.0-1.0","""event"",""trial"",""time""
""fullscreenenter"",""0"",""1875""
","
","
","""event"",""trial"",""time""
""fullscreenenter"",""0"",""1875""
","
","null","<p></p>","null","","","","","","","","","","","","","","","","","","","","","","","",""
"","do_trial","55","230989","0.0-37.0-0.0","""event"",""trial"",""time""
""fullscreenenter"",""0"",""1875""
","
","
","""event"",""trial"",""time""
""fullscreenenter"",""0"",""1875""
","
","1227.9000000953674","","","","","","","","50","1,0,0","6","blank","248","null","0.06693253659635405","0.1489480933330802","0.5110659819093423","0","","","","","","","","",""
"","html-keyboard-response","56","231992","0.0-37.0-1.0","""event"",""trial"",""time""
""fullscreenenter"",""0"",""1875""
","
","
","""event"",""trial"",""time""
""fullscreenenter"",""0"",""1875""
","
","null","<p></p>","null","","","","","","","","","","","","","","","","","","","","","","","",""
"","do_recog","57","235639","0.0-38.0-0.0","""event"",""trial"",""time""
""fullscreenenter"",""0"",""1875""
","
","
","""event"",""trial"",""time""
""fullscreenenter"",""0"",""1875""
","
","2139.7000002861023","","","","","","","","55","","","","249","probe-194","","","","","1","[object Object]","117","2","0","","","",""
"","html-keyboard-response","58","236655","0.0-38.0-1.0","""event"",""trial"",""time""
""fullscreenenter"",""0"",""1875""
","
","
","""event"",""trial"",""time""
""fullscreenenter"",""0"",""1875""
","
","null","<p></p>","null","","","","","","","","","","","","","","","","","","","","","","","",""
"","do_trial","59","239759","0.0-39.0-0.0","""event"",""trial"",""time""
""fullscreenenter"",""0"",""1875""
","
","
","""event"",""trial"",""time""
""fullscreenenter"",""0"",""1875""
","
","552.5999999046326","","","","","","","","50","0,0,1","6","blank","250","null","0.10716561132551763","0.13880634836034114","0.6033684641633019","0","","","","","","","","",""
"","html-keyboard-response","60","240770","0.0-39.0-1.0","""event"",""trial"",""time""
""fullscreenenter"",""0"",""1875""
","
","
","""event"",""trial"",""time""
""fullscreenenter"",""0"",""1875""
","
","null","<p></p>","null","","","","","","","","","","","","","","","","","","","","","","","",""
"","do_trial","61","243782","0.0-40.0-0.0","""event"",""trial"",""time""
""fullscreenenter"",""0"",""1875""
","
","
","""event"",""trial"",""time""
""fullscreenenter"",""0"",""1875""
","
","455.69999980926514","","","","","","","","50","0,0,1","6","blank","251","null","0.07323908322645434","0.10549748917135635","0.7074485863271615","0","","","","","","","","",""
"","html-keyboard-response","62","244791","0.0-40.0-1.0","""event"",""trial"",""time""
""fullscreenenter"",""0"",""1875""
","
","
","""event"",""trial"",""time""
""fullscreenenter"",""0"",""1875""
","
","null","<p></p>","null","","","","","","","","","","","","","","","","","","","","","","","",""
"","do_trial","63","247609","0.0-41.0-0.0","""event"",""trial"",""time""
""fullscreenenter"",""0"",""1875""
","
","
","""event"",""trial"",""time""
""fullscreenenter"",""0"",""1875""
","
","272.09999990463257","","","","","","","","51","0,0,0","6","blank","252","null","0.11165857104701274","0.12129869438272532","0.5870308379712293","0","","","","","","","","",""
"","html-keyboard-response","64","248621","0.0-41.0-1.0","""event"",""trial"",""time""
""fullscreenenter"",""0"",""1875""
","
","
","""event"",""trial"",""time""
""fullscreenenter"",""0"",""1875""
","
","null","<p></p>","null","","","","","","","","","","","","","","","","","","","","","","","",""
"","do_trial","65","251862","0.0-42.0-0.0","""event"",""trial"",""time""
""fullscreenenter"",""0"",""1875""
","
","
","""event"",""trial"",""time""
""fullscreenenter"",""0"",""1875""
","
","685.9000000953674","","","","","","","","51","0,0,0","6","blank","253","null","0.1856157789732075","0.3004611951281861","0.6328781368474063","0","","","","","","","","",""
"","html-keyboard-response","66","252874","0.0-42.0-1.0","""event"",""trial"",""time""
""fullscreenenter"",""0"",""1875""
","
","
","""event"",""trial"",""time""
""fullscreenenter"",""0"",""1875""
","
","null","<p></p>","null","","","","","","","","","","","","","","","","","","","","","","","",""
"","do_trial","67","256523","0.0-43.0-0.0","""event"",""trial"",""time""
""fullscreenenter"",""0"",""1875""
","
","
","""event"",""trial"",""time""
""fullscreenenter"",""0"",""1875""
","
","1106.9000000953674","","","","","","","","49","0,0,1","6","blank","254","null","0.18482602701351794","0.3632483158132096","0.5735809255646035","0","","","","","","","","",""
"","html-keyboard-response","68","257534","0.0-43.0-1.0","""event"",""trial"",""time""
""fullscreenenter"",""0"",""1875""
","
","
","""event"",""trial"",""time""
""fullscreenenter"",""0"",""1875""
","
","null","<p></p>","null","","","","","","","","","","","","","","","","","","","","","","","",""
"","do_recog","69","260322","0.0-44.0-0.0","""event"",""trial"",""time""
""fullscreenenter"",""0"",""1875""
","
","
","""event"",""trial"",""time""
""fullscreenenter"",""0"",""1875""
","
","1277.7999997138977","","","","","","","","54","","","","255","probe-146","","","","","1","[object Object]","115","2","1","","","",""
"","html-keyboard-response","70","261329","0.0-44.0-1.0","""event"",""trial"",""time""
""fullscreenenter"",""0"",""1875""
","
","
","""event"",""trial"",""time""
""fullscreenenter"",""0"",""1875""
","
","null","<p></p>","null","","","","","","","","","","","","","","","","","","","","","","","",""
"","do_trial","71","264496","0.0-45.0-0.0","""event"",""trial"",""time""
""fullscreenenter"",""0"",""1875""
","
","
","""event"",""trial"",""time""
""fullscreenenter"",""0"",""1875""
","
","606.3000001907349","","","","","","","","51","0,1,0","6","blank","256","null","0.07377216490399016","0.2924295191487019","0.4703479261340635","0","","","","","","","","",""
"","html-keyboard-response","72","265499","0.0-45.0-1.0","""event"",""trial"",""time""
""fullscreenenter"",""0"",""1875""
","
","
","""event"",""trial"",""time""
""fullscreenenter"",""0"",""1875""
","
","null","<p></p>","null","","","","","","","","","","","","","","","","","","","","","","","",""
"","do_trial","73","268412","0.0-46.0-0.0","""event"",""trial"",""time""
""fullscreenenter"",""0"",""1875""
","
","
","""event"",""trial"",""time""
""fullscreenenter"",""0"",""1875""
","
","374.30000019073486","","","","","","","","50","0,1,0","6","blank","257","null","0.13975969985416423","0.32143516942666955","0.4534280953306995","1","","","","","","","","",""
"","html-keyboard-response","74","269416","0.0-46.0-1.0","""event"",""trial"",""time""
""fullscreenenter"",""0"",""1875""
","
","
","""event"",""trial"",""time""
""fullscreenenter"",""0"",""1875""
","
","null","<p></p>","null","","","","","","","","","","","","","","","","","","","","","","","",""
"","do_recog","75","272762","0.0-47.0-0.0","""event"",""trial"",""time""
""fullscreenenter"",""0"",""1875""
","
","
","""event"",""trial"",""time""
""fullscreenenter"",""0"",""1875""
","
","1835.5","","","","","","","","55","","","","258","probe-221","","","","","1","[object Object]","113","2","0","","","",""
"","html-keyboard-response","76","273772","0.0-47.0-1.0","""event"",""trial"",""time""
""fullscreenenter"",""0"",""1875""
","
","
","""event"",""trial"",""time""
""fullscreenenter"",""0"",""1875""
","
","null","<p></p>","null","","","","","","","","","","","","","","","","","","","","","","","",""
"","do_trial","77","277318","0.0-48.0-0.0","""event"",""trial"",""time""
""fullscreenenter"",""0"",""1875""
","
","
","""event"",""trial"",""time""
""fullscreenenter"",""0"",""1875""
","
","1011.7999997138977","","","","","","","","50","0,1,1","6","blank","259","null","0.08349940564551186","0.32582108441725594","0.46023091955658296","1","","","","","","","","",""
"","html-keyboard-response","78","278325","0.0-48.0-1.0","""event"",""trial"",""time""
""fullscreenenter"",""0"",""1875""
","
","
","""event"",""trial"",""time""
""fullscreenenter"",""0"",""1875""
","
","null","<p></p>","null","","","","","","","","","","","","","","","","","","","","","","","",""
"","do_recog","79","282080","0.0-49.0-0.0","""event"",""trial"",""time""
""fullscreenenter"",""0"",""1875""
","
","
","""event"",""trial"",""time""
""fullscreenenter"",""0"",""1875""
","
","2240.300000190735","","","","","","","","55","","","","260","probe-239","","","","","0","[object Object]","null","null","1","","","",""
"","html-keyboard-response","80","283088","0.0-49.0-1.0","""event"",""trial"",""time""
""fullscreenenter"",""0"",""1875""
","
","
","""event"",""trial"",""time""
""fullscreenenter"",""0"",""1875""
","
","null","<p></p>","null","","","","","","","","","","","","","","","","","","","","","","","",""
"","do_trial","81","286747","0.0-50.0-0.0","""event"",""trial"",""time""
""fullscreenenter"",""0"",""1875""
","
","
","""event"",""trial"",""time""
""fullscreenenter"",""0"",""1875""
","
","1099.4000000953674","","","","","","","","51","0,0,1","6","blank","261","null","0.06223159900702378","0.08946082479265258","0.5010231762672223","1","","","","","","","","",""
"","html-keyboard-response","82","287755","0.0-50.0-1.0","""event"",""trial"",""time""
""fullscreenenter"",""0"",""1875""
","
","
","""event"",""trial"",""time""
""fullscreenenter"",""0"",""1875""
","
","null","<p></p>","null","","","","","","","","","","","","","","","","","","","","","","","",""
"","do_recog","83","290915","0.0-51.0-0.0","""event"",""trial"",""time""
""fullscreenenter"",""0"",""1875""
","
","
","""event"",""trial"",""time""
""fullscreenenter"",""0"",""1875""
","
","1651","","","","","","","","53","","","","262","probe-20","","","","","1","[object Object]","76","1","1","","","",""
"","html-keyboard-response","84","291929","0.0-51.0-1.0","""event"",""trial"",""time""
""fullscreenenter"",""0"",""1875""
","
","
","""event"",""trial"",""time""
""fullscreenenter"",""0"",""1875""
","
","null","<p></p>","null","","","","","","","","","","","","","","","","","","","","","","","",""
"","do_trial","85","295720","0.0-52.0-0.0","""event"",""trial"",""time""
""fullscreenenter"",""0"",""1875""
","
","
","""event"",""trial"",""time""
""fullscreenenter"",""0"",""1875""
","
","1243.6000003814697","","","","","","","","50","0,0,0","6","blank","263","null","0.07993775063560478","0.22432012795754966","0.5603654331918149","0","","","","","","","","",""
"","html-keyboard-response","86","296734","0.0-52.0-1.0","""event"",""trial"",""time""
""fullscreenenter"",""0"",""1875""
","
","
","""event"",""trial"",""time""
""fullscreenenter"",""0"",""1875""
","
","null","<p></p>","null","","","","","","","","","","","","","","","","","","","","","","","",""
"","do_trial","87","299703","0.0-53.0-0.0","""event"",""trial"",""time""
""fullscreenenter"",""0"",""1875""
","
","
","""event"",""trial"",""time""
""fullscreenenter"",""0"",""1875""
","
","420.59999990463257","","","","","","","","50","0,0,0","6","blank","264","null","0.11466069437458355","0.2865734906676895","0.586730468135287","0","","","","","","","","",""
"","html-keyboard-response","88","300704","0.0-53.0-1.0","""event"",""trial"",""time""
""fullscreenenter"",""0"",""1875""
","
","
","""event"",""trial"",""time""
""fullscreenenter"",""0"",""1875""
","
","null","<p></p>","null","","","","","","","","","","","","","","","","","","","","","","","",""
"","do_trial","89","303579","0.0-54.0-0.0","""event"",""trial"",""time""
""fullscreenenter"",""0"",""1875""
","
","
","""event"",""trial"",""time""
""fullscreenenter"",""0"",""1875""
","
","324","","","","","","","","50","0,1,1","6","blank","265","null","0.058364069885101205","0.32650432624409975","0.42516370097310713","1","","","","","","","","",""
"","html-keyboard-response","90","304590","0.0-54.0-1.0","""event"",""trial"",""time""
""fullscreenenter"",""0"",""1875""
","
","
","""event"",""trial"",""time""
""fullscreenenter"",""0"",""1875""
","
","null","<p></p>","null","","","","","","","","","","","","","","","","","","","","","","","",""
"","do_recog","91","307895","0.0-55.0-0.0","""event"",""trial"",""time""
""fullscreenenter"",""0"",""1875""
","
","
","""event"",""trial"",""time""
""fullscreenenter"",""0"",""1875""
","
","1792.5999999046326","","","","","","","","55","","","","266","probe-68","","","","","1","[object Object]","195","4","0","","","",""
"","html-keyboard-response","92","308905","0.0-55.0-1.0","""event"",""trial"",""time""
""fullscreenenter"",""0"",""1875""
","
","
","""event"",""trial"",""time""
""fullscreenenter"",""0"",""1875""
","
","null","<p></p>","null","","","","","","","","","","","","","","","","","","","","","","","",""
"","do_trial","93","312614","0.0-56.0-0.0","""event"",""trial"",""time""
""fullscreenenter"",""0"",""1875""
","
","
","""event"",""trial"",""time""
""fullscreenenter"",""0"",""1875""
","
","1162.2999997138977","","","","","","","","50","0,0,1","6","blank","267","null","0.12145462077300881","0.2776902906741113","0.5702566096387727","0","","","","","","","","",""
"","html-keyboard-response","94","313630","0.0-56.0-1.0","""event"",""trial"",""time""
""fullscreenenter"",""0"",""1875""
","
","
","""event"",""trial"",""time""
""fullscreenenter"",""0"",""1875""
","
","null","<p></p>","null","","","","","","","","","","","","","","","","","","","","","","","",""
"","do_trial","95","316479","0.0-57.0-0.0","""event"",""trial"",""time""
""fullscreenenter"",""0"",""1875""
","
","
","""event"",""trial"",""time""
""fullscreenenter"",""0"",""1875""
","
","268","","","","","","","","51","0,0,1","6","blank","268","null","0.1593663553761162","0.3964561734071671","0.505181889417272","1","","","","","","","","",""
"","html-keyboard-response","96","317493","0.0-57.0-1.0","""event"",""trial"",""time""
""fullscreenenter"",""0"",""1875""
","
","
","""event"",""trial"",""time""
""fullscreenenter"",""0"",""1875""
","
","null","<p></p>","null","","","","","","","","","","","","","","","","","","","","","","","",""
"","break","97","379008","0.0-58.0-0.0","""event"",""trial"",""time""
""fullscreenenter"",""0"",""1875""
","
","
","""event"",""trial"",""time""
""fullscreenenter"",""0"",""1875""
","
","61517.40000009537","<div class='center'><p>Time to take a quick break! You have 2 minutes to rest, but you can move on sooner if you'd like.</p><p> Press the <b>space bar</b> to continue.</p></div>","32","","","","","","","","","","","","","","","","","","","","","","","",""
"","do_trial","98","382501","0.0-58.0-1.0","""event"",""trial"",""time""
""fullscreenenter"",""0"",""1875""
","
","
","""event"",""trial"",""time""
""fullscreenenter"",""0"",""1875""
","
","938.7000002861023","","","","","","","","49","1,0,1","6","blank","269","null","0.2929995443394132","0.36133729525501324","0.6487327936722709","1","","","","","","","","",""
"","html-keyboard-response","99","383511","0.0-58.0-2.0","""event"",""trial"",""time""
""fullscreenenter"",""0"",""1875""
","
","
","""event"",""trial"",""time""
""fullscreenenter"",""0"",""1875""
","
","null","<p></p>","null","","","","","","","","","","","","","","","","","","","","","","","",""
"","do_recog","100","386177","0.0-59.0-0.0","""event"",""trial"",""time""
""fullscreenenter"",""0"",""1875""
","
","
","""event"",""trial"",""time""
""fullscreenenter"",""0"",""1875""
","
","1157","","","","","","","","53","","","","270","probe-109","","","","","1","[object Object]","155","3","1","","","",""
"","html-keyboard-response","101","387191","0.0-59.0-1.0","""event"",""trial"",""time""
""fullscreenenter"",""0"",""1875""
","
","
","""event"",""trial"",""time""
""fullscreenenter"",""0"",""1875""
","
","null","<p></p>","null","","","","","","","","","","","","","","","","","","","","","","","",""
"","do_trial","102","390223","0.0-60.0-0.0","""event"",""trial"",""time""
""fullscreenenter"",""0"",""1875""
","
","
","""event"",""trial"",""time""
""fullscreenenter"",""0"",""1875""
","
","483.1000003814697","","","","","","","","49","0,1,0","6","blank","271","null","0.2226899893947442","0.31592723967394615","0.7013954248373659","0","","","","","","","","",""
"","html-keyboard-response","103","391226","0.0-60.0-1.0","""event"",""trial"",""time""
""fullscreenenter"",""0"",""1875""
","
","
","""event"",""trial"",""time""
""fullscreenenter"",""0"",""1875""
","
","null","<p></p>","null","","","","","","","","","","","","","","","","","","","","","","","",""
"","do_trial","104","394165","0.0-61.0-0.0","""event"",""trial"",""time""
""fullscreenenter"",""0"",""1875""
","
","
","""event"",""trial"",""time""
""fullscreenenter"",""0"",""1875""
","
","391.69999980926514","","","","","","","","50","1,0,0","6","blank","272","null","0.2742069517500781","0.2538208343625895","0.6648057287598337","0","","","","","","","","",""
"","html-keyboard-response","105","395172","0.0-61.0-1.0","""event"",""trial"",""time""
""fullscreenenter"",""0"",""1875""
","
","
","""event"",""trial"",""time""
""fullscreenenter"",""0"",""1875""
","
","null","<p></p>","null","","","","","","","","","","","","","","","","","","","","","","","",""
"","do_trial","106","398001","0.0-62.0-0.0","""event"",""trial"",""time""
""fullscreenenter"",""0"",""1875""
","
","
","""event"",""trial"",""time""
""fullscreenenter"",""0"",""1875""
","
","274.30000019073486","","","","","","","","50","0,1,1","6","blank","273","null","0.1468332733899062","0.18067816950660803","0.5391295482854979","1","","","","","","","","",""
"","html-keyboard-response","107","399004","0.0-62.0-1.0","""event"",""trial"",""time""
""fullscreenenter"",""0"",""1875""
","
","
","""event"",""trial"",""time""
""fullscreenenter"",""0"",""1875""
","
","null","<p></p>","null","","","","","","","","","","","","","","","","","","","","","","","",""
"","do_trial","108","401878","0.0-63.0-0.0","""event"",""trial"",""time""
""fullscreenenter"",""0"",""1875""
","
","
","""event"",""trial"",""time""
""fullscreenenter"",""0"",""1875""
","
","317.90000009536743","","","","","","","","50","0,1,0","6","blank","274","null","0.06480212523731849","0.14985223641205314","0.4980662188641712","1","","","","","","","","",""
"","html-keyboard-response","109","402892","0.0-63.0-1.0","""event"",""trial"",""time""
""fullscreenenter"",""0"",""1875""
","
","
","""event"",""trial"",""time""
""fullscreenenter"",""0"",""1875""
","
","null","<p></p>","null","","","","","","","","","","","","","","","","","","","","","","","",""
"","do_trial","110","405731","0.0-64.0-0.0","""event"",""trial"",""time""
""fullscreenenter"",""0"",""1875""
","
","
","""event"",""trial"",""time""
""fullscreenenter"",""0"",""1875""
","
","292.59999990463257","","","","","","","","50","1,0,1","6","blank","275","null","0.14732787824665278","0.25720677919174084","0.5480686168170871","0","","","","","","","","",""
"","html-keyboard-response","111","406743","0.0-64.0-1.0","""event"",""trial"",""time""
""fullscreenenter"",""0"",""1875""
","
","
","""event"",""trial"",""time""
""fullscreenenter"",""0"",""1875""
","
","null","<p></p>","null","","","","","","","","","","","","","","","","","","","","","","","",""
"","do_trial","112","409664","0.0-65.0-0.0","""event"",""trial"",""time""
""fullscreenenter"",""0"",""1875""
","
","
","""event"",""trial"",""time""
""fullscreenenter"",""0"",""1875""
","
","382.40000009536743","","","","","","","","50","0,0,0","6","blank","276","null","0.11553377417223805","0.27913421688171364","0.5390258183563954","0","","","","","","","","",""
"","html-keyboard-response","113","410667","0.0-65.0-1.0","""event"",""trial"",""time""
""fullscreenenter"",""0"",""1875""
","
","
","""event"",""trial"",""time""
""fullscreenenter"",""0"",""1875""
","
","null","<p></p>","null","","","","","","","","","","","","","","","","","","","","","","","",""
"","do_trial","114","413470","0.0-66.0-0.0","""event"",""trial"",""time""
""fullscreenenter"",""0"",""1875""
","
","
","""event"",""trial"",""time""
""fullscreenenter"",""0"",""1875""
","
","253.7999997138977","","","","","","","","51","1,0,1","6","blank","277","null","0.16558621122538472","0.2076715960838758","0.5090536296620504","1","","","","","","","","",""
"","html-keyboard-response","115","414480","0.0-66.0-1.0","""event"",""trial"",""time""
""fullscreenenter"",""0"",""1875""
","
","
","""event"",""trial"",""time""
""fullscreenenter"",""0"",""1875""
","
","null","<p></p>","null","","","","","","","","","","","","","","","","","","","","","","","",""
"","do_recog","116","417620","0.0-67.0-0.0","""event"",""trial"",""time""
""fullscreenenter"",""0"",""1875""
","
","
","""event"",""trial"",""time""
""fullscreenenter"",""0"",""1875""
","
","1626.5999999046326","","","","","","","","54","","","","278","probe-116","","","","","1","[object Object]","77","1","1","","","",""
"","html-keyboard-response","117","418627","0.0-67.0-1.0","""event"",""trial"",""time""
""fullscreenenter"",""0"",""1875""
","
","
","""event"",""trial"",""time""
""fullscreenenter"",""0"",""1875""
","
","null","<p></p>","null","","","","","","","","","","","","","","","","","","","","","","","",""
"","do_trial","118","421664","0.0-68.0-0.0","""event"",""trial"",""time""
""fullscreenenter"",""0"",""1875""
","
","
","""event"",""trial"",""time""
""fullscreenenter"",""0"",""1875""
","
","465.19999980926514","","","","","","","","51","0,0,0","6","blank","279","null","0.20433646570774688","0.19602736863929277","0.5560075850786192","0","","","","","","","","",""
"","html-keyboard-response","119","422674","0.0-68.0-1.0","""event"",""trial"",""time""
""fullscreenenter"",""0"",""1875""
","
","
","""event"",""trial"",""time""
""fullscreenenter"",""0"",""1875""
","
","null","<p></p>","null","","","","","","","","","","","","","","","","","","","","","","","",""
"","do_trial","120","425645","0.0-69.0-0.0","""event"",""trial"",""time""
""fullscreenenter"",""0"",""1875""
","
","
","""event"",""trial"",""time""
""fullscreenenter"",""0"",""1875""
","
","405.90000009536743","","","","","","","","50","0,0,1","6","blank","280","null","0.118786912361467","0.2421951783457427","0.5148960809466678","0","","","","","","","","",""
"","html-keyboard-response","121","426653","0.0-69.0-1.0","""event"",""trial"",""time""
""fullscreenenter"",""0"",""1875""
","
","
","""event"",""trial"",""time""
""fullscreenenter"",""0"",""1875""
","
","null","<p></p>","null","","","","","","","","","","","","","","","","","","","","","","","",""
"","do_trial","122","429451","0.0-70.0-0.0","""event"",""trial"",""time""
""fullscreenenter"",""0"",""1875""
","
","
","""event"",""trial"",""time""
""fullscreenenter"",""0"",""1875""
","
","266.09999990463257","","","","","","","","49","0,1,0","6","blank","281","null","0.09605901218744264","0.24379617111544558","0.3205926147457119","0","","","","","","","","",""
"","html-keyboard-response","123","430463","0.0-70.0-1.0","""event"",""trial"",""time""
""fullscreenenter"",""0"",""1875""
","
","
","""event"",""trial"",""time""
""fullscreenenter"",""0"",""1875""
","
","null","<p></p>","null","","","","","","","","","","","","","","","","","","","","","","","",""
"","do_trial","124","433286","0.0-71.0-0.0","""event"",""trial"",""time""
""fullscreenenter"",""0"",""1875""
","
","
","""event"",""trial"",""time""
""fullscreenenter"",""0"",""1875""
","
","274.1000003814697","","","","","","","","50","1,0,0","6","blank","282","null","0.16080604606909252","0.3694504474090405","0.4226343459217559","0","","","","","","","","",""
"","html-keyboard-response","125","434295","0.0-71.0-1.0","""event"",""trial"",""time""
""fullscreenenter"",""0"",""1875""
","
","
","""event"",""trial"",""time""
""fullscreenenter"",""0"",""1875""
","
","null","<p></p>","null","","","","","","","","","","","","","","","","","","","","","","","",""
"","do_trial","126","436934","0.0-72.0-0.0","""event"",""trial"",""time""
""fullscreenenter"",""0"",""1875""
","
","
","""event"",""trial"",""time""
""fullscreenenter"",""0"",""1875""
","
","74.90000009536743","","","","","","","","51","0,0,0","6","blank","283","null","0.11454921851839572","0.26466016989480773","0.5749630952700551","0","","","","","","","","",""
"","html-keyboard-response","127","437948","0.0-72.0-1.0","""event"",""trial"",""time""
""fullscreenenter"",""0"",""1875""
","
","
","""event"",""trial"",""time""
""fullscreenenter"",""0"",""1875""
","
","null","<p></p>","null","","","","","","","","","","","","","","","","","","","","","","","",""
"","do_trial","128","440843","0.0-73.0-0.0","""event"",""trial"",""time""
""fullscreenenter"",""0"",""1875""
","
","
","""event"",""trial"",""time""
""fullscreenenter"",""0"",""1875""
","
","357","","","","","","","","50","0,1,1","6","blank","284","null","0.05227272661282605","0.31068889787746673","0.46660697483829394","1","","","","","","","","",""
"","html-keyboard-response","129","441853","0.0-73.0-1.0","""event"",""trial"",""time""
""fullscreenenter"",""0"",""1875""
","
","
","""event"",""trial"",""time""
""fullscreenenter"",""0"",""1875""
","
","null","<p></p>","null","","","","","","","","","","","","","","","","","","","","","","","",""
"","do_recog","130","444888","0.0-74.0-0.0","""event"",""trial"",""time""
""fullscreenenter"",""0"",""1875""
","
","
","""event"",""trial"",""time""
""fullscreenenter"",""0"",""1875""
","
","1517.3000001907349","","","","","","","","55","","","","285","probe-242","","","","","0","[object Object]","null","null","1","","","",""
"","html-keyboard-response","131","445901","0.0-74.0-1.0","""event"",""trial"",""time""
""fullscreenenter"",""0"",""1875""
","
","
","""event"",""trial"",""time""
""fullscreenenter"",""0"",""1875""
","
","null","<p></p>","null","","","","","","","","","","","","","","","","","","","","","","","",""
"","do_trial","132","448969","0.0-75.0-0.0","""event"",""trial"",""time""
""fullscreenenter"",""0"",""1875""
","
","
","""event"",""trial"",""time""
""fullscreenenter"",""0"",""1875""
","
","512.6999998092651","","","","","","","","50","0,0,1","6","blank","286","null","0.14064141749250603","0.24034225050982433","0.49359276535239643","0","","","","","","","","",""
"","html-keyboard-response","133","449983","0.0-75.0-1.0","""event"",""trial"",""time""
""fullscreenenter"",""0"",""1875""
","
","
","""event"",""trial"",""time""
""fullscreenenter"",""0"",""1875""
","
","null","<p></p>","null","","","","","","","","","","","","","","","","","","","","","","","",""
"","do_trial","134","452820","0.0-76.0-0.0","""event"",""trial"",""time""
""fullscreenenter"",""0"",""1875""
","
","
","""event"",""trial"",""time""
""fullscreenenter"",""0"",""1875""
","
","290.80000019073486","","","","","","","","50","1,0,1","6","blank","287","null","0.23561608409052098","0.3122917091745403","0.6008196742984059","0","","","","","","","","",""
"","html-keyboard-response","135","453833","0.0-76.0-1.0","""event"",""trial"",""time""
""fullscreenenter"",""0"",""1875""
","
","
","""event"",""trial"",""time""
""fullscreenenter"",""0"",""1875""
","
","null","<p></p>","null","","","","","","","","","","","","","","","","","","","","","","","",""
"","do_trial","136","456923","0.0-77.0-0.0","""event"",""trial"",""time""
""fullscreenenter"",""0"",""1875""
","
","
","""event"",""trial"",""time""
""fullscreenenter"",""0"",""1875""
","
","514.2999997138977","","","","","","","","50","0,0,0","6","blank","288","null","0.2171692770421222","0.37105694576700193","0.4745740564815175","0","","","","","","","","",""
"","html-keyboard-response","137","457932","0.0-77.0-1.0","""event"",""trial"",""time""
""fullscreenenter"",""0"",""1875""
","
","
","""event"",""trial"",""time""
""fullscreenenter"",""0"",""1875""
","
","null","<p></p>","null","","","","","","","","","","","","","","","","","","","","","","","",""
"","do_trial","138","460839","0.0-78.0-0.0","""event"",""trial"",""time""
""fullscreenenter"",""0"",""1875""
","
","
","""event"",""trial"",""time""
""fullscreenenter"",""0"",""1875""
","
","354","","","","","","","","50","1,1,0","6","blank","289","null","0.28838986611666245","0.44938734446735845","0.49197484860556645","1","","","","","","","","",""
"","html-keyboard-response","139","461849","0.0-78.0-1.0","""event"",""trial"",""time""
""fullscreenenter"",""0"",""1875""
","
","
","""event"",""trial"",""time""
""fullscreenenter"",""0"",""1875""
","
","null","<p></p>","null","","","","","","","","","","","","","","","","","","","","","","","",""
"","do_trial","140","464768","0.0-79.0-0.0","""event"",""trial"",""time""
""fullscreenenter"",""0"",""1875""
","
","
","""event"",""trial"",""time""
""fullscreenenter"",""0"",""1875""
","
","344.19999980926514","","","","","","","","50","0,0,1","6","blank","290","null","0.2712935365562646","0.3321274058752826","0.43393564606652557","0","","","","","","","","",""
"","html-keyboard-response","141","465776","0.0-79.0-1.0","""event"",""trial"",""time""
""fullscreenenter"",""0"",""1875""
","
","
","""event"",""trial"",""time""
""fullscreenenter"",""0"",""1875""
","
","null","<p></p>","null","","","","","","","","","","","","","","","","","","","","","","","",""
"","do_trial","142","468739","0.0-80.0-0.0","""event"",""trial"",""time""
""fullscreenenter"",""0"",""1875""
","
","
","""event"",""trial"",""time""
""fullscreenenter"",""0"",""1875""
","
","407.09999990463257","","","","","","","","50","1,0,1","6","blank","291","null","0.36830313272923404","0.2995714830225126","0.41188886471260266","0","","","","","","","","",""
"","html-keyboard-response","143","469752","0.0-80.0-1.0","""event"",""trial"",""time""
""fullscreenenter"",""0"",""1875""
","
","
","""event"",""trial"",""time""
""fullscreenenter"",""0"",""1875""
","
","null","<p></p>","null","","","","","","","","","","","","","","","","","","","","","","","",""
"","do_recog","144","473091","0.0-81.0-0.0","""event"",""trial"",""time""
""fullscreenenter"",""0"",""1875""
","
","
","""event"",""trial"",""time""
""fullscreenenter"",""0"",""1875""
","
","1831.5","","","","","","","","53","","","","292","probe-183","","","","","1","[object Object]","71","1","1","","","",""
"","html-keyboard-response","145","474102","0.0-81.0-1.0","""event"",""trial"",""time""
""fullscreenenter"",""0"",""1875""
","
","
","""event"",""trial"",""time""
""fullscreenenter"",""0"",""1875""
","
","null","<p></p>","null","","","","","","","","","","","","","","","","","","","","","","","",""
"","do_trial","146","477230","0.0-82.0-0.0","""event"",""trial"",""time""
""fullscreenenter"",""0"",""1875""
","
","
","""event"",""trial"",""time""
""fullscreenenter"",""0"",""1875""
","
","552.0999999046326","","","","","","","","51","1,0,1","6","blank","293","null","0.4273153173947741","0.23235632620149893","0.3774547315128065","1","","","","","","","","",""
"","html-keyboard-response","147","478246","0.0-82.0-1.0","""event"",""trial"",""time""
""fullscreenenter"",""0"",""1875""
","
","
","""event"",""trial"",""time""
""fullscreenenter"",""0"",""1875""
","
","null","<p></p>","null","","","","","","","","","","","","","","","","","","","","","","","",""
"","do_trial","148","481136","0.0-83.0-0.0","""event"",""trial"",""time""
""fullscreenenter"",""0"",""1875""
","
","
","""event"",""trial"",""time""
""fullscreenenter"",""0"",""1875""
","
","310.59999990463257","","","","","","","","51","0,0,0","6","blank","294","null","0.6618167471940193","0.2700175718053084","0.06954982043993489","0","","","","","","","","",""
"","html-keyboard-response","149","482148","0.0-83.0-1.0","""event"",""trial"",""time""
""fullscreenenter"",""0"",""1875""
","
","
","""event"",""trial"",""time""
""fullscreenenter"",""0"",""1875""
","
","null","<p></p>","null","","","","","","","","","","","","","","","","","","","","","","","",""
"","do_trial","150","485010","0.0-84.0-0.0","""event"",""trial"",""time""
""fullscreenenter"",""0"",""1875""
","
","
","""event"",""trial"",""time""
""fullscreenenter"",""0"",""1875""
","
","307.80000019073486","","","","","","","","51","1,0,0","6","blank","295","null","0.6514701286770834","0.28460293164034656","0.2056048617841418","0","","","","","","","","",""
"","html-keyboard-response","151","486024","0.0-84.0-1.0","""event"",""trial"",""time""
""fullscreenenter"",""0"",""1875""
","
","
","""event"",""trial"",""time""
""fullscreenenter"",""0"",""1875""
","
","null","<p></p>","null","","","","","","","","","","","","","","","","","","","","","","","",""
"","do_recog","152","489597","0.0-85.0-0.0","""event"",""trial"",""time""
""fullscreenenter"",""0"",""1875""
","
","
","""event"",""trial"",""time""
""fullscreenenter"",""0"",""1875""
","
","2055.2000002861023","","","","","","","","56","","","","296","probe-35","","","","","1","[object Object]","70","1","0","","","",""
"","html-keyboard-response","153","490602","0.0-85.0-1.0","""event"",""trial"",""time""
""fullscreenenter"",""0"",""1875""
","
","
","""event"",""trial"",""time""
""fullscreenenter"",""0"",""1875""
","
","null","<p></p>","null","","","","","","","","","","","","","","","","","","","","","","","",""
"","do_trial","154","493859","0.0-86.0-0.0","""event"",""trial"",""time""
""fullscreenenter"",""0"",""1875""
","
","
","""event"",""trial"",""time""
""fullscreenenter"",""0"",""1875""
","
","682.8000001907349","","","","","","","","51","1,0,1","6","blank","297","null","0.6499691327306065","0.30497196500334506","0.2212310363430827","1","","","","","","","","",""
"","html-keyboard-response","155","494873","0.0-86.0-1.0","""event"",""trial"",""time""
""fullscreenenter"",""0"",""1875""
","
","
","""event"",""trial"",""time""
""fullscreenenter"",""0"",""1875""
","
","null","<p></p>","null","","","","","","","","","","","","","","","","","","","","","","","",""
"","do_trial","156","497821","0.0-87.0-0.0","""event"",""trial"",""time""
""fullscreenenter"",""0"",""1875""
","
","
","""event"",""trial"",""time""
""fullscreenenter"",""0"",""1875""
","
","411.2999997138977","","","","","","","","51","0,0,0","6","blank","298","null","0.8025827878298856","0.3828628031188833","0.166986567878677","0","","","","","","","","",""
"","html-keyboard-response","157","498833","0.0-87.0-1.0","""event"",""trial"",""time""
""fullscreenenter"",""0"",""1875""
","
","
","""event"",""trial"",""time""
""fullscreenenter"",""0"",""1875""
","
","null","<p></p>","null","","","","","","","","","","","","","","","","","","","","","","","",""
"","do_trial","158","501646","0.0-88.0-0.0","""event"",""trial"",""time""
""fullscreenenter"",""0"",""1875""
","
","
","""event"",""trial"",""time""
""fullscreenenter"",""0"",""1875""
","
","267.09999990463257","","","","","","","","50","1,1,0","6","blank","299","null","0.6792423320084968","0.35029268755039217","0.14342957149468044","1","","","","","","","","",""
"","html-keyboard-response","159","502655","0.0-88.0-1.0","""event"",""trial"",""time""
""fullscreenenter"",""0"",""1875""
","
","
","""event"",""trial"",""time""
""fullscreenenter"",""0"",""1875""
","
","null","<p></p>","null","","","","","","","","","","","","","","","","","","","","","","","",""
"","do_trial","160","505478","0.0-89.0-0.0","""event"",""trial"",""time""
""fullscreenenter"",""0"",""1875""
","
","
","""event"",""trial"",""time""
""fullscreenenter"",""0"",""1875""
","
","277.40000009536743","","","","","","","","50","1,1,0","6","blank","300","null","0.6542251028163995","0.36869195012309597","0.20473947616052302","1","","","","","","","","",""
"","html-keyboard-response","161","506493","0.0-89.0-1.0","""event"",""trial"",""time""
""fullscreenenter"",""0"",""1875""
","
","
","""event"",""trial"",""time""
""fullscreenenter"",""0"",""1875""
","
","null","<p></p>","null","","","","","","","","","","","","","","","","","","","","","","","",""
"","do_trial","162","509412","0.0-90.0-0.0","""event"",""trial"",""time""
""fullscreenenter"",""0"",""1875""
","
","
","""event"",""trial"",""time""
""fullscreenenter"",""0"",""1875""
","
","376.7000002861023","","","","","","","","50","0,1,0","6","blank","301","null","0.5489534924945437","0.39462983252406225","0.1429752938815609","1","","","","","","","","",""
"","html-keyboard-response","163","510426","0.0-90.0-1.0","""event"",""trial"",""time""
""fullscreenenter"",""0"",""1875""
","
","
","""event"",""trial"",""time""
""fullscreenenter"",""0"",""1875""
","
","null","<p></p>","null","","","","","","","","","","","","","","","","","","","","","","","",""
"","do_recog","164","514122","0.0-91.0-0.0","""event"",""trial"",""time""
""fullscreenenter"",""0"",""1875""
","
","
","""event"",""trial"",""time""
""fullscreenenter"",""0"",""1875""
","
","2183.7000002861023","","","","","","","","56","","","","302","probe-37","","","","","1","[object Object]","157","3","0","","","",""
"","html-keyboard-response","165","515130","0.0-91.0-1.0","""event"",""trial"",""time""
""fullscreenenter"",""0"",""1875""
","
","
","""event"",""trial"",""time""
""fullscreenenter"",""0"",""1875""
","
","null","<p></p>","null","","","","","","","","","","","","","","","","","","","","","","","",""
"","do_trial","166","518158","0.0-92.0-0.0","""event"",""trial"",""time""
""fullscreenenter"",""0"",""1875""
","
","
","""event"",""trial"",""time""
""fullscreenenter"",""0"",""1875""
","
","471.30000019073486","","","","","","","","50","0,0,0","6","blank","303","null","0.5471929086691203","0.2626556550680013","0.15931315706132435","0","","","","","","","","",""
"","html-keyboard-response","167","519163","0.0-92.0-1.0","""event"",""trial"",""time""
""fullscreenenter"",""0"",""1875""
","
","
","""event"",""trial"",""time""
""fullscreenenter"",""0"",""1875""
","
","null","<p></p>","null","","","","","","","","","","","","","","","","","","","","","","","",""
"","do_trial","168","521968","0.0-93.0-0.0","""event"",""trial"",""time""
""fullscreenenter"",""0"",""1875""
","
","
","""event"",""trial"",""time""
""fullscreenenter"",""0"",""1875""
","
","248.60000038146973","","","","","","","","51","1,1,0","6","blank","304","null","0.6602878911400011","0.3632778357777051","0.08570499197885113","0","","","","","","","","",""
"","html-keyboard-response","169","522975","0.0-93.0-1.0","""event"",""trial"",""time""
""fullscreenenter"",""0"",""1875""
","
","
","""event"",""trial"",""time""
""fullscreenenter"",""0"",""1875""
","
","null","<p></p>","null","","","","","","","","","","","","","","","","","","","","","","","",""
"","do_trial","170","525771","0.0-94.0-0.0","""event"",""trial"",""time""
""fullscreenenter"",""0"",""1875""
","
","
","""event"",""trial"",""time""
""fullscreenenter"",""0"",""1875""
","
","253.30000019073486","","","","","","","","49","1,0,0","6","blank","305","null","0.64604134562549","0.37768983931705946","0.27589649834208774","1","","","","","","","","",""
"","html-keyboard-response","171","526788","0.0-94.0-1.0","""event"",""trial"",""time""
""fullscreenenter"",""0"",""1875""
","
","
","""event"",""trial"",""time""
""fullscreenenter"",""0"",""1875""
","
","null","<p></p>","null","","","","","","","","","","","","","","","","","","","","","","","",""
"","do_recog","172","530323","0.0-95.0-0.0","""event"",""trial"",""time""
""fullscreenenter"",""0"",""1875""
","
","
","""event"",""trial"",""time""
""fullscreenenter"",""0"",""1875""
","
","2024.1999998092651","","","","","","","","53","","","","306","probe-235","","","","","0","[object Object]","null","null","0","","","",""
"","html-keyboard-response","173","531326","0.0-95.0-1.0","""event"",""trial"",""time""
""fullscreenenter"",""0"",""1875""
","
","
","""event"",""trial"",""time""
""fullscreenenter"",""0"",""1875""
","
","null","<p></p>","null","","","","","","","","","","","","","","","","","","","","","","","",""
"","do_trial","174","534379","0.0-96.0-0.0","""event"",""trial"",""time""
""fullscreenenter"",""0"",""1875""
","
","
","""event"",""trial"",""time""
""fullscreenenter"",""0"",""1875""
","
","494.90000009536743","","","","","","","","50","1,1,1","6","blank","307","null","0.6048088226447356","0.38607476276558317","0.21972177786003927","1","","","","","","","","",""
"","html-keyboard-response","175","535387","0.0-96.0-1.0","""event"",""trial"",""time""
""fullscreenenter"",""0"",""1875""
","
","
","""event"",""trial"",""time""
""fullscreenenter"",""0"",""1875""
","
","null","<p></p>","null","","","","","","","","","","","","","","","","","","","","","","","",""
"","do_recog","176","538668","0.0-97.0-0.0","""event"",""trial"",""time""
""fullscreenenter"",""0"",""1875""
","
","
","""event"",""trial"",""time""
""fullscreenenter"",""0"",""1875""
","
","1764.9000000953674","","","","","","","","54","","","","308","probe-211","","","","","1","[object Object]","194","4","1","","","",""
"","html-keyboard-response","177","539676","0.0-97.0-1.0","""event"",""trial"",""time""
""fullscreenenter"",""0"",""1875""
","
","
","""event"",""trial"",""time""
""fullscreenenter"",""0"",""1875""
","
","null","<p></p>","null","","","","","","","","","","","","","","","","","","","","","","","",""
"","break","178","592859","0.0-98.0-0.0","""event"",""trial"",""time""
""fullscreenenter"",""0"",""1875""
","
","
","""event"",""trial"",""time""
""fullscreenenter"",""0"",""1875""
","
","53182.5","<div class='center'><p>Time to take a quick break! You have 2 minutes to rest, but you can move on sooner if you'd like.</p><p> Press the <b>space bar</b> to continue.</p></div>","32","","","","","","","","","","","","","","","","","","","","","","","",""
"","do_trial","179","596525","0.0-98.0-1.0","""event"",""trial"",""time""
""fullscreenenter"",""0"",""1875""
","
","
","""event"",""trial"",""time""
""fullscreenenter"",""0"",""1875""
","
","1109.7000002861023","","","","","","","","49","1,0,0","6","blank","309","null","0.7853059698857254","0.3240260332164821","0.18319631841196518","1","","","","","","","","",""
"","html-keyboard-response","180","597534","0.0-98.0-2.0","""event"",""trial"",""time""
""fullscreenenter"",""0"",""1875""
","
","
","""event"",""trial"",""time""
""fullscreenenter"",""0"",""1875""
","
","null","<p></p>","null","","","","","","","","","","","","","","","","","","","","","","","",""
"","do_trial","181","600460","0.0-99.0-0.0","""event"",""trial"",""time""
""fullscreenenter"",""0"",""1875""
","
","
","""event"",""trial"",""time""
""fullscreenenter"",""0"",""1875""
","
","373.80000019073486","","","","","","","","49","0,0,0","6","blank","310","null","0.7037515169052015","0.23080747473815202","0.23929777235541308","0","","","","","","","","",""
"","html-keyboard-response","182","601468","0.0-99.0-1.0","""event"",""trial"",""time""
""fullscreenenter"",""0"",""1875""
","
","
","""event"",""trial"",""time""
""fullscreenenter"",""0"",""1875""
","
","null","<p></p>","null","","","","","","","","","","","","","","","","","","","","","","","",""
"","do_trial","183","604315","0.0-100.0-0.0","""event"",""trial"",""time""
""fullscreenenter"",""0"",""1875""
","
","
","""event"",""trial"",""time""
""fullscreenenter"",""0"",""1875""
","
","293.7000002861023","","","","","","","","50","0,1,0","6","blank","311","null","0.6613832082473889","0.2729928556615823","0.06553364812264792","1","","","","","","","","",""
"","html-keyboard-response","184","605324","0.0-100.0-1.0","""event"",""trial"",""time""
""fullscreenenter"",""0"",""1875""
","
","
","""event"",""trial"",""time""
""fullscreenenter"",""0"",""1875""
","
","null","<p></p>","null","","","","","","","","","","","","","","","","","","","","","","","",""
"","do_trial","185","608141","0.0-101.0-0.0","""event"",""trial"",""time""
""fullscreenenter"",""0"",""1875""
","
","
","""event"",""trial"",""time""
""fullscreenenter"",""0"",""1875""
","
","270.40000009536743","","","","","","","","50","0,0,0","6","blank","312","null","0.5350779758235505","0.13774509867513987","0.06961160929260139","0","","","","","","","","",""
"","html-keyboard-response","186","609145","0.0-101.0-1.0","""event"",""trial"",""time""
""fullscreenenter"",""0"",""1875""
","
","
","""event"",""trial"",""time""
""fullscreenenter"",""0"",""1875""
","
","null","<p></p>","null","","","","","","","","","","","","","","","","","","","","","","","",""
"","do_recog","187","612267","0.0-102.0-0.0","""event"",""trial"",""time""
""fullscreenenter"",""0"",""1875""
","
","
","""event"",""trial"",""time""
""fullscreenenter"",""0"",""1875""
","
","1610.4000000953674","","","","","","","","56","","","","313","probe-202","","","","","1","[object Object]","191","4","0","","","",""
"","html-keyboard-response","188","613277","0.0-102.0-1.0","""event"",""trial"",""time""
""fullscreenenter"",""0"",""1875""
","
","
","""event"",""trial"",""time""
""fullscreenenter"",""0"",""1875""
","
","null","<p></p>","null","","","","","","","","","","","","","","","","","","","","","","","",""
"","do_trial","189","616183","0.0-103.0-0.0","""event"",""trial"",""time""
""fullscreenenter"",""0"",""1875""
","
","
","""event"",""trial"",""time""
""fullscreenenter"",""0"",""1875""
","
","369.30000019073486","","","","","","","","50","1,1,0","6","blank","314","null","0.5845132864051579","0.23125481955309837","0.12043262383984678","1","","","","","","","","",""
"","html-keyboard-response","190","617194","0.0-103.0-1.0","""event"",""trial"",""time""
""fullscreenenter"",""0"",""1875""
","
","
","""event"",""trial"",""time""
""fullscreenenter"",""0"",""1875""
","
","null","<p></p>","null","","","","","","","","","","","","","","","","","","","","","","","",""
"","do_trial","191","620119","0.0-104.0-0.0","""event"",""trial"",""time""
""fullscreenenter"",""0"",""1875""
","
","
","""event"",""trial"",""time""
""fullscreenenter"",""0"",""1875""
","
","362","","","","","","","","50","1,0,0","6","blank","315","null","0.5001928619108003","0.3085254566396666","0.05235338064145084","0","","","","","","","","",""
"","html-keyboard-response","192","621131","0.0-104.0-1.0","""event"",""trial"",""time""
""fullscreenenter"",""0"",""1875""
","
","
","""event"",""trial"",""time""
""fullscreenenter"",""0"",""1875""
","
","null","<p></p>","null","","","","","","","","","","","","","","","","","","","","","","","",""
"","do_trial","193","624020","0.0-105.0-0.0","""event"",""trial"",""time""
""fullscreenenter"",""0"",""1875""
","
","
","""event"",""trial"",""time""
""fullscreenenter"",""0"",""1875""
","
","334.30000019073486","","","","","","","","51","1,0,1","6","blank","316","null","0.5481957236410108","0.4373048357803325","0.11059155536185308","1","","","","","","","","",""
"","html-keyboard-response","194","625033","0.0-105.0-1.0","""event"",""trial"",""time""
""fullscreenenter"",""0"",""1875""
","
","
","""event"",""trial"",""time""
""fullscreenenter"",""0"",""1875""
","
","null","<p></p>","null","","","","","","","","","","","","","","","","","","","","","","","",""
"","do_trial","195","628209","0.0-106.0-0.0","""event"",""trial"",""time""
""fullscreenenter"",""0"",""1875""
","
","
","""event"",""trial"",""time""
""fullscreenenter"",""0"",""1875""
","
","638.7999997138977","","","","","","","","51","1,1,1","6","blank","317","null","0.5134554195562813","0.4008329043175147","0.13564359954752167","1","","","","","","","","",""
"","html-keyboard-response","196","629223","0.0-106.0-1.0","""event"",""trial"",""time""
""fullscreenenter"",""0"",""1875""
","
","
","""event"",""trial"",""time""
""fullscreenenter"",""0"",""1875""
","
","null","<p></p>","null","","","","","","","","","","","","","","","","","","","","","","","",""
"","do_recog","197","632592","0.0-107.0-0.0","""event"",""trial"",""time""
""fullscreenenter"",""0"",""1875""
","
","
","""event"",""trial"",""time""
""fullscreenenter"",""0"",""1875""
","
","1854.1000003814697","","","","","","","","54","","","","318","probe-97","","","","","1","[object Object]","74","1","1","","","",""
"","html-keyboard-response","198","633605","0.0-107.0-1.0","""event"",""trial"",""time""
""fullscreenenter"",""0"",""1875""
","
","
","""event"",""trial"",""time""
""fullscreenenter"",""0"",""1875""
","
","null","<p></p>","null","","","","","","","","","","","","","","","","","","","","","","","",""
"","do_trial","199","636591","0.0-108.0-0.0","""event"",""trial"",""time""
""fullscreenenter"",""0"",""1875""
","
","
","""event"",""trial"",""time""
""fullscreenenter"",""0"",""1875""
","
","436.5","","","","","","","","50","0,0,0","6","blank","319","null","0.4385144073220893","0.2841307004940437","0.21502180379152286","0","","","","","","","","",""
"","html-keyboard-response","200","637603","0.0-108.0-1.0","""event"",""trial"",""time""
""fullscreenenter"",""0"",""1875""
","
","
","""event"",""trial"",""time""
""fullscreenenter"",""0"",""1875""
","
","null","<p></p>","null","","","","","","","","","","","","","","","","","","","","","","","",""
"","do_recog","201","640500","0.0-109.0-0.0","""event"",""trial"",""time""
""fullscreenenter"",""0"",""1875""
","
","
","""event"",""trial"",""time""
""fullscreenenter"",""0"",""1875""
","
","1388.5999999046326","","","","","","","","56","","","","320","probe-31","","","","","1","[object Object]","198","4","0","","","",""
"","html-keyboard-response","202","641514","0.0-109.0-1.0","""event"",""trial"",""time""
""fullscreenenter"",""0"",""1875""
","
","
","""event"",""trial"",""time""
""fullscreenenter"",""0"",""1875""
","
","null","<p></p>","null","","","","","","","","","","","","","","","","","","","","","","","",""
"","do_trial","203","644567","0.0-110.0-0.0","""event"",""trial"",""time""
""fullscreenenter"",""0"",""1875""
","
","
","""event"",""trial"",""time""
""fullscreenenter"",""0"",""1875""
","
","498.69999980926514","","","","","","","","50","1,0,0","6","blank","321","null","0.4765266124134418","0.20160728197293687","0.2589331571322916","0","","","","","","","","",""
"","html-keyboard-response","204","645573","0.0-110.0-1.0","""event"",""trial"",""time""
""fullscreenenter"",""0"",""1875""
","
","
","""event"",""trial"",""time""
""fullscreenenter"",""0"",""1875""
","
","null","<p></p>","null","","","","","","","","","","","","","","","","","","","","","","","",""
"","do_recog","205","648639","0.0-111.0-0.0","""event"",""trial"",""time""
""fullscreenenter"",""0"",""1875""
","
","
","""event"",""trial"",""time""
""fullscreenenter"",""0"",""1875""
","
","1548.5","","","","","","","","53","","","","322","probe-21","","","","","1","[object Object]","199","4","1","","","",""
"","html-keyboard-response","206","649650","0.0-111.0-1.0","""event"",""trial"",""time""
""fullscreenenter"",""0"",""1875""
","
","
","""event"",""trial"",""time""
""fullscreenenter"",""0"",""1875""
","
","null","<p></p>","null","","","","","","","","","","","","","","","","","","","","","","","",""
"","do_trial","207","653299","0.0-112.0-0.0","""event"",""trial"",""time""
""fullscreenenter"",""0"",""1875""
","
","
","""event"",""trial"",""time""
""fullscreenenter"",""0"",""1875""
","
","1073.1000003814697","","","","","","","","50","0,0,1","6","blank","323","null","0.5385270818094274","0.11945877484541799","0.21313910089119645","0","","","","","","","","",""
"","html-keyboard-response","208","654305","0.0-112.0-1.0","""event"",""trial"",""time""
""fullscreenenter"",""0"",""1875""
","
","
","""event"",""trial"",""time""
""fullscreenenter"",""0"",""1875""
","
","null","<p></p>","null","","","","","","","","","","","","","","","","","","","","","","","",""
"","do_trial","209","657130","0.0-113.0-0.0","""event"",""trial"",""time""
""fullscreenenter"",""0"",""1875""
","
","
","""event"",""trial"",""time""
""fullscreenenter"",""0"",""1875""
","
","295.30000019073486","","","","","","","","50","1,0,0","6","blank","324","null","0.6397344980057704","0.07000514663984632","0.19296075880652652","0","","","","","","","","",""
"","html-keyboard-response","210","658141","0.0-113.0-1.0","""event"",""trial"",""time""
""fullscreenenter"",""0"",""1875""
","
","
","""event"",""trial"",""time""
""fullscreenenter"",""0"",""1875""
","
","null","<p></p>","null","","","","","","","","","","","","","","","","","","","","","","","",""
"","do_trial","211","660976","0.0-114.0-0.0","""event"",""trial"",""time""
""fullscreenenter"",""0"",""1875""
","
","
","""event"",""trial"",""time""
""fullscreenenter"",""0"",""1875""
","
","255.59999990463257","","","","","","","","51","1,0,0","6","blank","325","null","0.5855651224882449","0.11854739625326159","0.14602124484508988","0","","","","","","","","",""
"","html-keyboard-response","212","661981","0.0-114.0-1.0","""event"",""trial"",""time""
""fullscreenenter"",""0"",""1875""
","
","
","""event"",""trial"",""time""
""fullscreenenter"",""0"",""1875""
","
","null","<p></p>","null","","","","","","","","","","","","","","","","","","","","","","","",""
"","do_trial","213","664819","0.0-115.0-0.0","""event"",""trial"",""time""
""fullscreenenter"",""0"",""1875""
","
","
","""event"",""trial"",""time""
""fullscreenenter"",""0"",""1875""
","
","304.69999980926514","","","","","","","","51","1,0,0","6","blank","326","null","0.43097995093097896","0.14673018815766145","0.11370512461552693","0","","","","","","","","",""
"","html-keyboard-response","214","665832","0.0-115.0-1.0","""event"",""trial"",""time""
""fullscreenenter"",""0"",""1875""
","
","
","""event"",""trial"",""time""
""fullscreenenter"",""0"",""1875""
","
","null","<p></p>","null","","","","","","","","","","","","","","","","","","","","","","","",""
"","do_trial","215","668798","0.0-116.0-0.0","""event"",""trial"",""time""
""fullscreenenter"",""0"",""1875""
","
","
","""event"",""trial"",""time""
""fullscreenenter"",""0"",""1875""
","
","426.2000002861023","","","","","","","","51","0,0,0","6","blank","327","null","0.48122893245886533","0.22226343836303283","0.10310422930733157","0","","","","","","","","",""
"","html-keyboard-response","216","669808","0.0-116.0-1.0","""event"",""trial"",""time""
""fullscreenenter"",""0"",""1875""
","
","
","""event"",""trial"",""time""
""fullscreenenter"",""0"",""1875""
","
","null","<p></p>","null","","","","","","","","","","","","","","","","","","","","","","","",""
"","do_recog","217","672867","0.0-117.0-0.0","""event"",""trial"",""time""
""fullscreenenter"",""0"",""1875""
","
","
","""event"",""trial"",""time""
""fullscreenenter"",""0"",""1875""
","
","1543.2999997138977","","","","","","","","53","","","","328","probe-45","","","","","1","[object Object]","30","0","1","","","",""
"","html-keyboard-response","218","673871","0.0-117.0-1.0","""event"",""trial"",""time""
""fullscreenenter"",""0"",""1875""
","
","
","""event"",""trial"",""time""
""fullscreenenter"",""0"",""1875""
","
","null","<p></p>","null","","","","","","","","","","","","","","","","","","","","","","","",""
"","do_trial","219","676900","0.0-118.0-0.0","""event"",""trial"",""time""
""fullscreenenter"",""0"",""1875""
","
","
","""event"",""trial"",""time""
""fullscreenenter"",""0"",""1875""
","
","473.7999997138977","","","","","","","","50","0,0,0","6","blank","329","null","0.5225077858639758","0.2413152412318631","0.12035065011176015","0","","","","","","","","",""
"","html-keyboard-response","220","677911","0.0-118.0-1.0","""event"",""trial"",""time""
""fullscreenenter"",""0"",""1875""
","
","
","""event"",""trial"",""time""
""fullscreenenter"",""0"",""1875""
","
","null","<p></p>","null","","","","","","","","","","","","","","","","","","","","","","","",""
"","do_trial","221","680783","0.0-119.0-0.0","""event"",""trial"",""time""
""fullscreenenter"",""0"",""1875""
","
","
","""event"",""trial"",""time""
""fullscreenenter"",""0"",""1875""
","
","306.90000009536743","","","","","","","","49","0,1,0","6","blank","330","null","0.542681700535055","0.1996017885457525","0.0837119435186865","0","","","","","","","","",""
"","html-keyboard-response","222","681798","0.0-119.0-1.0","""event"",""trial"",""time""
""fullscreenenter"",""0"",""1875""
","
","
","""event"",""trial"",""time""
""fullscreenenter"",""0"",""1875""
","
","null","<p></p>","null","","","","","","","","","","","","","","","","","","","","","","","",""
"","do_trial","223","684640","0.0-120.0-0.0","""event"",""trial"",""time""
""fullscreenenter"",""0"",""1875""
","
","
","""event"",""trial"",""time""
""fullscreenenter"",""0"",""1875""
","
","293.80000019073486","","","","","","","","51","1,0,1","6","blank","331","null","0.6283166597410695","0.2715723144955791","0.13596824832271653","1","","","","","","","","",""
"","html-keyboard-response","224","685649","0.0-120.0-1.0","""event"",""trial"",""time""
""fullscreenenter"",""0"",""1875""
","
","
","""event"",""trial"",""time""
""fullscreenenter"",""0"",""1875""
","
","null","<p></p>","null","","","","","","","","","","","","","","","","","","","","","","","",""
"","do_trial","225","690516","0.0-121.0-0.0","""event"",""trial"",""time""
""fullscreenenter"",""0"",""1875""
","
","
","""event"",""trial"",""time""
""fullscreenenter"",""0"",""1875""
","
","2331.699999809265","","","","","","","","51","1,0,0","6","blank","332","null","0.5100558903839222","0.34214199582120797","0.13603109716261177","0","","","","","","","","",""
"","html-keyboard-response","226","691528","0.0-121.0-1.0","""event"",""trial"",""time""
""fullscreenenter"",""0"",""1875""
","
","
","""event"",""trial"",""time""
""fullscreenenter"",""0"",""1875""
","
","null","<p></p>","null","","","","","","","","","","","","","","","","","","","","","","","",""
"","do_recog","227","697553","0.0-122.0-0.0","""event"",""trial"",""time""
""fullscreenenter"",""0"",""1875""
","
","
","""event"",""trial"",""time""
""fullscreenenter"",""0"",""1875""
","
","null","","","","","","","","null","","","","333","probe-224","","","","","1","[object Object]","34","0","0","","","",""
"","html-keyboard-response","228","698562","0.0-122.0-1.0","""event"",""trial"",""time""
""fullscreenenter"",""0"",""1875""
","
","
","""event"",""trial"",""time""
""fullscreenenter"",""0"",""1875""
","
","null","<p></p>","null","","","","","","","","","","","","","","","","","","","","","","","",""
"","do_trial","229","702081","0.0-123.0-0.0","""event"",""trial"",""time""
""fullscreenenter"",""0"",""1875""
","
","
","""event"",""trial"",""time""
""fullscreenenter"",""0"",""1875""
","
","951.1000003814697","","","","","","","","49","0,1,0","6","blank","334","null","0.5118345331313142","0.25387080864194195","0.1970069325480214","0","","","","","","","","",""
"","html-keyboard-response","230","703092","0.0-123.0-1.0","""event"",""trial"",""time""
""fullscreenenter"",""0"",""1875""
","
","
","""event"",""trial"",""time""
""fullscreenenter"",""0"",""1875""
","
","null","<p></p>","null","","","","","","","","","","","","","","","","","","","","","","","",""
"","do_trial","231","705987","0.0-124.0-0.0","""event"",""trial"",""time""
""fullscreenenter"",""0"",""1875""
","
","
","""event"",""trial"",""time""
""fullscreenenter"",""0"",""1875""
","
","339.59999990463257","","","","","","","","50","1,0,0","6","blank","335","null","0.6014685753192918","0.2453458293896858","0.20652965793287364","0","","","","","","","","",""
"","html-keyboard-response","232","706992","0.0-124.0-1.0","""event"",""trial"",""time""
""fullscreenenter"",""0"",""1875""
","
","
","""event"",""trial"",""time""
""fullscreenenter"",""0"",""1875""
","
","null","<p></p>","null","","","","","","","","","","","","","","","","","","","","","","","",""
"","do_recog","233","709274","0.0-125.0-0.0","""event"",""trial"",""time""
""fullscreenenter"",""0"",""1875""
","
","
","""event"",""trial"",""time""
""fullscreenenter"",""0"",""1875""
","
","768.1999998092651","","","","","","","","54","","","","336","probe-64","","","","","1","[object Object]","196","4","1","","","",""
"","html-keyboard-response","234","710291","0.0-125.0-1.0","""event"",""trial"",""time""
""fullscreenenter"",""0"",""1875""
","
","
","""event"",""trial"",""time""
""fullscreenenter"",""0"",""1875""
","
","null","<p></p>","null","","","","","","","","","","","","","","","","","","","","","","","",""
"","do_trial","235","713240","0.0-126.0-0.0","""event"",""trial"",""time""
""fullscreenenter"",""0"",""1875""
","
","
","""event"",""trial"",""time""
""fullscreenenter"",""0"",""1875""
","
","399.2000002861023","","","","","","","","51","0,0,0","6","blank","337","null","0.6186054409850149","0.2576465223042802","0.13642269953049005","0","","","","","","","","",""
"","html-keyboard-response","236","714251","0.0-126.0-1.0","""event"",""trial"",""time""
""fullscreenenter"",""0"",""1875""
","
","
","""event"",""trial"",""time""
""fullscreenenter"",""0"",""1875""
","
","null","<p></p>","null","","","","","","","","","","","","","","","","","","","","","","","",""
"","do_recog","237","717437","0.0-127.0-0.0","""event"",""trial"",""time""
""fullscreenenter"",""0"",""1875""
","
","
","""event"",""trial"",""time""
""fullscreenenter"",""0"",""1875""
","
","1669.5999999046326","","","","","","","","54","","","","338","probe-255","","","","","0","[object Object]","null","null","0","","","",""
"","html-keyboard-response","238","718448","0.0-127.0-1.0","""event"",""trial"",""time""
""fullscreenenter"",""0"",""1875""
","
","
","""event"",""trial"",""time""
""fullscreenenter"",""0"",""1875""
","
","null","<p></p>","null","","","","","","","","","","","","","","","","","","","","","","","",""
"","do_trial","239","721424","0.0-128.0-0.0","""event"",""trial"",""time""
""fullscreenenter"",""0"",""1875""
","
","
","""event"",""trial"",""time""
""fullscreenenter"",""0"",""1875""
","
","404.19999980926514","","","","","","","","50","0,1,0","6","blank","339","null","0.5989598146956133","0.22692504017829052","0.18999889755869093","1","","","","","","","","",""
"","html-keyboard-response","240","722433","0.0-128.0-1.0","""event"",""trial"",""time""
""fullscreenenter"",""0"",""1875""
","
","
","""event"",""trial"",""time""
""fullscreenenter"",""0"",""1875""
","
","null","<p></p>","null","","","","","","","","","","","","","","","","","","","","","","","",""
"","do_recog","241","726826","0.0-129.0-0.0","""event"",""trial"",""time""
""fullscreenenter"",""0"",""1875""
","
","
","""event"",""trial"",""time""
""fullscreenenter"",""0"",""1875""
","
","2874.9000000953674","","","","","","","","53","","","","340","probe-205","","","","","1","[object Object]","118","2","1","","","",""
"","html-keyboard-response","242","727836","0.0-129.0-1.0","""event"",""trial"",""time""
""fullscreenenter"",""0"",""1875""
","
","
","""event"",""trial"",""time""
""fullscreenenter"",""0"",""1875""
","
","null","<p></p>","null","","","","","","","","","","","","","","","","","","","","","","","",""
"","do_trial","243","731075","0.0-130.0-0.0","""event"",""trial"",""time""
""fullscreenenter"",""0"",""1875""
","
","
","""event"",""trial"",""time""
""fullscreenenter"",""0"",""1875""
","
","676.5999999046326","","","","","","","","51","0,1,0","6","blank","341","null","0.6555925405957431","0.3341323443542276","0.29021857636676446","0","","","","","","","","",""
"","html-keyboard-response","244","732089","0.0-130.0-1.0","""event"",""trial"",""time""
""fullscreenenter"",""0"",""1875""
","
","
","""event"",""trial"",""time""
""fullscreenenter"",""0"",""1875""
","
","null","<p></p>","null","","","","","","","","","","","","","","","","","","","","","","","",""
"","do_trial","245","735043","0.0-131.0-0.0","""event"",""trial"",""time""
""fullscreenenter"",""0"",""1875""
","
","
","""event"",""trial"",""time""
""fullscreenenter"",""0"",""1875""
","
","394.09999990463257","","","","","","","","51","1,0,0","6","blank","342","null","0.5649939162370631","0.32235494920575813","0.17418307566100197","0","","","","","","","","",""
"","html-keyboard-response","246","736052","0.0-131.0-1.0","""event"",""trial"",""time""
""fullscreenenter"",""0"",""1875""
","
","
","""event"",""trial"",""time""
""fullscreenenter"",""0"",""1875""
","
","null","<p></p>","null","","","","","","","","","","","","","","","","","","","","","","","",""
"","do_trial","247","739192","0.0-132.0-0.0","""event"",""trial"",""time""
""fullscreenenter"",""0"",""1875""
","
","
","""event"",""trial"",""time""
""fullscreenenter"",""0"",""1875""
","
","598.3000001907349","","","","","","","","49","0,0,0","6","blank","343","null","0.6274507350448313","0.14011981673063775","0.0670748799022796","0","","","","","","","","",""
"","html-keyboard-response","248","740203","0.0-132.0-1.0","""event"",""trial"",""time""
""fullscreenenter"",""0"",""1875""
","
","
","""event"",""trial"",""time""
""fullscreenenter"",""0"",""1875""
","
","null","<p></p>","null","","","","","","","","","","","","","","","","","","","","","","","",""
"","do_recog","249","743014","0.0-133.0-0.0","""event"",""trial"",""time""
""fullscreenenter"",""0"",""1875""
","
","
","""event"",""trial"",""time""
""fullscreenenter"",""0"",""1875""
","
","1298.3000001907349","","","","","","","","53","","","","344","probe-155","","","","","1","[object Object]","116","2","1","","","",""
"","html-keyboard-response","250","744021","0.0-133.0-1.0","""event"",""trial"",""time""
""fullscreenenter"",""0"",""1875""
","
","
","""event"",""trial"",""time""
""fullscreenenter"",""0"",""1875""
","
","null","<p></p>","null","","","","","","","","","","","","","","","","","","","","","","","",""
"","do_trial","251","746980","0.0-134.0-0.0","""event"",""trial"",""time""
""fullscreenenter"",""0"",""1875""
","
","
","""event"",""trial"",""time""
""fullscreenenter"",""0"",""1875""
","
","398.30000019073486","","","","","","","","50","0,0,1","6","blank","345","null","0.7041474357161862","0.07871485963118055","0.12819813305891647","0","","","","","","","","",""
"","html-keyboard-response","252","747990","0.0-134.0-1.0","""event"",""trial"",""time""
""fullscreenenter"",""0"",""1875""
","
","
","""event"",""trial"",""time""
""fullscreenenter"",""0"",""1875""
","
","null","<p></p>","null","","","","","","","","","","","","","","","","","","","","","","","",""
"","do_trial","253","750879","0.0-135.0-0.0","""event"",""trial"",""time""
""fullscreenenter"",""0"",""1875""
","
","
","""event"",""trial"",""time""
""fullscreenenter"",""0"",""1875""
","
","353.2000002861023","","","","","","","","51","1,0,1","6","blank","346","null","0.5617561931104674","0.08626307739216751","0.11526590179396476","1","","","","","","","","",""
"","html-keyboard-response","254","751884","0.0-135.0-1.0","""event"",""trial"",""time""
""fullscreenenter"",""0"",""1875""
","
","
","""event"",""trial"",""time""
""fullscreenenter"",""0"",""1875""
","
","null","<p></p>","null","","","","","","","","","","","","","","","","","","","","","","","",""
"","do_trial","255","754847","0.0-136.0-0.0","""event"",""trial"",""time""
""fullscreenenter"",""0"",""1875""
","
","
","""event"",""trial"",""time""
""fullscreenenter"",""0"",""1875""
","
","410","","","","","","","","51","1,0,0","6","blank","347","null","0.5429313447924837","0.12077179982796399","0.07808767992640896","0","","","","","","","","",""
"","html-keyboard-response","256","755859","0.0-136.0-1.0","""event"",""trial"",""time""
""fullscreenenter"",""0"",""1875""
","
","
","""event"",""trial"",""time""
""fullscreenenter"",""0"",""1875""
","
","null","<p></p>","null","","","","","","","","","","","","","","","","","","","","","","","",""
"","do_trial","257","758697","0.0-137.0-0.0","""event"",""trial"",""time""
""fullscreenenter"",""0"",""1875""
","
","
","""event"",""trial"",""time""
""fullscreenenter"",""0"",""1875""
","
","279.59999990463257","","","","","","","","50","0,0,1","6","blank","348","null","0.3921999754243516","0.13587213975952186","0.15393513014945845","0","","","","","","","","",""
"","html-keyboard-response","258","759710","0.0-137.0-1.0","""event"",""trial"",""time""
""fullscreenenter"",""0"",""1875""
","
","
","""event"",""trial"",""time""
""fullscreenenter"",""0"",""1875""
","
","null","<p></p>","null","","","","","","","","","","","","","","","","","","","","","","","",""
"","break","259","812536","0.0-138.0-0.0","""event"",""trial"",""time""
""fullscreenenter"",""0"",""1875""
","
","
","""event"",""trial"",""time""
""fullscreenenter"",""0"",""1875""
","
","52823.89999961853","<div class='center'><p>Time to take a quick break! You have 2 minutes to rest, but you can move on sooner if you'd like.</p><p> Press the <b>space bar</b> to continue.</p></div>","32","","","","","","","","","","","","","","","","","","","","","","","",""
"","do_trial","260","815977","0.0-138.0-1.0","""event"",""trial"",""time""
""fullscreenenter"",""0"",""1875""
","
","
","""event"",""trial"",""time""
""fullscreenenter"",""0"",""1875""
","
","896","","","","","","","","50","1,0,0","6","blank","349","null","0.3402700012374855","0.18576820644349398","0.32015238753677894","0","","","","","","","","",""
"","html-keyboard-response","261","816983","0.0-138.0-2.0","""event"",""trial"",""time""
""fullscreenenter"",""0"",""1875""
","
","
","""event"",""trial"",""time""
""fullscreenenter"",""0"",""1875""
","
","null","<p></p>","null","","","","","","","","","","","","","","","","","","","","","","","",""
"","do_trial","262","819804","0.0-139.0-0.0","""event"",""trial"",""time""
""fullscreenenter"",""0"",""1875""
","
","
","""event"",""trial"",""time""
""fullscreenenter"",""0"",""1875""
","
","284.69999980926514","","","","","","","","51","0,1,0","6","blank","350","null","0.33295428963731716","0.051275376369629505","0.4434018479118271","0","","","","","","","","",""
"","html-keyboard-response","263","820812","0.0-139.0-1.0","""event"",""trial"",""time""
""fullscreenenter"",""0"",""1875""
","
","
","""event"",""trial"",""time""
""fullscreenenter"",""0"",""1875""
","
","null","<p></p>","null","","","","","","","","","","","","","","","","","","","","","","","",""
"","do_trial","264","823666","0.0-140.0-0.0","""event"",""trial"",""time""
""fullscreenenter"",""0"",""1875""
","
","
","""event"",""trial"",""time""
""fullscreenenter"",""0"",""1875""
","
","290.30000019073486","","","","","","","","51","1,0,1","6","blank","351","null","0.31113159194133544","0.20451852759578132","0.5828154754063013","1","","","","","","","","",""
"","html-keyboard-response","265","824680","0.0-140.0-1.0","""event"",""trial"",""time""
""fullscreenenter"",""0"",""1875""
","
","
","""event"",""trial"",""time""
""fullscreenenter"",""0"",""1875""
","
","null","<p></p>","null","","","","","","","","","","","","","","","","","","","","","","","",""
"","do_recog","266","827254","0.0-141.0-0.0","""event"",""trial"",""time""
""fullscreenenter"",""0"",""1875""
","
","
","""event"",""trial"",""time""
""fullscreenenter"",""0"",""1875""
","
","1063.4000000953674","","","","","","","","56","","","","352","probe-138","","","","","1","[object Object]","197","4","0","","","",""
"","html-keyboard-response","267","828266","0.0-141.0-1.0","""event"",""trial"",""time""
""fullscreenenter"",""0"",""1875""
","
","
","""event"",""trial"",""time""
""fullscreenenter"",""0"",""1875""
","
","null","<p></p>","null","","","","","","","","","","","","","","","","","","","","","","","",""
"","do_trial","268","831160","0.0-142.0-0.0","""event"",""trial"",""time""
""fullscreenenter"",""0"",""1875""
","
","
","""event"",""trial"",""time""
""fullscreenenter"",""0"",""1875""
","
","335","","","","","","","","51","1,0,0","6","blank","353","null","0.3712667913890946","0.10701937478798974","0.5687352916598686","0","","","","","","","","",""
"","html-keyboard-response","269","832162","0.0-142.0-1.0","""event"",""trial"",""time""
""fullscreenenter"",""0"",""1875""
","
","
","""event"",""trial"",""time""
""fullscreenenter"",""0"",""1875""
","
","null","<p></p>","null","","","","","","","","","","","","","","","","","","","","","","","",""
"","do_recog","270","834540","0.0-143.0-0.0","""event"",""trial"",""time""
""fullscreenenter"",""0"",""1875""
","
","
","""event"",""trial"",""time""
""fullscreenenter"",""0"",""1875""
","
","865.2000002861023","","","","","","","","54","","","","354","probe-118","","","","","1","[object Object]","36","0","1","","","",""
"","html-keyboard-response","271","835555","0.0-143.0-1.0","""event"",""trial"",""time""
""fullscreenenter"",""0"",""1875""
","
","
","""event"",""trial"",""time""
""fullscreenenter"",""0"",""1875""
","
","null","<p></p>","null","","","","","","","","","","","","","","","","","","","","","","","",""
"","do_trial","272","838669","0.0-144.0-0.0","""event"",""trial"",""time""
""fullscreenenter"",""0"",""1875""
","
","
","""event"",""trial"",""time""
""fullscreenenter"",""0"",""1875""
","
","560.5","","","","","","","","50","0,0,0","6","blank","355","null","0.4377193194541187","0.20637438781953413","0.5892876411841814","0","","","","","","","","",""
"","html-keyboard-response","273","839679","0.0-144.0-1.0","""event"",""trial"",""time""
""fullscreenenter"",""0"",""1875""
","
","
","""event"",""trial"",""time""
""fullscreenenter"",""0"",""1875""
","
","null","<p></p>","null","","","","","","","","","","","","","","","","","","","","","","","",""
"","do_recog","274","842856","0.0-145.0-0.0","""event"",""trial"",""time""
""fullscreenenter"",""0"",""1875""
","
","
","""event"",""trial"",""time""
""fullscreenenter"",""0"",""1875""
","
","1657.8000001907349","","","","","","","","53","","","","356","probe-125","","","","","1","[object Object]","78","1","1","","","",""
"","html-keyboard-response","275","843867","0.0-145.0-1.0","""event"",""trial"",""time""
""fullscreenenter"",""0"",""1875""
","
","
","""event"",""trial"",""time""
""fullscreenenter"",""0"",""1875""
","
","null","<p></p>","null","","","","","","","","","","","","","","","","","","","","","","","",""
"","do_trial","276","847223","0.0-146.0-0.0","""event"",""trial"",""time""
""fullscreenenter"",""0"",""1875""
","
","
","""event"",""trial"",""time""
""fullscreenenter"",""0"",""1875""
","
","805.4000000953674","","","","","","","","51","0,1,1","6","blank","357","null","0.4256320391433027","0.10514098713042884","0.528132243297899","1","","","","","","","","",""
