"success","trial_type","trial_index","time_elapsed","internal_node_id","interactions","blur_events","focus_events","fullscreenenter_events","fullscreenexit_events","rt","stimulus","key_press","subject_id","participant_id","age","gender","prompt","response","choice_outcomes","context_n","context_img_id","trial_n","probe_img_id","pR_red","pR_white","pR_black","outcome","is_valid","image_to_show","probed_trial","probed_context","correct","probe","probed_trial_n","probed_context_n","context_im"
"true","fullscreen","0","2864","0.0-0.0","""event"",""trial"",""time""
""fullscreenenter"",""0"",""1895""
","
","
","""event"",""trial"",""time""
""fullscreenenter"",""0"",""1895""
","
","","","","","","","","","","","","","","","","","","","","","","","","","","",""
"","pavlovia","1","2870","0.0-1.0","""event"",""trial"",""time""
""fullscreenenter"",""0"",""1895""
","
","
","""event"",""trial"",""time""
""fullscreenenter"",""0"",""1895""
","
","","","","","","","","","","","","","","","","","","","","","","","","","","",""
"","welc_back","2","12642","0.0-2.0","""event"",""trial"",""time""
""fullscreenenter"",""0"",""1895""
","
","
","""event"",""trial"",""time""
""fullscreenenter"",""0"",""1895""
","
","null","run_exp/static/audio/clip_29_welcome_back.m4a","null","543","171","8","Male","<div class='center'><p>Welcome to day 2!</p><p> Yesterday, you were the head captain of a pirate ship. You asked your fellow pirates to rob other ships of their gold across six different islands.</p></div>","","","","","","","","","","","","","","","","","","",""
"","html-keyboard-response","3","15151","0.0-3.0","""event"",""trial"",""time""
""fullscreenenter"",""0"",""1895""
","
","
","""event"",""trial"",""time""
""fullscreenenter"",""0"",""1895""
","
","2507","<div class='center'><p>Welcome to day 2!</p><p> Yesterday, you were the head captain of a pirate ship. You asked your fellow pirates to rob other ships of their gold across six different islands.</p><p><b>[Press the space bar to continue]</b></p></div>","32","","","","","","","","","","","","","","","","","","","","","","","",""
"","day_1_summary_goal","4","32342","0.0-4.0","""event"",""trial"",""time""
""fullscreenenter"",""0"",""1895""
","
","
","""event"",""trial"",""time""
""fullscreenenter"",""0"",""1895""
","
","null","run_exp/static/audio/clip_30_goal_of_game.m4a","null","","","","","<div class='center'><p>Today, like yesterday, you get to pick which pirate you want to rob the next ship.</p><p>If the pirate is successful in robbing a ship, you get gold coins that look like this: </p><p><img src='run_exp/static/images/tutorial/reward.png' height='150'></p><p> If they were not successful in robbing the ship, then you will get no gold coins and you'll see a big red x like this: </p><p><img src='run_exp/static/images/tutorial/reward_no.png' height='150'></p></div>","","","","","","","","","","","","","","","","","","",""
"","html-keyboard-response","5","34453","0.0-5.0","""event"",""trial"",""time""
""fullscreenenter"",""0"",""1895""
","
","
","""event"",""trial"",""time""
""fullscreenenter"",""0"",""1895""
","
","2109.5","<div class='center'><p>Today, like yesterday, you get to pick which pirate you want to rob the next ship.</p><p>If the pirate is successful in robbing a ship, you get gold coins that look like this: </p><p><img src='run_exp/static/images/tutorial/reward.png' height='150'></p><p> If they were not successful in robbing the ship, then you will get no gold coins and you'll see a big red x like this: </p><p><img src='run_exp/static/images/tutorial/reward_no.png' height='150'></p><p><b>[Press the space bar to continue]</b></p></div>","32","","","","","","","","","","","","","","","","","","","","","","","",""
"","day_1_summary_pick","6","49141","0.0-6.0","""event"",""trial"",""time""
""fullscreenenter"",""0"",""1895""
","
","
","""event"",""trial"",""time""
""fullscreenenter"",""0"",""1895""
","
","null","run_exp/static/audio/clip_31_how_to_pick_a_pirate.m4a","null","","","","","<div class='center'><p>Also, just like yesterday, you will use the 1,2,3 keys on your keyboard to pick a pirate. Press '1' to choose red beard, '2' to choose white beard, and '3' to choose black beard . You only have 3 seconds to pick a pirate, so please make a choice quickly!</p></div>","","","","","","","","","","","","","","","","","","",""
"","html-keyboard-response","7","67939","0.0-7.0","""event"",""trial"",""time""
""fullscreenenter"",""0"",""1895""
","
","
","""event"",""trial"",""time""
""fullscreenenter"",""0"",""1895""
","
","18802","<div class='center'><p>Also, just like yesterday, you will use the 1,2,3 keys on your keyboard to pick a pirate. Press '1' to choose red beard, '2' to choose white beard, and '3' to choose black beard . You only have 3 seconds to pick a pirate, so please make a choice quickly!</p><p><b>[Press the space bar to continue]</b></p></div>","32","","","","","","","","","","","","","","","","","","","","","","","",""
"","test_phase_begin","8","98423","0.0-8.0","""event"",""trial"",""time""
""fullscreenenter"",""0"",""1895""
","
","
","""event"",""trial"",""time""
""fullscreenenter"",""0"",""1895""
","
","null","run_exp/static/audio/clip_32_final_place.m4a","null","","","","","<div class='center'><p>You’ve arrived at the final island of your journey! Unfortunately, it’s very foggy out, so you won’t be able to see it in the distance like the other islands you've visited.</p><p>You’ll still be deciding which pirate you want to rob a ship like before. However, because of the fog, you also won’t be able to see the ship.</p><p>This means you do not have to remember the ships you rob on this island.</p><p>Unlike yesterday, you won't be visiting multiple islands today. You will stay on this island for the entire game. This game will last ~30 minutes.</p></div>","","","","","","","","","","","","","","","","","","",""
"","html-keyboard-response","9","100369","0.0-9.0","""event"",""trial"",""time""
""fullscreenenter"",""0"",""1895""
","
","
","""event"",""trial"",""time""
""fullscreenenter"",""0"",""1895""
","
","1944.6000000000931","<div class='center'><p>You’ve arrived at the final island of your journey! Unfortunately, it’s very foggy out, so you won’t be able to see it in the distance like the other islands you've visited.</p><p>You’ll still be deciding which pirate you want to rob a ship like before. However, because of the fog, you also won’t be able to see the ship.</p><p>This means you do not have to remember the ships you rob on this island.</p><p>Unlike yesterday, you won't be visiting multiple islands today. You will stay on this island for the entire game. This game will last ~30 minutes.</p><p><b>[Press the space bar to continue]</b></p></div>","32","","","","","","","","","","","","","","","","","","","","","","","",""
"","explain_probe_1","10","108063","0.0-10.0","""event"",""trial"",""time""
""fullscreenenter"",""0"",""1895""
","
","
","""event"",""trial"",""time""
""fullscreenenter"",""0"",""1895""
","
","null","run_exp/static/audio/clip_33_recognition_1.m4a","null","","","","","<div class='center'><p> Sometimes you’ll be shown a ship, and you will be asked if you saw this ship on a past island.</p><p> Here is an example of what you will see.</p><p><img src='run_exp/static/images/tutorial/example_recog_trial.png' height='500'></p></div>","","","","","","","","","","","","","","","","","","",""
"","html-keyboard-response","11","111833","0.0-11.0","""event"",""trial"",""time""
""fullscreenenter"",""0"",""1895""
","
","
","""event"",""trial"",""time""
""fullscreenenter"",""0"",""1895""
","
","3767.399999999907","<div class='center'><p> Sometimes you’ll be shown a ship, and you will be asked if you saw this ship on a past island.</p><p> Here is an example of what you will see.</p><p><img src='run_exp/static/images/tutorial/example_recog_trial.png' height='500'></p><p><b>[Press the space bar to continue]</b></p></div>","32","","","","","","","","","","","","","","","","","","","","","","","",""
"","explain_probe_2","12","133547","0.0-12.0","""event"",""trial"",""time""
""fullscreenenter"",""0"",""1895""
","
","
","""event"",""trial"",""time""
""fullscreenenter"",""0"",""1895""
","
","null","run_exp/static/audio/clip_34_recognition_2.m4a","null","","","","","<div class='center'><p> You will press the 5, 6, 7, 8 keys on your keyboard to respond.</p><p>If you are sure you saw the ship, press <b>5</b> on your keyboard.</p><p> If you think you saw it before but aren't sure, then press <b>6</b>.</p><p> If you think you have <b>not</b> seen it before but aren't sure, then press <b>7</b>.</p><p> If you are sure you did <b>not</b> see the ship before, then press <b>8</b>.</p><p><img src='run_exp/static/images/tutorial/example_recog_trial.png' height='500'></p></div>","","","","","","","","","","","","","","","","","","",""
"","html-keyboard-response","13","135793","0.0-13.0","""event"",""trial"",""time""
""fullscreenenter"",""0"",""1895""
","
","
","""event"",""trial"",""time""
""fullscreenenter"",""0"",""1895""
","
","2245","<div class='center'><p> You will press the 5, 6, 7, 8 keys on your keyboard to respond.</p><p>If you are sure you saw the ship, press <b>5</b> on your keyboard.</p><p> If you think you saw it before but aren't sure, then press <b>6</b>.</p><p> If you think you have <b>not</b> seen it before but aren't sure, then press <b>7</b>.</p><p> If you are sure you did <b>not</b> see the ship before, then press <b>8</b>.</p><p><img src='run_exp/static/images/tutorial/example_recog_trial.png' height='500'></p><p><b>[Press the space bar to continue]</b></p></div>","32","","","","","","","","","","","","","","","","","","","","","","","",""
"","explain_outcome","14","152987","0.0-14.0","""event"",""trial"",""time""
""fullscreenenter"",""0"",""1895""
","
","
","""event"",""trial"",""time""
""fullscreenenter"",""0"",""1895""
","
","null","run_exp/static/audio/clip_35_recognition_3.m4a","null","","","","","<div class='center'><p> If you remember correctly, then you’ll get a gold coin like this: </p><p><img src='run_exp/static/images/tutorial/reward_small.png' height='200'></p><p>If you do not remember correctly, then you'll see a red x like this: </p><p><img src='run_exp/static/images/tutorial/reward_no.png' height='200'></p><p>Importantly, when you are shown a ship, take the time to remind yourself which island you saw it on. This will help you in the next part of the study.</p></div>","","","","","","","","","","","","","","","","","","",""
"","html-keyboard-response","15","158491","0.0-15.0","""event"",""trial"",""time""
""fullscreenenter"",""0"",""1895""
","
","
","""event"",""trial"",""time""
""fullscreenenter"",""0"",""1895""
","
","5502","<div class='center'><p> If you remember correctly, then you’ll get a gold coin like this: </p><p><img src='run_exp/static/images/tutorial/reward_small.png' height='200'></p><p>If you do not remember correctly, then you'll see a red x like this: </p><p><img src='run_exp/static/images/tutorial/reward_no.png' height='200'></p><p>Importantly, when you are shown a ship, take the time to remind yourself which island you saw it on. This will help you in the next part of the study.</p><p><b>[Press the space bar to continue]</b></p></div>","32","","","","","","","","","","","","","","","","","","","","","","","",""
"","begin_test_phase","16","174287","0.0-16.0","""event"",""trial"",""time""
""fullscreenenter"",""0"",""1895""
","
","
","""event"",""trial"",""time""
""fullscreenenter"",""0"",""1895""
","
","null","run_exp/static/audio/clip_36_begin_final.m4a","null","","","","","<div class='center'><p>Let's go over the important points again. Your job is to: </p><p>1. Pick the pirate who is best at robbing ships and will bring you back gold coins. </p><p>2. Correctly remember whether or not you saw a ship before. If you did see the ship before, remind yourself on which island you saw it. </p></div>","","","","","","","","","","","","","","","","","","",""
"","html-keyboard-response","17","177511","0.0-17.0","""event"",""trial"",""time""
""fullscreenenter"",""0"",""1895""
","
","
","""event"",""trial"",""time""
""fullscreenenter"",""0"",""1895""
","
","3180","<div class='center'><p>Let's go over the important points again. Your job is to: </p><p>1. Pick the pirate who is best at robbing ships and will bring you back gold coins. </p><p>2. Correctly remember whether or not you saw a ship before. If you did see the ship before, remind yourself on which island you saw it. </p><p><b>[Press the space bar to continue]</b></p></div>","32","","","","","","","","","","","","","","","","","","","","","","","",""
"","do_welcome","18","181537","0.0-18.0","""event"",""trial"",""time""
""fullscreenenter"",""0"",""1895""
","
","
","""event"",""trial"",""time""
""fullscreenenter"",""0"",""1895""
","
","null","","","","","","","","null","","","","","","","","","","","","","","","","","",""
"","do_trial","19","185866","0.0-19.0-0.0","""event"",""trial"",""time""
""fullscreenenter"",""0"",""1895""
","
","
","""event"",""trial"",""time""
""fullscreenenter"",""0"",""1895""
","
","1776.6000000000931","","","","","","","","51","1,0,0","6","blank","230","null","0.26347258771535864","0.12364694526852396","0.5417252670660037","0","","","","","","","","",""
"","html-keyboard-response","20","186876","0.0-19.0-1.0","""event"",""trial"",""time""
""fullscreenenter"",""0"",""1895""
","
","
","""event"",""trial"",""time""
""fullscreenenter"",""0"",""1895""
","
","null","<p></p>","null","","","","","","","","","","","","","","","","","","","","","","","",""
"","do_trial","21","191356","0.0-20.0-0.0","""event"",""trial"",""time""
""fullscreenenter"",""0"",""1895""
","
","
","""event"",""trial"",""time""
""fullscreenenter"",""0"",""1895""
","
","1930.7000000001863","","","","","","","","50","0,0,0","6","blank","231","null","0.20532231855097346","0.2722416997473139","0.4437924941729874","0","","","","","","","","",""
"","html-keyboard-response","22","192361","0.0-20.0-1.0","""event"",""trial"",""time""
""fullscreenenter"",""0"",""1895""
","
","
","""event"",""trial"",""time""
""fullscreenenter"",""0"",""1895""
","
","null","<p></p>","null","","","","","","","","","","","","","","","","","","","","","","","",""
"","do_trial","23","194914","0.0-21.0-0.0","""event"",""trial"",""time""
""fullscreenenter"",""0"",""1895""
","
","
","""event"",""trial"",""time""
""fullscreenenter"",""0"",""1895""
","
","0.39999999990686774","","","","","","","","49","0,0,1","6","blank","232","null","0.20336797089482975","0.2927832521909241","0.41622202764484767","0","","","","","","","","",""
"","html-keyboard-response","24","195922","0.0-21.0-1.0","""event"",""trial"",""time""
""fullscreenenter"",""0"",""1895""
","
","
","""event"",""trial"",""time""
""fullscreenenter"",""0"",""1895""
","
","null","<p></p>","null","","","","","","","","","","","","","","","","","","","","","","","",""
"","do_trial","25","199196","0.0-22.0-0.0","""event"",""trial"",""time""
""fullscreenenter"",""0"",""1895""
","
","
","""event"",""trial"",""time""
""fullscreenenter"",""0"",""1895""
","
","733.7000000001863","","","","","","","","50","0,0,0","6","blank","233","null","0.13805111490089444","0.15571186322341363","0.47497252003477236","0","","","","","","","","",""
"","html-keyboard-response","26","200204","0.0-22.0-1.0","""event"",""trial"",""time""
""fullscreenenter"",""0"",""1895""
","
","
","""event"",""trial"",""time""
""fullscreenenter"",""0"",""1895""
","
","null","<p></p>","null","","","","","","","","","","","","","","","","","","","","","","","",""
"","do_trial","27","203128","0.0-23.0-0.0","""event"",""trial"",""time""
""fullscreenenter"",""0"",""1895""
","
","
","""event"",""trial"",""time""
""fullscreenenter"",""0"",""1895""
","
","371.20000000018626","","","","","","","","51","1,0,1","6","blank","234","null","0.27506436978645704","0.2022105596024284","0.625783146701241","1","","","","","","","","",""
"","html-keyboard-response","28","204143","0.0-23.0-1.0","""event"",""trial"",""time""
""fullscreenenter"",""0"",""1895""
","
","
","""event"",""trial"",""time""
""fullscreenenter"",""0"",""1895""
","
","null","<p></p>","null","","","","","","","","","","","","","","","","","","","","","","","",""
"","do_trial","29","207856","0.0-24.0-0.0","""event"",""trial"",""time""
""fullscreenenter"",""0"",""1895""
","
","
","""event"",""trial"",""time""
""fullscreenenter"",""0"",""1895""
","
","1162","","","","","","","","50","1,0,0","6","blank","235","null","0.27787253858921285","0.12340166969564291","0.6425218658474389","0","","","","","","","","",""
"","html-keyboard-response","30","208872","0.0-24.0-1.0","""event"",""trial"",""time""
""fullscreenenter"",""0"",""1895""
","
","
","""event"",""trial"",""time""
""fullscreenenter"",""0"",""1895""
","
","null","<p></p>","null","","","","","","","","","","","","","","","","","","","","","","","",""
"","do_trial","31","212584","0.0-25.0-0.0","""event"",""trial"",""time""
""fullscreenenter"",""0"",""1895""
","
","
","""event"",""trial"",""time""
""fullscreenenter"",""0"",""1895""
","
","1166.1000000000931","","","","","","","","49","0,0,1","6","blank","236","null","0.2953309934053706","0.06396286339836128","0.5756877407262344","0","","","","","","","","",""
"","html-keyboard-response","32","213595","0.0-25.0-1.0","""event"",""trial"",""time""
""fullscreenenter"",""0"",""1895""
","
","
","""event"",""trial"",""time""
""fullscreenenter"",""0"",""1895""
","
","null","<p></p>","null","","","","","","","","","","","","","","","","","","","","","","","",""
"","do_trial","33","217005","0.0-26.0-0.0","""event"",""trial"",""time""
""fullscreenenter"",""0"",""1895""
","
","
","""event"",""trial"",""time""
""fullscreenenter"",""0"",""1895""
","
","870.1000000000931","","","","","","","","50","0,0,0","6","blank","237","null","0.13337566487541466","0.10723357829394532","0.6240623664379658","0","","","","","","","","",""
"","html-keyboard-response","34","218013","0.0-26.0-1.0","""event"",""trial"",""time""
""fullscreenenter"",""0"",""1895""
","
","
","""event"",""trial"",""time""
""fullscreenenter"",""0"",""1895""
","
","null","<p></p>","null","","","","","","","","","","","","","","","","","","","","","","","",""
"","do_trial","35","222700","0.0-27.0-0.0","""event"",""trial"",""time""
""fullscreenenter"",""0"",""1895""
","
","
","""event"",""trial"",""time""
""fullscreenenter"",""0"",""1895""
","
","2145.100000000093","","","","","","","","51","0,0,0","6","blank","238","null","0.14053447326759877","0.09775798629695075","0.6673792313489636","0","","","","","","","","",""
"","html-keyboard-response","36","223706","0.0-27.0-1.0","""event"",""trial"",""time""
""fullscreenenter"",""0"",""1895""
","
","
","""event"",""trial"",""time""
""fullscreenenter"",""0"",""1895""
","
","null","<p></p>","null","","","","","","","","","","","","","","","","","","","","","","","",""
"","do_trial","37","227203","0.0-28.0-0.0","""event"",""trial"",""time""
""fullscreenenter"",""0"",""1895""
","
","
","""event"",""trial"",""time""
""fullscreenenter"",""0"",""1895""
","
","953","","","","","","","","50","0,0,1","6","blank","239","null","0.1849803521706274","0.06794223636904631","0.7073685279775507","0","","","","","","","","",""
"","html-keyboard-response","38","228209","0.0-28.0-1.0","""event"",""trial"",""time""
""fullscreenenter"",""0"",""1895""
","
","
","""event"",""trial"",""time""
""fullscreenenter"",""0"",""1895""
","
","null","<p></p>","null","","","","","","","","","","","","","","","","","","","","","","","",""
"","do_trial","39","231291","0.0-29.0-0.0","""event"",""trial"",""time""
""fullscreenenter"",""0"",""1895""
","
","
","""event"",""trial"",""time""
""fullscreenenter"",""0"",""1895""
","
","531.2999999998137","","","","","","","","49","0,0,1","6","blank","240","null","0.2157168719866678","0.14503148042913735","0.7235117686029531","0","","","","","","","","",""
"","html-keyboard-response","40","232306","0.0-29.0-1.0","""event"",""trial"",""time""
""fullscreenenter"",""0"",""1895""
","
","
","""event"",""trial"",""time""
""fullscreenenter"",""0"",""1895""
","
","null","<p></p>","null","","","","","","","","","","","","","","","","","","","","","","","",""
"","do_recog","41","238334","0.0-30.0-0.0","""event"",""trial"",""time""
""fullscreenenter"",""0"",""1895""
","
","
","""event"",""trial"",""time""
""fullscreenenter"",""0"",""1895""
","
","null","","","","","","","","null","","","","241","probe-239","","","","","0","[object Object]","null","null","0","","","",""
"","html-keyboard-response","42","239340","0.0-30.0-1.0","""event"",""trial"",""time""
""fullscreenenter"",""0"",""1895""
","
","
","""event"",""trial"",""time""
""fullscreenenter"",""0"",""1895""
","
","null","<p></p>","null","","","","","","","","","","","","","","","","","","","","","","","",""
"","do_trial","43","243939","0.0-31.0-0.0","""event"",""trial"",""time""
""fullscreenenter"",""0"",""1895""
","
","
","""event"",""trial"",""time""
""fullscreenenter"",""0"",""1895""
","
","2050.1999999997206","","","","","","","","51","0,1,1","6","blank","242","null","0.2754116793347804","0.28315106847151966","0.5380211284331802","1","","","","","","","","",""
"","html-keyboard-response","44","244949","0.0-31.0-1.0","""event"",""trial"",""time""
""fullscreenenter"",""0"",""1895""
","
","
","""event"",""trial"",""time""
""fullscreenenter"",""0"",""1895""
","
","null","<p></p>","null","","","","","","","","","","","","","","","","","","","","","","","",""
"","do_recog","45","248884","0.0-32.0-0.0","""event"",""trial"",""time""
""fullscreenenter"",""0"",""1895""
","
","
","""event"",""trial"",""time""
""fullscreenenter"",""0"",""1895""
","
","2413.399999999907","","","","","","","","56","","","","243","probe-242","","","","","0","[object Object]","null","null","1","","","",""
"","html-keyboard-response","46","249898","0.0-32.0-1.0","""event"",""trial"",""time""
""fullscreenenter"",""0"",""1895""
","
","
","""event"",""trial"",""time""
""fullscreenenter"",""0"",""1895""
","
","null","<p></p>","null","","","","","","","","","","","","","","","","","","","","","","","",""
"","do_trial","47","253766","0.0-33.0-0.0","""event"",""trial"",""time""
""fullscreenenter"",""0"",""1895""
","
","
","""event"",""trial"",""time""
""fullscreenenter"",""0"",""1895""
","
","1330.5999999996275","","","","","","","","51","0,0,0","6","blank","244","null","0.411879487528521","0.19158848977227727","0.618868100019116","0","","","","","","","","",""
"","html-keyboard-response","48","254776","0.0-33.0-1.0","""event"",""trial"",""time""
""fullscreenenter"",""0"",""1895""
","
","
","""event"",""trial"",""time""
""fullscreenenter"",""0"",""1895""
","
","null","<p></p>","null","","","","","","","","","","","","","","","","","","","","","","","",""
"","do_trial","49","258039","0.0-34.0-0.0","""event"",""trial"",""time""
""fullscreenenter"",""0"",""1895""
","
","
","""event"",""trial"",""time""
""fullscreenenter"",""0"",""1895""
","
","700.6000000000931","","","","","","","","50","1,0,1","6","blank","245","null","0.45548302100328175","0.10953037335845074","0.4820415096348997","0","","","","","","","","",""
"","html-keyboard-response","50","259043","0.0-34.0-1.0","""event"",""trial"",""time""
""fullscreenenter"",""0"",""1895""
","
","
","""event"",""trial"",""time""
""fullscreenenter"",""0"",""1895""
","
","null","<p></p>","null","","","","","","","","","","","","","","","","","","","","","","","",""
"","do_trial","51","262504","0.0-35.0-0.0","""event"",""trial"",""time""
""fullscreenenter"",""0"",""1895""
","
","
","""event"",""trial"",""time""
""fullscreenenter"",""0"",""1895""
","
","916.8999999999069","","","","","","","","49","1,0,1","6","blank","246","null","0.3412845551046479","0.050231345676930515","0.406241668698189","1","","","","","","","","",""
"","html-keyboard-response","52","263518","0.0-35.0-1.0","""event"",""trial"",""time""
""fullscreenenter"",""0"",""1895""
","
","
","""event"",""trial"",""time""
""fullscreenenter"",""0"",""1895""
","
","null","<p></p>","null","","","","","","","","","","","","","","","","","","","","","","","",""
"","do_trial","53","267317","0.0-36.0-0.0","""event"",""trial"",""time""
""fullscreenenter"",""0"",""1895""
","
","
","""event"",""trial"",""time""
""fullscreenenter"",""0"",""1895""
","
","1243.8999999999069","","","","","","","","50","1,0,0","6","blank","247","null","0.5318385242738081","0.131742627485852","0.38593052255837135","0","","","","","","","","",""
"","html-keyboard-response","54","268325","0.0-36.0-1.0","""event"",""trial"",""time""
""fullscreenenter"",""0"",""1895""
","
","
","""event"",""trial"",""time""
""fullscreenenter"",""0"",""1895""
","
","null","<p></p>","null","","","","","","","","","","","","","","","","","","","","","","","",""
"","do_trial","55","271871","0.0-37.0-0.0","""event"",""trial"",""time""
""fullscreenenter"",""0"",""1895""
","
","
","""event"",""trial"",""time""
""fullscreenenter"",""0"",""1895""
","
","996.3000000002794","","","","","","","","51","1,0,0","6","blank","248","null","0.6794506567086596","0.11207717679449897","0.2759343946823957","0","","","","","","","","",""
"","html-keyboard-response","56","272882","0.0-37.0-1.0","""event"",""trial"",""time""
""fullscreenenter"",""0"",""1895""
","
","
","""event"",""trial"",""time""
""fullscreenenter"",""0"",""1895""
","
","null","<p></p>","null","","","","","","","","","","","","","","","","","","","","","","","",""
"","do_trial","57","276050","0.0-38.0-0.0","""event"",""trial"",""time""
""fullscreenenter"",""0"",""1895""
","
","
","""event"",""trial"",""time""
""fullscreenenter"",""0"",""1895""
","
","614.9000000003725","","","","","","","","49","1,0,1","6","blank","249","null","0.7243696272161374","0.07239403811809479","0.39403931294784045","1","","","","","","","","",""
"","html-keyboard-response","58","277054","0.0-38.0-1.0","""event"",""trial"",""time""
""fullscreenenter"",""0"",""1895""
","
","
","""event"",""trial"",""time""
""fullscreenenter"",""0"",""1895""
","
","null","<p></p>","null","","","","","","","","","","","","","","","","","","","","","","","",""
"","do_recog","59","280665","0.0-39.0-0.0","""event"",""trial"",""time""
""fullscreenenter"",""0"",""1895""
","
","
","""event"",""trial"",""time""
""fullscreenenter"",""0"",""1895""
","
","2093.399999999907","","","","","","","","56","","","","250","probe-137","","","","","1","[object Object]","159","3","0","","","",""
"","html-keyboard-response","60","281682","0.0-39.0-1.0","""event"",""trial"",""time""
""fullscreenenter"",""0"",""1895""
","
","
","""event"",""trial"",""time""
""fullscreenenter"",""0"",""1895""
","
","null","<p></p>","null","","","","","","","","","","","","","","","","","","","","","","","",""
"","do_trial","61","286488","0.0-40.0-0.0","""event"",""trial"",""time""
""fullscreenenter"",""0"",""1895""
","
","
","""event"",""trial"",""time""
""fullscreenenter"",""0"",""1895""
","
","2258.5","","","","","","","","50","1,0,0","6","blank","251","null","0.7104818922161333","0.07275082134775991","0.34832156031651956","0","","","","","","","","",""
"","html-keyboard-response","62","287504","0.0-40.0-1.0","""event"",""trial"",""time""
""fullscreenenter"",""0"",""1895""
","
","
","""event"",""trial"",""time""
""fullscreenenter"",""0"",""1895""
","
","null","<p></p>","null","","","","","","","","","","","","","","","","","","","","","","","",""
"","do_trial","63","291144","0.0-41.0-0.0","""event"",""trial"",""time""
""fullscreenenter"",""0"",""1895""
","
","
","""event"",""trial"",""time""
""fullscreenenter"",""0"",""1895""
","
","1104.5","","","","","","","","51","1,0,0","6","blank","252","null","0.8705050318415646","0.13312880945290526","0.33000777588721186","0","","","","","","","","",""
"","html-keyboard-response","64","292153","0.0-41.0-1.0","""event"",""trial"",""time""
""fullscreenenter"",""0"",""1895""
","
","
","""event"",""trial"",""time""
""fullscreenenter"",""0"",""1895""
","
","null","<p></p>","null","","","","","","","","","","","","","","","","","","","","","","","",""
"","do_trial","65","296047","0.0-42.0-0.0","""event"",""trial"",""time""
""fullscreenenter"",""0"",""1895""
","
","
","""event"",""trial"",""time""
""fullscreenenter"",""0"",""1895""
","
","1354.2999999998137","","","","","","","","50","0,0,1","6","blank","253","null","0.6709706632770545","0.16474978098913037","0.306497816718275","0","","","","","","","","",""
"","html-keyboard-response","66","297062","0.0-42.0-1.0","""event"",""trial"",""time""
""fullscreenenter"",""0"",""1895""
","
","
","""event"",""trial"",""time""
""fullscreenenter"",""0"",""1895""
","
","null","<p></p>","null","","","","","","","","","","","","","","","","","","","","","","","",""
"","do_recog","67","303077","0.0-43.0-0.0","""event"",""trial"",""time""
""fullscreenenter"",""0"",""1895""
","
","
","""event"",""trial"",""time""
""fullscreenenter"",""0"",""1895""
","
","null","","","","","","","","null","","","","254","probe-147","","","","","1","[object Object]","154","3","0","","","",""
"","html-keyboard-response","68","304095","0.0-43.0-1.0","""event"",""trial"",""time""
""fullscreenenter"",""0"",""1895""
","
","
","""event"",""trial"",""time""
""fullscreenenter"",""0"",""1895""
","
","null","<p></p>","null","","","","","","","","","","","","","","","","","","","","","","","",""
"","do_trial","69","307564","0.0-44.0-0.0","""event"",""trial"",""time""
""fullscreenenter"",""0"",""1895""
","
","
","""event"",""trial"",""time""
""fullscreenenter"",""0"",""1895""
","
","906.1999999997206","","","","","","","","51","1,0,0","6","blank","255","null","0.5517076856782143","0.05977759450648293","0.2975161512945368","0","","","","","","","","",""
"","html-keyboard-response","70","308581","0.0-44.0-1.0","""event"",""trial"",""time""
""fullscreenenter"",""0"",""1895""
","
","
","""event"",""trial"",""time""
""fullscreenenter"",""0"",""1895""
","
","null","<p></p>","null","","","","","","","","","","","","","","","","","","","","","","","",""
"","do_trial","71","312273","0.0-45.0-0.0","""event"",""trial"",""time""
""fullscreenenter"",""0"",""1895""
","
","
","""event"",""trial"",""time""
""fullscreenenter"",""0"",""1895""
","
","1143","","","","","","","","50","0,0,0","6","blank","256","null","0.4205566735875821","0.0600043601659067","0.33226608788183953","0","","","","","","","","",""
"","html-keyboard-response","72","313290","0.0-45.0-1.0","""event"",""trial"",""time""
""fullscreenenter"",""0"",""1895""
","
","
","""event"",""trial"",""time""
""fullscreenenter"",""0"",""1895""
","
","null","<p></p>","null","","","","","","","","","","","","","","","","","","","","","","","",""
"","do_recog","73","316701","0.0-46.0-0.0","""event"",""trial"",""time""
""fullscreenenter"",""0"",""1895""
","
","
","""event"",""trial"",""time""
""fullscreenenter"",""0"",""1895""
","
","1894.2999999998137","","","","","","","","54","","","","257","probe-192","","","","","1","[object Object]","151","3","1","","","",""
"","html-keyboard-response","74","317704","0.0-46.0-1.0","""event"",""trial"",""time""
""fullscreenenter"",""0"",""1895""
","
","
","""event"",""trial"",""time""
""fullscreenenter"",""0"",""1895""
","
","null","<p></p>","null","","","","","","","","","","","","","","","","","","","","","","","",""
"","do_trial","75","321626","0.0-47.0-0.0","""event"",""trial"",""time""
""fullscreenenter"",""0"",""1895""
","
","
","""event"",""trial"",""time""
""fullscreenenter"",""0"",""1895""
","
","1381.3000000002794","","","","","","","","51","1,0,0","6","blank","258","null","0.4641631679006123","0.10694036929225752","0.4838712831369297","0","","","","","","","","",""
"","html-keyboard-response","76","322641","0.0-47.0-1.0","""event"",""trial"",""time""
""fullscreenenter"",""0"",""1895""
","
","
","""event"",""trial"",""time""
""fullscreenenter"",""0"",""1895""
","
","null","<p></p>","null","","","","","","","","","","","","","","","","","","","","","","","",""
"","do_trial","77","326413","0.0-48.0-0.0","""event"",""trial"",""time""
""fullscreenenter"",""0"",""1895""
","
","
","""event"",""trial"",""time""
""fullscreenenter"",""0"",""1895""
","
","1224.8999999999069","","","","","","","","50","0,0,0","6","blank","259","null","0.4341060308756384","0.07474003071671961","0.35776494517172025","0","","","","","","","","",""
"","html-keyboard-response","78","327418","0.0-48.0-1.0","""event"",""trial"",""time""
""fullscreenenter"",""0"",""1895""
","
","
","""event"",""trial"",""time""
""fullscreenenter"",""0"",""1895""
","
","null","<p></p>","null","","","","","","","","","","","","","","","","","","","","","","","",""
"","do_trial","79","330764","0.0-49.0-0.0","""event"",""trial"",""time""
""fullscreenenter"",""0"",""1895""
","
","
","""event"",""trial"",""time""
""fullscreenenter"",""0"",""1895""
","
","796.5","","","","","","","","49","0,1,1","6","blank","260","null","0.5709378018606137","0.10690529773487256","0.31120319128271967","0","","","","","","","","",""
"","html-keyboard-response","80","331766","0.0-49.0-1.0","""event"",""trial"",""time""
""fullscreenenter"",""0"",""1895""
","
","
","""event"",""trial"",""time""
""fullscreenenter"",""0"",""1895""
","
","null","<p></p>","null","","","","","","","","","","","","","","","","","","","","","","","",""
"","do_recog","81","335228","0.0-50.0-0.0","""event"",""trial"",""time""
""fullscreenenter"",""0"",""1895""
","
","
","""event"",""trial"",""time""
""fullscreenenter"",""0"",""1895""
","
","1941.5","","","","","","","","55","","","","261","probe-42","","","","","1","[object Object]","34","0","0","","","",""
"","html-keyboard-response","82","336244","0.0-50.0-1.0","""event"",""trial"",""time""
""fullscreenenter"",""0"",""1895""
","
","
","""event"",""trial"",""time""
""fullscreenenter"",""0"",""1895""
","
","null","<p></p>","null","","","","","","","","","","","","","","","","","","","","","","","",""
"","do_trial","83","340195","0.0-51.0-0.0","""event"",""trial"",""time""
""fullscreenenter"",""0"",""1895""
","
","
","""event"",""trial"",""time""
""fullscreenenter"",""0"",""1895""
","
","1402.1000000000931","","","","","","","","50","1,0,0","6","blank","262","null","0.5529624789396258","0.20801704998203918","0.19795045753368462","0","","","","","","","","",""
"","html-keyboard-response","84","341203","0.0-51.0-1.0","""event"",""trial"",""time""
""fullscreenenter"",""0"",""1895""
","
","
","""event"",""trial"",""time""
""fullscreenenter"",""0"",""1895""
","
","null","<p></p>","null","","","","","","","","","","","","","","","","","","","","","","","",""
"","do_trial","85","344150","0.0-52.0-0.0","""event"",""trial"",""time""
""fullscreenenter"",""0"",""1895""
","
","
","""event"",""trial"",""time""
""fullscreenenter"",""0"",""1895""
","
","405.89999999990687","","","","","","","","49","1,0,0","6","blank","263","null","0.5607401292703057","0.1839823095412531","0.14360655300907177","1","","","","","","","","",""
"","html-keyboard-response","86","345167","0.0-52.0-1.0","""event"",""trial"",""time""
""fullscreenenter"",""0"",""1895""
","
","
","""event"",""trial"",""time""
""fullscreenenter"",""0"",""1895""
","
","null","<p></p>","null","","","","","","","","","","","","","","","","","","","","","","","",""
"","do_trial","87","348056","0.0-53.0-0.0","""event"",""trial"",""time""
""fullscreenenter"",""0"",""1895""
","
","
","""event"",""trial"",""time""
""fullscreenenter"",""0"",""1895""
","
","354.10000000009313","","","","","","","","51","1,0,1","6","blank","264","null","0.7388458092633167","0.14918418155570404","0.3392276158575905","1","","","","","","","","",""
"","html-keyboard-response","88","349067","0.0-53.0-1.0","""event"",""trial"",""time""
""fullscreenenter"",""0"",""1895""
","
","
","""event"",""trial"",""time""
""fullscreenenter"",""0"",""1895""
","
","null","<p></p>","null","","","","","","","","","","","","","","","","","","","","","","","",""
"","do_trial","89","352405","0.0-54.0-0.0","""event"",""trial"",""time""
""fullscreenenter"",""0"",""1895""
","
","
","""event"",""trial"",""time""
""fullscreenenter"",""0"",""1895""
","
","796.7000000001863","","","","","","","","49","1,0,0","6","blank","265","null","0.6572711115580178","0.14562811299116066","0.3015468542632277","1","","","","","","","","",""
"","html-keyboard-response","90","353411","0.0-54.0-1.0","""event"",""trial"",""time""
""fullscreenenter"",""0"",""1895""
","
","
","""event"",""trial"",""time""
""fullscreenenter"",""0"",""1895""
","
","null","<p></p>","null","","","","","","","","","","","","","","","","","","","","","","","",""
"","do_recog","91","356613","0.0-55.0-0.0","""event"",""trial"",""time""
""fullscreenenter"",""0"",""1895""
","
","
","""event"",""trial"",""time""
""fullscreenenter"",""0"",""1895""
","
","1681","","","","","","","","54","","","","266","probe-94","","","","","1","[object Object]","117","2","1","","","",""
"","html-keyboard-response","92","357628","0.0-55.0-1.0","""event"",""trial"",""time""
""fullscreenenter"",""0"",""1895""
","
","
","""event"",""trial"",""time""
""fullscreenenter"",""0"",""1895""
","
","null","<p></p>","null","","","","","","","","","","","","","","","","","","","","","","","",""
"","do_trial","93","361375","0.0-56.0-0.0","""event"",""trial"",""time""
""fullscreenenter"",""0"",""1895""
","
","
","""event"",""trial"",""time""
""fullscreenenter"",""0"",""1895""
","
","1199.7000000001863","","","","","","","","51","1,0,0","6","blank","267","null","0.6526408135282131","0.09765144182051821","0.2899815169943457","0","","","","","","","","",""
"","html-keyboard-response","94","362383","0.0-56.0-1.0","""event"",""trial"",""time""
""fullscreenenter"",""0"",""1895""
","
","
","""event"",""trial"",""time""
""fullscreenenter"",""0"",""1895""
","
","null","<p></p>","null","","","","","","","","","","","","","","","","","","","","","","","",""
"","do_trial","95","365940","0.0-57.0-0.0","""event"",""trial"",""time""
""fullscreenenter"",""0"",""1895""
","
","
","""event"",""trial"",""time""
""fullscreenenter"",""0"",""1895""
","
","1003.1999999997206","","","","","","","","49","1,0,1","6","blank","268","null","0.6868697020136512","0.09287962340959653","0.2833947624918654","1","","","","","","","","",""
"","html-keyboard-response","96","366959","0.0-57.0-1.0","""event"",""trial"",""time""
""fullscreenenter"",""0"",""1895""
","
","
","""event"",""trial"",""time""
""fullscreenenter"",""0"",""1895""
","
","null","<p></p>","null","","","","","","","","","","","","","","","","","","","","","","","",""
"","break","97","426081","0.0-58.0-0.0","""event"",""trial"",""time""
""fullscreenenter"",""0"",""1895""
","
","
","""event"",""trial"",""time""
""fullscreenenter"",""0"",""1895""
","
","59124.799999999814","<div class='center'><p>Time to take a quick break! You have 2 minutes to rest, but you can move on sooner if you'd like.</p><p> Press the <b>space bar</b> to continue.</p></div>","32","","","","","","","","","","","","","","","","","","","","","","","",""
"","do_trial","98","430551","0.0-58.0-1.0","""event"",""trial"",""time""
""fullscreenenter"",""0"",""1895""
","
","
","""event"",""trial"",""time""
""fullscreenenter"",""0"",""1895""
","
","1930.1000000000931","","","","","","","","51","1,0,1","6","blank","269","null","0.6933958906858003","0.10322877743198611","0.39370691974264854","1","","","","","","","","",""
"","html-keyboard-response","99","431560","0.0-58.0-2.0","""event"",""trial"",""time""
""fullscreenenter"",""0"",""1895""
","
","
","""event"",""trial"",""time""
""fullscreenenter"",""0"",""1895""
","
","null","<p></p>","null","","","","","","","","","","","","","","","","","","","","","","","",""
"","do_trial","100","435055","0.0-59.0-0.0","""event"",""trial"",""time""
""fullscreenenter"",""0"",""1895""
","
","
","""event"",""trial"",""time""
""fullscreenenter"",""0"",""1895""
","
","947.8999999999069","","","","","","","","50","0,0,1","6","blank","270","null","0.5796511208219717","0.1556487444041446","0.45009726645286074","0","","","","","","","","",""
"","html-keyboard-response","101","436070","0.0-59.0-1.0","""event"",""trial"",""time""
""fullscreenenter"",""0"",""1895""
","
","
","""event"",""trial"",""time""
""fullscreenenter"",""0"",""1895""
","
","null","<p></p>","null","","","","","","","","","","","","","","","","","","","","","","","",""
"","do_trial","102","438983","0.0-60.0-0.0","""event"",""trial"",""time""
""fullscreenenter"",""0"",""1895""
","
","
","""event"",""trial"",""time""
""fullscreenenter"",""0"",""1895""
","
","373.5","","","","","","","","49","0,1,0","6","blank","271","null","0.6631491684093866","0.13564524592952387","0.3220503931061445","0","","","","","","","","",""
"","html-keyboard-response","103","439991","0.0-60.0-1.0","""event"",""trial"",""time""
""fullscreenenter"",""0"",""1895""
","
","
","""event"",""trial"",""time""
""fullscreenenter"",""0"",""1895""
","
","null","<p></p>","null","","","","","","","","","","","","","","","","","","","","","","","",""
"","do_trial","104","443188","0.0-61.0-0.0","""event"",""trial"",""time""
""fullscreenenter"",""0"",""1895""
","
","
","""event"",""trial"",""time""
""fullscreenenter"",""0"",""1895""
","
","653.3999999999069","","","","","","","","50","1,0,0","6","blank","272","null","0.6122808268014283","0.27078603183262123","0.3258544595089321","0","","","","","","","","",""
"","html-keyboard-response","105","444190","0.0-61.0-1.0","""event"",""trial"",""time""
""fullscreenenter"",""0"",""1895""
","
","
","""event"",""trial"",""time""
""fullscreenenter"",""0"",""1895""
","
","null","<p></p>","null","","","","","","","","","","","","","","","","","","","","","","","",""
"","do_trial","106","447293","0.0-62.0-0.0","""event"",""trial"",""time""
""fullscreenenter"",""0"",""1895""
","
","
","""event"",""trial"",""time""
""fullscreenenter"",""0"",""1895""
","
","558.1999999997206","","","","","","","","51","1,0,0","6","blank","273","null","0.5895075210565193","0.12182378151026253","0.39706258567105024","0","","","","","","","","",""
"","html-keyboard-response","107","448300","0.0-62.0-1.0","""event"",""trial"",""time""
""fullscreenenter"",""0"",""1895""
","
","
","""event"",""trial"",""time""
""fullscreenenter"",""0"",""1895""
","
","null","<p></p>","null","","","","","","","","","","","","","","","","","","","","","","","",""
"","do_recog","108","451780","0.0-63.0-0.0","""event"",""trial"",""time""
""fullscreenenter"",""0"",""1895""
","
","
","""event"",""trial"",""time""
""fullscreenenter"",""0"",""1895""
","
","1952.8000000002794","","","","","","","","56","","","","274","probe-14","","","","","1","[object Object]","30","0","0","","","",""
"","html-keyboard-response","109","452784","0.0-63.0-1.0","""event"",""trial"",""time""
""fullscreenenter"",""0"",""1895""
","
","
","""event"",""trial"",""time""
""fullscreenenter"",""0"",""1895""
","
","null","<p></p>","null","","","","","","","","","","","","","","","","","","","","","","","",""
"","do_trial","110","457503","0.0-64.0-0.0","""event"",""trial"",""time""
""fullscreenenter"",""0"",""1895""
","
","
","""event"",""trial"",""time""
""fullscreenenter"",""0"",""1895""
","
","2166.8000000002794","","","","","","","","50","1,0,0","6","blank","275","null","0.7004185235949612","0.16257141226001293","0.2171164426748021","0","","","","","","","","",""
"","html-keyboard-response","111","458513","0.0-64.0-1.0","""event"",""trial"",""time""
""fullscreenenter"",""0"",""1895""
","
","
","""event"",""trial"",""time""
""fullscreenenter"",""0"",""1895""
","
","null","<p></p>","null","","","","","","","","","","","","","","","","","","","","","","","",""
"","do_recog","112","461561","0.0-65.0-0.0","""event"",""trial"",""time""
""fullscreenenter"",""0"",""1895""
","
","
","""event"",""trial"",""time""
""fullscreenenter"",""0"",""1895""
","
","1537","","","","","","","","54","","","","276","probe-220","","","","","1","[object Object]","115","2","1","","","",""
"","html-keyboard-response","113","462574","0.0-65.0-1.0","""event"",""trial"",""time""
""fullscreenenter"",""0"",""1895""
","
","
","""event"",""trial"",""time""
""fullscreenenter"",""0"",""1895""
","
","null","<p></p>","null","","","","","","","","","","","","","","","","","","","","","","","",""
"","do_trial","114","466348","0.0-66.0-0.0","""event"",""trial"",""time""
""fullscreenenter"",""0"",""1895""
","
","
","""event"",""trial"",""time""
""fullscreenenter"",""0"",""1895""
","
","1231.2000000001863","","","","","","","","49","1,1,0","6","blank","277","null","0.7790051050665088","0.3044792560329578","0.30448520777081284","1","","","","","","","","",""
"","html-keyboard-response","115","467352","0.0-66.0-1.0","""event"",""trial"",""time""
""fullscreenenter"",""0"",""1895""
","
","
","""event"",""trial"",""time""
""fullscreenenter"",""0"",""1895""
","
","null","<p></p>","null","","","","","","","","","","","","","","","","","","","","","","","",""
"","do_trial","116","470696","0.0-67.0-0.0","""event"",""trial"",""time""
""fullscreenenter"",""0"",""1895""
","
","
","""event"",""trial"",""time""
""fullscreenenter"",""0"",""1895""
","
","802.3999999999069","","","","","","","","50","1,1,0","6","blank","278","null","0.6713273052527223","0.351270796411056","0.2776736995476438","1","","","","","","","","",""
"","html-keyboard-response","117","471712","0.0-67.0-1.0","""event"",""trial"",""time""
""fullscreenenter"",""0"",""1895""
","
","
","""event"",""trial"",""time""
""fullscreenenter"",""0"",""1895""
","
","null","<p></p>","null","","","","","","","","","","","","","","","","","","","","","","","",""
"","do_trial","118","475797","0.0-68.0-0.0","""event"",""trial"",""time""
""fullscreenenter"",""0"",""1895""
","
","
","""event"",""trial"",""time""
""fullscreenenter"",""0"",""1895""
","
","1538.6000000000931","","","","","","","","51","1,0,0","6","blank","279","null","0.6189110992091483","0.16310072123449662","0.4460931320586791","0","","","","","","","","",""
"","html-keyboard-response","119","476812","0.0-68.0-1.0","""event"",""trial"",""time""
""fullscreenenter"",""0"",""1895""
","
","
","""event"",""trial"",""time""
""fullscreenenter"",""0"",""1895""
","
","null","<p></p>","null","","","","","","","","","","","","","","","","","","","","","","","",""
"","do_trial","120","481511","0.0-69.0-0.0","""event"",""trial"",""time""
""fullscreenenter"",""0"",""1895""
","
","
","""event"",""trial"",""time""
""fullscreenenter"",""0"",""1895""
","
","2153.5","","","","","","","","49","0,0,1","6","blank","280","null","0.5551726063523128","0.05293999851813323","0.421714941309142","0","","","","","","","","",""
"","html-keyboard-response","121","482518","0.0-69.0-1.0","""event"",""trial"",""time""
""fullscreenenter"",""0"",""1895""
","
","
","""event"",""trial"",""time""
""fullscreenenter"",""0"",""1895""
","
","null","<p></p>","null","","","","","","","","","","","","","","","","","","","","","","","",""
"","do_recog","122","485823","0.0-70.0-0.0","""event"",""trial"",""time""
""fullscreenenter"",""0"",""1895""
","
","
","""event"",""trial"",""time""
""fullscreenenter"",""0"",""1895""
","
","1788.1999999997206","","","","","","","","54","","","","281","probe-30","","","","","1","[object Object]","35","0","1","","","",""
"","html-keyboard-response","123","486841","0.0-70.0-1.0","""event"",""trial"",""time""
""fullscreenenter"",""0"",""1895""
","
","
","""event"",""trial"",""time""
""fullscreenenter"",""0"",""1895""
","
","null","<p></p>","null","","","","","","","","","","","","","","","","","","","","","","","",""
"","do_trial","124","490167","0.0-71.0-0.0","""event"",""trial"",""time""
""fullscreenenter"",""0"",""1895""
","
","
","""event"",""trial"",""time""
""fullscreenenter"",""0"",""1895""
","
","778.7000000001863","","","","","","","","50","1,0,0","6","blank","282","null","0.6299478071151515","0.13800772032117226","0.27371477831381014","0","","","","","","","","",""
"","html-keyboard-response","125","491179","0.0-71.0-1.0","""event"",""trial"",""time""
""fullscreenenter"",""0"",""1895""
","
","
","""event"",""trial"",""time""
""fullscreenenter"",""0"",""1895""
","
","null","<p></p>","null","","","","","","","","","","","","","","","","","","","","","","","",""
"","do_trial","126","494249","0.0-72.0-0.0","""event"",""trial"",""time""
""fullscreenenter"",""0"",""1895""
","
","
","""event"",""trial"",""time""
""fullscreenenter"",""0"",""1895""
","
","529.5","","","","","","","","49","0,0,0","6","blank","283","null","0.6118305484194336","0.19468845254353376","0.22453213349725715","0","","","","","","","","",""
"","html-keyboard-response","127","495263","0.0-72.0-1.0","""event"",""trial"",""time""
""fullscreenenter"",""0"",""1895""
","
","
","""event"",""trial"",""time""
""fullscreenenter"",""0"",""1895""
","
","null","<p></p>","null","","","","","","","","","","","","","","","","","","","","","","","",""
"","do_recog","128","498411","0.0-73.0-0.0","""event"",""trial"",""time""
""fullscreenenter"",""0"",""1895""
","
","
","""event"",""trial"",""time""
""fullscreenenter"",""0"",""1895""
","
","1629.3999999999069","","","","","","","","54","","","","284","probe-39","","","","","1","[object Object]","118","2","1","","","",""
"","html-keyboard-response","129","499414","0.0-73.0-1.0","""event"",""trial"",""time""
""fullscreenenter"",""0"",""1895""
","
","
","""event"",""trial"",""time""
""fullscreenenter"",""0"",""1895""
","
","null","<p></p>","null","","","","","","","","","","","","","","","","","","","","","","","",""
"","do_trial","130","503613","0.0-74.0-0.0","""event"",""trial"",""time""
""fullscreenenter"",""0"",""1895""
","
","
","""event"",""trial"",""time""
""fullscreenenter"",""0"",""1895""
","
","1655.6999999997206","","","","","","","","51","0,0,1","6","blank","285","null","0.5203686411767886","0.1148627190217329","0.16408158139128945","1","","","","","","","","",""
"","html-keyboard-response","131","504621","0.0-74.0-1.0","""event"",""trial"",""time""
""fullscreenenter"",""0"",""1895""
","
","
","""event"",""trial"",""time""
""fullscreenenter"",""0"",""1895""
","
","null","<p></p>","null","","","","","","","","","","","","","","","","","","","","","","","",""
"","do_recog","132","508453","0.0-75.0-0.0","""event"",""trial"",""time""
""fullscreenenter"",""0"",""1895""
","
","
","""event"",""trial"",""time""
""fullscreenenter"",""0"",""1895""
","
","2314.100000000093","","","","","","","","56","","","","286","probe-113","","","","","1","[object Object]","192","4","0","","","",""
"","html-keyboard-response","133","509465","0.0-75.0-1.0","""event"",""trial"",""time""
""fullscreenenter"",""0"",""1895""
","
","
","""event"",""trial"",""time""
""fullscreenenter"",""0"",""1895""
","
","null","<p></p>","null","","","","","","","","","","","","","","","","","","","","","","","",""
"","do_trial","134","512759","0.0-76.0-0.0","""event"",""trial"",""time""
""fullscreenenter"",""0"",""1895""
","
","
","""event"",""trial"",""time""
""fullscreenenter"",""0"",""1895""
","
","744.3000000002794","","","","","","","","49","1,0,0","6","blank","287","null","0.5082911438722638","0.10092368990493814","0.2252896482648662","1","","","","","","","","",""
"","html-keyboard-response","135","513761","0.0-76.0-1.0","""event"",""trial"",""time""
""fullscreenenter"",""0"",""1895""
","
","
","""event"",""trial"",""time""
""fullscreenenter"",""0"",""1895""
","
","null","<p></p>","null","","","","","","","","","","","","","","","","","","","","","","","",""
"","do_recog","136","517796","0.0-77.0-0.0","""event"",""trial"",""time""
""fullscreenenter"",""0"",""1895""
","
","
","""event"",""trial"",""time""
""fullscreenenter"",""0"",""1895""
","
","2517.100000000093","","","","","","","","54","","","","288","probe-199","","","","","1","[object Object]","157","3","1","","","",""
"","html-keyboard-response","137","518810","0.0-77.0-1.0","""event"",""trial"",""time""
""fullscreenenter"",""0"",""1895""
","
","
","""event"",""trial"",""time""
""fullscreenenter"",""0"",""1895""
","
","null","<p></p>","null","","","","","","","","","","","","","","","","","","","","","","","",""
"","do_trial","138","522464","0.0-78.0-0.0","""event"",""trial"",""time""
""fullscreenenter"",""0"",""1895""
","
","
","""event"",""trial"",""time""
""fullscreenenter"",""0"",""1895""
","
","1099.6000000000931","","","","","","","","49","1,0,1","6","blank","289","null","0.5140724495438798","0.13265501508613375","0.2289396464980888","1","","","","","","","","",""
"","html-keyboard-response","139","523480","0.0-78.0-1.0","""event"",""trial"",""time""
""fullscreenenter"",""0"",""1895""
","
","
","""event"",""trial"",""time""
""fullscreenenter"",""0"",""1895""
","
","null","<p></p>","null","","","","","","","","","","","","","","","","","","","","","","","",""
"","do_trial","140","526935","0.0-79.0-0.0","""event"",""trial"",""time""
""fullscreenenter"",""0"",""1895""
","
","
","""event"",""trial"",""time""
""fullscreenenter"",""0"",""1895""
","
","909.6000000000931","","","","","","","","51","1,0,0","6","blank","290","null","0.5972223644587819","0.06620534321750926","0.16083295328928393","0","","","","","","","","",""
"","html-keyboard-response","141","527950","0.0-79.0-1.0","""event"",""trial"",""time""
""fullscreenenter"",""0"",""1895""
","
","
","""event"",""trial"",""time""
""fullscreenenter"",""0"",""1895""
","
","null","<p></p>","null","","","","","","","","","","","","","","","","","","","","","","","",""
"","do_trial","142","530894","0.0-80.0-0.0","""event"",""trial"",""time""
""fullscreenenter"",""0"",""1895""
","
","
","""event"",""trial"",""time""
""fullscreenenter"",""0"",""1895""
","
","399.89999999990687","","","","","","","","50","1,1,0","6","blank","291","null","0.6005408013356592","0.18981669915597763","0.22889327114228894","1","","","","","","","","",""
"","html-keyboard-response","143","531904","0.0-80.0-1.0","""event"",""trial"",""time""
""fullscreenenter"",""0"",""1895""
","
","
","""event"",""trial"",""time""
""fullscreenenter"",""0"",""1895""
","
","null","<p></p>","null","","","","","","","","","","","","","","","","","","","","","","","",""
"","do_recog","144","535803","0.0-81.0-0.0","""event"",""trial"",""time""
""fullscreenenter"",""0"",""1895""
","
","
","""event"",""trial"",""time""
""fullscreenenter"",""0"",""1895""
","
","2383","","","","","","","","56","","","","292","probe-60","","","","","1","[object Object]","36","0","0","","","",""
"","html-keyboard-response","145","536818","0.0-81.0-1.0","""event"",""trial"",""time""
""fullscreenenter"",""0"",""1895""
","
","
","""event"",""trial"",""time""
""fullscreenenter"",""0"",""1895""
","
","null","<p></p>","null","","","","","","","","","","","","","","","","","","","","","","","",""
"","do_trial","146","540494","0.0-82.0-0.0","""event"",""trial"",""time""
""fullscreenenter"",""0"",""1895""
","
","
","""event"",""trial"",""time""
""fullscreenenter"",""0"",""1895""
","
","1125","","","","","","","","50","1,0,0","6","blank","293","null","0.621451568486794","0.1972890382367879","0.15923476626306377","0","","","","","","","","",""
"","html-keyboard-response","147","541497","0.0-82.0-1.0","""event"",""trial"",""time""
""fullscreenenter"",""0"",""1895""
","
","
","""event"",""trial"",""time""
""fullscreenenter"",""0"",""1895""
","
","null","<p></p>","null","","","","","","","","","","","","","","","","","","","","","","","",""
"","do_trial","148","544743","0.0-83.0-0.0","""event"",""trial"",""time""
""fullscreenenter"",""0"",""1895""
","
","
","""event"",""trial"",""time""
""fullscreenenter"",""0"",""1895""
","
","702.2999999998137","","","","","","","","51","1,1,1","6","blank","294","null","0.559189298747266","0.2606214947664776","0.22377656674764165","1","","","","","","","","",""
"","html-keyboard-response","149","545755","0.0-83.0-1.0","""event"",""trial"",""time""
""fullscreenenter"",""0"",""1895""
","
","
","""event"",""trial"",""time""
""fullscreenenter"",""0"",""1895""
","
","null","<p></p>","null","","","","","","","","","","","","","","","","","","","","","","","",""
"","do_trial","150","549248","0.0-84.0-0.0","""event"",""trial"",""time""
""fullscreenenter"",""0"",""1895""
","
","
","""event"",""trial"",""time""
""fullscreenenter"",""0"",""1895""
","
","943.7999999998137","","","","","","","","49","0,0,0","6","blank","295","null","0.5495131239286929","0.2539474763487232","0.17218340848122027","0","","","","","","","","",""
"","html-keyboard-response","151","550255","0.0-84.0-1.0","""event"",""trial"",""time""
""fullscreenenter"",""0"",""1895""
","
","
","""event"",""trial"",""time""
""fullscreenenter"",""0"",""1895""
","
","null","<p></p>","null","","","","","","","","","","","","","","","","","","","","","","","",""
"","do_trial","152","554071","0.0-85.0-0.0","""event"",""trial"",""time""
""fullscreenenter"",""0"",""1895""
","
","
","""event"",""trial"",""time""
""fullscreenenter"",""0"",""1895""
","
","1277.9000000003725","","","","","","","","50","0,0,0","6","blank","296","null","0.43750903623581106","0.31055410097176905","0.4174163312256031","0","","","","","","","","",""
"","html-keyboard-response","153","555099","0.0-85.0-1.0","""event"",""trial"",""time""
""fullscreenenter"",""0"",""1895""
","
","
","""event"",""trial"",""time""
""fullscreenenter"",""0"",""1895""
","
","null","<p></p>","null","","","","","","","","","","","","","","","","","","","","","","","",""
"","do_trial","154","558345","0.0-86.0-0.0","""event"",""trial"",""time""
""fullscreenenter"",""0"",""1895""
","
","
","""event"",""trial"",""time""
""fullscreenenter"",""0"",""1895""
","
","692.5999999996275","","","","","","","","49","1,0,0","6","blank","297","null","0.3545555190806634","0.3137494365100973","0.5372285602032043","1","","","","","","","","",""
"","html-keyboard-response","155","559349","0.0-86.0-1.0","""event"",""trial"",""time""
""fullscreenenter"",""0"",""1895""
","
","
","""event"",""trial"",""time""
""fullscreenenter"",""0"",""1895""
","
","null","<p></p>","null","","","","","","","","","","","","","","","","","","","","","","","",""
"","do_trial","156","562616","0.0-87.0-0.0","""event"",""trial"",""time""
""fullscreenenter"",""0"",""1895""
","
","
","""event"",""trial"",""time""
""fullscreenenter"",""0"",""1895""
","
","716.3999999999069","","","","","","","","51","0,0,0","6","blank","298","null","0.3087470885807431","0.2411211137965249","0.6568660294949262","0","","","","","","","","",""
"","html-keyboard-response","157","563628","0.0-87.0-1.0","""event"",""trial"",""time""
""fullscreenenter"",""0"",""1895""
","
","
","""event"",""trial"",""time""
""fullscreenenter"",""0"",""1895""
","
","null","<p></p>","null","","","","","","","","","","","","","","","","","","","","","","","",""
"","do_trial","158","566686","0.0-88.0-0.0","""event"",""trial"",""time""
""fullscreenenter"",""0"",""1895""
","
","
","""event"",""trial"",""time""
""fullscreenenter"",""0"",""1895""
","
","516.6000000000931","","","","","","","","51","0,0,0","6","blank","299","null","0.23941188150090004","0.10933724425670463","0.5966026741809999","0","","","","","","","","",""
"","html-keyboard-response","159","567698","0.0-88.0-1.0","""event"",""trial"",""time""
""fullscreenenter"",""0"",""1895""
","
","
","""event"",""trial"",""time""
""fullscreenenter"",""0"",""1895""
","
","null","<p></p>","null","","","","","","","","","","","","","","","","","","","","","","","",""
"","do_recog","160","570093","0.0-89.0-0.0","""event"",""trial"",""time""
""fullscreenenter"",""0"",""1895""
","
","
","""event"",""trial"",""time""
""fullscreenenter"",""0"",""1895""
","
","876","","","","","","","","54","","","","300","probe-114","","","","","1","[object Object]","194","4","1","","","",""
"","html-keyboard-response","161","571103","0.0-89.0-1.0","""event"",""trial"",""time""
""fullscreenenter"",""0"",""1895""
","
","
","""event"",""trial"",""time""
""fullscreenenter"",""0"",""1895""
","
","null","<p></p>","null","","","","","","","","","","","","","","","","","","","","","","","",""
"","do_trial","162","574639","0.0-90.0-0.0","""event"",""trial"",""time""
""fullscreenenter"",""0"",""1895""
","
","
","""event"",""trial"",""time""
""fullscreenenter"",""0"",""1895""
","
","983.7000000001863","","","","","","","","50","1,0,1","6","blank","301","null","0.25863525594302045","0.17493177407249824","0.6036414977061574","0","","","","","","","","",""
"","html-keyboard-response","163","575652","0.0-90.0-1.0","""event"",""trial"",""time""
""fullscreenenter"",""0"",""1895""
","
","
","""event"",""trial"",""time""
""fullscreenenter"",""0"",""1895""
","
","null","<p></p>","null","","","","","","","","","","","","","","","","","","","","","","","",""
"","do_recog","164","579040","0.0-91.0-0.0","""event"",""trial"",""time""
""fullscreenenter"",""0"",""1895""
","
","
","""event"",""trial"",""time""
""fullscreenenter"",""0"",""1895""
","
","1873.7999999998137","","","","","","","","54","","","","302","probe-123","","","","","1","[object Object]","198","4","1","","","",""
"","html-keyboard-response","165","580044","0.0-91.0-1.0","""event"",""trial"",""time""
""fullscreenenter"",""0"",""1895""
","
","
","""event"",""trial"",""time""
""fullscreenenter"",""0"",""1895""
","
","null","<p></p>","null","","","","","","","","","","","","","","","","","","","","","","","",""
"","do_trial","166","583075","0.0-92.0-0.0","""event"",""trial"",""time""
""fullscreenenter"",""0"",""1895""
","
","
","""event"",""trial"",""time""
""fullscreenenter"",""0"",""1895""
","
","478.89999999990687","","","","","","","","49","0,0,0","6","blank","303","null","0.2962046116984275","0.15442873083645484","0.527202304577272","0","","","","","","","","",""
"","html-keyboard-response","167","584091","0.0-92.0-1.0","""event"",""trial"",""time""
""fullscreenenter"",""0"",""1895""
","
","
","""event"",""trial"",""time""
""fullscreenenter"",""0"",""1895""
","
","null","<p></p>","null","","","","","","","","","","","","","","","","","","","","","","","",""
"","do_trial","168","587247","0.0-93.0-0.0","""event"",""trial"",""time""
""fullscreenenter"",""0"",""1895""
","
","
","""event"",""trial"",""time""
""fullscreenenter"",""0"",""1895""
","
","612.6999999997206","","","","","","","","51","0,0,0","6","blank","304","null","0.32870085000762905","0.12438413283624224","0.5405166470724759","0","","","","","","","","",""
"","html-keyboard-response","169","588264","0.0-93.0-1.0","""event"",""trial"",""time""
""fullscreenenter"",""0"",""1895""
","
","
","""event"",""trial"",""time""
""fullscreenenter"",""0"",""1895""
","
","null","<p></p>","null","","","","","","","","","","","","","","","","","","","","","","","",""
"","do_recog","170","591302","0.0-94.0-0.0","""event"",""trial"",""time""
""fullscreenenter"",""0"",""1895""
","
","
","""event"",""trial"",""time""
""fullscreenenter"",""0"",""1895""
","
","1529.7999999998137","","","","","","","","54","","","","305","probe-122","","","","","1","[object Object]","152","3","1","","","",""
"","html-keyboard-response","171","592317","0.0-94.0-1.0","""event"",""trial"",""time""
""fullscreenenter"",""0"",""1895""
","
","
","""event"",""trial"",""time""
""fullscreenenter"",""0"",""1895""
","
","null","<p></p>","null","","","","","","","","","","","","","","","","","","","","","","","",""
"","do_trial","172","597004","0.0-95.0-0.0","""event"",""trial"",""time""
""fullscreenenter"",""0"",""1895""
","
","
","""event"",""trial"",""time""
""fullscreenenter"",""0"",""1895""
","
","2137.399999999907","","","","","","","","49","0,1,0","6","blank","306","null","0.352433095081824","0.1820804343054319","0.5345853903809534","0","","","","","","","","",""
"","html-keyboard-response","173","598016","0.0-95.0-1.0","""event"",""trial"",""time""
""fullscreenenter"",""0"",""1895""
","
","
","""event"",""trial"",""time""
""fullscreenenter"",""0"",""1895""
","
","null","<p></p>","null","","","","","","","","","","","","","","","","","","","","","","","",""
"","do_trial","174","601462","0.0-96.0-0.0","""event"",""trial"",""time""
""fullscreenenter"",""0"",""1895""
","
","
","""event"",""trial"",""time""
""fullscreenenter"",""0"",""1895""
","
","894.8999999999069","","","","","","","","51","0,0,0","6","blank","307","null","0.2724171014644733","0.058310109597170035","0.612249983307618","0","","","","","","","","",""
"","html-keyboard-response","175","602472","0.0-96.0-1.0","""event"",""trial"",""time""
""fullscreenenter"",""0"",""1895""
","
","
","""event"",""trial"",""time""
""fullscreenenter"",""0"",""1895""
","
","null","<p></p>","null","","","","","","","","","","","","","","","","","","","","","","","",""
"","do_recog","176","605241","0.0-97.0-0.0","""event"",""trial"",""time""
""fullscreenenter"",""0"",""1895""
","
","
","""event"",""trial"",""time""
""fullscreenenter"",""0"",""1895""
","
","1253.3999999999069","","","","","","","","54","","","","308","probe-200","","","","","1","[object Object]","196","4","1","","","",""
"","html-keyboard-response","177","606258","0.0-97.0-1.0","""event"",""trial"",""time""
""fullscreenenter"",""0"",""1895""
","
","
","""event"",""trial"",""time""
""fullscreenenter"",""0"",""1895""
","
","null","<p></p>","null","","","","","","","","","","","","","","","","","","","","","","","",""
"","break","178","684654","0.0-98.0-0.0","""event"",""trial"",""time""
""fullscreenenter"",""0"",""1895""
","
","
","""event"",""trial"",""time""
""fullscreenenter"",""0"",""1895""
","
","78399.3999999999","<div class='center'><p>Time to take a quick break! You have 2 minutes to rest, but you can move on sooner if you'd like.</p><p> Press the <b>space bar</b> to continue.</p></div>","32","","","","","","","","","","","","","","","","","","","","","","","",""
"","do_trial","179","688881","0.0-98.0-1.0","""event"",""trial"",""time""
""fullscreenenter"",""0"",""1895""
","
","
","""event"",""trial"",""time""
""fullscreenenter"",""0"",""1895""
","
","1679.8999999999069","","","","","","","","51","0,0,0","6","blank","309","null","0.27542493783400923","0.0940320109755049","0.6906199767142764","0","","","","","","","","",""
"","html-keyboard-response","180","689886","0.0-98.0-2.0","""event"",""trial"",""time""
""fullscreenenter"",""0"",""1895""
","
","
","""event"",""trial"",""time""
""fullscreenenter"",""0"",""1895""
","
","null","<p></p>","null","","","","","","","","","","","","","","","","","","","","","","","",""
"","do_trial","181","693186","0.0-99.0-0.0","""event"",""trial"",""time""
""fullscreenenter"",""0"",""1895""
","
","
","""event"",""trial"",""time""
""fullscreenenter"",""0"",""1895""
","
","752.3000000002794","","","","","","","","49","0,0,1","6","blank","310","null","0.08451123102406204","0.06097359814651704","0.570306107393846","0","","","","","","","","",""
"","html-keyboard-response","182","694188","0.0-99.0-1.0","""event"",""trial"",""time""
""fullscreenenter"",""0"",""1895""
","
","
","""event"",""trial"",""time""
""fullscreenenter"",""0"",""1895""
","
","null","<p></p>","null","","","","","","","","","","","","","","","","","","","","","","","",""
"","do_trial","183","697451","0.0-100.0-0.0","""event"",""trial"",""time""
""fullscreenenter"",""0"",""1895""
","
","
","""event"",""trial"",""time""
""fullscreenenter"",""0"",""1895""
","
","723.8999999999069","","","","","","","","50","1,0,0","6","blank","311","null","0.12371556277416897","0.11525547795533381","0.6028781045418269","0","","","","","","","","",""
"","html-keyboard-response","184","698472","0.0-100.0-1.0","""event"",""trial"",""time""
""fullscreenenter"",""0"",""1895""
","
","
","""event"",""trial"",""time""
""fullscreenenter"",""0"",""1895""
","
","null","<p></p>","null","","","","","","","","","","","","","","","","","","","","","","","",""
"","do_trial","185","701527","0.0-101.0-0.0","""event"",""trial"",""time""
""fullscreenenter"",""0"",""1895""
","
","
","""event"",""trial"",""time""
""fullscreenenter"",""0"",""1895""
","
","514","","","","","","","","49","1,0,0","6","blank","312","null","0.2548463569488982","0.31136141806357026","0.680775337194714","1","","","","","","","","",""
"","html-keyboard-response","186","702534","0.0-101.0-1.0","""event"",""trial"",""time""
""fullscreenenter"",""0"",""1895""
","
","
","""event"",""trial"",""time""
""fullscreenenter"",""0"",""1895""
","
","null","<p></p>","null","","","","","","","","","","","","","","","","","","","","","","","",""
"","do_recog","187","705867","0.0-102.0-0.0","""event"",""trial"",""time""
""fullscreenenter"",""0"",""1895""
","
","
","""event"",""trial"",""time""
""fullscreenenter"",""0"",""1895""
","
","1821.1000000000931","","","","","","","","54","","","","313","probe-180","","","","","1","[object Object]","71","1","1","","","",""
"","html-keyboard-response","188","706880","0.0-102.0-1.0","""event"",""trial"",""time""
""fullscreenenter"",""0"",""1895""
","
","
","""event"",""trial"",""time""
""fullscreenenter"",""0"",""1895""
","
","null","<p></p>","null","","","","","","","","","","","","","","","","","","","","","","","",""
"","do_trial","189","710388","0.0-103.0-0.0","""event"",""trial"",""time""
""fullscreenenter"",""0"",""1895""
","
","
","""event"",""trial"",""time""
""fullscreenenter"",""0"",""1895""
","
","957.2000000001863","","","","","","","","50","0,1,1","6","blank","314","null","0.24607256880210593","0.1221427928608817","0.6872289154264319","1","","","","","","","","",""
"","html-keyboard-response","190","711403","0.0-103.0-1.0","""event"",""trial"",""time""
""fullscreenenter"",""0"",""1895""
","
","
","""event"",""trial"",""time""
""fullscreenenter"",""0"",""1895""
","
","null","<p></p>","null","","","","","","","","","","","","","","","","","","","","","","","",""
"","do_trial","191","714659","0.0-104.0-0.0","""event"",""trial"",""time""
""fullscreenenter"",""0"",""1895""
","
","
","""event"",""trial"",""time""
""fullscreenenter"",""0"",""1895""
","
","711.1999999997206","","","","","","","","49","1,0,1","6","blank","315","null","0.2534094260699679","0.09886799505516486","0.6831310310738625","1","","","","","","","","",""
"","html-keyboard-response","192","715663","0.0-104.0-1.0","""event"",""trial"",""time""
""fullscreenenter"",""0"",""1895""
","
","
","""event"",""trial"",""time""
""fullscreenenter"",""0"",""1895""
","
","null","<p></p>","null","","","","","","","","","","","","","","","","","","","","","","","",""
"","do_trial","193","718965","0.0-105.0-0.0","""event"",""trial"",""time""
""fullscreenenter"",""0"",""1895""
","
","
","""event"",""trial"",""time""
""fullscreenenter"",""0"",""1895""
","
","757.1000000000931","","","","","","","","51","0,1,1","6","blank","316","null","0.2588191925791418","0.12243221302671137","0.6386290528122343","1","","","","","","","","",""
"","html-keyboard-response","194","719981","0.0-105.0-1.0","""event"",""trial"",""time""
""fullscreenenter"",""0"",""1895""
","
","
","""event"",""trial"",""time""
""fullscreenenter"",""0"",""1895""
","
","null","<p></p>","null","","","","","","","","","","","","","","","","","","","","","","","",""
"","do_recog","195","723737","0.0-106.0-0.0","""event"",""trial"",""time""
""fullscreenenter"",""0"",""1895""
","
","
","""event"",""trial"",""time""
""fullscreenenter"",""0"",""1895""
","
","2237","","","","","","","","54","","","","317","probe-238","","","","","0","[object Object]","null","null","0","","","",""
"","html-keyboard-response","196","724753","0.0-106.0-1.0","""event"",""trial"",""time""
""fullscreenenter"",""0"",""1895""
","
","
","""event"",""trial"",""time""
""fullscreenenter"",""0"",""1895""
","
","null","<p></p>","null","","","","","","","","","","","","","","","","","","","","","","","",""
"","do_trial","197","727999","0.0-107.0-0.0","""event"",""trial"",""time""
""fullscreenenter"",""0"",""1895""
","
","
","""event"",""trial"",""time""
""fullscreenenter"",""0"",""1895""
","
","708.8000000002794","","","","","","","","49","1,0,1","6","blank","318","null","0.3498789590470711","0.0861532577718183","0.6819603178843957","1","","","","","","","","",""
"","html-keyboard-response","198","729010","0.0-107.0-1.0","""event"",""trial"",""time""
""fullscreenenter"",""0"",""1895""
","
","
","""event"",""trial"",""time""
""fullscreenenter"",""0"",""1895""
","
","null","<p></p>","null","","","","","","","","","","","","","","","","","","","","","","","",""
"","do_trial","199","732233","0.0-108.0-0.0","""event"",""trial"",""time""
""fullscreenenter"",""0"",""1895""
","
","
","""event"",""trial"",""time""
""fullscreenenter"",""0"",""1895""
","
","682.7999999998137","","","","","","","","51","0,1,0","6","blank","319","null","0.31309348415875216","0.23076382562478198","0.6663053087132635","0","","","","","","","","",""
"","html-keyboard-response","200","733249","0.0-108.0-1.0","""event"",""trial"",""time""
""fullscreenenter"",""0"",""1895""
","
","
","""event"",""trial"",""time""
""fullscreenenter"",""0"",""1895""
","
","null","<p></p>","null","","","","","","","","","","","","","","","","","","","","","","","",""
"","do_trial","201","736344","0.0-109.0-0.0","""event"",""trial"",""time""
""fullscreenenter"",""0"",""1895""
","
","
","""event"",""trial"",""time""
""fullscreenenter"",""0"",""1895""
","
","557.8999999999069","","","","","","","","50","0,0,0","6","blank","320","null","0.34764728738293565","0.07551229957588255","0.5435680469022992","0","","","","","","","","",""
"","html-keyboard-response","202","737357","0.0-109.0-1.0","""event"",""trial"",""time""
""fullscreenenter"",""0"",""1895""
","
","
","""event"",""trial"",""time""
""fullscreenenter"",""0"",""1895""
","
","null","<p></p>","null","","","","","","","","","","","","","","","","","","","","","","","",""
"","do_trial","203","740571","0.0-110.0-0.0","""event"",""trial"",""time""
""fullscreenenter"",""0"",""1895""
","
","
","""event"",""trial"",""time""
""fullscreenenter"",""0"",""1895""
","
","677.2999999998137","","","","","","","","50","0,0,0","6","blank","321","null","0.2596920768863224","0.1724376343386064","0.5615915494271648","0","","","","","","","","",""
"","html-keyboard-response","204","741579","0.0-110.0-1.0","""event"",""trial"",""time""
""fullscreenenter"",""0"",""1895""
","
","
","""event"",""trial"",""time""
""fullscreenenter"",""0"",""1895""
","
","null","<p></p>","null","","","","","","","","","","","","","","","","","","","","","","","",""
"","do_recog","205","747605","0.0-111.0-0.0","""event"",""trial"",""time""
""fullscreenenter"",""0"",""1895""
","
","
","""event"",""trial"",""time""
""fullscreenenter"",""0"",""1895""
","
","null","","","","","","","","null","","","","322","probe-72","","","","","1","[object Object]","156","3","0","","","",""
"","html-keyboard-response","206","748619","0.0-111.0-1.0","""event"",""trial"",""time""
""fullscreenenter"",""0"",""1895""
","
","
","""event"",""trial"",""time""
""fullscreenenter"",""0"",""1895""
","
","null","<p></p>","null","","","","","","","","","","","","","","","","","","","","","","","",""
"","do_trial","207","754664","0.0-112.0-0.0","""event"",""trial"",""time""
""fullscreenenter"",""0"",""1895""
","
","
","""event"",""trial"",""time""
""fullscreenenter"",""0"",""1895""
","
","null","","","","","","","","null","1,0,1","6","blank","323","null","0.4250167619971444","0.13341594180912877","0.6737338599885421","","","","","","","","","",""
"","html-keyboard-response","208","755679","0.0-112.0-1.0","""event"",""trial"",""time""
""fullscreenenter"",""0"",""1895""
","
","
","""event"",""trial"",""time""
""fullscreenenter"",""0"",""1895""
","
","null","<p></p>","null","","","","","","","","","","","","","","","","","","","","","","","",""
"","do_trial","209","758922","0.0-113.0-0.0","""event"",""trial"",""time""
""fullscreenenter"",""0"",""1895""
","
","
","""event"",""trial"",""time""
""fullscreenenter"",""0"",""1895""
","
","695.1000000000931","","","","","","","","51","0,0,0","6","blank","324","null","0.4101948989154696","0.08330451786970935","0.622502417149775","0","","","","","","","","",""
"","html-keyboard-response","210","759934","0.0-113.0-1.0","""event"",""trial"",""time""
""fullscreenenter"",""0"",""1895""
","
","
","""event"",""trial"",""time""
""fullscreenenter"",""0"",""1895""
","
","null","<p></p>","null","","","","","","","","","","","","","","","","","","","","","","","",""
"","do_trial","211","763401","0.0-114.0-0.0","""event"",""trial"",""time""
""fullscreenenter"",""0"",""1895""
","
","
","""event"",""trial"",""time""
""fullscreenenter"",""0"",""1895""
","
","917.2000000001863","","","","","","","","49","0,0,1","6","blank","325","null","0.4318321729145545","0.08669111259720808","0.4767787329178924","0","","","","","","","","",""
"","html-keyboard-response","212","764406","0.0-114.0-1.0","""event"",""trial"",""time""
""fullscreenenter"",""0"",""1895""
","
","
","""event"",""trial"",""time""
""fullscreenenter"",""0"",""1895""
","
","null","<p></p>","null","","","","","","","","","","","","","","","","","","","","","","","",""
"","do_trial","213","767058","0.0-115.0-0.0","""event"",""trial"",""time""
""fullscreenenter"",""0"",""1895""
","
","
","""event"",""trial"",""time""
""fullscreenenter"",""0"",""1895""
","
","114.8000000002794","","","","","","","","50","0,1,1","6","blank","326","null","0.35392900830911667","0.16666918305979392","0.6199471382074401","1","","","","","","","","",""
"","html-keyboard-response","214","768060","0.0-115.0-1.0","""event"",""trial"",""time""
""fullscreenenter"",""0"",""1895""
","
","
","""event"",""trial"",""time""
""fullscreenenter"",""0"",""1895""
","
","null","<p></p>","null","","","","","","","","","","","","","","","","","","","","","","","",""
"","do_trial","215","771443","0.0-116.0-0.0","""event"",""trial"",""time""
""fullscreenenter"",""0"",""1895""
","
","
","""event"",""trial"",""time""
""fullscreenenter"",""0"",""1895""
","
","844.1999999997206","","","","","","","","51","1,0,1","6","blank","327","null","0.18961959302928194","0.08090045618792005","0.6074161483486112","1","","","","","","","","",""
"","html-keyboard-response","216","772460","0.0-116.0-1.0","""event"",""trial"",""time""
""fullscreenenter"",""0"",""1895""
","
","
","""event"",""trial"",""time""
""fullscreenenter"",""0"",""1895""
","
","null","<p></p>","null","","","","","","","","","","","","","","","","","","","","","","","",""
"","do_trial","217","775415","0.0-117.0-0.0","""event"",""trial"",""time""
""fullscreenenter"",""0"",""1895""
","
","
","""event"",""trial"",""time""
""fullscreenenter"",""0"",""1895""
","
","408.3000000002794","","","","","","","","49","0,0,1","6","blank","328","null","0.20300637496083979","0.22152373747685375","0.5945787642516213","0","","","","","","","","",""
"","html-keyboard-response","218","776429","0.0-117.0-1.0","""event"",""trial"",""time""
""fullscreenenter"",""0"",""1895""
","
","
","""event"",""trial"",""time""
""fullscreenenter"",""0"",""1895""
","
","null","<p></p>","null","","","","","","","","","","","","","","","","","","","","","","","",""
"","do_recog","219","779417","0.0-118.0-0.0","""event"",""trial"",""time""
""fullscreenenter"",""0"",""1895""
","
","
","""event"",""trial"",""time""
""fullscreenenter"",""0"",""1895""
","
","1477.3999999999069","","","","","","","","54","","","","329","probe-232","","","","","0","[object Object]","null","null","0","","","",""
"","html-keyboard-response","220","780422","0.0-118.0-1.0","""event"",""trial"",""time""
""fullscreenenter"",""0"",""1895""
","
","
","""event"",""trial"",""time""
""fullscreenenter"",""0"",""1895""
","
","null","<p></p>","null","","","","","","","","","","","","","","","","","","","","","","","",""
"","do_trial","221","786470","0.0-119.0-0.0","""event"",""trial"",""time""
""fullscreenenter"",""0"",""1895""
","
","
","""event"",""trial"",""time""
""fullscreenenter"",""0"",""1895""
","
","null","","","","","","","","null","0,0,1","6","blank","330","null","0.37179869290982226","0.33242807532649593","0.5294493909368629","","","","","","","","","",""
"","html-keyboard-response","222","787480","0.0-119.0-1.0","""event"",""trial"",""time""
""fullscreenenter"",""0"",""1895""
","
","
","""event"",""trial"",""time""
""fullscreenenter"",""0"",""1895""
","
","null","<p></p>","null","","","","","","","","","","","","","","","","","","","","","","","",""
"","do_trial","223","790825","0.0-120.0-0.0","""event"",""trial"",""time""
""fullscreenenter"",""0"",""1895""
","
","
","""event"",""trial"",""time""
""fullscreenenter"",""0"",""1895""
","
","801.7000000001863","","","","","","","","50","0,0,1","6","blank","331","null","0.348172064643368","0.2666894425912518","0.6330225065646193","0","","","","","","","","",""
"","html-keyboard-response","224","791843","0.0-120.0-1.0","""event"",""trial"",""time""
""fullscreenenter"",""0"",""1895""
","
","
","""event"",""trial"",""time""
""fullscreenenter"",""0"",""1895""
","
","null","<p></p>","null","","","","","","","","","","","","","","","","","","","","","","","",""
"","do_trial","225","795396","0.0-121.0-0.0","""event"",""trial"",""time""
""fullscreenenter"",""0"",""1895""
","
","
","""event"",""trial"",""time""
""fullscreenenter"",""0"",""1895""
","
","1005","","","","","","","","51","0,0,1","6","blank","332","null","0.297127931096731","0.32138627141164705","0.5404953341657719","1","","","","","","","","",""
"","html-keyboard-response","226","796398","0.0-121.0-1.0","""event"",""trial"",""time""
""fullscreenenter"",""0"",""1895""
","
","
","""event"",""trial"",""time""
""fullscreenenter"",""0"",""1895""
","
","null","<p></p>","null","","","","","","","","","","","","","","","","","","","","","","","",""
"","do_recog","227","800156","0.0-122.0-0.0","""event"",""trial"",""time""
""fullscreenenter"",""0"",""1895""
","
","
","""event"",""trial"",""time""
""fullscreenenter"",""0"",""1895""
","
","2242.100000000093","","","","","","","","54","","","","333","probe-65","","","","","1","[object Object]","150","3","1","","","",""
"","html-keyboard-response","228","801159","0.0-122.0-1.0","""event"",""trial"",""time""
""fullscreenenter"",""0"",""1895""
","
","
","""event"",""trial"",""time""
""fullscreenenter"",""0"",""1895""
","
","null","<p></p>","null","","","","","","","","","","","","","","","","","","","","","","","",""
"","do_trial","229","804913","0.0-123.0-0.0","""event"",""trial"",""time""
""fullscreenenter"",""0"",""1895""
","
","
","""event"",""trial"",""time""
""fullscreenenter"",""0"",""1895""
","
","1203.2999999998137","","","","","","","","49","0,0,1","6","blank","334","null","0.1788854298366402","0.09632642093631427","0.6334653009645518","0","","","","","","","","",""
"","html-keyboard-response","230","805923","0.0-123.0-1.0","""event"",""trial"",""time""
""fullscreenenter"",""0"",""1895""
","
","
","""event"",""trial"",""time""
""fullscreenenter"",""0"",""1895""
","
","null","<p></p>","null","","","","","","","","","","","","","","","","","","","","","","","",""
"","do_trial","231","809323","0.0-124.0-0.0","""event"",""trial"",""time""
""fullscreenenter"",""0"",""1895""
","
","
","""event"",""trial"",""time""
""fullscreenenter"",""0"",""1895""
","
","855","","","","","","","","51","0,0,1","6","blank","335","null","0.18498937284052847","0.09182336223345643","0.6044171580707107","1","","","","","","","","",""
"","html-keyboard-response","232","810329","0.0-124.0-1.0","""event"",""trial"",""time""
""fullscreenenter"",""0"",""1895""
","
","
","""event"",""trial"",""time""
""fullscreenenter"",""0"",""1895""
","
","null","<p></p>","null","","","","","","","","","","","","","","","","","","","","","","","",""
"","do_trial","233","813615","0.0-125.0-0.0","""event"",""trial"",""time""
""fullscreenenter"",""0"",""1895""
","
","
","""event"",""trial"",""time""
""fullscreenenter"",""0"",""1895""
","
","750.8999999999069","","","","","","","","50","1,0,0","6","blank","336","null","0.2087453120057708","0.22258607881375336","0.6772428739887408","0","","","","","","","","",""
"","html-keyboard-response","234","814627","0.0-125.0-1.0","""event"",""trial"",""time""
""fullscreenenter"",""0"",""1895""
","
","
","""event"",""trial"",""time""
""fullscreenenter"",""0"",""1895""
","
","null","<p></p>","null","","","","","","","","","","","","","","","","","","","","","","","",""
"","do_trial","235","817741","0.0-126.0-0.0","""event"",""trial"",""time""
""fullscreenenter"",""0"",""1895""
","
","
","""event"",""trial"",""time""
""fullscreenenter"",""0"",""1895""
","
","568.3999999999069","","","","","","","","50","1,0,1","6","blank","337","null","0.27799756233656225","0.11261792591413489","0.6942477293782838","0","","","","","","","","",""
"","html-keyboard-response","236","818747","0.0-126.0-1.0","""event"",""trial"",""time""
""fullscreenenter"",""0"",""1895""
","
","
","""event"",""trial"",""time""
""fullscreenenter"",""0"",""1895""
","
","null","<p></p>","null","","","","","","","","","","","","","","","","","","","","","","","",""
"","do_trial","237","821954","0.0-127.0-0.0","""event"",""trial"",""time""
""fullscreenenter"",""0"",""1895""
","
","
","""event"",""trial"",""time""
""fullscreenenter"",""0"",""1895""
","
","669.8000000002794","","","","","","","","49","1,0,1","6","blank","338","null","0.14650230436339565","0.20756993330085508","0.7265642883449033","1","","","","","","","","",""
"","html-keyboard-response","238","822967","0.0-127.0-1.0","""event"",""trial"",""time""
""fullscreenenter"",""0"",""1895""
","
","
","""event"",""trial"",""time""
""fullscreenenter"",""0"",""1895""
","
","null","<p></p>","null","","","","","","","","","","","","","","","","","","","","","","","",""
"","do_trial","239","825851","0.0-128.0-0.0","""event"",""trial"",""time""
""fullscreenenter"",""0"",""1895""
","
","
","""event"",""trial"",""time""
""fullscreenenter"",""0"",""1895""
","
","343.39999999990687","","","","","","","","51","0,0,0","6","blank","339","null","0.24335706863244708","0.1363968060745988","0.46324924062893047","0","","","","","","","","",""
"","html-keyboard-response","240","826854","0.0-128.0-1.0","""event"",""trial"",""time""
""fullscreenenter"",""0"",""1895""
","
","
","""event"",""trial"",""time""
""fullscreenenter"",""0"",""1895""
","
","null","<p></p>","null","","","","","","","","","","","","","","","","","","","","","","","",""
"","do_trial","241","830320","0.0-129.0-0.0","""event"",""trial"",""time""
""fullscreenenter"",""0"",""1895""
","
","
","""event"",""trial"",""time""
""fullscreenenter"",""0"",""1895""
","
","909.1000000000931","","","","","","","","50","1,0,1","6","blank","340","null","0.23691937824006534","0.2070185545869272","0.4917193510945663","0","","","","","","","","",""
"","html-keyboard-response","242","831333","0.0-129.0-1.0","""event"",""trial"",""time""
""fullscreenenter"",""0"",""1895""
","
","
","""event"",""trial"",""time""
""fullscreenenter"",""0"",""1895""
","
","null","<p></p>","null","","","","","","","","","","","","","","","","","","","","","","","",""
"","do_recog","243","834242","0.0-130.0-0.0","""event"",""trial"",""time""
""fullscreenenter"",""0"",""1895""
","
","
","""event"",""trial"",""time""
""fullscreenenter"",""0"",""1895""
","
","1398.9000000003725","","","","","","","","54","","","","341","probe-18","","","","","1","[object Object]","113","2","1","","","",""
"","html-keyboard-response","244","835253","0.0-130.0-1.0","""event"",""trial"",""time""
""fullscreenenter"",""0"",""1895""
","
","
","""event"",""trial"",""time""
""fullscreenenter"",""0"",""1895""
","
","null","<p></p>","null","","","","","","","","","","","","","","","","","","","","","","","",""
"","do_trial","245","838498","0.0-131.0-0.0","""event"",""trial"",""time""
""fullscreenenter"",""0"",""1895""
","
","
","""event"",""trial"",""time""
""fullscreenenter"",""0"",""1895""
","
","700.6000000000931","","","","","","","","50","0,1,1","6","blank","342","null","0.13935076159764256","0.1688807653883344","0.479877807316586","1","","","","","","","","",""
"","html-keyboard-response","246","839511","0.0-131.0-1.0","""event"",""trial"",""time""
""fullscreenenter"",""0"",""1895""
","
","
","""event"",""trial"",""time""
""fullscreenenter"",""0"",""1895""
","
","null","<p></p>","null","","","","","","","","","","","","","","","","","","","","","","","",""
"","do_recog","247","842828","0.0-132.0-0.0","""event"",""trial"",""time""
""fullscreenenter"",""0"",""1895""
","
","
","""event"",""trial"",""time""
""fullscreenenter"",""0"",""1895""
","
","1798.6000000000931","","","","","","","","55","","","","343","probe-03","","","","","1","[object Object]","190","4","0","","","",""
"","html-keyboard-response","248","843837","0.0-132.0-1.0","""event"",""trial"",""time""
""fullscreenenter"",""0"",""1895""
","
","
","""event"",""trial"",""time""
""fullscreenenter"",""0"",""1895""
","
","null","<p></p>","null","","","","","","","","","","","","","","","","","","","","","","","",""
"","do_trial","249","847477","0.0-133.0-0.0","""event"",""trial"",""time""
""fullscreenenter"",""0"",""1895""
","
","
","""event"",""trial"",""time""
""fullscreenenter"",""0"",""1895""
","
","1091.8000000002794","","","","","","","","50","0,0,1","6","blank","344","null","0.10872094699605338","0.08111395533673588","0.3996166442430584","0","","","","","","","","",""
"","html-keyboard-response","250","848485","0.0-133.0-1.0","""event"",""trial"",""time""
""fullscreenenter"",""0"",""1895""
","
","
","""event"",""trial"",""time""
""fullscreenenter"",""0"",""1895""
","
","null","<p></p>","null","","","","","","","","","","","","","","","","","","","","","","","",""
"","do_recog","251","851642","0.0-134.0-0.0","""event"",""trial"",""time""
""fullscreenenter"",""0"",""1895""
","
","
","""event"",""trial"",""time""
""fullscreenenter"",""0"",""1895""
","
","1641.1000000000931","","","","","","","","55","","","","345","probe-38","","","","","1","[object Object]","193","4","0","","","",""
"","html-keyboard-response","252","852648","0.0-134.0-1.0","""event"",""trial"",""time""
""fullscreenenter"",""0"",""1895""
","
","
","""event"",""trial"",""time""
""fullscreenenter"",""0"",""1895""
","
","null","<p></p>","null","","","","","","","","","","","","","","","","","","","","","","","",""
"","do_trial","253","855955","0.0-135.0-0.0","""event"",""trial"",""time""
""fullscreenenter"",""0"",""1895""
","
","
","""event"",""trial"",""time""
""fullscreenenter"",""0"",""1895""
","
","750.2999999998137","","","","","","","","50","0,0,0","6","blank","346","null","0.052014474398906795","0.2045181028895435","0.3715571023287346","0","","","","","","","","",""
"","html-keyboard-response","254","856972","0.0-135.0-1.0","""event"",""trial"",""time""
""fullscreenenter"",""0"",""1895""
","
","
","""event"",""trial"",""time""
""fullscreenenter"",""0"",""1895""
","
","null","<p></p>","null","","","","","","","","","","","","","","","","","","","","","","","",""
"","do_trial","255","860210","0.0-136.0-0.0","""event"",""trial"",""time""
""fullscreenenter"",""0"",""1895""
","
","
","""event"",""trial"",""time""
""fullscreenenter"",""0"",""1895""
","
","690.1000000000931","","","","","","","","49","0,0,1","6","blank","347","null","0.05614686080488201","0.13927702679030846","0.29399462248546276","0","","","","","","","","",""
"","html-keyboard-response","256","861227","0.0-136.0-1.0","""event"",""trial"",""time""
""fullscreenenter"",""0"",""1895""
","
","
","""event"",""trial"",""time""
""fullscreenenter"",""0"",""1895""
","
","null","<p></p>","null","","","","","","","","","","","","","","","","","","","","","","","",""
"","do_recog","257","864641","0.0-137.0-0.0","""event"",""trial"",""time""
""fullscreenenter"",""0"",""1895""
","
","
","""event"",""trial"",""time""
""fullscreenenter"",""0"",""1895""
","
","1903.3999999999069","","","","","","","","54","","","","348","probe-99","","","","","1","[object Object]","73","1","1","","","",""
"","html-keyboard-response","258","865653","0.0-137.0-1.0","""event"",""trial"",""time""
""fullscreenenter"",""0"",""1895""
""blur"",""259"",""910679""
""focus"",""259"",""917044""
","""event"",""trial"",""time""
""blur"",""259"",""910679""
","""event"",""trial"",""time""
""focus"",""259"",""917044""
","""event"",""trial"",""time""
""fullscreenenter"",""0"",""1895""
","
","null","<p></p>","null","","","","","","","","","","","","","","","","","","","","","","","",""
"","break","259","918488","0.0-138.0-0.0","""event"",""trial"",""time""
""fullscreenenter"",""0"",""1895""
""blur"",""259"",""910679""
""focus"",""259"",""917044""
","""event"",""trial"",""time""
""blur"",""259"",""910679""
","""event"",""trial"",""time""
""focus"",""259"",""917044""
","""event"",""trial"",""time""
""fullscreenenter"",""0"",""1895""
","
","52833.39999999991","<div class='center'><p>Time to take a quick break! You have 2 minutes to rest, but you can move on sooner if you'd like.</p><p> Press the <b>space bar</b> to continue.</p></div>","32","","","","","","","","","","","","","","","","","","","","","","","",""
"","do_trial","260","922589","0.0-138.0-1.0","""event"",""trial"",""time""
""fullscreenenter"",""0"",""1895""
""blur"",""259"",""910679""
""focus"",""259"",""917044""
","""event"",""trial"",""time""
""blur"",""259"",""910679""
","""event"",""trial"",""time""
""focus"",""259"",""917044""
","""event"",""trial"",""time""
""fullscreenenter"",""0"",""1895""
","
","1553.6000000000931","","","","","","","","51","0,1,0","6","blank","349","null","0.14445493659381847","0.3286476306538099","0.22955068109933535","0","","","","","","","","",""
"","html-keyboard-response","261","923604","0.0-138.0-2.0","""event"",""trial"",""time""
""fullscreenenter"",""0"",""1895""
""blur"",""259"",""910679""
""focus"",""259"",""917044""
","""event"",""trial"",""time""
""blur"",""259"",""910679""
","""event"",""trial"",""time""
""focus"",""259"",""917044""
","""event"",""trial"",""time""
""fullscreenenter"",""0"",""1895""
","
","null","<p></p>","null","","","","","","","","","","","","","","","","","","","","","","","",""
"","do_trial","262","927912","0.0-139.0-0.0","""event"",""trial"",""time""
""fullscreenenter"",""0"",""1895""
""blur"",""259"",""910679""
""focus"",""259"",""917044""
","""event"",""trial"",""time""
""blur"",""259"",""910679""
","""event"",""trial"",""time""
""focus"",""259"",""917044""
","""event"",""trial"",""time""
""fullscreenenter"",""0"",""1895""
","
","1758.3999999999069","","","","","","","","50","0,1,0","6","blank","350","null","0.09312884654551377","0.4894401325851986","0.3073029362738132","1","","","","","","","","",""
"","html-keyboard-response","263","928926","0.0-139.0-1.0","""event"",""trial"",""time""
""fullscreenenter"",""0"",""1895""
""blur"",""259"",""910679""
""focus"",""259"",""917044""
","""event"",""trial"",""time""
""blur"",""259"",""910679""
","""event"",""trial"",""time""
""focus"",""259"",""917044""
","""event"",""trial"",""time""
""fullscreenenter"",""0"",""1895""
","
","null","<p></p>","null","","","","","","","","","","","","","","","","","","","","","","","",""
"","do_trial","264","932205","0.0-140.0-0.0","""event"",""trial"",""time""
""fullscreenenter"",""0"",""1895""
""blur"",""259"",""910679""
""focus"",""259"",""917044""
","""event"",""trial"",""time""
""blur"",""259"",""910679""
","""event"",""trial"",""time""
""focus"",""259"",""917044""
","""event"",""trial"",""time""
""fullscreenenter"",""0"",""1895""
","
","729.8000000002794","","","","","","","","49","0,0,0","6","blank","351","null","0.057609734950627066","0.5865964108639578","0.16796042297460972","0","","","","","","","","",""
"","html-keyboard-response","265","933217","0.0-140.0-1.0","""event"",""trial"",""time""
""fullscreenenter"",""0"",""1895""
""blur"",""259"",""910679""
""focus"",""259"",""917044""
","""event"",""trial"",""time""
""blur"",""259"",""910679""
","""event"",""trial"",""time""
""focus"",""259"",""917044""
","""event"",""trial"",""time""
""fullscreenenter"",""0"",""1895""
","
","null","<p></p>","null","","","","","","","","","","","","","","","","","","","","","","","",""
"","do_trial","266","937195","0.0-141.0-0.0","""event"",""trial"",""time""
""fullscreenenter"",""0"",""1895""
""blur"",""259"",""910679""
""focus"",""259"",""917044""
","""event"",""trial"",""time""
""blur"",""259"",""910679""
","""event"",""trial"",""time""
""focus"",""259"",""917044""
","""event"",""trial"",""time""
""fullscreenenter"",""0"",""1895""
","
","1419.3999999999069","","","","","","","","51","0,1,0","6","blank","352","null","0.06617314483741062","0.6200048163468729","0.22760306502722027","0","","","","","","","","",""
"","html-keyboard-response","267","938197","0.0-141.0-1.0","""event"",""trial"",""time""
""fullscreenenter"",""0"",""1895""
""blur"",""259"",""910679""
""focus"",""259"",""917044""
","""event"",""trial"",""time""
""blur"",""259"",""910679""
","""event"",""trial"",""time""
""focus"",""259"",""917044""
","""event"",""trial"",""time""
""fullscreenenter"",""0"",""1895""
","
","null","<p></p>","null","","","","","","","","","","","","","","","","","","","","","","","",""
"","do_trial","268","941816","0.0-142.0-0.0","""event"",""trial"",""time""
""fullscreenenter"",""0"",""1895""
""blur"",""259"",""910679""
""focus"",""259"",""917044""
","""event"",""trial"",""time""
""blur"",""259"",""910679""
","""event"",""trial"",""time""
""focus"",""259"",""917044""
","""event"",""trial"",""time""
""fullscreenenter"",""0"",""1895""
","
","1076.9000000003725","","","","","","","","50","1,1,0","6","blank","353","null","0.12822551003953878","0.7057342467034238","0.18914375699707123","1","","","","","","","","",""
"","html-keyboard-response","269","942820","0.0-142.0-1.0","""event"",""trial"",""time""
""fullscreenenter"",""0"",""1895""
""blur"",""259"",""910679""
""focus"",""259"",""917044""
","""event"",""trial"",""time""
""blur"",""259"",""910679""
","""event"",""trial"",""time""
""focus"",""259"",""917044""
","""event"",""trial"",""time""
""fullscreenenter"",""0"",""1895""
","
","null","<p></p>","null","","","","","","","","","","","","","","","","","","","","","","","",""
"","do_trial","270","945760","0.0-143.0-0.0","""event"",""trial"",""time""
""fullscreenenter"",""0"",""1895""
""blur"",""259"",""910679""
""focus"",""259"",""917044""
","""event"",""trial"",""time""
""blur"",""259"",""910679""
","""event"",""trial"",""time""
""focus"",""259"",""917044""
","""event"",""trial"",""time""
""fullscreenenter"",""0"",""1895""
","
