"success","trial_type","trial_index","time_elapsed","internal_node_id","interactions","blur_events","focus_events","fullscreenenter_events","fullscreenexit_events","rt","stimulus","key_press","subject_id","participant_id","age","gender","prompt","response","choice_outcomes","context_n","context_img_id","trial_n","probe_img_id","pR_red","pR_white","pR_black","outcome","is_valid","image_to_show","probed_trial","probed_context","correct","probe","probed_trial_n","probed_context_n","context_im"
"true","fullscreen","0","3112","0.0-0.0","""event"",""trial"",""time""
""fullscreenenter"",""0"",""2140""
","
","
","""event"",""trial"",""time""
""fullscreenenter"",""0"",""2140""
","
","","","","","","","","","","","","","","","","","","","","","","","","","","",""
"","pavlovia","1","3118","0.0-1.0","""event"",""trial"",""time""
""fullscreenenter"",""0"",""2140""
","
","
","""event"",""trial"",""time""
""fullscreenenter"",""0"",""2140""
","
","","","","","","","","","","","","","","","","","","","","","","","","","","",""
"","welc_back","2","12964","0.0-2.0","""event"",""trial"",""time""
""fullscreenenter"",""0"",""2140""
","
","
","""event"",""trial"",""time""
""fullscreenenter"",""0"",""2140""
","
","null","run_exp/static/audio/clip_29_welcome_back.m4a","null","1006","887","13","Female","<div class='center'><p>Welcome to day 2!</p><p> Yesterday, you were the head captain of a pirate ship. You asked your fellow pirates to rob other ships of their gold across six different islands.</p></div>","","","","","","","","","","","","","","","","","","",""
"","html-keyboard-response","3","15003","0.0-3.0","""event"",""trial"",""time""
""fullscreenenter"",""0"",""2140""
","
","
","""event"",""trial"",""time""
""fullscreenenter"",""0"",""2140""
","
","2037.699999999255","<div class='center'><p>Welcome to day 2!</p><p> Yesterday, you were the head captain of a pirate ship. You asked your fellow pirates to rob other ships of their gold across six different islands.</p><p><b>[Press the space bar to continue]</b></p></div>","32","","","","","","","","","","","","","","","","","","","","","","","",""
"","day_1_summary_goal","4","32467","0.0-4.0","""event"",""trial"",""time""
""fullscreenenter"",""0"",""2140""
","
","
","""event"",""trial"",""time""
""fullscreenenter"",""0"",""2140""
","
","null","run_exp/static/audio/clip_30_goal_of_game.m4a","null","","","","","<div class='center'><p>Today, like yesterday, you get to pick which pirate you want to rob the next ship.</p><p>If the pirate is successful in robbing a ship, you get gold coins that look like this: </p><p><img src='run_exp/static/images/tutorial/reward.png' height='150'></p><p> If they were not successful in robbing the ship, then you will get no gold coins and you'll see a big red x like this: </p><p><img src='run_exp/static/images/tutorial/reward_no.png' height='150'></p></div>","","","","","","","","","","","","","","","","","","",""
"","html-keyboard-response","5","34258","0.0-5.0","""event"",""trial"",""time""
""fullscreenenter"",""0"",""2140""
","
","
","""event"",""trial"",""time""
""fullscreenenter"",""0"",""2140""
","
","1789.4000000003725","<div class='center'><p>Today, like yesterday, you get to pick which pirate you want to rob the next ship.</p><p>If the pirate is successful in robbing a ship, you get gold coins that look like this: </p><p><img src='run_exp/static/images/tutorial/reward.png' height='150'></p><p> If they were not successful in robbing the ship, then you will get no gold coins and you'll see a big red x like this: </p><p><img src='run_exp/static/images/tutorial/reward_no.png' height='150'></p><p><b>[Press the space bar to continue]</b></p></div>","32","","","","","","","","","","","","","","","","","","","","","","","",""
"","day_1_summary_pick","6","49185","0.0-6.0","""event"",""trial"",""time""
""fullscreenenter"",""0"",""2140""
","
","
","""event"",""trial"",""time""
""fullscreenenter"",""0"",""2140""
","
","null","run_exp/static/audio/clip_31_how_to_pick_a_pirate.m4a","null","","","","","<div class='center'><p>Also, just like yesterday, you will use the 1,2,3 keys on your keyboard to pick a pirate. Press '1' to choose red beard, '2' to choose white beard, and '3' to choose black beard . You only have 3 seconds to pick a pirate, so please make a choice quickly!</p></div>","","","","","","","","","","","","","","","","","","",""
"","html-keyboard-response","7","51837","0.0-7.0","""event"",""trial"",""time""
""fullscreenenter"",""0"",""2140""
","
","
","""event"",""trial"",""time""
""fullscreenenter"",""0"",""2140""
","
","2651.399999999441","<div class='center'><p>Also, just like yesterday, you will use the 1,2,3 keys on your keyboard to pick a pirate. Press '1' to choose red beard, '2' to choose white beard, and '3' to choose black beard . You only have 3 seconds to pick a pirate, so please make a choice quickly!</p><p><b>[Press the space bar to continue]</b></p></div>","32","","","","","","","","","","","","","","","","","","","","","","","",""
"","test_phase_begin","8","82436","0.0-8.0","""event"",""trial"",""time""
""fullscreenenter"",""0"",""2140""
","
","
","""event"",""trial"",""time""
""fullscreenenter"",""0"",""2140""
","
","null","run_exp/static/audio/clip_32_final_place.m4a","null","","","","","<div class='center'><p>You’ve arrived at the final island of your journey! Unfortunately, it’s very foggy out, so you won’t be able to see it in the distance like the other islands you've visited.</p><p>You’ll still be deciding which pirate you want to rob a ship like before. However, because of the fog, you also won’t be able to see the ship.</p><p>This means you do not have to remember the ships you rob on this island.</p><p>Unlike yesterday, you won't be visiting multiple islands today. You will stay on this island for the entire game. This game will last ~30 minutes.</p></div>","","","","","","","","","","","","","","","","","","",""
"","html-keyboard-response","9","83871","0.0-9.0","""event"",""trial"",""time""
""fullscreenenter"",""0"",""2140""
","
","
","""event"",""trial"",""time""
""fullscreenenter"",""0"",""2140""
","
","1432.7000000001863","<div class='center'><p>You’ve arrived at the final island of your journey! Unfortunately, it’s very foggy out, so you won’t be able to see it in the distance like the other islands you've visited.</p><p>You’ll still be deciding which pirate you want to rob a ship like before. However, because of the fog, you also won’t be able to see the ship.</p><p>This means you do not have to remember the ships you rob on this island.</p><p>Unlike yesterday, you won't be visiting multiple islands today. You will stay on this island for the entire game. This game will last ~30 minutes.</p><p><b>[Press the space bar to continue]</b></p></div>","32","","","","","","","","","","","","","","","","","","","","","","","",""
"","explain_probe_1","10","91816","0.0-10.0","""event"",""trial"",""time""
""fullscreenenter"",""0"",""2140""
","
","
","""event"",""trial"",""time""
""fullscreenenter"",""0"",""2140""
","
","null","run_exp/static/audio/clip_33_recognition_1.m4a","null","","","","","<div class='center'><p> Sometimes you’ll be shown a ship, and you will be asked if you saw this ship on a past island.</p><p> Here is an example of what you will see.</p><p><img src='run_exp/static/images/tutorial/example_recog_trial.png' height='500'></p></div>","","","","","","","","","","","","","","","","","","",""
"","html-keyboard-response","11","94448","0.0-11.0","""event"",""trial"",""time""
""fullscreenenter"",""0"",""2140""
","
","
","""event"",""trial"",""time""
""fullscreenenter"",""0"",""2140""
","
","2630.2000000001863","<div class='center'><p> Sometimes you’ll be shown a ship, and you will be asked if you saw this ship on a past island.</p><p> Here is an example of what you will see.</p><p><img src='run_exp/static/images/tutorial/example_recog_trial.png' height='500'></p><p><b>[Press the space bar to continue]</b></p></div>","32","","","","","","","","","","","","","","","","","","","","","","","",""
"","explain_probe_2","12","116430","0.0-12.0","""event"",""trial"",""time""
""fullscreenenter"",""0"",""2140""
","
","
","""event"",""trial"",""time""
""fullscreenenter"",""0"",""2140""
","
","null","run_exp/static/audio/clip_34_recognition_2.m4a","null","","","","","<div class='center'><p> You will press the 5, 6, 7, 8 keys on your keyboard to respond.</p><p>If you are sure you saw the ship, press <b>5</b> on your keyboard.</p><p> If you think you saw it before but aren't sure, then press <b>6</b>.</p><p> If you think you have <b>not</b> seen it before but aren't sure, then press <b>7</b>.</p><p> If you are sure you did <b>not</b> see the ship before, then press <b>8</b>.</p><p><img src='run_exp/static/images/tutorial/example_recog_trial.png' height='500'></p></div>","","","","","","","","","","","","","","","","","","",""
"","html-keyboard-response","13","117175","0.0-13.0","""event"",""trial"",""time""
""fullscreenenter"",""0"",""2140""
","
","
","""event"",""trial"",""time""
""fullscreenenter"",""0"",""2140""
","
","740.2000000001863","<div class='center'><p> You will press the 5, 6, 7, 8 keys on your keyboard to respond.</p><p>If you are sure you saw the ship, press <b>5</b> on your keyboard.</p><p> If you think you saw it before but aren't sure, then press <b>6</b>.</p><p> If you think you have <b>not</b> seen it before but aren't sure, then press <b>7</b>.</p><p> If you are sure you did <b>not</b> see the ship before, then press <b>8</b>.</p><p><img src='run_exp/static/images/tutorial/example_recog_trial.png' height='500'></p><p><b>[Press the space bar to continue]</b></p></div>","32","","","","","","","","","","","","","","","","","","","","","","","",""
"","explain_outcome","14","134634","0.0-14.0","""event"",""trial"",""time""
""fullscreenenter"",""0"",""2140""
","
","
","""event"",""trial"",""time""
""fullscreenenter"",""0"",""2140""
","
","null","run_exp/static/audio/clip_35_recognition_3.m4a","null","","","","","<div class='center'><p> If you remember correctly, then you’ll get a gold coin like this: </p><p><img src='run_exp/static/images/tutorial/reward_small.png' height='200'></p><p>If you do not remember correctly, then you'll see a red x like this: </p><p><img src='run_exp/static/images/tutorial/reward_no.png' height='200'></p><p>Importantly, when you are shown a ship, take the time to remind yourself which island you saw it on. This will help you in the next part of the study.</p></div>","","","","","","","","","","","","","","","","","","",""
"","html-keyboard-response","15","135016","0.0-15.0","""event"",""trial"",""time""
""fullscreenenter"",""0"",""2140""
","
","
","""event"",""trial"",""time""
""fullscreenenter"",""0"",""2140""
","
","379.79999999981374","<div class='center'><p> If you remember correctly, then you’ll get a gold coin like this: </p><p><img src='run_exp/static/images/tutorial/reward_small.png' height='200'></p><p>If you do not remember correctly, then you'll see a red x like this: </p><p><img src='run_exp/static/images/tutorial/reward_no.png' height='200'></p><p>Importantly, when you are shown a ship, take the time to remind yourself which island you saw it on. This will help you in the next part of the study.</p><p><b>[Press the space bar to continue]</b></p></div>","32","","","","","","","","","","","","","","","","","","","","","","","",""
"","begin_test_phase","16","151074","0.0-16.0","""event"",""trial"",""time""
""fullscreenenter"",""0"",""2140""
","
","
","""event"",""trial"",""time""
""fullscreenenter"",""0"",""2140""
","
","null","run_exp/static/audio/clip_36_begin_final.m4a","null","","","","","<div class='center'><p>Let's go over the important points again. Your job is to: </p><p>1. Pick the pirate who is best at robbing ships and will bring you back gold coins. </p><p>2. Correctly remember whether or not you saw a ship before. If you did see the ship before, remind yourself on which island you saw it. </p></div>","","","","","","","","","","","","","","","","","","",""
"","html-keyboard-response","17","151584","0.0-17.0","""event"",""trial"",""time""
""fullscreenenter"",""0"",""2140""
","
","
","""event"",""trial"",""time""
""fullscreenenter"",""0"",""2140""
","
","441.3999999994412","<div class='center'><p>Let's go over the important points again. Your job is to: </p><p>1. Pick the pirate who is best at robbing ships and will bring you back gold coins. </p><p>2. Correctly remember whether or not you saw a ship before. If you did see the ship before, remind yourself on which island you saw it. </p><p><b>[Press the space bar to continue]</b></p></div>","32","","","","","","","","","","","","","","","","","","","","","","","",""
"","do_welcome","18","155592","0.0-18.0","""event"",""trial"",""time""
""fullscreenenter"",""0"",""2140""
","
","
","""event"",""trial"",""time""
""fullscreenenter"",""0"",""2140""
","
","null","","","","","","","","null","","","","","","","","","","","","","","","","","",""
"","do_trial","19","159602","0.0-19.0-0.0","""event"",""trial"",""time""
""fullscreenenter"",""0"",""2140""
","
","
","""event"",""trial"",""time""
""fullscreenenter"",""0"",""2140""
","
","1443.3999999994412","","","","","","","","50","0,0,1","6","blank","230","null","0.746579821290221","0.09558769767463174","0.31269204208542023","0","","","","","","","","",""
"","html-keyboard-response","20","160605","0.0-19.0-1.0","""event"",""trial"",""time""
""fullscreenenter"",""0"",""2140""
","
","
","""event"",""trial"",""time""
""fullscreenenter"",""0"",""2140""
","
","null","<p></p>","null","","","","","","","","","","","","","","","","","","","","","","","",""
"","do_trial","21","165377","0.0-20.0-0.0","""event"",""trial"",""time""
""fullscreenenter"",""0"",""2140""
","
","
","""event"",""trial"",""time""
""fullscreenenter"",""0"",""2140""
","
","2210.2000000001863","","","","","","","","49","1,0,1","6","blank","231","null","0.716387398660104","0.13344327096578013","0.27930891633256444","1","","","","","","","","",""
"","html-keyboard-response","22","166379","0.0-20.0-1.0","""event"",""trial"",""time""
""fullscreenenter"",""0"",""2140""
","
","
","""event"",""trial"",""time""
""fullscreenenter"",""0"",""2140""
","
","null","<p></p>","null","","","","","","","","","","","","","","","","","","","","","","","",""
"","do_trial","23","169372","0.0-21.0-0.0","""event"",""trial"",""time""
""fullscreenenter"",""0"",""2140""
","
","
","""event"",""trial"",""time""
""fullscreenenter"",""0"",""2140""
","
","432.90000000037253","","","","","","","","49","0,0,0","6","blank","232","null","0.741870595678119","0.08031641608002564","0.5002272640817692","0","","","","","","","","",""
"","html-keyboard-response","24","170374","0.0-21.0-1.0","""event"",""trial"",""time""
""fullscreenenter"",""0"",""2140""
","
","
","""event"",""trial"",""time""
""fullscreenenter"",""0"",""2140""
","
","null","<p></p>","null","","","","","","","","","","","","","","","","","","","","","","","",""
"","do_trial","25","173184","0.0-22.0-0.0","""event"",""trial"",""time""
""fullscreenenter"",""0"",""2140""
","
","
","""event"",""trial"",""time""
""fullscreenenter"",""0"",""2140""
","
","251.09999999962747","","","","","","","","49","1,0,1","6","blank","233","null","0.7232909110888922","0.10404479159997504","0.3883698319869549","1","","","","","","","","",""
"","html-keyboard-response","26","174186","0.0-22.0-1.0","""event"",""trial"",""time""
""fullscreenenter"",""0"",""2140""
","
","
","""event"",""trial"",""time""
""fullscreenenter"",""0"",""2140""
","
","null","<p></p>","null","","","","","","","","","","","","","","","","","","","","","","","",""
"","do_trial","27","177083","0.0-23.0-0.0","""event"",""trial"",""time""
""fullscreenenter"",""0"",""2140""
","
","
","""event"",""trial"",""time""
""fullscreenenter"",""0"",""2140""
","
","338.69999999925494","","","","","","","","49","1,0,0","6","blank","234","null","0.6788259958773581","0.07734657360215795","0.2247852996792411","1","","","","","","","","",""
"","html-keyboard-response","28","178085","0.0-23.0-1.0","""event"",""trial"",""time""
""fullscreenenter"",""0"",""2140""
","
","
","""event"",""trial"",""time""
""fullscreenenter"",""0"",""2140""
","
","null","<p></p>","null","","","","","","","","","","","","","","","","","","","","","","","",""
"","do_trial","29","180948","0.0-24.0-0.0","""event"",""trial"",""time""
""fullscreenenter"",""0"",""2140""
","
","
","""event"",""trial"",""time""
""fullscreenenter"",""0"",""2140""
","
","304.40000000037253","","","","","","","","49","0,1,1","6","blank","235","null","0.7018135138412633","0.08885722343565056","0.39615141370396617","0","","","","","","","","",""
"","html-keyboard-response","30","181950","0.0-24.0-1.0","""event"",""trial"",""time""
""fullscreenenter"",""0"",""2140""
","
","
","""event"",""trial"",""time""
""fullscreenenter"",""0"",""2140""
","
","null","<p></p>","null","","","","","","","","","","","","","","","","","","","","","","","",""
"","do_trial","31","184781","0.0-25.0-0.0","""event"",""trial"",""time""
""fullscreenenter"",""0"",""2140""
","
","
","""event"",""trial"",""time""
""fullscreenenter"",""0"",""2140""
","
","271","","","","","","","","51","0,0,1","6","blank","236","null","0.5849479111777577","0.08483799618892786","0.39268369124753066","1","","","","","","","","",""
"","html-keyboard-response","32","185783","0.0-25.0-1.0","""event"",""trial"",""time""
""fullscreenenter"",""0"",""2140""
","
","
","""event"",""trial"",""time""
""fullscreenenter"",""0"",""2140""
","
","null","<p></p>","null","","","","","","","","","","","","","","","","","","","","","","","",""
"","do_trial","33","188902","0.0-26.0-0.0","""event"",""trial"",""time""
""fullscreenenter"",""0"",""2140""
","
","
","""event"",""trial"",""time""
""fullscreenenter"",""0"",""2140""
","
","560.4000000003725","","","","","","","","51","0,1,1","6","blank","237","null","0.6403180516526034","0.22734333828688416","0.48301861495717285","1","","","","","","","","",""
"","html-keyboard-response","34","189904","0.0-26.0-1.0","""event"",""trial"",""time""
""fullscreenenter"",""0"",""2140""
","
","
","""event"",""trial"",""time""
""fullscreenenter"",""0"",""2140""
","
","null","<p></p>","null","","","","","","","","","","","","","","","","","","","","","","","",""
"","do_trial","35","193003","0.0-27.0-0.0","""event"",""trial"",""time""
""fullscreenenter"",""0"",""2140""
","
","
","""event"",""trial"",""time""
""fullscreenenter"",""0"",""2140""
","
","539.2999999998137","","","","","","","","51","0,0,1","6","blank","238","null","0.559382052181083","0.17429704719734496","0.5100673616792559","1","","","","","","","","",""
"","html-keyboard-response","36","194006","0.0-27.0-1.0","""event"",""trial"",""time""
""fullscreenenter"",""0"",""2140""
","
","
","""event"",""trial"",""time""
""fullscreenenter"",""0"",""2140""
","
","null","<p></p>","null","","","","","","","","","","","","","","","","","","","","","","","",""
"","do_trial","37","197028","0.0-28.0-0.0","""event"",""trial"",""time""
""fullscreenenter"",""0"",""2140""
","
","
","""event"",""trial"",""time""
""fullscreenenter"",""0"",""2140""
","
","461.70000000018626","","","","","","","","51","1,0,1","6","blank","239","null","0.5360189238201147","0.08531585520401785","0.6011517577583143","1","","","","","","","","",""
"","html-keyboard-response","38","198030","0.0-28.0-1.0","""event"",""trial"",""time""
""fullscreenenter"",""0"",""2140""
","
","
","""event"",""trial"",""time""
""fullscreenenter"",""0"",""2140""
","
","null","<p></p>","null","","","","","","","","","","","","","","","","","","","","","","","",""
"","do_trial","39","201197","0.0-29.0-0.0","""event"",""trial"",""time""
""fullscreenenter"",""0"",""2140""
","
","
","""event"",""trial"",""time""
""fullscreenenter"",""0"",""2140""
","
","607.2000000001863","","","","","","","","51","0,0,1","6","blank","240","null","0.4352026254689661","0.06705769476697314","0.6216593608862845","1","","","","","","","","",""
"","html-keyboard-response","40","202200","0.0-29.0-1.0","""event"",""trial"",""time""
""fullscreenenter"",""0"",""2140""
","
","
","""event"",""trial"",""time""
""fullscreenenter"",""0"",""2140""
","
","null","<p></p>","null","","","","","","","","","","","","","","","","","","","","","","","",""
"","do_recog","41","208207","0.0-30.0-0.0","""event"",""trial"",""time""
""fullscreenenter"",""0"",""2140""
","
","
","""event"",""trial"",""time""
""fullscreenenter"",""0"",""2140""
","
","null","","","","","","","","null","","","","241","probe-248","","","","","0","[object Object]","null","null","0","","","",""
"","html-keyboard-response","42","209210","0.0-30.0-1.0","""event"",""trial"",""time""
""fullscreenenter"",""0"",""2140""
","
","
","""event"",""trial"",""time""
""fullscreenenter"",""0"",""2140""
","
","null","<p></p>","null","","","","","","","","","","","","","","","","","","","","","","","",""
"","do_trial","43","212818","0.0-31.0-0.0","""event"",""trial"",""time""
""fullscreenenter"",""0"",""2140""
","
","
","""event"",""trial"",""time""
""fullscreenenter"",""0"",""2140""
","
","1049","","","","","","","","50","0,0,0","6","blank","242","null","0.5107580534359741","0.1327788034246551","0.6711023954060775","0","","","","","","","","",""
"","html-keyboard-response","44","213820","0.0-31.0-1.0","""event"",""trial"",""time""
""fullscreenenter"",""0"",""2140""
","
","
","""event"",""trial"",""time""
""fullscreenenter"",""0"",""2140""
","
","null","<p></p>","null","","","","","","","","","","","","","","","","","","","","","","","",""
"","do_trial","45","216384","0.0-32.0-0.0","""event"",""trial"",""time""
""fullscreenenter"",""0"",""2140""
","
","
","""event"",""trial"",""time""
""fullscreenenter"",""0"",""2140""
","
","0.40000000037252903","","","","","","","","49","1,0,1","6","blank","243","null","0.41101012017083244","0.1822873584585589","0.62825783909012","1","","","","","","","","",""
"","html-keyboard-response","46","217386","0.0-32.0-1.0","""event"",""trial"",""time""
""fullscreenenter"",""0"",""2140""
","
","
","""event"",""trial"",""time""
""fullscreenenter"",""0"",""2140""
","
","null","<p></p>","null","","","","","","","","","","","","","","","","","","","","","","","",""
"","do_recog","47","220904","0.0-33.0-0.0","""event"",""trial"",""time""
""fullscreenenter"",""0"",""2140""
","
","
","""event"",""trial"",""time""
""fullscreenenter"",""0"",""2140""
","
","2010.2000000001863","","","","","","","","53","","","","244","probe-198","","","","","1","[object Object]","33","0","1","","","",""
"","html-keyboard-response","48","221906","0.0-33.0-1.0","""event"",""trial"",""time""
""fullscreenenter"",""0"",""2140""
","
","
","""event"",""trial"",""time""
""fullscreenenter"",""0"",""2140""
","
","null","<p></p>","null","","","","","","","","","","","","","","","","","","","","","","","",""
"","do_trial","49","225433","0.0-34.0-0.0","""event"",""trial"",""time""
""fullscreenenter"",""0"",""2140""
","
","
","""event"",""trial"",""time""
""fullscreenenter"",""0"",""2140""
","
","968.4000000003725","","","","","","","","50","0,0,1","6","blank","245","null","0.33558023411828813","0.30289904485064806","0.6439889423861967","0","","","","","","","","",""
"","html-keyboard-response","50","226435","0.0-34.0-1.0","""event"",""trial"",""time""
""fullscreenenter"",""0"",""2140""
","
","
","""event"",""trial"",""time""
""fullscreenenter"",""0"",""2140""
","
","null","<p></p>","null","","","","","","","","","","","","","","","","","","","","","","","",""
"","do_trial","51","229619","0.0-35.0-0.0","""event"",""trial"",""time""
""fullscreenenter"",""0"",""2140""
","
","
","""event"",""trial"",""time""
""fullscreenenter"",""0"",""2140""
","
","623.2000000001863","","","","","","","","49","1,1,1","6","blank","246","null","0.3230275967478806","0.29129432147612794","0.7601454933527738","1","","","","","","","","",""
"","html-keyboard-response","52","230620","0.0-35.0-1.0","""event"",""trial"",""time""
""fullscreenenter"",""0"",""2140""
","
","
","""event"",""trial"",""time""
""fullscreenenter"",""0"",""2140""
","
","null","<p></p>","null","","","","","","","","","","","","","","","","","","","","","","","",""
"","do_trial","53","233727","0.0-36.0-0.0","""event"",""trial"",""time""
""fullscreenenter"",""0"",""2140""
","
","
","""event"",""trial"",""time""
""fullscreenenter"",""0"",""2140""
","
","542.6000000005588","","","","","","","","49","0,0,1","6","blank","247","null","0.2336579939791567","0.30582185641326676","0.6661121830836697","0","","","","","","","","",""
"","html-keyboard-response","54","234729","0.0-36.0-1.0","""event"",""trial"",""time""
""fullscreenenter"",""0"",""2140""
","
","
","""event"",""trial"",""time""
""fullscreenenter"",""0"",""2140""
","
","null","<p></p>","null","","","","","","","","","","","","","","","","","","","","","","","",""
"","do_trial","55","237793","0.0-37.0-0.0","""event"",""trial"",""time""
""fullscreenenter"",""0"",""2140""
","
","
","""event"",""trial"",""time""
""fullscreenenter"",""0"",""2140""
","
","500.5","","","","","","","","51","0,0,1","6","blank","248","null","0.07338195015070989","0.2692824196607636","0.6402009273521182","1","","","","","","","","",""
"","html-keyboard-response","56","238794","0.0-37.0-1.0","""event"",""trial"",""time""
""fullscreenenter"",""0"",""2140""
","
","
","""event"",""trial"",""time""
""fullscreenenter"",""0"",""2140""
","
","null","<p></p>","null","","","","","","","","","","","","","","","","","","","","","","","",""
"","do_recog","57","242058","0.0-38.0-0.0","""event"",""trial"",""time""
""fullscreenenter"",""0"",""2140""
","
","
","""event"",""trial"",""time""
""fullscreenenter"",""0"",""2140""
","
","1755.5999999996275","","","","","","","","53","","","","249","probe-223","","","","","1","[object Object]","153","3","1","","","",""
"","html-keyboard-response","58","243060","0.0-38.0-1.0","""event"",""trial"",""time""
""fullscreenenter"",""0"",""2140""
","
","
","""event"",""trial"",""time""
""fullscreenenter"",""0"",""2140""
","
","null","<p></p>","null","","","","","","","","","","","","","","","","","","","","","","","",""
"","do_trial","59","246205","0.0-39.0-0.0","""event"",""trial"",""time""
""fullscreenenter"",""0"",""2140""
","
","
","""event"",""trial"",""time""
""fullscreenenter"",""0"",""2140""
","
","585.7000000001863","","","","","","","","50","0,1,1","6","blank","250","null","0.06570162005583699","0.3292696074130114","0.7169496194897836","1","","","","","","","","",""
"","html-keyboard-response","60","247207","0.0-39.0-1.0","""event"",""trial"",""time""
""fullscreenenter"",""0"",""2140""
","
","
","""event"",""trial"",""time""
""fullscreenenter"",""0"",""2140""
","
","null","<p></p>","null","","","","","","","","","","","","","","","","","","","","","","","",""
"","do_recog","61","250473","0.0-40.0-0.0","""event"",""trial"",""time""
""fullscreenenter"",""0"",""2140""
","
","
","""event"",""trial"",""time""
""fullscreenenter"",""0"",""2140""
","
","1758.7000000001863","","","","","","","","53","","","","251","probe-225","","","","","1","[object Object]","197","4","1","","","",""
"","html-keyboard-response","62","251475","0.0-40.0-1.0","""event"",""trial"",""time""
""fullscreenenter"",""0"",""2140""
","
","
","""event"",""trial"",""time""
""fullscreenenter"",""0"",""2140""
","
","null","<p></p>","null","","","","","","","","","","","","","","","","","","","","","","","",""
"","do_trial","63","255170","0.0-41.0-0.0","""event"",""trial"",""time""
""fullscreenenter"",""0"",""2140""
","
","
","""event"",""trial"",""time""
""fullscreenenter"",""0"",""2140""
","
","1130","","","","","","","","50","0,0,1","6","blank","252","null","0.17774973432804345","0.2619666058866551","0.7439524136466493","0","","","","","","","","",""
"","html-keyboard-response","64","256172","0.0-41.0-1.0","""event"",""trial"",""time""
""fullscreenenter"",""0"",""2140""
","
","
","""event"",""trial"",""time""
""fullscreenenter"",""0"",""2140""
","
","null","<p></p>","null","","","","","","","","","","","","","","","","","","","","","","","",""
"","do_trial","65","259063","0.0-42.0-0.0","""event"",""trial"",""time""
""fullscreenenter"",""0"",""2140""
","
","
","""event"",""trial"",""time""
""fullscreenenter"",""0"",""2140""
","
","331.79999999981374","","","","","","","","49","1,0,1","6","blank","253","null","0.07196449563504322","0.2748072141689654","0.7790005885302109","1","","","","","","","","",""
"","html-keyboard-response","66","260065","0.0-42.0-1.0","""event"",""trial"",""time""
""fullscreenenter"",""0"",""2140""
","
","
","""event"",""trial"",""time""
""fullscreenenter"",""0"",""2140""
","
","null","<p></p>","null","","","","","","","","","","","","","","","","","","","","","","","",""
"","do_trial","67","262761","0.0-43.0-0.0","""event"",""trial"",""time""
""fullscreenenter"",""0"",""2140""
","
","
","""event"",""trial"",""time""
""fullscreenenter"",""0"",""2140""
","
","138","","","","","","","","49","0,0,1","6","blank","254","null","0.08785808413759874","0.2901515376848905","0.7841161797137859","0","","","","","","","","",""
"","html-keyboard-response","68","263763","0.0-43.0-1.0","""event"",""trial"",""time""
""fullscreenenter"",""0"",""2140""
","
","
","""event"",""trial"",""time""
""fullscreenenter"",""0"",""2140""
","
","null","<p></p>","null","","","","","","","","","","","","","","","","","","","","","","","",""
"","do_trial","69","266756","0.0-44.0-0.0","""event"",""trial"",""time""
""fullscreenenter"",""0"",""2140""
","
","
","""event"",""trial"",""time""
""fullscreenenter"",""0"",""2140""
","
","433.70000000018626","","","","","","","","51","0,1,1","6","blank","255","null","0.06310892455632523","0.35723736357560915","0.6432722158661263","1","","","","","","","","",""
"","html-keyboard-response","70","267759","0.0-44.0-1.0","""event"",""trial"",""time""
""fullscreenenter"",""0"",""2140""
","
","
","""event"",""trial"",""time""
""fullscreenenter"",""0"",""2140""
","
","null","<p></p>","null","","","","","","","","","","","","","","","","","","","","","","","",""
"","do_trial","71","270893","0.0-45.0-0.0","""event"",""trial"",""time""
""fullscreenenter"",""0"",""2140""
","
","
","""event"",""trial"",""time""
""fullscreenenter"",""0"",""2140""
","
","574.5","","","","","","","","51","0,0,1","6","blank","256","null","0.09613470784538952","0.40717349935885994","0.7541056798769435","1","","","","","","","","",""
"","html-keyboard-response","72","271895","0.0-45.0-1.0","""event"",""trial"",""time""
""fullscreenenter"",""0"",""2140""
","
","
","""event"",""trial"",""time""
""fullscreenenter"",""0"",""2140""
","
","null","<p></p>","null","","","","","","","","","","","","","","","","","","","","","","","",""
"","do_recog","73","277902","0.0-46.0-0.0","""event"",""trial"",""time""
""fullscreenenter"",""0"",""2140""
","
","
","""event"",""trial"",""time""
""fullscreenenter"",""0"",""2140""
","
","null","","","","","","","","null","","","","257","probe-249","","","","","0","[object Object]","null","null","0","","","",""
"","html-keyboard-response","74","278904","0.0-46.0-1.0","""event"",""trial"",""time""
""fullscreenenter"",""0"",""2140""
","
","
","""event"",""trial"",""time""
""fullscreenenter"",""0"",""2140""
","
","null","<p></p>","null","","","","","","","","","","","","","","","","","","","","","","","",""
"","do_trial","75","282567","0.0-47.0-0.0","""event"",""trial"",""time""
""fullscreenenter"",""0"",""2140""
","
","
","""event"",""trial"",""time""
""fullscreenenter"",""0"",""2140""
","
","1103.2000000001863","","","","","","","","50","0,0,1","6","blank","258","null","0.103844573687491","0.2264833621684164","0.6739694574531322","0","","","","","","","","",""
"","html-keyboard-response","76","283569","0.0-47.0-1.0","""event"",""trial"",""time""
""fullscreenenter"",""0"",""2140""
","
","
","""event"",""trial"",""time""
""fullscreenenter"",""0"",""2140""
","
","null","<p></p>","null","","","","","","","","","","","","","","","","","","","","","","","",""
"","do_trial","77","286269","0.0-48.0-0.0","""event"",""trial"",""time""
""fullscreenenter"",""0"",""2140""
","
","
","""event"",""trial"",""time""
""fullscreenenter"",""0"",""2140""
","
","141","","","","","","","","49","0,1,1","6","blank","259","null","0.10000741089982591","0.34372468075408585","0.7250893103518194","0","","","","","","","","",""
"","html-keyboard-response","78","287271","0.0-48.0-1.0","""event"",""trial"",""time""
""fullscreenenter"",""0"",""2140""
","
","
","""event"",""trial"",""time""
""fullscreenenter"",""0"",""2140""
","
","null","<p></p>","null","","","","","","","","","","","","","","","","","","","","","","","",""
"","do_recog","79","290741","0.0-49.0-0.0","""event"",""trial"",""time""
""fullscreenenter"",""0"",""2140""
","
","
","""event"",""trial"",""time""
""fullscreenenter"",""0"",""2140""
","
","1964.7000000001863","","","","","","","","55","","","","260","probe-140","","","","","1","[object Object]","32","0","0","","","",""
"","html-keyboard-response","80","291743","0.0-49.0-1.0","""event"",""trial"",""time""
""fullscreenenter"",""0"",""2140""
","
","
","""event"",""trial"",""time""
""fullscreenenter"",""0"",""2140""
","
","null","<p></p>","null","","","","","","","","","","","","","","","","","","","","","","","",""
"","do_trial","81","295073","0.0-50.0-0.0","""event"",""trial"",""time""
""fullscreenenter"",""0"",""2140""
","
","
","""event"",""trial"",""time""
""fullscreenenter"",""0"",""2140""
","
","770.5999999996275","","","","","","","","50","0,0,1","6","blank","261","null","0.10666439016288864","0.19180428444243852","0.71020066285487","0","","","","","","","","",""
"","html-keyboard-response","82","296075","0.0-50.0-1.0","""event"",""trial"",""time""
""fullscreenenter"",""0"",""2140""
","
","
","""event"",""trial"",""time""
""fullscreenenter"",""0"",""2140""
","
","null","<p></p>","null","","","","","","","","","","","","","","","","","","","","","","","",""
"","do_trial","83","298902","0.0-51.0-0.0","""event"",""trial"",""time""
""fullscreenenter"",""0"",""2140""
","
","
","""event"",""trial"",""time""
""fullscreenenter"",""0"",""2140""
","
","267.40000000037253","","","","","","","","49","0,0,1","6","blank","262","null","0.07898238533100127","0.259514690807136","0.832134000607699","0","","","","","","","","",""
"","html-keyboard-response","84","299904","0.0-51.0-1.0","""event"",""trial"",""time""
""fullscreenenter"",""0"",""2140""
","
","
","""event"",""trial"",""time""
""fullscreenenter"",""0"",""2140""
","
","null","<p></p>","null","","","","","","","","","","","","","","","","","","","","","","","",""
"","do_trial","85","302994","0.0-52.0-0.0","""event"",""trial"",""time""
""fullscreenenter"",""0"",""2140""
","
","
","""event"",""trial"",""time""
""fullscreenenter"",""0"",""2140""
","
","531.3999999994412","","","","","","","","51","0,0,1","6","blank","263","null","0.054887847066201714","0.2916950348338102","0.7725366290229466","1","","","","","","","","",""
"","html-keyboard-response","86","303996","0.0-52.0-1.0","""event"",""trial"",""time""
""fullscreenenter"",""0"",""2140""
","
","
","""event"",""trial"",""time""
""fullscreenenter"",""0"",""2140""
","
","null","<p></p>","null","","","","","","","","","","","","","","","","","","","","","","","",""
"","do_trial","87","306885","0.0-53.0-0.0","""event"",""trial"",""time""
""fullscreenenter"",""0"",""2140""
","
","
","""event"",""trial"",""time""
""fullscreenenter"",""0"",""2140""
","
","329.29999999981374","","","","","","","","51","0,0,1","6","blank","264","null","0.09735399195939799","0.4028778174746428","0.7001206888413287","1","","","","","","","","",""
"","html-keyboard-response","88","307887","0.0-53.0-1.0","""event"",""trial"",""time""
""fullscreenenter"",""0"",""2140""
","
","
","""event"",""trial"",""time""
""fullscreenenter"",""0"",""2140""
","
","null","<p></p>","null","","","","","","","","","","","","","","","","","","","","","","","",""
"","do_recog","89","311046","0.0-54.0-0.0","""event"",""trial"",""time""
""fullscreenenter"",""0"",""2140""
","
","
","""event"",""trial"",""time""
""fullscreenenter"",""0"",""2140""
","
","1652.8999999994412","","","","","","","","53","","","","265","probe-24","","","","","1","[object Object]","38","0","1","","","",""
"","html-keyboard-response","90","312048","0.0-54.0-1.0","""event"",""trial"",""time""
""fullscreenenter"",""0"",""2140""
","
","
","""event"",""trial"",""time""
""fullscreenenter"",""0"",""2140""
","
","null","<p></p>","null","","","","","","","","","","","","","","","","","","","","","","","",""
"","do_trial","91","315143","0.0-55.0-0.0","""event"",""trial"",""time""
""fullscreenenter"",""0"",""2140""
","
","
","""event"",""trial"",""time""
""fullscreenenter"",""0"",""2140""
","
","534.5","","","","","","","","51","0,0,1","6","blank","266","null","0.22847693296632549","0.3774930507497743","0.786205736523188","1","","","","","","","","",""
"","html-keyboard-response","92","316145","0.0-55.0-1.0","""event"",""trial"",""time""
""fullscreenenter"",""0"",""2140""
","
","
","""event"",""trial"",""time""
""fullscreenenter"",""0"",""2140""
","
","null","<p></p>","null","","","","","","","","","","","","","","","","","","","","","","","",""
"","do_trial","93","319138","0.0-56.0-0.0","""event"",""trial"",""time""
""fullscreenenter"",""0"",""2140""
","
","
","""event"",""trial"",""time""
""fullscreenenter"",""0"",""2140""
","
","434.5","","","","","","","","51","0,0,1","6","blank","267","null","0.23520976107723152","0.2701521534855971","0.7501291728245701","1","","","","","","","","",""
"","html-keyboard-response","94","320140","0.0-56.0-1.0","""event"",""trial"",""time""
""fullscreenenter"",""0"",""2140""
","
","
","""event"",""trial"",""time""
""fullscreenenter"",""0"",""2140""
","
","null","<p></p>","null","","","","","","","","","","","","","","","","","","","","","","","",""
"","do_trial","95","323290","0.0-57.0-0.0","""event"",""trial"",""time""
""fullscreenenter"",""0"",""2140""
","
","
","""event"",""trial"",""time""
""fullscreenenter"",""0"",""2140""
","
","590.5","","","","","","","","51","0,0,1","6","blank","268","null","0.2198308239488795","0.22407767642227142","0.5494563097048248","1","","","","","","","","",""
"","html-keyboard-response","96","324292","0.0-57.0-1.0","""event"",""trial"",""time""
""fullscreenenter"",""0"",""2140""
","
","
","""event"",""trial"",""time""
""fullscreenenter"",""0"",""2140""
","
","null","<p></p>","null","","","","","","","","","","","","","","","","","","","","","","","",""
"","break","97","327662","0.0-58.0-0.0","""event"",""trial"",""time""
""fullscreenenter"",""0"",""2140""
","
","
","""event"",""trial"",""time""
""fullscreenenter"",""0"",""2140""
","
","3367.699999999255","<div class='center'><p>Time to take a quick break! You have 2 minutes to rest, but you can move on sooner if you'd like.</p><p> Press the <b>space bar</b> to continue.</p></div>","32","","","","","","","","","","","","","","","","","","","","","","","",""
"","do_trial","98","331242","0.0-58.0-1.0","""event"",""trial"",""time""
""fullscreenenter"",""0"",""2140""
","
","
","""event"",""trial"",""time""
""fullscreenenter"",""0"",""2140""
","
","1021.1000000005588","","","","","","","","51","0,1,0","6","blank","269","null","0.16880361975193173","0.29640166495452946","0.6702559621404054","0","","","","","","","","",""
"","html-keyboard-response","99","332244","0.0-58.0-2.0","""event"",""trial"",""time""
""fullscreenenter"",""0"",""2140""
","
","
","""event"",""trial"",""time""
""fullscreenenter"",""0"",""2140""
","
","null","<p></p>","null","","","","","","","","","","","","","","","","","","","","","","","",""
"","do_trial","100","335105","0.0-59.0-0.0","""event"",""trial"",""time""
""fullscreenenter"",""0"",""2140""
","
","
","""event"",""trial"",""time""
""fullscreenenter"",""0"",""2140""
","
","301.59999999962747","","","","","","","","50","0,0,1","6","blank","270","null","0.27154371287906776","0.18225960676582525","0.6843980941415425","0","","","","","","","","",""
"","html-keyboard-response","101","336107","0.0-59.0-1.0","""event"",""trial"",""time""
""fullscreenenter"",""0"",""2140""
","
","
","""event"",""trial"",""time""
""fullscreenenter"",""0"",""2140""
","
","null","<p></p>","null","","","","","","","","","","","","","","","","","","","","","","","",""
"","do_trial","102","338667","0.0-60.0-0.0","""event"",""trial"",""time""
""fullscreenenter"",""0"",""2140""
","
","
","""event"",""trial"",""time""
""fullscreenenter"",""0"",""2140""
","
","0.40000000037252903","","","","","","","","49","0,0,0","6","blank","271","null","0.18596682244371152","0.29998437559830604","0.5333185813156038","0","","","","","","","","",""
"","html-keyboard-response","103","339669","0.0-60.0-1.0","""event"",""trial"",""time""
""fullscreenenter"",""0"",""2140""
","
","
","""event"",""trial"",""time""
""fullscreenenter"",""0"",""2140""
","
","null","<p></p>","null","","","","","","","","","","","","","","","","","","","","","","","",""
"","do_recog","104","343452","0.0-61.0-0.0","""event"",""trial"",""time""
""fullscreenenter"",""0"",""2140""
","
","
","""event"",""trial"",""time""
""fullscreenenter"",""0"",""2140""
","
","2276.600000000559","","","","","","","","54","","","","272","probe-191","","","","","1","[object Object]","192","4","1","","","",""
"","html-keyboard-response","105","344454","0.0-61.0-1.0","""event"",""trial"",""time""
""fullscreenenter"",""0"",""2140""
","
","
","""event"",""trial"",""time""
""fullscreenenter"",""0"",""2140""
","
","null","<p></p>","null","","","","","","","","","","","","","","","","","","","","","","","",""
"","do_trial","106","348249","0.0-62.0-0.0","""event"",""trial"",""time""
""fullscreenenter"",""0"",""2140""
","
","
","""event"",""trial"",""time""
""fullscreenenter"",""0"",""2140""
","
","1235.5","","","","","","","","51","0,0,1","6","blank","273","null","0.10940537955439882","0.17745688207326704","0.5735582270767807","1","","","","","","","","",""
"","html-keyboard-response","107","349251","0.0-62.0-1.0","""event"",""trial"",""time""
""fullscreenenter"",""0"",""2140""
","
","
","""event"",""trial"",""time""
""fullscreenenter"",""0"",""2140""
","
","null","<p></p>","null","","","","","","","","","","","","","","","","","","","","","","","",""
"","do_recog","108","352954","0.0-63.0-0.0","""event"",""trial"",""time""
""fullscreenenter"",""0"",""2140""
","
","
","""event"",""trial"",""time""
""fullscreenenter"",""0"",""2140""
","
","2197","","","","","","","","55","","","","274","probe-234","","","","","0","[object Object]","null","null","1","","","",""
"","html-keyboard-response","109","353956","0.0-63.0-1.0","""event"",""trial"",""time""
""fullscreenenter"",""0"",""2140""
","
","
","""event"",""trial"",""time""
""fullscreenenter"",""0"",""2140""
","
","null","<p></p>","null","","","","","","","","","","","","","","","","","","","","","","","",""
"","do_trial","110","357495","0.0-64.0-0.0","""event"",""trial"",""time""
""fullscreenenter"",""0"",""2140""
","
","
","""event"",""trial"",""time""
""fullscreenenter"",""0"",""2140""
","
","978.5","","","","","","","","49","1,0,1","6","blank","275","null","0.23256145501638048","0.2060931159933042","0.5818238607971723","1","","","","","","","","",""
"","html-keyboard-response","111","358497","0.0-64.0-1.0","""event"",""trial"",""time""
""fullscreenenter"",""0"",""2140""
","
","
","""event"",""trial"",""time""
""fullscreenenter"",""0"",""2140""
","
","null","<p></p>","null","","","","","","","","","","","","","","","","","","","","","","","",""
"","do_recog","112","361830","0.0-65.0-0.0","""event"",""trial"",""time""
""fullscreenenter"",""0"",""2140""
","
","
","""event"",""trial"",""time""
""fullscreenenter"",""0"",""2140""
","
","1825.4000000003725","","","","","","","","56","","","","276","probe-103","","","","","1","[object Object]","75","1","0","","","",""
"","html-keyboard-response","113","362832","0.0-65.0-1.0","""event"",""trial"",""time""
""fullscreenenter"",""0"",""2140""
","
","
","""event"",""trial"",""time""
""fullscreenenter"",""0"",""2140""
","
","null","<p></p>","null","","","","","","","","","","","","","","","","","","","","","","","",""
"","do_trial","114","366288","0.0-66.0-0.0","""event"",""trial"",""time""
""fullscreenenter"",""0"",""2140""
","
","
","""event"",""trial"",""time""
""fullscreenenter"",""0"",""2140""
","
","897.4000000003725","","","","","","","","51","1,0,1","6","blank","277","null","0.19308095546442122","0.188598879095773","0.5573088267683413","1","","","","","","","","",""
"","html-keyboard-response","115","367290","0.0-66.0-1.0","""event"",""trial"",""time""
""fullscreenenter"",""0"",""2140""
","
","
","""event"",""trial"",""time""
""fullscreenenter"",""0"",""2140""
","
","null","<p></p>","null","","","","","","","","","","","","","","","","","","","","","","","",""
"","do_recog","116","370894","0.0-67.0-0.0","""event"",""trial"",""time""
""fullscreenenter"",""0"",""2140""
","
","
","""event"",""trial"",""time""
""fullscreenenter"",""0"",""2140""
","
","2097.2000000001863","","","","","","","","54","","","","278","probe-52","","","","","1","[object Object]","198","4","1","","","",""
"","html-keyboard-response","117","371896","0.0-67.0-1.0","""event"",""trial"",""time""
""fullscreenenter"",""0"",""2140""
","
","
","""event"",""trial"",""time""
""fullscreenenter"",""0"",""2140""
","
","null","<p></p>","null","","","","","","","","","","","","","","","","","","","","","","","",""
"","do_trial","118","375223","0.0-68.0-0.0","""event"",""trial"",""time""
""fullscreenenter"",""0"",""2140""
","
","
","""event"",""trial"",""time""
""fullscreenenter"",""0"",""2140""
","
","769.5","","","","","","","","49","1,0,0","6","blank","279","null","0.05255897120876879","0.1708345565117981","0.5652062061553711","1","","","","","","","","",""
"","html-keyboard-response","119","376225","0.0-68.0-1.0","""event"",""trial"",""time""
""fullscreenenter"",""0"",""2140""
","
","
","""event"",""trial"",""time""
""fullscreenenter"",""0"",""2140""
","
","null","<p></p>","null","","","","","","","","","","","","","","","","","","","","","","","",""
"","do_trial","120","379340","0.0-69.0-0.0","""event"",""trial"",""time""
""fullscreenenter"",""0"",""2140""
","
","
","""event"",""trial"",""time""
""fullscreenenter"",""0"",""2140""
","
","556.2000000001863","","","","","","","","49","0,0,0","6","blank","280","null","0.052842542760058765","0.10752437384589632","0.51233748580216","0","","","","","","","","",""
"","html-keyboard-response","121","380342","0.0-69.0-1.0","""event"",""trial"",""time""
""fullscreenenter"",""0"",""2140""
","
","
","""event"",""trial"",""time""
""fullscreenenter"",""0"",""2140""
","
","null","<p></p>","null","","","","","","","","","","","","","","","","","","","","","","","",""
"","do_trial","122","383391","0.0-70.0-0.0","""event"",""trial"",""time""
""fullscreenenter"",""0"",""2140""
","
","
","""event"",""trial"",""time""
""fullscreenenter"",""0"",""2140""
","
","489.90000000037253","","","","","","","","51","0,0,0","6","blank","281","null","0.05370426246119932","0.14166669490855238","0.6145651145024797","0","","","","","","","","",""
"","html-keyboard-response","123","384393","0.0-70.0-1.0","""event"",""trial"",""time""
""fullscreenenter"",""0"",""2140""
","
","
","""event"",""trial"",""time""
""fullscreenenter"",""0"",""2140""
","
","null","<p></p>","null","","","","","","","","","","","","","","","","","","","","","","","",""
"","do_trial","124","387379","0.0-71.0-0.0","""event"",""trial"",""time""
""fullscreenenter"",""0"",""2140""
","
","
","""event"",""trial"",""time""
""fullscreenenter"",""0"",""2140""
","
","426.09999999962747","","","","","","","","49","0,1,0","6","blank","282","null","0.14610418941321435","0.2733400685028144","0.6179746363874896","0","","","","","","","","",""
"","html-keyboard-response","125","388381","0.0-71.0-1.0","""event"",""trial"",""time""
""fullscreenenter"",""0"",""2140""
","
","
","""event"",""trial"",""time""
""fullscreenenter"",""0"",""2140""
","
","null","<p></p>","null","","","","","","","","","","","","","","","","","","","","","","","",""
"","do_recog","126","391718","0.0-72.0-0.0","""event"",""trial"",""time""
""fullscreenenter"",""0"",""2140""
","
","
","""event"",""trial"",""time""
""fullscreenenter"",""0"",""2140""
","
","1830.1000000005588","","","","","","","","55","","","","283","probe-108","","","","","1","[object Object]","154","3","0","","","",""
"","html-keyboard-response","127","392721","0.0-72.0-1.0","""event"",""trial"",""time""
""fullscreenenter"",""0"",""2140""
","
","
","""event"",""trial"",""time""
""fullscreenenter"",""0"",""2140""
","
","null","<p></p>","null","","","","","","","","","","","","","","","","","","","","","","","",""
"","do_trial","128","396186","0.0-73.0-0.0","""event"",""trial"",""time""
""fullscreenenter"",""0"",""2140""
","
","
","""event"",""trial"",""time""
""fullscreenenter"",""0"",""2140""
","
","906.9000000003725","","","","","","","","50","0,0,1","6","blank","284","null","0.11536261688790965","0.23326106058971466","0.6939087172328852","0","","","","","","","","",""
"","html-keyboard-response","129","397188","0.0-73.0-1.0","""event"",""trial"",""time""
""fullscreenenter"",""0"",""2140""
","
","
","""event"",""trial"",""time""
""fullscreenenter"",""0"",""2140""
","
","null","<p></p>","null","","","","","","","","","","","","","","","","","","","","","","","",""
"","do_recog","130","400368","0.0-74.0-0.0","""event"",""trial"",""time""
""fullscreenenter"",""0"",""2140""
","
","
","""event"",""trial"",""time""
""fullscreenenter"",""0"",""2140""
","
","1673.7999999998137","","","","","","","","54","","","","285","probe-162","","","","","1","[object Object]","113","2","1","","","",""
"","html-keyboard-response","131","401370","0.0-74.0-1.0","""event"",""trial"",""time""
""fullscreenenter"",""0"",""2140""
","
","
","""event"",""trial"",""time""
""fullscreenenter"",""0"",""2140""
","
","null","<p></p>","null","","","","","","","","","","","","","","","","","","","","","","","",""
"","do_trial","132","404941","0.0-75.0-0.0","""event"",""trial"",""time""
""fullscreenenter"",""0"",""2140""
","
","
","""event"",""trial"",""time""
""fullscreenenter"",""0"",""2140""
","
","1011.5999999996275","","","","","","","","49","0,1,1","6","blank","286","null","0.07232749554005447","0.43907469149558664","0.6363207135824352","0","","","","","","","","",""
"","html-keyboard-response","133","405943","0.0-75.0-1.0","""event"",""trial"",""time""
""fullscreenenter"",""0"",""2140""
","
","
","""event"",""trial"",""time""
""fullscreenenter"",""0"",""2140""
","
","null","<p></p>","null","","","","","","","","","","","","","","","","","","","","","","","",""
"","do_trial","134","408919","0.0-76.0-0.0","""event"",""trial"",""time""
""fullscreenenter"",""0"",""2140""
","
","
","""event"",""trial"",""time""
""fullscreenenter"",""0"",""2140""
","
","417","","","","","","","","51","0,0,1","6","blank","287","null","0.128390036295786","0.35448550928434325","0.5174740959367616","1","","","","","","","","",""
"","html-keyboard-response","135","409921","0.0-76.0-1.0","""event"",""trial"",""time""
""fullscreenenter"",""0"",""2140""
","
","
","""event"",""trial"",""time""
""fullscreenenter"",""0"",""2140""
","
","null","<p></p>","null","","","","","","","","","","","","","","","","","","","","","","","",""
"","do_trial","136","412969","0.0-77.0-0.0","""event"",""trial"",""time""
""fullscreenenter"",""0"",""2140""
","
","
","""event"",""trial"",""time""
""fullscreenenter"",""0"",""2140""
","
","487.1000000005588","","","","","","","","51","1,0,1","6","blank","288","null","0.18911849260092273","0.2194562560446903","0.595797585432456","1","","","","","","","","",""
"","html-keyboard-response","137","413971","0.0-77.0-1.0","""event"",""trial"",""time""
""fullscreenenter"",""0"",""2140""
","
","
","""event"",""trial"",""time""
""fullscreenenter"",""0"",""2140""
","
","null","<p></p>","null","","","","","","","","","","","","","","","","","","","","","","","",""
"","do_recog","138","417034","0.0-78.0-0.0","""event"",""trial"",""time""
""fullscreenenter"",""0"",""2140""
","
","
","""event"",""trial"",""time""
""fullscreenenter"",""0"",""2140""
","
","1556.1000000005588","","","","","","","","53","","","","289","probe-33","","","","","1","[object Object]","34","0","1","","","",""
"","html-keyboard-response","139","418036","0.0-78.0-1.0","""event"",""trial"",""time""
""fullscreenenter"",""0"",""2140""
","
","
","""event"",""trial"",""time""
""fullscreenenter"",""0"",""2140""
","
","null","<p></p>","null","","","","","","","","","","","","","","","","","","","","","","","",""
"","do_trial","140","421501","0.0-79.0-0.0","""event"",""trial"",""time""
""fullscreenenter"",""0"",""2140""
","
","
","""event"",""trial"",""time""
""fullscreenenter"",""0"",""2140""
","
","906.1999999992549","","","","","","","","50","0,1,1","6","blank","290","null","0.08310830912219315","0.30481523622757856","0.4568272161112054","1","","","","","","","","",""
"","html-keyboard-response","141","422503","0.0-79.0-1.0","""event"",""trial"",""time""
""fullscreenenter"",""0"",""2140""
","
","
","""event"",""trial"",""time""
""fullscreenenter"",""0"",""2140""
","
","null","<p></p>","null","","","","","","","","","","","","","","","","","","","","","","","",""
"","do_recog","142","425777","0.0-80.0-0.0","""event"",""trial"",""time""
""fullscreenenter"",""0"",""2140""
","
","
","""event"",""trial"",""time""
""fullscreenenter"",""0"",""2140""
","
","1767.5","","","","","","","","56","","","","291","probe-97","","","","","1","[object Object]","76","1","0","","","",""
"","html-keyboard-response","143","426779","0.0-80.0-1.0","""event"",""trial"",""time""
""fullscreenenter"",""0"",""2140""
","
","
","""event"",""trial"",""time""
""fullscreenenter"",""0"",""2140""
","
","null","<p></p>","null","","","","","","","","","","","","","","","","","","","","","","","",""
"","do_trial","144","430146","0.0-81.0-0.0","""event"",""trial"",""time""
""fullscreenenter"",""0"",""2140""
","
","
","""event"",""trial"",""time""
""fullscreenenter"",""0"",""2140""
","
","808.7999999998137","","","","","","","","49","0,1,0","6","blank","292","null","0.055410692901784686","0.2835384674316252","0.5801567240285792","0","","","","","","","","",""
"","html-keyboard-response","145","431148","0.0-81.0-1.0","""event"",""trial"",""time""
""fullscreenenter"",""0"",""2140""
","
","
","""event"",""trial"",""time""
""fullscreenenter"",""0"",""2140""
","
","null","<p></p>","null","","","","","","","","","","","","","","","","","","","","","","","",""
"","do_trial","146","433988","0.0-82.0-0.0","""event"",""trial"",""time""
""fullscreenenter"",""0"",""2140""
","
","
","""event"",""trial"",""time""
""fullscreenenter"",""0"",""2140""
","
","279.90000000037253","","","","","","","","50","0,1,1","6","blank","293","null","0.1780461831231234","0.3076754606364828","0.5878378679624903","1","","","","","","","","",""
"","html-keyboard-response","147","434990","0.0-82.0-1.0","""event"",""trial"",""time""
""fullscreenenter"",""0"",""2140""
","
","
","""event"",""trial"",""time""
""fullscreenenter"",""0"",""2140""
","
","null","<p></p>","null","","","","","","","","","","","","","","","","","","","","","","","",""
"","do_trial","148","437908","0.0-83.0-0.0","""event"",""trial"",""time""
""fullscreenenter"",""0"",""2140""
","
","
","""event"",""trial"",""time""
""fullscreenenter"",""0"",""2140""
","
","358.70000000018626","","","","","","","","50","0,0,1","6","blank","294","null","0.0607839992931501","0.35443038193300214","0.6813802286813959","0","","","","","","","","",""
"","html-keyboard-response","149","438910","0.0-83.0-1.0","""event"",""trial"",""time""
""fullscreenenter"",""0"",""2140""
","
","
","""event"",""trial"",""time""
""fullscreenenter"",""0"",""2140""
","
","null","<p></p>","null","","","","","","","","","","","","","","","","","","","","","","","",""
"","do_recog","150","441866","0.0-84.0-0.0","""event"",""trial"",""time""
""fullscreenenter"",""0"",""2140""
","
","
","""event"",""trial"",""time""
""fullscreenenter"",""0"",""2140""
","
","1448.5","","","","","","","","53","","","","295","probe-148","","","","","1","[object Object]","190","4","1","","","",""
"","html-keyboard-response","151","442867","0.0-84.0-1.0","""event"",""trial"",""time""
""fullscreenenter"",""0"",""2140""
","
","
","""event"",""trial"",""time""
""fullscreenenter"",""0"",""2140""
","
","null","<p></p>","null","","","","","","","","","","","","","","","","","","","","","","","",""
"","do_trial","152","445915","0.0-85.0-0.0","""event"",""trial"",""time""
""fullscreenenter"",""0"",""2140""
","
","
","""event"",""trial"",""time""
""fullscreenenter"",""0"",""2140""
","
","488.70000000018626","","","","","","","","51","0,1,1","6","blank","296","null","0.07019875172836208","0.3750748051676671","0.5936149914918991","1","","","","","","","","",""
"","html-keyboard-response","153","446917","0.0-85.0-1.0","""event"",""trial"",""time""
""fullscreenenter"",""0"",""2140""
","
","
","""event"",""trial"",""time""
""fullscreenenter"",""0"",""2140""
","
","null","<p></p>","null","","","","","","","","","","","","","","","","","","","","","","","",""
"","do_recog","154","449656","0.0-86.0-0.0","""event"",""trial"",""time""
""fullscreenenter"",""0"",""2140""
","
","
","""event"",""trial"",""time""
""fullscreenenter"",""0"",""2140""
","
","1232.8999999994412","","","","","","","","53","","","","297","probe-68","","","","","1","[object Object]","79","1","1","","","",""
"","html-keyboard-response","155","450658","0.0-86.0-1.0","""event"",""trial"",""time""
""fullscreenenter"",""0"",""2140""
","
","
","""event"",""trial"",""time""
""fullscreenenter"",""0"",""2140""
","
","null","<p></p>","null","","","","","","","","","","","","","","","","","","","","","","","",""
"","do_trial","156","454174","0.0-87.0-0.0","""event"",""trial"",""time""
""fullscreenenter"",""0"",""2140""
","
","
","""event"",""trial"",""time""
""fullscreenenter"",""0"",""2140""
","
","956.1000000005588","","","","","","","","51","0,1,1","6","blank","298","null","0.08036408087271633","0.3071638703978862","0.6387978676447882","1","","","","","","","","",""
"","html-keyboard-response","157","455176","0.0-87.0-1.0","""event"",""trial"",""time""
""fullscreenenter"",""0"",""2140""
","
","
","""event"",""trial"",""time""
""fullscreenenter"",""0"",""2140""
","
","null","<p></p>","null","","","","","","","","","","","","","","","","","","","","","","","",""
"","do_trial","158","458285","0.0-88.0-0.0","""event"",""trial"",""time""
""fullscreenenter"",""0"",""2140""
","
","
","""event"",""trial"",""time""
""fullscreenenter"",""0"",""2140""
","
","550.4000000003725","","","","","","","","51","0,1,0","6","blank","299","null","0.11350409881833433","0.48533392561883987","0.37861362500348367","0","","","","","","","","",""
"","html-keyboard-response","159","459287","0.0-88.0-1.0","""event"",""trial"",""time""
""fullscreenenter"",""0"",""2140""
","
","
","""event"",""trial"",""time""
""fullscreenenter"",""0"",""2140""
","
","null","<p></p>","null","","","","","","","","","","","","","","","","","","","","","","","",""
"","do_trial","160","462893","0.0-89.0-0.0","""event"",""trial"",""time""
""fullscreenenter"",""0"",""2140""
","
","
","""event"",""trial"",""time""
""fullscreenenter"",""0"",""2140""
","
","1047.2999999998137","","","","","","","","50","0,1,1","6","blank","300","null","0.2078888117970272","0.5511013262295064","0.3650496943963232","1","","","","","","","","",""
"","html-keyboard-response","161","463895","0.0-89.0-1.0","""event"",""trial"",""time""
""fullscreenenter"",""0"",""2140""
","
","
","""event"",""trial"",""time""
""fullscreenenter"",""0"",""2140""
","
","null","<p></p>","null","","","","","","","","","","","","","","","","","","","","","","","",""
"","do_trial","162","466814","0.0-90.0-0.0","""event"",""trial"",""time""
""fullscreenenter"",""0"",""2140""
","
","
","""event"",""trial"",""time""
""fullscreenenter"",""0"",""2140""
","
","359.69999999925494","","","","","","","","50","0,1,1","6","blank","301","null","0.10094891689598438","0.6845220233749367","0.3181626888492686","1","","","","","","","","",""
"","html-keyboard-response","163","467816","0.0-90.0-1.0","""event"",""trial"",""time""
""fullscreenenter"",""0"",""2140""
","
","
","""event"",""trial"",""time""
""fullscreenenter"",""0"",""2140""
","
","null","<p></p>","null","","","","","","","","","","","","","","","","","","","","","","","",""
"","do_trial","164","470542","0.0-91.0-0.0","""event"",""trial"",""time""
""fullscreenenter"",""0"",""2140""
","
","
","""event"",""trial"",""time""
""fullscreenenter"",""0"",""2140""
","
","166.09999999962747","","","","","","","","50","0,1,0","6","blank","302","null","0.11186253844989022","0.6540351069316936","0.17177139880255787","1","","","","","","","","",""
"","html-keyboard-response","165","471544","0.0-91.0-1.0","""event"",""trial"",""time""
""fullscreenenter"",""0"",""2140""
","
","
","""event"",""trial"",""time""
""fullscreenenter"",""0"",""2140""
","
","null","<p></p>","null","","","","","","","","","","","","","","","","","","","","","","","",""
"","do_recog","166","474891","0.0-92.0-0.0","""event"",""trial"",""time""
""fullscreenenter"",""0"",""2140""
","
","
","""event"",""trial"",""time""
""fullscreenenter"",""0"",""2140""
","
","1840.9000000003725","","","","","","","","54","","","","303","probe-61","","","","","1","[object Object]","114","2","1","","","",""
"","html-keyboard-response","167","475893","0.0-92.0-1.0","""event"",""trial"",""time""
""fullscreenenter"",""0"",""2140""
","
","
","""event"",""trial"",""time""
""fullscreenenter"",""0"",""2140""
","
","null","<p></p>","null","","","","","","","","","","","","","","","","","","","","","","","",""
"","do_trial","168","479220","0.0-93.0-0.0","""event"",""trial"",""time""
""fullscreenenter"",""0"",""2140""
","
","
","""event"",""trial"",""time""
""fullscreenenter"",""0"",""2140""
","
","767.1000000005588","","","","","","","","50","0,0,1","6","blank","304","null","0.15417596894097962","0.5938300649441864","0.08659585472435583","0","","","","","","","","",""
"","html-keyboard-response","169","480222","0.0-93.0-1.0","""event"",""trial"",""time""
""fullscreenenter"",""0"",""2140""
","
","
","""event"",""trial"",""time""
""fullscreenenter"",""0"",""2140""
","
","null","<p></p>","null","","","","","","","","","","","","","","","","","","","","","","","",""
"","do_trial","170","483210","0.0-94.0-0.0","""event"",""trial"",""time""
""fullscreenenter"",""0"",""2140""
","
","
","""event"",""trial"",""time""
""fullscreenenter"",""0"",""2140""
","
","430.3999999994412","","","","","","","","50","0,1,1","6","blank","305","null","0.09460859842153548","0.6260773336151159","0.16345689249858367","1","","","","","","","","",""
"","html-keyboard-response","171","484212","0.0-94.0-1.0","""event"",""trial"",""time""
""fullscreenenter"",""0"",""2140""
","
","
","""event"",""trial"",""time""
""fullscreenenter"",""0"",""2140""
","
","null","<p></p>","null","","","","","","","","","","","","","","","","","","","","","","","",""
"","do_trial","172","487459","0.0-95.0-0.0","""event"",""trial"",""time""
""fullscreenenter"",""0"",""2140""
","
","
","""event"",""trial"",""time""
""fullscreenenter"",""0"",""2140""
","
","685.9000000003725","","","","","","","","50","0,0,1","6","blank","306","null","0.29145195396303386","0.6166951153122971","0.3255513206842761","0","","","","","","","","",""
"","html-keyboard-response","173","488461","0.0-95.0-1.0","""event"",""trial"",""time""
""fullscreenenter"",""0"",""2140""
","
","
","""event"",""trial"",""time""
""fullscreenenter"",""0"",""2140""
","
","null","<p></p>","null","","","","","","","","","","","","","","","","","","","","","","","",""
"","do_trial","174","492113","0.0-96.0-0.0","""event"",""trial"",""time""
""fullscreenenter"",""0"",""2140""
","
","
","""event"",""trial"",""time""
""fullscreenenter"",""0"",""2140""
","
","1092.7999999998137","","","","","","","","49","0,1,1","6","blank","307","null","0.27787991920400784","0.6349787109855664","0.3848259765921083","0","","","","","","","","",""
"","html-keyboard-response","175","493115","0.0-96.0-1.0","""event"",""trial"",""time""
""fullscreenenter"",""0"",""2140""
","
","
","""event"",""trial"",""time""
""fullscreenenter"",""0"",""2140""
","
","null","<p></p>","null","","","","","","","","","","","","","","","","","","","","","","","",""
"","do_recog","176","497074","0.0-97.0-0.0","""event"",""trial"",""time""
""fullscreenenter"",""0"",""2140""
","
","
","""event"",""trial"",""time""
""fullscreenenter"",""0"",""2140""
","
","2452","","","","","","","","53","","","","308","probe-98","","","","","1","[object Object]","158","3","1","","","",""
"","html-keyboard-response","177","498075","0.0-97.0-1.0","""event"",""trial"",""time""
""fullscreenenter"",""0"",""2140""
","
","
","""event"",""trial"",""time""
""fullscreenenter"",""0"",""2140""
","
","null","<p></p>","null","","","","","","","","","","","","","","","","","","","","","","","",""
"","break","178","501714","0.0-98.0-0.0","""event"",""trial"",""time""
""fullscreenenter"",""0"",""2140""
","
","
","""event"",""trial"",""time""
""fullscreenenter"",""0"",""2140""
","
","3637.0999999996275","<div class='center'><p>Time to take a quick break! You have 2 minutes to rest, but you can move on sooner if you'd like.</p><p> Press the <b>space bar</b> to continue.</p></div>","32","","","","","","","","","","","","","","","","","","","","","","","",""
"","do_trial","179","505260","0.0-98.0-1.0","""event"",""trial"",""time""
""fullscreenenter"",""0"",""2140""
","
","
","""event"",""trial"",""time""
""fullscreenenter"",""0"",""2140""
","
","986.1000000005588","","","","","","","","51","0,1,0","6","blank","309","null","0.20917787173021263","0.6100881072559308","0.3694086606687876","0","","","","","","","","",""
"","html-keyboard-response","180","506262","0.0-98.0-2.0","""event"",""trial"",""time""
""fullscreenenter"",""0"",""2140""
","
","
","""event"",""trial"",""time""
""fullscreenenter"",""0"",""2140""
","
","null","<p></p>","null","","","","","","","","","","","","","","","","","","","","","","","",""
"","do_trial","181","509174","0.0-99.0-0.0","""event"",""trial"",""time""
""fullscreenenter"",""0"",""2140""
","
","
","""event"",""trial"",""time""
""fullscreenenter"",""0"",""2140""
","
","353.90000000037253","","","","","","","","51","0,1,0","6","blank","310","null","0.15274043558934475","0.6228097913092195","0.41175382688176904","0","","","","","","","","",""
"","html-keyboard-response","182","510176","0.0-99.0-1.0","""event"",""trial"",""time""
""fullscreenenter"",""0"",""2140""
","
","
","""event"",""trial"",""time""
""fullscreenenter"",""0"",""2140""
","
","null","<p></p>","null","","","","","","","","","","","","","","","","","","","","","","","",""
"","do_trial","183","512954","0.0-100.0-0.0","""event"",""trial"",""time""
""fullscreenenter"",""0"",""2140""
","
","
","""event"",""trial"",""time""
""fullscreenenter"",""0"",""2140""
","
","219.1000000005588","","","","","","","","49","0,1,1","6","blank","311","null","0.08289328885812984","0.6725427167370437","0.4800994492032761","0","","","","","","","","",""
"","html-keyboard-response","184","513956","0.0-100.0-1.0","""event"",""trial"",""time""
""fullscreenenter"",""0"",""2140""
","
","
","""event"",""trial"",""time""
""fullscreenenter"",""0"",""2140""
","
","null","<p></p>","null","","","","","","","","","","","","","","","","","","","","","","","",""
"","do_recog","185","517573","0.0-101.0-0.0","""event"",""trial"",""time""
""fullscreenenter"",""0"",""2140""
","
","
","""event"",""trial"",""time""
""fullscreenenter"",""0"",""2140""
","
","2110.9000000003725","","","","","","","","53","","","","312","probe-205","","","","","1","[object Object]","37","0","1","","","",""
"","html-keyboard-response","186","518576","0.0-101.0-1.0","""event"",""trial"",""time""
""fullscreenenter"",""0"",""2140""
","
","
","""event"",""trial"",""time""
""fullscreenenter"",""0"",""2140""
","
","null","<p></p>","null","","","","","","","","","","","","","","","","","","","","","","","",""
"","do_trial","187","521640","0.0-102.0-0.0","""event"",""trial"",""time""
""fullscreenenter"",""0"",""2140""
","
","
","""event"",""trial"",""time""
""fullscreenenter"",""0"",""2140""
","
","504.59999999962747","","","","","","","","49","0,0,1","6","blank","313","null","0.09488988174563598","0.6197201158241576","0.3826675066982205","0","","","","","","","","",""
"","html-keyboard-response","188","522642","0.0-102.0-1.0","""event"",""trial"",""time""
""fullscreenenter"",""0"",""2140""
","
","
","""event"",""trial"",""time""
""fullscreenenter"",""0"",""2140""
","
","null","<p></p>","null","","","","","","","","","","","","","","","","","","","","","","","",""
"","do_trial","189","525567","0.0-103.0-0.0","""event"",""trial"",""time""
""fullscreenenter"",""0"",""2140""
","
","
","""event"",""trial"",""time""
""fullscreenenter"",""0"",""2140""
","
","364.19999999925494","","","","","","","","50","0,0,0","6","blank","314","null","0.0562362535327553","0.5183010164034718","0.4687018880026638","0","","","","","","","","",""
"","html-keyboard-response","190","526569","0.0-103.0-1.0","""event"",""trial"",""time""
""fullscreenenter"",""0"",""2140""
","
","
","""event"",""trial"",""time""
""fullscreenenter"",""0"",""2140""
","
","null","<p></p>","null","","","","","","","","","","","","","","","","","","","","","","","",""
"","do_trial","191","529495","0.0-104.0-0.0","""event"",""trial"",""time""
""fullscreenenter"",""0"",""2140""
","
","
","""event"",""trial"",""time""
""fullscreenenter"",""0"",""2140""
","
","365.59999999962747","","","","","","","","50","1,0,0","6","blank","315","null","0.10846261071759701","0.6540587640558294","0.45182927098699743","0","","","","","","","","",""
"","html-keyboard-response","192","530497","0.0-104.0-1.0","""event"",""trial"",""time""
""fullscreenenter"",""0"",""2140""
","
","
","""event"",""trial"",""time""
""fullscreenenter"",""0"",""2140""
","
","null","<p></p>","null","","","","","","","","","","","","","","","","","","","","","","","",""
"","do_trial","193","533390","0.0-105.0-0.0","""event"",""trial"",""time""
""fullscreenenter"",""0"",""2140""
","
","
","""event"",""trial"",""time""
""fullscreenenter"",""0"",""2140""
","
","334.40000000037253","","","","","","","","51","0,1,1","6","blank","316","null","0.10304314562267904","0.7815247090196198","0.4371549164365869","1","","","","","","","","",""
"","html-keyboard-response","194","534393","0.0-105.0-1.0","""event"",""trial"",""time""
""fullscreenenter"",""0"",""2140""
","
","
","""event"",""trial"",""time""
""fullscreenenter"",""0"",""2140""
","
","null","<p></p>","null","","","","","","","","","","","","","","","","","","","","","","","",""
"","do_trial","195","537344","0.0-106.0-0.0","""event"",""trial"",""time""
""fullscreenenter"",""0"",""2140""
","
","
","""event"",""trial"",""time""
""fullscreenenter"",""0"",""2140""
","
","391","","","","","","","","51","0,1,0","6","blank","317","null","0.13368605396075933","0.7440404869436382","0.22407106205770383","0","","","","","","","","",""
"","html-keyboard-response","196","538347","0.0-106.0-1.0","""event"",""trial"",""time""
""fullscreenenter"",""0"",""2140""
","
","
","""event"",""trial"",""time""
""fullscreenenter"",""0"",""2140""
","
","null","<p></p>","null","","","","","","","","","","","","","","","","","","","","","","","",""
"","do_trial","197","541255","0.0-107.0-0.0","""event"",""trial"",""time""
""fullscreenenter"",""0"",""2140""
","
","
","""event"",""trial"",""time""
""fullscreenenter"",""0"",""2140""
","
","349.5","","","","","","","","50","1,1,0","6","blank","318","null","0.10549750913047891","0.6632948402775973","0.35333266775183153","1","","","","","","","","",""
"","html-keyboard-response","198","542258","0.0-107.0-1.0","""event"",""trial"",""time""
""fullscreenenter"",""0"",""2140""
","
","
","""event"",""trial"",""time""
""fullscreenenter"",""0"",""2140""
","
","null","<p></p>","null","","","","","","","","","","","","","","","","","","","","","","","",""
"","do_trial","199","545115","0.0-108.0-0.0","""event"",""trial"",""time""
""fullscreenenter"",""0"",""2140""
","
","
","""event"",""trial"",""time""
""fullscreenenter"",""0"",""2140""
","
","297.1000000005588","","","","","","","","50","1,1,0","6","blank","319","null","0.177877809634569","0.7557213265746652","0.06923189870041373","1","","","","","","","","",""
"","html-keyboard-response","200","546117","0.0-108.0-1.0","""event"",""trial"",""time""
""fullscreenenter"",""0"",""2140""
","
","
","""event"",""trial"",""time""
""fullscreenenter"",""0"",""2140""
","
","null","<p></p>","null","","","","","","","","","","","","","","","","","","","","","","","",""
"","do_recog","201","549140","0.0-109.0-0.0","""event"",""trial"",""time""
""fullscreenenter"",""0"",""2140""
","
","
","""event"",""trial"",""time""
""fullscreenenter"",""0"",""2140""
","
","1516.1000000005588","","","","","","","","53","","","","320","probe-151","","","","","1","[object Object]","111","2","1","","","",""
"","html-keyboard-response","202","550142","0.0-109.0-1.0","""event"",""trial"",""time""
""fullscreenenter"",""0"",""2140""
","
","
","""event"",""trial"",""time""
""fullscreenenter"",""0"",""2140""
","
","null","<p></p>","null","","","","","","","","","","","","","","","","","","","","","","","",""
"","do_trial","203","553452","0.0-110.0-0.0","""event"",""trial"",""time""
""fullscreenenter"",""0"",""2140""
","
","
","""event"",""trial"",""time""
""fullscreenenter"",""0"",""2140""
","
","749.0999999996275","","","","","","","","50","0,0,1","6","blank","321","null","0.12922408369575117","0.7661368982943942","0.1087394968085756","0","","","","","","","","",""
"","html-keyboard-response","204","554454","0.0-110.0-1.0","""event"",""trial"",""time""
""fullscreenenter"",""0"",""2140""
","
","
","""event"",""trial"",""time""
""fullscreenenter"",""0"",""2140""
","
","null","<p></p>","null","","","","","","","","","","","","","","","","","","","","","","","",""
"","do_trial","205","557494","0.0-111.0-0.0","""event"",""trial"",""time""
""fullscreenenter"",""0"",""2140""
","
","
","""event"",""trial"",""time""
""fullscreenenter"",""0"",""2140""
","
","479.90000000037253","","","","","","","","49","0,1,0","6","blank","322","null","0.11196971839397189","0.6268349585246923","0.36783221783249237","0","","","","","","","","",""
"","html-keyboard-response","206","558495","0.0-111.0-1.0","""event"",""trial"",""time""
""fullscreenenter"",""0"",""2140""
","
","
","""event"",""trial"",""time""
""fullscreenenter"",""0"",""2140""
","
","null","<p></p>","null","","","","","","","","","","","","","","","","","","","","","","","",""
"","do_trial","207","561399","0.0-112.0-0.0","""event"",""trial"",""time""
""fullscreenenter"",""0"",""2140""
","
","
","""event"",""trial"",""time""
""fullscreenenter"",""0"",""2140""
","
","344.20000000018626","","","","","","","","50","0,1,0","6","blank","323","null","0.14175785459801668","0.7474421270425315","0.35687566755052474","1","","","","","","","","",""
"","html-keyboard-response","208","562401","0.0-112.0-1.0","""event"",""trial"",""time""
""fullscreenenter"",""0"",""2140""
","
","
","""event"",""trial"",""time""
""fullscreenenter"",""0"",""2140""
","
","null","<p></p>","null","","","","","","","","","","","","","","","","","","","","","","","",""
"","do_trial","209","565268","0.0-113.0-0.0","""event"",""trial"",""time""
""fullscreenenter"",""0"",""2140""
","
","
","""event"",""trial"",""time""
""fullscreenenter"",""0"",""2140""
","
","307","","","","","","","","50","1,0,0","6","blank","324","null","0.15791153617583514","0.6861599305653341","0.2106625728200476","0","","","","","","","","",""
"","html-keyboard-response","210","566270","0.0-113.0-1.0","""event"",""trial"",""time""
""fullscreenenter"",""0"",""2140""
","
","
","""event"",""trial"",""time""
""fullscreenenter"",""0"",""2140""
","
","null","<p></p>","null","","","","","","","","","","","","","","","","","","","","","","","",""
"","do_trial","211","569553","0.0-114.0-0.0","""event"",""trial"",""time""
""fullscreenenter"",""0"",""2140""
","
","
","""event"",""trial"",""time""
""fullscreenenter"",""0"",""2140""
","
","724.2999999998137","","","","","","","","50","0,1,0","6","blank","325","null","0.15613317523564862","0.639507842088855","0.2887847910679582","1","","","","","","","","",""
"","html-keyboard-response","212","570555","0.0-114.0-1.0","""event"",""trial"",""time""
""fullscreenenter"",""0"",""2140""
","
","
","""event"",""trial"",""time""
""fullscreenenter"",""0"",""2140""
","
","null","<p></p>","null","","","","","","","","","","","","","","","","","","","","","","","",""
"","do_trial","213","574301","0.0-115.0-0.0","""event"",""trial"",""time""
""fullscreenenter"",""0"",""2140""
","
","
","""event"",""trial"",""time""
""fullscreenenter"",""0"",""2140""
","
","1185.7000000001863","","","","","","","","50","0,0,0","6","blank","326","null","0.053689274602263276","0.472651704710442","0.3583693418149607","0","","","","","","","","",""
"","html-keyboard-response","214","575303","0.0-115.0-1.0","""event"",""trial"",""time""
""fullscreenenter"",""0"",""2140""
","
","
","""event"",""trial"",""time""
""fullscreenenter"",""0"",""2140""
","
","null","<p></p>","null","","","","","","","","","","","","","","","","","","","","","","","",""
"","do_recog","215","578972","0.0-116.0-0.0","""event"",""trial"",""time""
""fullscreenenter"",""0"",""2140""
","
","
","""event"",""trial"",""time""
""fullscreenenter"",""0"",""2140""
","
","2162.5","","","","","","","","54","","","","327","probe-179","","","","","1","[object Object]","36","0","1","","","",""
"","html-keyboard-response","216","579974","0.0-116.0-1.0","""event"",""trial"",""time""
""fullscreenenter"",""0"",""2140""
","
","
","""event"",""trial"",""time""
""fullscreenenter"",""0"",""2140""
","
","null","<p></p>","null","","","","","","","","","","","","","","","","","","","","","","","",""
"","do_trial","217","583009","0.0-117.0-0.0","""event"",""trial"",""time""
""fullscreenenter"",""0"",""2140""
","
","
","""event"",""trial"",""time""
""fullscreenenter"",""0"",""2140""
","
","477","","","","","","","","49","0,1,0","6","blank","328","null","0.07581190202832197","0.6131757496095128","0.45828435394245054","0","","","","","","","","",""
"","html-keyboard-response","218","584011","0.0-117.0-1.0","""event"",""trial"",""time""
""fullscreenenter"",""0"",""2140""
","
","
","""event"",""trial"",""time""
""fullscreenenter"",""0"",""2140""
","
","null","<p></p>","null","","","","","","","","","","","","","","","","","","","","","","","",""
"","do_trial","219","586940","0.0-118.0-0.0","""event"",""trial"",""time""
""fullscreenenter"",""0"",""2140""
","
","
","""event"",""trial"",""time""
""fullscreenenter"",""0"",""2140""
","
","369.5","","","","","","","","50","0,1,0","6","blank","329","null","0.13474505929901814","0.5256043248882692","0.3647481492345013","1","","","","","","","","",""
"","html-keyboard-response","220","587942","0.0-118.0-1.0","""event"",""trial"",""time""
""fullscreenenter"",""0"",""2140""
","
","
","""event"",""trial"",""time""
""fullscreenenter"",""0"",""2140""
","
","null","<p></p>","null","","","","","","","","","","","","","","","","","","","","","","","",""
"","do_recog","221","591310","0.0-119.0-0.0","""event"",""trial"",""time""
""fullscreenenter"",""0"",""2140""
","
","
","""event"",""trial"",""time""
""fullscreenenter"",""0"",""2140""
","
","1860.3999999994412","","","","","","","","53","","","","330","probe-188","","","","","1","[object Object]","195","4","1","","","",""
"","html-keyboard-response","222","592312","0.0-119.0-1.0","""event"",""trial"",""time""
""fullscreenenter"",""0"",""2140""
","
","
","""event"",""trial"",""time""
""fullscreenenter"",""0"",""2140""
","
","null","<p></p>","null","","","","","","","","","","","","","","","","","","","","","","","",""
"","do_trial","223","595571","0.0-120.0-0.0","""event"",""trial"",""time""
""fullscreenenter"",""0"",""2140""
","
","
","""event"",""trial"",""time""
""fullscreenenter"",""0"",""2140""
","
","699.7999999998137","","","","","","","","50","0,1,1","6","blank","331","null","0.13112138472297857","0.5541723866279993","0.40675731115124775","1","","","","","","","","",""
"","html-keyboard-response","224","596573","0.0-120.0-1.0","""event"",""trial"",""time""
""fullscreenenter"",""0"",""2140""
","
","
","""event"",""trial"",""time""
""fullscreenenter"",""0"",""2140""
","
","null","<p></p>","null","","","","","","","","","","","","","","","","","","","","","","","",""
"","do_recog","225","600212","0.0-121.0-0.0","""event"",""trial"",""time""
""fullscreenenter"",""0"",""2140""
","
","
","""event"",""trial"",""time""
""fullscreenenter"",""0"",""2140""
","
","2133.0999999996275","","","","","","","","54","","","","332","probe-229","","","","","1","[object Object]","191","4","1","","","",""
"","html-keyboard-response","226","601215","0.0-121.0-1.0","""event"",""trial"",""time""
""fullscreenenter"",""0"",""2140""
","
","
","""event"",""trial"",""time""
""fullscreenenter"",""0"",""2140""
","
","null","<p></p>","null","","","","","","","","","","","","","","","","","","","","","","","",""
"","do_trial","227","604569","0.0-122.0-0.0","""event"",""trial"",""time""
""fullscreenenter"",""0"",""2140""
","
","
","""event"",""trial"",""time""
""fullscreenenter"",""0"",""2140""
","
","796","","","","","","","","50","0,1,1","6","blank","333","null","0.15295176096851526","0.6148759397853729","0.23094595147070798","1","","","","","","","","",""
"","html-keyboard-response","228","605572","0.0-122.0-1.0","""event"",""trial"",""time""
""fullscreenenter"",""0"",""2140""
","
","
","""event"",""trial"",""time""
""fullscreenenter"",""0"",""2140""
","
","null","<p></p>","null","","","","","","","","","","","","","","","","","","","","","","","",""
"","do_recog","229","608490","0.0-123.0-0.0","""event"",""trial"",""time""
""fullscreenenter"",""0"",""2140""
","
","
","""event"",""trial"",""time""
""fullscreenenter"",""0"",""2140""
","
","1410.7000000001863","","","","","","","","53","","","","334","probe-85","","","","","1","[object Object]","118","2","1","","","",""
"","html-keyboard-response","230","609492","0.0-123.0-1.0","""event"",""trial"",""time""
""fullscreenenter"",""0"",""2140""
","
","
","""event"",""trial"",""time""
""fullscreenenter"",""0"",""2140""
","
","null","<p></p>","null","","","","","","","","","","","","","","","","","","","","","","","",""
"","do_trial","231","612920","0.0-124.0-0.0","""event"",""trial"",""time""
""fullscreenenter"",""0"",""2140""
","
","
","""event"",""trial"",""time""
""fullscreenenter"",""0"",""2140""
","
","868.7000000001863","","","","","","","","50","0,0,0","6","blank","335","null","0.2229564993463722","0.6206715997065041","0.25012012904779096","0","","","","","","","","",""
"","html-keyboard-response","232","613922","0.0-124.0-1.0","""event"",""trial"",""time""
""fullscreenenter"",""0"",""2140""
","
","
","""event"",""trial"",""time""
""fullscreenenter"",""0"",""2140""
","
","null","<p></p>","null","","","","","","","","","","","","","","","","","","","","","","","",""
"","do_recog","233","616687","0.0-125.0-0.0","""event"",""trial"",""time""
""fullscreenenter"",""0"",""2140""
","
","
","""event"",""trial"",""time""
""fullscreenenter"",""0"",""2140""
","
","1257.7000000001863","","","","","","","","53","","","","336","probe-107","","","","","1","[object Object]","196","4","1","","","",""
"","html-keyboard-response","234","617689","0.0-125.0-1.0","""event"",""trial"",""time""
""fullscreenenter"",""0"",""2140""
","
","
","""event"",""trial"",""time""
""fullscreenenter"",""0"",""2140""
","
","null","<p></p>","null","","","","","","","","","","","","","","","","","","","","","","","",""
"","do_trial","235","620973","0.0-126.0-0.0","""event"",""trial"",""time""
""fullscreenenter"",""0"",""2140""
","
","
","""event"",""trial"",""time""
""fullscreenenter"",""0"",""2140""
","
","723.9000000003725","","","","","","","","49","0,0,0","6","blank","337","null","0.20916773904110197","0.6090109694357003","0.3307215879642192","0","","","","","","","","",""
"","html-keyboard-response","236","621975","0.0-126.0-1.0","""event"",""trial"",""time""
""fullscreenenter"",""0"",""2140""
","
","
","""event"",""trial"",""time""
""fullscreenenter"",""0"",""2140""
","
","null","<p></p>","null","","","","","","","","","","","","","","","","","","","","","","","",""
"","do_trial","237","624940","0.0-127.0-0.0","""event"",""trial"",""time""
""fullscreenenter"",""0"",""2140""
","
","
","""event"",""trial"",""time""
""fullscreenenter"",""0"",""2140""
","
","405.5","","","","","","","","50","0,1,0","6","blank","338","null","0.24295686085214652","0.6215380915861819","0.20614590947216088","1","","","","","","","","",""
"","html-keyboard-response","238","625942","0.0-127.0-1.0","""event"",""trial"",""time""
""fullscreenenter"",""0"",""2140""
","
","
","""event"",""trial"",""time""
""fullscreenenter"",""0"",""2140""
","
","null","<p></p>","null","","","","","","","","","","","","","","","","","","","","","","","",""
"","do_trial","239","628895","0.0-128.0-0.0","""event"",""trial"",""time""
""fullscreenenter"",""0"",""2140""
","
","
","""event"",""trial"",""time""
""fullscreenenter"",""0"",""2140""
","
","392.19999999925494","","","","","","","","51","0,0,0","6","blank","339","null","0.09471164122419735","0.507231184673718","0.24354950007848455","0","","","","","","","","",""
"","html-keyboard-response","240","629897","0.0-128.0-1.0","""event"",""trial"",""time""
""fullscreenenter"",""0"",""2140""
","
","
","""event"",""trial"",""time""
""fullscreenenter"",""0"",""2140""
","
","null","<p></p>","null","","","","","","","","","","","","","","","","","","","","","","","",""
"","do_trial","241","634339","0.0-129.0-0.0","""event"",""trial"",""time""
""fullscreenenter"",""0"",""2140""
","
","
","""event"",""trial"",""time""
""fullscreenenter"",""0"",""2140""
","
","1881.0999999996275","","","","","","","","51","0,0,0","6","blank","340","null","0.07404263845670873","0.5626843884881344","0.2181546117678466","0","","","","","","","","",""
"","html-keyboard-response","242","635341","0.0-129.0-1.0","""event"",""trial"",""time""
""fullscreenenter"",""0"",""2140""
","
","
","""event"",""trial"",""time""
""fullscreenenter"",""0"",""2140""
","
","null","<p></p>","null","","","","","","","","","","","","","","","","","","","","","","","",""
"","do_trial","243","638349","0.0-130.0-0.0","""event"",""trial"",""time""
""fullscreenenter"",""0"",""2140""
","
","
","""event"",""trial"",""time""
""fullscreenenter"",""0"",""2140""
","
","447.59999999962747","","","","","","","","51","0,0,1","6","blank","341","null","0.07806786640503192","0.5411643553551041","0.26101672586598224","1","","","","","","","","",""
"","html-keyboard-response","244","639352","0.0-130.0-1.0","""event"",""trial"",""time""
""fullscreenenter"",""0"",""2140""
","
","
","""event"",""trial"",""time""
""fullscreenenter"",""0"",""2140""
","
","null","<p></p>","null","","","","","","","","","","","","","","","","","","","","","","","",""
"","do_recog","245","642922","0.0-131.0-0.0","""event"",""trial"",""time""
""fullscreenenter"",""0"",""2140""
","
","
","""event"",""trial"",""time""
""fullscreenenter"",""0"",""2140""
","
","2063.7999999998137","","","","","","","","54","","","","342","probe-252","","","","","0","[object Object]","null","null","0","","","",""
"","html-keyboard-response","246","643925","0.0-131.0-1.0","""event"",""trial"",""time""
""fullscreenenter"",""0"",""2140""
","
","
","""event"",""trial"",""time""
""fullscreenenter"",""0"",""2140""
","
","null","<p></p>","null","","","","","","","","","","","","","","","","","","","","","","","",""
"","do_trial","247","647186","0.0-132.0-0.0","""event"",""trial"",""time""
""fullscreenenter"",""0"",""2140""
","
","
","""event"",""trial"",""time""
""fullscreenenter"",""0"",""2140""
","
","702","","","","","","","","50","0,0,0","6","blank","343","null","0.06839535920979128","0.6350194287139432","0.17629256436814772","0","","","","","","","","",""
"","html-keyboard-response","248","648188","0.0-132.0-1.0","""event"",""trial"",""time""
""fullscreenenter"",""0"",""2140""
","
","
","""event"",""trial"",""time""
""fullscreenenter"",""0"",""2140""
","
","null","<p></p>","null","","","","","","","","","","","","","","","","","","","","","","","",""
"","do_trial","249","650844","0.0-133.0-0.0","""event"",""trial"",""time""
""fullscreenenter"",""0"",""2140""
","
","
","""event"",""trial"",""time""
""fullscreenenter"",""0"",""2140""
","
","95.20000000018626","","","","","","","","51","1,1,0","6","blank","344","null","0.15178340999969958","0.6903054887268096","0.19406632365176293","0","","","","","","","","",""
"","html-keyboard-response","250","651846","0.0-133.0-1.0","""event"",""trial"",""time""
""fullscreenenter"",""0"",""2140""
","
","
","""event"",""trial"",""time""
""fullscreenenter"",""0"",""2140""
","
","null","<p></p>","null","","","","","","","","","","","","","","","","","","","","","","","",""
"","do_trial","251","654766","0.0-134.0-0.0","""event"",""trial"",""time""
""fullscreenenter"",""0"",""2140""
","
","
","""event"",""trial"",""time""
""fullscreenenter"",""0"",""2140""
","
","361.30000000074506","","","","","","","","51","0,1,0","6","blank","345","null","0.10138331773478658","0.9336643947031281","0.14570688837628334","0","","","","","","","","",""
"","html-keyboard-response","252","655769","0.0-134.0-1.0","""event"",""trial"",""time""
""fullscreenenter"",""0"",""2140""
","
","
","""event"",""trial"",""time""
""fullscreenenter"",""0"",""2140""
","
","null","<p></p>","null","","","","","","","","","","","","","","","","","","","","","","","",""
"","do_trial","253","658494","0.0-135.0-0.0","""event"",""trial"",""time""
""fullscreenenter"",""0"",""2140""
","
","
","""event"",""trial"",""time""
""fullscreenenter"",""0"",""2140""
","
","165.3999999994412","","","","","","","","50","1,1,0","6","blank","346","null","0.10809908403520206","0.8064845375357271","0.3489193850398434","1","","","","","","","","",""
"","html-keyboard-response","254","659496","0.0-135.0-1.0","""event"",""trial"",""time""
""fullscreenenter"",""0"",""2140""
","
","
","""event"",""trial"",""time""
""fullscreenenter"",""0"",""2140""
","
","null","<p></p>","null","","","","","","","","","","","","","","","","","","","","","","","",""
"","do_trial","255","662405","0.0-136.0-0.0","""event"",""trial"",""time""
""fullscreenenter"",""0"",""2140""
","
","
","""event"",""trial"",""time""
""fullscreenenter"",""0"",""2140""
","
","348.90000000037253","","","","","","","","50","0,1,1","6","blank","347","null","0.07411146073512882","0.7009133149541161","0.2755161218060427","1","","","","","","","","",""
"","html-keyboard-response","256","663407","0.0-136.0-1.0","""event"",""trial"",""time""
""fullscreenenter"",""0"",""2140""
","
","
","""event"",""trial"",""time""
""fullscreenenter"",""0"",""2140""
","
","null","<p></p>","null","","","","","","","","","","","","","","","","","","","","","","","",""
"","do_trial","257","666159","0.0-137.0-0.0","""event"",""trial"",""time""
""fullscreenenter"",""0"",""2140""
","
","
","""event"",""trial"",""time""
""fullscreenenter"",""0"",""2140""
","
","191.5","","","","","","","","50","0,0,0","6","blank","348","null","0.21184613747269418","0.6350002441272724","0.36896031854720013","0","","","","","","","","",""
"","html-keyboard-response","258","667161","0.0-137.0-1.0","""event"",""trial"",""time""
""fullscreenenter"",""0"",""2140""
","
","
","""event"",""trial"",""time""
""fullscreenenter"",""0"",""2140""
","
","null","<p></p>","null","","","","","","","","","","","","","","","","","","","","","","","",""
"","break","259","670303","0.0-138.0-0.0","""event"",""trial"",""time""
""fullscreenenter"",""0"",""2140""
","
","
","""event"",""trial"",""time""
""fullscreenenter"",""0"",""2140""
","
","3140.7000000001863","<div class='center'><p>Time to take a quick break! You have 2 minutes to rest, but you can move on sooner if you'd like.</p><p> Press the <b>space bar</b> to continue.</p></div>","32","","","","","","","","","","","","","","","","","","","","","","","",""
"","do_recog","260","674224","0.0-138.0-1.0","""event"",""trial"",""time""
""fullscreenenter"",""0"",""2140""
","
","
","""event"",""trial"",""time""
""fullscreenenter"",""0"",""2140""
","
","2415.2000000001863","","","","","","","","54","","","","349","probe-95","","","","","1","[object Object]","35","0","1","","","",""
"","html-keyboard-response","261","675227","0.0-138.0-2.0","""event"",""trial"",""time""
""fullscreenenter"",""0"",""2140""
","
","
","""event"",""trial"",""time""
""fullscreenenter"",""0"",""2140""
","
","null","<p></p>","null","","","","","","","","","","","","","","","","","","","","","","","",""
"","do_trial","262","681288","0.0-139.0-0.0","""event"",""trial"",""time""
""fullscreenenter"",""0"",""2140""
","
","
","""event"",""trial"",""time""
""fullscreenenter"",""0"",""2140""
","
","null","","","","","","","","null","0,1,0","6","blank","350","null","0.3419989751189935","0.557757116169177","0.3096468244566495","","","","","","","","","",""
"","html-keyboard-response","263","682290","0.0-139.0-1.0","""event"",""trial"",""time""
""fullscreenenter"",""0"",""2140""
","
","
","""event"",""trial"",""time""
""fullscreenenter"",""0"",""2140""
","
","null","<p></p>","null","","","","","","","","","","","","","","","","","","","","","","","",""
"","do_trial","264","685785","0.0-140.0-0.0","""event"",""trial"",""time""
""fullscreenenter"",""0"",""2140""
","
","
","""event"",""trial"",""time""
""fullscreenenter"",""0"",""2140""
","
","936.6000000005588","","","","","","","","50","0,0,0","6","blank","351","null","0.48757195835022143","0.47739488897716975","0.17328965533223784","0","","","","","","","","",""
"","html-keyboard-response","265","686787","0.0-140.0-1.0","""event"",""trial"",""time""
""fullscreenenter"",""0"",""2140""
","
","
","""event"",""trial"",""time""
""fullscreenenter"",""0"",""2140""
","
","null","<p></p>","null","","","","","","","","","","","","","","","","","","","","","","","",""
"","do_trial","266","689796","0.0-141.0-0.0","""event"",""trial"",""time""
""fullscreenenter"",""0"",""2140""
","
","
","""event"",""trial"",""time""
""fullscreenenter"",""0"",""2140""
","
","449.70000000018626","","","","","","","","50","0,0,0","6","blank","352","null","0.6686587377689568","0.4353421562411356","0.1141185379148602","0","","","","","","","","",""
"","html-keyboard-response","267","690799","0.0-141.0-1.0","""event"",""trial"",""time""
""fullscreenenter"",""0"",""2140""
","
","
","""event"",""trial"",""time""
""fullscreenenter"",""0"",""2140""
","
","null","<p></p>","null","","","","","","","","","","","","","","","","","","","","","","","",""
"","do_trial","268","693697","0.0-142.0-0.0","""event"",""trial"",""time""
""fullscreenenter"",""0"",""2140""
","
","
","""event"",""trial"",""time""
""fullscreenenter"",""0"",""2140""
","
","337","","","","","","","","50","1,0,0","6","blank","353","null","0.6431522991191281","0.3023579224490452","0.1659268506224964","0","","","","","","","","",""
"","html-keyboard-response","269","694699","0.0-142.0-1.0","""event"",""trial"",""time""
""fullscreenenter"",""0"",""2140""
","
","
","""event"",""trial"",""time""
""fullscreenenter"",""0"",""2140""
","
","null","<p></p>","null","","","","","","","","","","","","","","","","","","","","","","","",""
"","do_trial","270","697701","0.0-143.0-0.0","""event"",""trial"",""time""
""fullscreenenter"",""0"",""2140""
","
","
","""event"",""trial"",""time""
""fullscreenenter"",""0"",""2140""
","
","443.20000000018626","","","","","","","","49","1,0,0","6","blank","354","null","0.6898122385027782","0.27597571366329443","0.07527291739527649","1","","","","","","","","",""
"","html-keyboard-response","271","698702","0.0-143.0-1.0","""event"",""trial"",""time""
""fullscreenenter"",""0"",""2140""
","
","
","""event"",""trial"",""time""
""fullscreenenter"",""0"",""2140""
","
","null","<p></p>","null","","","","","","","","","","","","","","","","","","","","","","","",""
"","do_trial","272","701555","0.0-144.0-0.0","""event"",""trial"",""time""
""fullscreenenter"",""0"",""2140""
","
","
","""event"",""trial"",""time""
""fullscreenenter"",""0"",""2140""
","
","294.8999999994412","","","","","","","","49","0,0,0","6","blank","355","null","0.8196567495465124","0.1458788804105477","0.08898883163788825","0","","","","","","","","",""
"","html-keyboard-response","273","702557","0.0-144.0-1.0","""event"",""trial"",""time""
""fullscreenenter"",""0"",""2140""
","
","
","""event"",""trial"",""time""
""fullscreenenter"",""0"",""2140""
","
","null","<p></p>","null","","","","","","","","","","","","","","","","","","","","","","","",""
"","do_recog","274","705518","0.0-145.0-0.0","""event"",""trial"",""time""
""fullscreenenter"",""0"",""2140""
","
","
","""event"",""trial"",""time""
""fullscreenenter"",""0"",""2140""
","
","1453.5999999996275","","","","","","","","53","","","","356","probe-241","","","","","0","[object Object]","null","null","0","","","",""
"","html-keyboard-response","275","706520","0.0-145.0-1.0","""event"",""trial"",""time""
""fullscreenenter"",""0"",""2140""
","
","
","""event"",""trial"",""time""
""fullscreenenter"",""0"",""2140""
","
","null","<p></p>","null","","","","","","","","","","","","","","","","","","","","","","","",""
"","do_trial","276","709990","0.0-146.0-0.0","""event"",""trial"",""time""
""fullscreenenter"",""0"",""2140""
","
","
","""event"",""trial"",""time""
""fullscreenenter"",""0"",""2140""
","
","909.9000000003725","","","","","","","","51","0,0,0","6","blank","357","null","0.6791993935571595","0.2848859133410836","0.05255983116461213","0","","","","","","","","",""
"","html-keyboard-response","277","710992","0.0-146.0-1.0","""event"",""trial"",""time""
""fullscreenenter"",""0"",""2140""
","
","
","""event"",""trial"",""time""
""fullscreenenter"",""0"",""2140""
","
