"success","trial_type","trial_index","time_elapsed","internal_node_id","interactions","blur_events","focus_events","fullscreenenter_events","fullscreenexit_events","rt","stimulus","key_press","subject_id","participant_id","age","gender","prompt","response","choice_outcomes","context_n","context_img_id","trial_n","probe_img_id","pR_red","pR_white","pR_black","outcome","is_valid","image_to_show","probed_trial","probed_context","correct","probe","probed_trial_n","probed_context_n","context_im"
"true","fullscreen","0","4507","0.0-0.0","""event"",""trial"",""time""
""fullscreenenter"",""0"",""3585""
","
","
","""event"",""trial"",""time""
""fullscreenenter"",""0"",""3585""
","
","","","","","","","","","","","","","","","","","","","","","","","","","","",""
"","pavlovia","1","4511","0.0-1.0","""event"",""trial"",""time""
""fullscreenenter"",""0"",""3585""
","
","
","""event"",""trial"",""time""
""fullscreenenter"",""0"",""3585""
","
","","","","","","","","","","","","","","","","","","","","","","","","","","",""
"","welc_back","2","14329","0.0-2.0","""event"",""trial"",""time""
""fullscreenenter"",""0"",""3585""
","
","
","""event"",""trial"",""time""
""fullscreenenter"",""0"",""3585""
","
","null","run_exp/static/audio/clip_29_welcome_back.m4a","null","1475","1724","25","Male","<div class='center'><p>Welcome to day 2!</p><p> Yesterday, you were the head captain of a pirate ship. You asked your fellow pirates to rob other ships of their gold across six different islands.</p></div>","","","","","","","","","","","","","","","","","","",""
"","html-keyboard-response","3","16265","0.0-3.0","""event"",""trial"",""time""
""fullscreenenter"",""0"",""3585""
","
","
","""event"",""trial"",""time""
""fullscreenenter"",""0"",""3585""
","
","1934.800000011921","<div class='center'><p>Welcome to day 2!</p><p> Yesterday, you were the head captain of a pirate ship. You asked your fellow pirates to rob other ships of their gold across six different islands.</p><p><b>[Press the space bar to continue]</b></p></div>","32","","","","","","","","","","","","","","","","","","","","","","","",""
"","day_1_summary_goal","4","33509","0.0-4.0","""event"",""trial"",""time""
""fullscreenenter"",""0"",""3585""
","
","
","""event"",""trial"",""time""
""fullscreenenter"",""0"",""3585""
","
","null","run_exp/static/audio/clip_30_goal_of_game.m4a","null","","","","","<div class='center'><p>Today, like yesterday, you get to pick which pirate you want to rob the next ship.</p><p>If the pirate is successful in robbing a ship, you get gold coins that look like this: </p><p><img src='run_exp/static/images/tutorial/reward.png' height='150'></p><p> If they were not successful in robbing the ship, then you will get no gold coins and you'll see a big red x like this: </p><p><img src='run_exp/static/images/tutorial/reward_no.png' height='150'></p></div>","","","","","","","","","","","","","","","","","","",""
"","html-keyboard-response","5","34183","0.0-5.0","""event"",""trial"",""time""
""fullscreenenter"",""0"",""3585""
","
","
","""event"",""trial"",""time""
""fullscreenenter"",""0"",""3585""
","
","672.5999999642372","<div class='center'><p>Today, like yesterday, you get to pick which pirate you want to rob the next ship.</p><p>If the pirate is successful in robbing a ship, you get gold coins that look like this: </p><p><img src='run_exp/static/images/tutorial/reward.png' height='150'></p><p> If they were not successful in robbing the ship, then you will get no gold coins and you'll see a big red x like this: </p><p><img src='run_exp/static/images/tutorial/reward_no.png' height='150'></p><p><b>[Press the space bar to continue]</b></p></div>","32","","","","","","","","","","","","","","","","","","","","","","","",""
"","day_1_summary_pick","6","48904","0.0-6.0","""event"",""trial"",""time""
""fullscreenenter"",""0"",""3585""
","
","
","""event"",""trial"",""time""
""fullscreenenter"",""0"",""3585""
","
","null","run_exp/static/audio/clip_31_how_to_pick_a_pirate.m4a","null","","","","","<div class='center'><p>Also, just like yesterday, you will use the 1,2,3 keys on your keyboard to pick a pirate. Press '1' to choose red beard, '2' to choose white beard, and '3' to choose black beard . You only have 3 seconds to pick a pirate, so please make a choice quickly!</p></div>","","","","","","","","","","","","","","","","","","",""
"","html-keyboard-response","7","50458","0.0-7.0","""event"",""trial"",""time""
""fullscreenenter"",""0"",""3585""
","
","
","""event"",""trial"",""time""
""fullscreenenter"",""0"",""3585""
","
","1553.6000000238419","<div class='center'><p>Also, just like yesterday, you will use the 1,2,3 keys on your keyboard to pick a pirate. Press '1' to choose red beard, '2' to choose white beard, and '3' to choose black beard . You only have 3 seconds to pick a pirate, so please make a choice quickly!</p><p><b>[Press the space bar to continue]</b></p></div>","32","","","","","","","","","","","","","","","","","","","","","","","",""
"","test_phase_begin","8","80879","0.0-8.0","""event"",""trial"",""time""
""fullscreenenter"",""0"",""3585""
","
","
","""event"",""trial"",""time""
""fullscreenenter"",""0"",""3585""
","
","null","run_exp/static/audio/clip_32_final_place.m4a","null","","","","","<div class='center'><p>You’ve arrived at the final island of your journey! Unfortunately, it’s very foggy out, so you won’t be able to see it in the distance like the other islands you've visited.</p><p>You’ll still be deciding which pirate you want to rob a ship like before. However, because of the fog, you also won’t be able to see the ship.</p><p>This means you do not have to remember the ships you rob on this island.</p><p>Unlike yesterday, you won't be visiting multiple islands today. You will stay on this island for the entire game. This game will last ~30 minutes.</p></div>","","","","","","","","","","","","","","","","","","",""
"","html-keyboard-response","9","91263","0.0-9.0","""event"",""trial"",""time""
""fullscreenenter"",""0"",""3585""
","
","
","""event"",""trial"",""time""
""fullscreenenter"",""0"",""3585""
","
","10383.199999988079","<div class='center'><p>You’ve arrived at the final island of your journey! Unfortunately, it’s very foggy out, so you won’t be able to see it in the distance like the other islands you've visited.</p><p>You’ll still be deciding which pirate you want to rob a ship like before. However, because of the fog, you also won’t be able to see the ship.</p><p>This means you do not have to remember the ships you rob on this island.</p><p>Unlike yesterday, you won't be visiting multiple islands today. You will stay on this island for the entire game. This game will last ~30 minutes.</p><p><b>[Press the space bar to continue]</b></p></div>","32","","","","","","","","","","","","","","","","","","","","","","","",""
"","explain_probe_1","10","99004","0.0-10.0","""event"",""trial"",""time""
""fullscreenenter"",""0"",""3585""
","
","
","""event"",""trial"",""time""
""fullscreenenter"",""0"",""3585""
","
","null","run_exp/static/audio/clip_33_recognition_1.m4a","null","","","","","<div class='center'><p> Sometimes you’ll be shown a ship, and you will be asked if you saw this ship on a past island.</p><p> Here is an example of what you will see.</p><p><img src='run_exp/static/images/tutorial/example_recog_trial.png' height='500'></p></div>","","","","","","","","","","","","","","","","","","",""
"","html-keyboard-response","11","100118","0.0-11.0","""event"",""trial"",""time""
""fullscreenenter"",""0"",""3585""
","
","
","""event"",""trial"",""time""
""fullscreenenter"",""0"",""3585""
","
","1112.8999999761581","<div class='center'><p> Sometimes you’ll be shown a ship, and you will be asked if you saw this ship on a past island.</p><p> Here is an example of what you will see.</p><p><img src='run_exp/static/images/tutorial/example_recog_trial.png' height='500'></p><p><b>[Press the space bar to continue]</b></p></div>","32","","","","","","","","","","","","","","","","","","","","","","","",""
"","explain_probe_2","12","121853","0.0-12.0","""event"",""trial"",""time""
""fullscreenenter"",""0"",""3585""
","
","
","""event"",""trial"",""time""
""fullscreenenter"",""0"",""3585""
","
","null","run_exp/static/audio/clip_34_recognition_2.m4a","null","","","","","<div class='center'><p> You will press the 5, 6, 7, 8 keys on your keyboard to respond.</p><p>If you are sure you saw the ship, press <b>5</b> on your keyboard.</p><p> If you think you saw it before but aren't sure, then press <b>6</b>.</p><p> If you think you have <b>not</b> seen it before but aren't sure, then press <b>7</b>.</p><p> If you are sure you did <b>not</b> see the ship before, then press <b>8</b>.</p><p><img src='run_exp/static/images/tutorial/example_recog_trial.png' height='500'></p></div>","","","","","","","","","","","","","","","","","","",""
"","html-keyboard-response","13","122547","0.0-13.0","""event"",""trial"",""time""
""fullscreenenter"",""0"",""3585""
","
","
","""event"",""trial"",""time""
""fullscreenenter"",""0"",""3585""
","
","692.6000000238419","<div class='center'><p> You will press the 5, 6, 7, 8 keys on your keyboard to respond.</p><p>If you are sure you saw the ship, press <b>5</b> on your keyboard.</p><p> If you think you saw it before but aren't sure, then press <b>6</b>.</p><p> If you think you have <b>not</b> seen it before but aren't sure, then press <b>7</b>.</p><p> If you are sure you did <b>not</b> see the ship before, then press <b>8</b>.</p><p><img src='run_exp/static/images/tutorial/example_recog_trial.png' height='500'></p><p><b>[Press the space bar to continue]</b></p></div>","32","","","","","","","","","","","","","","","","","","","","","","","",""
"","explain_outcome","14","139779","0.0-14.0","""event"",""trial"",""time""
""fullscreenenter"",""0"",""3585""
","
","
","""event"",""trial"",""time""
""fullscreenenter"",""0"",""3585""
","
","null","run_exp/static/audio/clip_35_recognition_3.m4a","null","","","","","<div class='center'><p> If you remember correctly, then you’ll get a gold coin like this: </p><p><img src='run_exp/static/images/tutorial/reward_small.png' height='200'></p><p>If you do not remember correctly, then you'll see a red x like this: </p><p><img src='run_exp/static/images/tutorial/reward_no.png' height='200'></p><p>Importantly, when you are shown a ship, take the time to remind yourself which island you saw it on. This will help you in the next part of the study.</p></div>","","","","","","","","","","","","","","","","","","",""
"","html-keyboard-response","15","140597","0.0-15.0","""event"",""trial"",""time""
""fullscreenenter"",""0"",""3585""
","
","
","""event"",""trial"",""time""
""fullscreenenter"",""0"",""3585""
","
","816.9000000357628","<div class='center'><p> If you remember correctly, then you’ll get a gold coin like this: </p><p><img src='run_exp/static/images/tutorial/reward_small.png' height='200'></p><p>If you do not remember correctly, then you'll see a red x like this: </p><p><img src='run_exp/static/images/tutorial/reward_no.png' height='200'></p><p>Importantly, when you are shown a ship, take the time to remind yourself which island you saw it on. This will help you in the next part of the study.</p><p><b>[Press the space bar to continue]</b></p></div>","32","","","","","","","","","","","","","","","","","","","","","","","",""
"","begin_test_phase","16","156428","0.0-16.0","""event"",""trial"",""time""
""fullscreenenter"",""0"",""3585""
","
","
","""event"",""trial"",""time""
""fullscreenenter"",""0"",""3585""
","
","null","run_exp/static/audio/clip_36_begin_final.m4a","null","","","","","<div class='center'><p>Let's go over the important points again. Your job is to: </p><p>1. Pick the pirate who is best at robbing ships and will bring you back gold coins. </p><p>2. Correctly remember whether or not you saw a ship before. If you did see the ship before, remind yourself on which island you saw it. </p></div>","","","","","","","","","","","","","","","","","","",""
"","html-keyboard-response","17","157099","0.0-17.0","""event"",""trial"",""time""
""fullscreenenter"",""0"",""3585""
","
","
","""event"",""trial"",""time""
""fullscreenenter"",""0"",""3585""
","
","617.1999999880791","<div class='center'><p>Let's go over the important points again. Your job is to: </p><p>1. Pick the pirate who is best at robbing ships and will bring you back gold coins. </p><p>2. Correctly remember whether or not you saw a ship before. If you did see the ship before, remind yourself on which island you saw it. </p><p><b>[Press the space bar to continue]</b></p></div>","32","","","","","","","","","","","","","","","","","","","","","","","",""
"","do_welcome","18","161108","0.0-18.0","""event"",""trial"",""time""
""fullscreenenter"",""0"",""3585""
","
","
","""event"",""trial"",""time""
""fullscreenenter"",""0"",""3585""
","
","null","","","","","","","","null","","","","","","","","","","","","","","","","","",""
"","do_trial","19","165235","0.0-19.0-0.0","""event"",""trial"",""time""
""fullscreenenter"",""0"",""3585""
","
","
","""event"",""trial"",""time""
""fullscreenenter"",""0"",""3585""
","
","1584.6000000238419","","","","","","","","49","1,1,0","6","blank","230","null","0.7700846801633339","0.25817104187848167","0.23297009555633708","1","","","","","","","","",""
"","html-keyboard-response","20","166239","0.0-19.0-1.0","""event"",""trial"",""time""
""fullscreenenter"",""0"",""3585""
","
","
","""event"",""trial"",""time""
""fullscreenenter"",""0"",""3585""
","
","null","<p></p>","null","","","","","","","","","","","","","","","","","","","","","","","",""
"","do_trial","21","170582","0.0-20.0-0.0","""event"",""trial"",""time""
""fullscreenenter"",""0"",""3585""
","
","
","""event"",""trial"",""time""
""fullscreenenter"",""0"",""3585""
","
","1802.2999999523163","","","","","","","","50","1,0,0","6","blank","231","null","0.7830425454068316","0.18478751959249173","0.3853039396546666","0","","","","","","","","",""
"","html-keyboard-response","22","171586","0.0-20.0-1.0","""event"",""trial"",""time""
""fullscreenenter"",""0"",""3585""
","
","
","""event"",""trial"",""time""
""fullscreenenter"",""0"",""3585""
","
","null","<p></p>","null","","","","","","","","","","","","","","","","","","","","","","","",""
"","do_trial","23","174526","0.0-21.0-0.0","""event"",""trial"",""time""
""fullscreenenter"",""0"",""3585""
","
","
","""event"",""trial"",""time""
""fullscreenenter"",""0"",""3585""
","
","399.39999997615814","","","","","","","","51","1,0,1","6","blank","232","null","0.8146220123121569","0.11720392879444522","0.35195020895046564","1","","","","","","","","",""
"","html-keyboard-response","24","175530","0.0-21.0-1.0","""event"",""trial"",""time""
""fullscreenenter"",""0"",""3585""
","
","
","""event"",""trial"",""time""
""fullscreenenter"",""0"",""3585""
","
","null","<p></p>","null","","","","","","","","","","","","","","","","","","","","","","","",""
"","do_trial","25","178526","0.0-22.0-0.0","""event"",""trial"",""time""
""fullscreenenter"",""0"",""3585""
","
","
","""event"",""trial"",""time""
""fullscreenenter"",""0"",""3585""
","
","453.5","","","","","","","","49","0,1,0","6","blank","233","null","0.7962791574674755","0.18936127509281547","0.2737026291386561","0","","","","","","","","",""
"","html-keyboard-response","26","179531","0.0-22.0-1.0","""event"",""trial"",""time""
""fullscreenenter"",""0"",""3585""
","
","
","""event"",""trial"",""time""
""fullscreenenter"",""0"",""3585""
","
","null","<p></p>","null","","","","","","","","","","","","","","","","","","","","","","","",""
"","do_trial","27","182383","0.0-23.0-0.0","""event"",""trial"",""time""
""fullscreenenter"",""0"",""3585""
","
","
","""event"",""trial"",""time""
""fullscreenenter"",""0"",""3585""
","
","310","","","","","","","","51","1,0,1","6","blank","234","null","0.7792567969036268","0.15886911187420272","0.28804912842058983","1","","","","","","","","",""
"","html-keyboard-response","28","183386","0.0-23.0-1.0","""event"",""trial"",""time""
""fullscreenenter"",""0"",""3585""
","
","
","""event"",""trial"",""time""
""fullscreenenter"",""0"",""3585""
","
","null","<p></p>","null","","","","","","","","","","","","","","","","","","","","","","","",""
"","do_trial","29","186216","0.0-24.0-0.0","""event"",""trial"",""time""
""fullscreenenter"",""0"",""3585""
","
","
","""event"",""trial"",""time""
""fullscreenenter"",""0"",""3585""
","
","290.10000002384186","","","","","","","","51","1,0,0","6","blank","235","null","0.6903681600040451","0.13734756704235068","0.34306235398758256","0","","","","","","","","",""
"","html-keyboard-response","30","187220","0.0-24.0-1.0","""event"",""trial"",""time""
""fullscreenenter"",""0"",""3585""
","
","
","""event"",""trial"",""time""
""fullscreenenter"",""0"",""3585""
","
","null","<p></p>","null","","","","","","","","","","","","","","","","","","","","","","","",""
"","do_trial","31","190134","0.0-25.0-0.0","""event"",""trial"",""time""
""fullscreenenter"",""0"",""3585""
","
","
","""event"",""trial"",""time""
""fullscreenenter"",""0"",""3585""
","
","372.19999998807907","","","","","","","","49","1,0,0","6","blank","236","null","0.6838730329500199","0.06071479415579159","0.3502352101503059","1","","","","","","","","",""
"","html-keyboard-response","32","191139","0.0-25.0-1.0","""event"",""trial"",""time""
""fullscreenenter"",""0"",""3585""
","
","
","""event"",""trial"",""time""
""fullscreenenter"",""0"",""3585""
","
","null","<p></p>","null","","","","","","","","","","","","","","","","","","","","","","","",""
"","do_trial","33","193957","0.0-26.0-0.0","""event"",""trial"",""time""
""fullscreenenter"",""0"",""3585""
","
","
","""event"",""trial"",""time""
""fullscreenenter"",""0"",""3585""
","
","272.5999999642372","","","","","","","","49","1,0,1","6","blank","237","null","0.5759620270464936","0.10501702886261666","0.3593621354111171","1","","","","","","","","",""
"","html-keyboard-response","34","194959","0.0-26.0-1.0","""event"",""trial"",""time""
""fullscreenenter"",""0"",""3585""
","
","
","""event"",""trial"",""time""
""fullscreenenter"",""0"",""3585""
","
","null","<p></p>","null","","","","","","","","","","","","","","","","","","","","","","","",""
"","do_trial","35","197902","0.0-27.0-0.0","""event"",""trial"",""time""
""fullscreenenter"",""0"",""3585""
","
","
","""event"",""trial"",""time""
""fullscreenenter"",""0"",""3585""
","
","400.60000002384186","","","","","","","","49","1,1,1","6","blank","238","null","0.5982523941534662","0.06826447784657862","0.3472774904649807","1","","","","","","","","",""
"","html-keyboard-response","36","198906","0.0-27.0-1.0","""event"",""trial"",""time""
""fullscreenenter"",""0"",""3585""
","
","
","""event"",""trial"",""time""
""fullscreenenter"",""0"",""3585""
","
","null","<p></p>","null","","","","","","","","","","","","","","","","","","","","","","","",""
"","do_trial","37","201728","0.0-28.0-0.0","""event"",""trial"",""time""
""fullscreenenter"",""0"",""3585""
","
","
","""event"",""trial"",""time""
""fullscreenenter"",""0"",""3585""
","
","281.10000002384186","","","","","","","","49","1,0,0","6","blank","239","null","0.696055985687859","0.05055208575585713","0.38997447919805367","1","","","","","","","","",""
"","html-keyboard-response","38","202733","0.0-28.0-1.0","""event"",""trial"",""time""
""fullscreenenter"",""0"",""3585""
","
","
","""event"",""trial"",""time""
""fullscreenenter"",""0"",""3585""
","
","null","<p></p>","null","","","","","","","","","","","","","","","","","","","","","","","",""
"","do_trial","39","205694","0.0-29.0-0.0","""event"",""trial"",""time""
""fullscreenenter"",""0"",""3585""
","
","
","""event"",""trial"",""time""
""fullscreenenter"",""0"",""3585""
","
","421.5","","","","","","","","49","1,0,1","6","blank","240","null","0.5124103024487748","0.05912402287844281","0.4516401158690065","1","","","","","","","","",""
"","html-keyboard-response","40","206699","0.0-29.0-1.0","""event"",""trial"",""time""
""fullscreenenter"",""0"",""3585""
","
","
","""event"",""trial"",""time""
""fullscreenenter"",""0"",""3585""
","
","null","<p></p>","null","","","","","","","","","","","","","","","","","","","","","","","",""
"","do_trial","41","210071","0.0-30.0-0.0","""event"",""trial"",""time""
""fullscreenenter"",""0"",""3585""
","
","
","""event"",""trial"",""time""
""fullscreenenter"",""0"",""3585""
","
","828.8000000119209","","","","","","","","49","1,0,0","6","blank","241","null","0.5977215392801165","0.11228579344378987","0.4061521787038899","1","","","","","","","","",""
"","html-keyboard-response","42","211073","0.0-30.0-1.0","""event"",""trial"",""time""
""fullscreenenter"",""0"",""3585""
","
","
","""event"",""trial"",""time""
""fullscreenenter"",""0"",""3585""
","
","null","<p></p>","null","","","","","","","","","","","","","","","","","","","","","","","",""
"","do_trial","43","213863","0.0-31.0-0.0","""event"",""trial"",""time""
""fullscreenenter"",""0"",""3585""
","
","
","""event"",""trial"",""time""
""fullscreenenter"",""0"",""3585""
","
","245","","","","","","","","49","1,0,1","6","blank","242","null","0.41566000097690625","0.34447354860358304","0.3806923613045737","1","","","","","","","","",""
"","html-keyboard-response","44","214867","0.0-31.0-1.0","""event"",""trial"",""time""
""fullscreenenter"",""0"",""3585""
","
","
","""event"",""trial"",""time""
""fullscreenenter"",""0"",""3585""
","
","null","<p></p>","null","","","","","","","","","","","","","","","","","","","","","","","",""
"","do_recog","45","220877","0.0-32.0-0.0","""event"",""trial"",""time""
""fullscreenenter"",""0"",""3585""
","
","
","""event"",""trial"",""time""
""fullscreenenter"",""0"",""3585""
","
","null","","","","","","","","null","","","","243","probe-174","","","","","1","[object Object]","195","4","0","","","",""
"","html-keyboard-response","46","221881","0.0-32.0-1.0","""event"",""trial"",""time""
""fullscreenenter"",""0"",""3585""
","
","
","""event"",""trial"",""time""
""fullscreenenter"",""0"",""3585""
","
","null","<p></p>","null","","","","","","","","","","","","","","","","","","","","","","","",""
"","do_trial","47","226519","0.0-33.0-0.0","""event"",""trial"",""time""
""fullscreenenter"",""0"",""3585""
","
","
","""event"",""trial"",""time""
""fullscreenenter"",""0"",""3585""
","
","2097.699999988079","","","","","","","","49","1,0,1","6","blank","244","null","0.2951488469191552","0.46631868904946844","0.65384358515727","1","","","","","","","","",""
"","html-keyboard-response","48","227523","0.0-33.0-1.0","""event"",""trial"",""time""
""fullscreenenter"",""0"",""3585""
","
","
","""event"",""trial"",""time""
""fullscreenenter"",""0"",""3585""
","
","null","<p></p>","null","","","","","","","","","","","","","","","","","","","","","","","",""
"","do_recog","49","230890","0.0-34.0-0.0","""event"",""trial"",""time""
""fullscreenenter"",""0"",""3585""
","
","
","""event"",""trial"",""time""
""fullscreenenter"",""0"",""3585""
","
","1858.300000011921","","","","","","","","56","","","","245","probe-227","","","","","1","[object Object]","157","3","0","","","",""
"","html-keyboard-response","50","231896","0.0-34.0-1.0","""event"",""trial"",""time""
""fullscreenenter"",""0"",""3585""
","
","
","""event"",""trial"",""time""
""fullscreenenter"",""0"",""3585""
","
","null","<p></p>","null","","","","","","","","","","","","","","","","","","","","","","","",""
"","do_trial","51","235795","0.0-35.0-0.0","""event"",""trial"",""time""
""fullscreenenter"",""0"",""3585""
","
","
","""event"",""trial"",""time""
""fullscreenenter"",""0"",""3585""
","
","1358.800000011921","","","","","","","","49","0,0,0","6","blank","246","null","0.2746279712690813","0.44319748021833827","0.5019274517273166","0","","","","","","","","",""
"","html-keyboard-response","52","236798","0.0-35.0-1.0","""event"",""trial"",""time""
""fullscreenenter"",""0"",""3585""
","
","
","""event"",""trial"",""time""
""fullscreenenter"",""0"",""3585""
","
","null","<p></p>","null","","","","","","","","","","","","","","","","","","","","","","","",""
"","do_trial","53","239962","0.0-36.0-0.0","""event"",""trial"",""time""
""fullscreenenter"",""0"",""3585""
","
","
","""event"",""trial"",""time""
""fullscreenenter"",""0"",""3585""
","
","624.5","","","","","","","","51","0,0,0","6","blank","247","null","0.07882555496268634","0.41412220836252245","0.6054786565962281","0","","","","","","","","",""
"","html-keyboard-response","54","240965","0.0-36.0-1.0","""event"",""trial"",""time""
""fullscreenenter"",""0"",""3585""
","
","
","""event"",""trial"",""time""
""fullscreenenter"",""0"",""3585""
","
","null","<p></p>","null","","","","","","","","","","","","","","","","","","","","","","","",""
"","do_recog","55","244857","0.0-37.0-0.0","""event"",""trial"",""time""
""fullscreenenter"",""0"",""3585""
","
","
","""event"",""trial"",""time""
""fullscreenenter"",""0"",""3585""
","
","2387","","","","","","","","56","","","","248","probe-134","","","","","1","[object Object]","113","2","0","","","",""
"","html-keyboard-response","56","245861","0.0-37.0-1.0","""event"",""trial"",""time""
""fullscreenenter"",""0"",""3585""
","
","
","""event"",""trial"",""time""
""fullscreenenter"",""0"",""3585""
","
","null","<p></p>","null","","","","","","","","","","","","","","","","","","","","","","","",""
"","do_trial","57","249934","0.0-38.0-0.0","""event"",""trial"",""time""
""fullscreenenter"",""0"",""3585""
","
","
","""event"",""trial"",""time""
""fullscreenenter"",""0"",""3585""
","
","1531.6000000238419","","","","","","","","49","0,0,1","6","blank","249","null","0.06806736137977822","0.25223201566394965","0.5925520014209061","0","","","","","","","","",""
"","html-keyboard-response","58","250936","0.0-38.0-1.0","""event"",""trial"",""time""
""fullscreenenter"",""0"",""3585""
","
","
","""event"",""trial"",""time""
""fullscreenenter"",""0"",""3585""
","
","null","<p></p>","null","","","","","","","","","","","","","","","","","","","","","","","",""
"","do_recog","59","254826","0.0-39.0-0.0","""event"",""trial"",""time""
""fullscreenenter"",""0"",""3585""
","
","
","""event"",""trial"",""time""
""fullscreenenter"",""0"",""3585""
","
","2382","","","","","","","","53","","","","250","probe-152","","","","","1","[object Object]","159","3","1","","","",""
"","html-keyboard-response","60","255832","0.0-39.0-1.0","""event"",""trial"",""time""
""fullscreenenter"",""0"",""3585""
","
","
","""event"",""trial"",""time""
""fullscreenenter"",""0"",""3585""
","
","null","<p></p>","null","","","","","","","","","","","","","","","","","","","","","","","",""
"","do_trial","61","259463","0.0-40.0-0.0","""event"",""trial"",""time""
""fullscreenenter"",""0"",""3585""
","
","
","""event"",""trial"",""time""
""fullscreenenter"",""0"",""3585""
","
","1091.1000000238419","","","","","","","","49","0,0,1","6","blank","251","null","0.05115003251771744","0.22123837070720076","0.5039805462586067","0","","","","","","","","",""
"","html-keyboard-response","62","260468","0.0-40.0-1.0","""event"",""trial"",""time""
""fullscreenenter"",""0"",""3585""
","
","
","""event"",""trial"",""time""
""fullscreenenter"",""0"",""3585""
","
","null","<p></p>","null","","","","","","","","","","","","","","","","","","","","","","","",""
"","do_trial","63","263623","0.0-41.0-0.0","""event"",""trial"",""time""
""fullscreenenter"",""0"",""3585""
","
","
","""event"",""trial"",""time""
""fullscreenenter"",""0"",""3585""
","
","610.5","","","","","","","","50","0,0,0","6","blank","252","null","0.17828522409098718","0.39467766886171746","0.4659164295012094","0","","","","","","","","",""
"","html-keyboard-response","64","264625","0.0-41.0-1.0","""event"",""trial"",""time""
""fullscreenenter"",""0"",""3585""
","
","
","""event"",""trial"",""time""
""fullscreenenter"",""0"",""3585""
","
","null","<p></p>","null","","","","","","","","","","","","","","","","","","","","","","","",""
"","do_trial","65","267524","0.0-42.0-0.0","""event"",""trial"",""time""
""fullscreenenter"",""0"",""3585""
","
","
","""event"",""trial"",""time""
""fullscreenenter"",""0"",""3585""
","
","356.10000002384186","","","","","","","","51","0,0,1","6","blank","253","null","0.1781423614659379","0.38204723657800965","0.47563306390228494","1","","","","","","","","",""
"","html-keyboard-response","66","268528","0.0-42.0-1.0","""event"",""trial"",""time""
""fullscreenenter"",""0"",""3585""
","
","
","""event"",""trial"",""time""
""fullscreenenter"",""0"",""3585""
","
","null","<p></p>","null","","","","","","","","","","","","","","","","","","","","","","","",""
"","do_recog","67","274541","0.0-43.0-0.0","""event"",""trial"",""time""
""fullscreenenter"",""0"",""3585""
","
","
","""event"",""trial"",""time""
""fullscreenenter"",""0"",""3585""
","
","null","","","","","","","","null","","","","254","probe-140","","","","","1","[object Object]","118","2","0","","","",""
"","html-keyboard-response","68","275545","0.0-43.0-1.0","""event"",""trial"",""time""
""fullscreenenter"",""0"",""3585""
","
","
","""event"",""trial"",""time""
""fullscreenenter"",""0"",""3585""
","
","null","<p></p>","null","","","","","","","","","","","","","","","","","","","","","","","",""
"","do_trial","69","279115","0.0-44.0-0.0","""event"",""trial"",""time""
""fullscreenenter"",""0"",""3585""
","
","
","""event"",""trial"",""time""
""fullscreenenter"",""0"",""3585""
","
","1030.5999999642372","","","","","","","","49","1,1,0","6","blank","255","null","0.14241963877081257","0.32679361963539777","0.4780603001788565","1","","","","","","","","",""
"","html-keyboard-response","70","280118","0.0-44.0-1.0","""event"",""trial"",""time""
""fullscreenenter"",""0"",""3585""
","
","
","""event"",""trial"",""time""
""fullscreenenter"",""0"",""3585""
","
","null","<p></p>","null","","","","","","","","","","","","","","","","","","","","","","","",""
"","do_trial","71","283703","0.0-45.0-0.0","""event"",""trial"",""time""
""fullscreenenter"",""0"",""3585""
","
","
","""event"",""trial"",""time""
""fullscreenenter"",""0"",""3585""
","
","1041.7999999523163","","","","","","","","50","0,0,1","6","blank","256","null","0.07065537041129637","0.31990774344878925","0.6459194558122233","0","","","","","","","","",""
"","html-keyboard-response","72","284708","0.0-45.0-1.0","""event"",""trial"",""time""
""fullscreenenter"",""0"",""3585""
","
","
","""event"",""trial"",""time""
""fullscreenenter"",""0"",""3585""
","
","null","<p></p>","null","","","","","","","","","","","","","","","","","","","","","","","",""
"","do_trial","73","290758","0.0-46.0-0.0","""event"",""trial"",""time""
""fullscreenenter"",""0"",""3585""
","
","
","""event"",""trial"",""time""
""fullscreenenter"",""0"",""3585""
","
","null","","","","","","","","null","0,0,1","6","blank","257","null","0.11141729738738355","0.23323319662414818","0.5641569588079395","","","","","","","","","",""
"","html-keyboard-response","74","291761","0.0-46.0-1.0","""event"",""trial"",""time""
""fullscreenenter"",""0"",""3585""
","
","
","""event"",""trial"",""time""
""fullscreenenter"",""0"",""3585""
","
","null","<p></p>","null","","","","","","","","","","","","","","","","","","","","","","","",""
"","do_recog","75","295758","0.0-47.0-0.0","""event"",""trial"",""time""
""fullscreenenter"",""0"",""3585""
","
","
","""event"",""trial"",""time""
""fullscreenenter"",""0"",""3585""
","
","2488.699999988079","","","","","","","","53","","","","258","probe-237","","","","","0","[object Object]","null","null","0","","","",""
"","html-keyboard-response","76","296762","0.0-47.0-1.0","""event"",""trial"",""time""
""fullscreenenter"",""0"",""3585""
","
","
","""event"",""trial"",""time""
""fullscreenenter"",""0"",""3585""
","
","null","<p></p>","null","","","","","","","","","","","","","","","","","","","","","","","",""
"","do_trial","77","300315","0.0-48.0-0.0","""event"",""trial"",""time""
""fullscreenenter"",""0"",""3585""
","
","
","""event"",""trial"",""time""
""fullscreenenter"",""0"",""3585""
","
","1011.0999999642372","","","","","","","","49","0,0,0","6","blank","259","null","0.19399786971464295","0.11191235776315393","0.689218890143054","0","","","","","","","","",""
"","html-keyboard-response","78","301318","0.0-48.0-1.0","""event"",""trial"",""time""
""fullscreenenter"",""0"",""3585""
","
","
","""event"",""trial"",""time""
""fullscreenenter"",""0"",""3585""
","
","null","<p></p>","null","","","","","","","","","","","","","","","","","","","","","","","",""
"","do_recog","79","304820","0.0-49.0-0.0","""event"",""trial"",""time""
""fullscreenenter"",""0"",""3585""
","
","
","""event"",""trial"",""time""
""fullscreenenter"",""0"",""3585""
","
","1993.199999988079","","","","","","","","56","","","","260","probe-58","","","","","1","[object Object]","38","0","0","","","",""
"","html-keyboard-response","80","305825","0.0-49.0-1.0","""event"",""trial"",""time""
""fullscreenenter"",""0"",""3585""
","
","
","""event"",""trial"",""time""
""fullscreenenter"",""0"",""3585""
","
","null","<p></p>","null","","","","","","","","","","","","","","","","","","","","","","","",""
"","do_trial","81","310203","0.0-50.0-0.0","""event"",""trial"",""time""
""fullscreenenter"",""0"",""3585""
","
","
","""event"",""trial"",""time""
""fullscreenenter"",""0"",""3585""
","
","1836.9000000357628","","","","","","","","49","0,0,1","6","blank","261","null","0.15417094867773018","0.1108667107174119","0.7215585912363021","0","","","","","","","","",""
"","html-keyboard-response","82","311208","0.0-50.0-1.0","""event"",""trial"",""time""
""fullscreenenter"",""0"",""3585""
","
","
","""event"",""trial"",""time""
""fullscreenenter"",""0"",""3585""
","
","null","<p></p>","null","","","","","","","","","","","","","","","","","","","","","","","",""
"","do_trial","83","314236","0.0-51.0-0.0","""event"",""trial"",""time""
""fullscreenenter"",""0"",""3585""
","
","
","""event"",""trial"",""time""
""fullscreenenter"",""0"",""3585""
","
","487.60000002384186","","","","","","","","50","0,0,1","6","blank","262","null","0.08675053243894619","0.11728036228409355","0.7240495212684143","0","","","","","","","","",""
"","html-keyboard-response","84","315241","0.0-51.0-1.0","""event"",""trial"",""time""
""fullscreenenter"",""0"",""3585""
","
","
","""event"",""trial"",""time""
""fullscreenenter"",""0"",""3585""
","
","null","<p></p>","null","","","","","","","","","","","","","","","","","","","","","","","",""
"","do_recog","85","318931","0.0-52.0-0.0","""event"",""trial"",""time""
""fullscreenenter"",""0"",""3585""
","
","
","""event"",""trial"",""time""
""fullscreenenter"",""0"",""3585""
","
","2178.5","","","","","","","","53","","","","263","probe-71","","","","","1","[object Object]","36","0","1","","","",""
"","html-keyboard-response","86","319933","0.0-52.0-1.0","""event"",""trial"",""time""
""fullscreenenter"",""0"",""3585""
","
","
","""event"",""trial"",""time""
""fullscreenenter"",""0"",""3585""
","
","null","<p></p>","null","","","","","","","","","","","","","","","","","","","","","","","",""
"","do_trial","87","323753","0.0-53.0-0.0","""event"",""trial"",""time""
""fullscreenenter"",""0"",""3585""
","
","
","""event"",""trial"",""time""
""fullscreenenter"",""0"",""3585""
","
","1278.199999988079","","","","","","","","51","0,1,1","6","blank","264","null","0.08727021277213752","0.13538151302908813","0.7196153330707488","1","","","","","","","","",""
"","html-keyboard-response","88","324758","0.0-53.0-1.0","""event"",""trial"",""time""
""fullscreenenter"",""0"",""3585""
","
","
","""event"",""trial"",""time""
""fullscreenenter"",""0"",""3585""
","
","null","<p></p>","null","","","","","","","","","","","","","","","","","","","","","","","",""
"","do_recog","89","328692","0.0-54.0-0.0","""event"",""trial"",""time""
""fullscreenenter"",""0"",""3585""
","
","
","""event"",""trial"",""time""
""fullscreenenter"",""0"",""3585""
","
","2426.2000000476837","","","","","","","","53","","","","265","probe-158","","","","","1","[object Object]","112","2","1","","","",""
"","html-keyboard-response","90","329696","0.0-54.0-1.0","""event"",""trial"",""time""
""fullscreenenter"",""0"",""3585""
","
","
","""event"",""trial"",""time""
""fullscreenenter"",""0"",""3585""
","
","null","<p></p>","null","","","","","","","","","","","","","","","","","","","","","","","",""
"","do_trial","91","334072","0.0-55.0-0.0","""event"",""trial"",""time""
""fullscreenenter"",""0"",""3585""
","
","
","""event"",""trial"",""time""
""fullscreenenter"",""0"",""3585""
","
","1834.8999999761581","","","","","","","","50","0,0,1","6","blank","266","null","0.21967907391510053","0.26276825086655675","0.6759600190318099","0","","","","","","","","",""
"","html-keyboard-response","92","335075","0.0-55.0-1.0","""event"",""trial"",""time""
""fullscreenenter"",""0"",""3585""
","
","
","""event"",""trial"",""time""
""fullscreenenter"",""0"",""3585""
","
","null","<p></p>","null","","","","","","","","","","","","","","","","","","","","","","","",""
"","do_trial","93","337960","0.0-56.0-0.0","""event"",""trial"",""time""
""fullscreenenter"",""0"",""3585""
","
","
","""event"",""trial"",""time""
""fullscreenenter"",""0"",""3585""
","
","343.9000000357628","","","","","","","","49","1,0,1","6","blank","267","null","0.18870390797532227","0.16804524673578677","0.7131739732004648","1","","","","","","","","",""
"","html-keyboard-response","94","338963","0.0-56.0-1.0","""event"",""trial"",""time""
""fullscreenenter"",""0"",""3585""
","
","
","""event"",""trial"",""time""
""fullscreenenter"",""0"",""3585""
","
","null","<p></p>","null","","","","","","","","","","","","","","","","","","","","","","","",""
"","do_recog","95","342424","0.0-57.0-0.0","""event"",""trial"",""time""
""fullscreenenter"",""0"",""3585""
","
","
","""event"",""trial"",""time""
""fullscreenenter"",""0"",""3585""
","
","1950.7000000476837","","","","","","","","53","","","","268","probe-150","","","","","1","[object Object]","77","1","1","","","",""
"","html-keyboard-response","96","343425","0.0-57.0-1.0","""event"",""trial"",""time""
""fullscreenenter"",""0"",""3585""
","
","
","""event"",""trial"",""time""
""fullscreenenter"",""0"",""3585""
","
","null","<p></p>","null","","","","","","","","","","","","","","","","","","","","","","","",""
"","break","97","345375","0.0-58.0-0.0","""event"",""trial"",""time""
""fullscreenenter"",""0"",""3585""
","
","
","""event"",""trial"",""time""
""fullscreenenter"",""0"",""3585""
","
","1949.2999999523163","<div class='center'><p>Time to take a quick break! You have 2 minutes to rest, but you can move on sooner if you'd like.</p><p> Press the <b>space bar</b> to continue.</p></div>","32","","","","","","","","","","","","","","","","","","","","","","","",""
"","do_trial","98","348751","0.0-58.0-1.0","""event"",""trial"",""time""
""fullscreenenter"",""0"",""3585""
","
","
","""event"",""trial"",""time""
""fullscreenenter"",""0"",""3585""
","
","836.5","","","","","","","","49","0,0,1","6","blank","269","null","0.18659191071849027","0.07226991647086921","0.6530912039541522","0","","","","","","","","",""
"","html-keyboard-response","99","349755","0.0-58.0-2.0","""event"",""trial"",""time""
""fullscreenenter"",""0"",""3585""
","
","
","""event"",""trial"",""time""
""fullscreenenter"",""0"",""3585""
","
","null","<p></p>","null","","","","","","","","","","","","","","","","","","","","","","","",""
"","do_recog","100","353541","0.0-59.0-0.0","""event"",""trial"",""time""
""fullscreenenter"",""0"",""3585""
","
","
","""event"",""trial"",""time""
""fullscreenenter"",""0"",""3585""
","
","2277.099999964237","","","","","","","","53","","","","270","probe-182","","","","","1","[object Object]","190","4","1","","","",""
"","html-keyboard-response","101","354545","0.0-59.0-1.0","""event"",""trial"",""time""
""fullscreenenter"",""0"",""3585""
","
","
","""event"",""trial"",""time""
""fullscreenenter"",""0"",""3585""
","
","null","<p></p>","null","","","","","","","","","","","","","","","","","","","","","","","",""
"","do_trial","102","358297","0.0-60.0-0.0","""event"",""trial"",""time""
""fullscreenenter"",""0"",""3585""
","
","
","""event"",""trial"",""time""
""fullscreenenter"",""0"",""3585""
","
","1210.0999999642372","","","","","","","","50","0,0,1","6","blank","271","null","0.1809298065655474","0.15276729545160891","0.7316288856203894","0","","","","","","","","",""
"","html-keyboard-response","103","359303","0.0-60.0-1.0","""event"",""trial"",""time""
""fullscreenenter"",""0"",""3585""
","
","
","""event"",""trial"",""time""
""fullscreenenter"",""0"",""3585""
","
","null","<p></p>","null","","","","","","","","","","","","","","","","","","","","","","","",""
"","do_recog","104","362851","0.0-61.0-0.0","""event"",""trial"",""time""
""fullscreenenter"",""0"",""3585""
","
","
","""event"",""trial"",""time""
""fullscreenenter"",""0"",""3585""
","
","2038.7000000476837","","","","","","","","56","","","","272","probe-61","","","","","1","[object Object]","194","4","0","","","",""
"","html-keyboard-response","105","363854","0.0-61.0-1.0","""event"",""trial"",""time""
""fullscreenenter"",""0"",""3585""
","
","
","""event"",""trial"",""time""
""fullscreenenter"",""0"",""3585""
","
","null","<p></p>","null","","","","","","","","","","","","","","","","","","","","","","","",""
"","do_trial","106","367326","0.0-62.0-0.0","""event"",""trial"",""time""
""fullscreenenter"",""0"",""3585""
","
","
","""event"",""trial"",""time""
""fullscreenenter"",""0"",""3585""
","
","929.1999999880791","","","","","","","","49","1,1,1","6","blank","273","null","0.22008691730012891","0.24730240699199005","0.6900716892107017","1","","","","","","","","",""
"","html-keyboard-response","107","368329","0.0-62.0-1.0","""event"",""trial"",""time""
""fullscreenenter"",""0"",""3585""
","
","
","""event"",""trial"",""time""
""fullscreenenter"",""0"",""3585""
","
","null","<p></p>","null","","","","","","","","","","","","","","","","","","","","","","","",""
"","do_recog","108","372091","0.0-63.0-0.0","""event"",""trial"",""time""
""fullscreenenter"",""0"",""3585""
","
","
","""event"",""trial"",""time""
""fullscreenenter"",""0"",""3585""
","
","2252.699999988079","","","","","","","","55","","","","274","probe-233","","","","","0","[object Object]","null","null","1","","","",""
"","html-keyboard-response","109","373097","0.0-63.0-1.0","""event"",""trial"",""time""
""fullscreenenter"",""0"",""3585""
","
","
","""event"",""trial"",""time""
""fullscreenenter"",""0"",""3585""
","
","null","<p></p>","null","","","","","","","","","","","","","","","","","","","","","","","",""
"","do_trial","110","376720","0.0-64.0-0.0","""event"",""trial"",""time""
""fullscreenenter"",""0"",""3585""
","
","
","""event"",""trial"",""time""
""fullscreenenter"",""0"",""3585""
","
","1081.6000000238419","","","","","","","","50","0,0,1","6","blank","275","null","0.051327167471932875","0.2362173508353608","0.5907958980779671","0","","","","","","","","",""
"","html-keyboard-response","111","377726","0.0-64.0-1.0","""event"",""trial"",""time""
""fullscreenenter"",""0"",""3585""
","
","
","""event"",""trial"",""time""
""fullscreenenter"",""0"",""3585""
","
","null","<p></p>","null","","","","","","","","","","","","","","","","","","","","","","","",""
"","do_trial","112","380664","0.0-65.0-0.0","""event"",""trial"",""time""
""fullscreenenter"",""0"",""3585""
","
","
","""event"",""trial"",""time""
""fullscreenenter"",""0"",""3585""
","
","396","","","","","","","","51","0,0,0","6","blank","276","null","0.13964628886866795","0.22965645747631516","0.5936129644911012","0","","","","","","","","",""
"","html-keyboard-response","113","381666","0.0-65.0-1.0","""event"",""trial"",""time""
""fullscreenenter"",""0"",""3585""
","
","
","""event"",""trial"",""time""
""fullscreenenter"",""0"",""3585""
","
","null","<p></p>","null","","","","","","","","","","","","","","","","","","","","","","","",""
"","do_recog","114","385010","0.0-66.0-0.0","""event"",""trial"",""time""
""fullscreenenter"",""0"",""3585""
","
","
","""event"",""trial"",""time""
""fullscreenenter"",""0"",""3585""
","
","1836.6000000238419","","","","","","","","53","","","","277","probe-64","","","","","1","[object Object]","153","3","1","","","",""
"","html-keyboard-response","115","386013","0.0-66.0-1.0","""event"",""trial"",""time""
""fullscreenenter"",""0"",""3585""
","
","
","""event"",""trial"",""time""
""fullscreenenter"",""0"",""3585""
","
","null","<p></p>","null","","","","","","","","","","","","","","","","","","","","","","","",""
"","do_trial","116","389761","0.0-67.0-0.0","""event"",""trial"",""time""
""fullscreenenter"",""0"",""3585""
","
","
","""event"",""trial"",""time""
""fullscreenenter"",""0"",""3585""
","
","1206","","","","","","","","49","0,0,0","6","blank","278","null","0.1389570495860827","0.2539963938266378","0.7097799133175313","0","","","","","","","","",""
"","html-keyboard-response","117","390765","0.0-67.0-1.0","""event"",""trial"",""time""
""fullscreenenter"",""0"",""3585""
","
","
","""event"",""trial"",""time""
""fullscreenenter"",""0"",""3585""
","
","null","<p></p>","null","","","","","","","","","","","","","","","","","","","","","","","",""
"","do_trial","118","393733","0.0-68.0-0.0","""event"",""trial"",""time""
""fullscreenenter"",""0"",""3585""
","
","
","""event"",""trial"",""time""
""fullscreenenter"",""0"",""3585""
","
","427.2999999523163","","","","","","","","51","0,0,1","6","blank","279","null","0.11819235227197428","0.1802829165853305","0.7829651096494783","1","","","","","","","","",""
"","html-keyboard-response","119","394737","0.0-68.0-1.0","""event"",""trial"",""time""
""fullscreenenter"",""0"",""3585""
","
","
","""event"",""trial"",""time""
""fullscreenenter"",""0"",""3585""
","
","null","<p></p>","null","","","","","","","","","","","","","","","","","","","","","","","",""
"","do_recog","120","398313","0.0-69.0-0.0","""event"",""trial"",""time""
""fullscreenenter"",""0"",""3585""
","
","
","""event"",""trial"",""time""
""fullscreenenter"",""0"",""3585""
","
","2070.2000000476837","","","","","","","","53","","","","280","probe-194","","","","","1","[object Object]","196","4","1","","","",""
"","html-keyboard-response","121","399318","0.0-69.0-1.0","""event"",""trial"",""time""
""fullscreenenter"",""0"",""3585""
","
","
","""event"",""trial"",""time""
""fullscreenenter"",""0"",""3585""
","
","null","<p></p>","null","","","","","","","","","","","","","","","","","","","","","","","",""
"","do_trial","122","403001","0.0-70.0-0.0","""event"",""trial"",""time""
""fullscreenenter"",""0"",""3585""
","
","
","""event"",""trial"",""time""
""fullscreenenter"",""0"",""3585""
","
","1140.9000000357628","","","","","","","","49","0,0,1","6","blank","281","null","0.1885450607581052","0.09900853826219803","0.7600478932261352","0","","","","","","","","",""
"","html-keyboard-response","123","404006","0.0-70.0-1.0","""event"",""trial"",""time""
""fullscreenenter"",""0"",""3585""
","
","
","""event"",""trial"",""time""
""fullscreenenter"",""0"",""3585""
","
","null","<p></p>","null","","","","","","","","","","","","","","","","","","","","","","","",""
"","do_trial","124","406880","0.0-71.0-0.0","""event"",""trial"",""time""
""fullscreenenter"",""0"",""3585""
","
","
","""event"",""trial"",""time""
""fullscreenenter"",""0"",""3585""
","
","335","","","","","","","","51","0,0,1","6","blank","282","null","0.22451341408326758","0.11237744667546838","0.7698122879008199","1","","","","","","","","",""
"","html-keyboard-response","125","407884","0.0-71.0-1.0","""event"",""trial"",""time""
""fullscreenenter"",""0"",""3585""
","
","
","""event"",""trial"",""time""
""fullscreenenter"",""0"",""3585""
","
","null","<p></p>","null","","","","","","","","","","","","","","","","","","","","","","","",""
"","do_trial","126","411284","0.0-72.0-0.0","""event"",""trial"",""time""
""fullscreenenter"",""0"",""3585""
","
","
","""event"",""trial"",""time""
""fullscreenenter"",""0"",""3585""
","
","857.3999999761581","","","","","","","","50","0,0,0","6","blank","283","null","0.31032505359131457","0.2229272135131163","0.7856953979258876","0","","","","","","","","",""
"","html-keyboard-response","127","412287","0.0-72.0-1.0","""event"",""trial"",""time""
""fullscreenenter"",""0"",""3585""
","
","
","""event"",""trial"",""time""
""fullscreenenter"",""0"",""3585""
","
","null","<p></p>","null","","","","","","","","","","","","","","","","","","","","","","","",""
"","do_trial","128","415291","0.0-73.0-0.0","""event"",""trial"",""time""
""fullscreenenter"",""0"",""3585""
","
","
","""event"",""trial"",""time""
""fullscreenenter"",""0"",""3585""
","
","457.7999999523163","","","","","","","","51","0,0,1","6","blank","284","null","0.25012260290611665","0.21047348511156586","0.6988527848123585","1","","","","","","","","",""
"","html-keyboard-response","129","416295","0.0-73.0-1.0","""event"",""trial"",""time""
""fullscreenenter"",""0"",""3585""
","
","
","""event"",""trial"",""time""
""fullscreenenter"",""0"",""3585""
","
","null","<p></p>","null","","","","","","","","","","","","","","","","","","","","","","","",""
"","do_trial","130","419760","0.0-74.0-0.0","""event"",""trial"",""time""
""fullscreenenter"",""0"",""3585""
","
","
","""event"",""trial"",""time""
""fullscreenenter"",""0"",""3585""
","
","925.2000000476837","","","","","","","","49","0,1,1","6","blank","285","null","0.1974288361618153","0.2557067006017044","0.6180077566012586","0","","","","","","","","",""
"","html-keyboard-response","131","420762","0.0-74.0-1.0","""event"",""trial"",""time""
""fullscreenenter"",""0"",""3585""
","
","
","""event"",""trial"",""time""
""fullscreenenter"",""0"",""3585""
","
","null","<p></p>","null","","","","","","","","","","","","","","","","","","","","","","","",""
"","do_trial","132","423903","0.0-75.0-0.0","""event"",""trial"",""time""
""fullscreenenter"",""0"",""3585""
","
","
","""event"",""trial"",""time""
""fullscreenenter"",""0"",""3585""
","
","600.8999999761581","","","","","","","","51","0,1,0","6","blank","286","null","0.17180099755094422","0.26003681621391644","0.5531146923377593","0","","","","","","","","",""
"","html-keyboard-response","133","424909","0.0-75.0-1.0","""event"",""trial"",""time""
""fullscreenenter"",""0"",""3585""
","
","
","""event"",""trial"",""time""
""fullscreenenter"",""0"",""3585""
","
","null","<p></p>","null","","","","","","","","","","","","","","","","","","","","","","","",""
"","do_recog","134","428860","0.0-76.0-0.0","""event"",""trial"",""time""
""fullscreenenter"",""0"",""3585""
","
","
","""event"",""trial"",""time""
""fullscreenenter"",""0"",""3585""
","
","2441.899999976158","","","","","","","","56","","","","287","probe-234","","","","","0","[object Object]","null","null","1","","","",""
"","html-keyboard-response","135","429864","0.0-76.0-1.0","""event"",""trial"",""time""
""fullscreenenter"",""0"",""3585""
","
","
","""event"",""trial"",""time""
""fullscreenenter"",""0"",""3585""
","
","null","<p></p>","null","","","","","","","","","","","","","","","","","","","","","","","",""
"","do_trial","136","433460","0.0-77.0-0.0","""event"",""trial"",""time""
""fullscreenenter"",""0"",""3585""
","
","
","""event"",""trial"",""time""
""fullscreenenter"",""0"",""3585""
","
","1052.5999999642372","","","","","","","","50","0,0,1","6","blank","288","null","0.2003456027927797","0.3362916181839867","0.74754031044583","0","","","","","","","","",""
"","html-keyboard-response","137","434464","0.0-77.0-1.0","""event"",""trial"",""time""
""fullscreenenter"",""0"",""3585""
","
","
","""event"",""trial"",""time""
""fullscreenenter"",""0"",""3585""
","
","null","<p></p>","null","","","","","","","","","","","","","","","","","","","","","","","",""
"","do_recog","138","440474","0.0-78.0-0.0","""event"",""trial"",""time""
""fullscreenenter"",""0"",""3585""
","
","
","""event"",""trial"",""time""
""fullscreenenter"",""0"",""3585""
","
","null","","","","","","","","null","","","","289","probe-111","","","","","1","[object Object]","75","1","0","","","",""
"","html-keyboard-response","139","441478","0.0-78.0-1.0","""event"",""trial"",""time""
""fullscreenenter"",""0"",""3585""
","
","
","""event"",""trial"",""time""
""fullscreenenter"",""0"",""3585""
","
","null","<p></p>","null","","","","","","","","","","","","","","","","","","","","","","","",""
"","do_trial","140","445227","0.0-79.0-0.0","""event"",""trial"",""time""
""fullscreenenter"",""0"",""3585""
","
","
","""event"",""trial"",""time""
""fullscreenenter"",""0"",""3585""
","
","1208.5","","","","","","","","49","0,1,1","6","blank","290","null","0.12987683439334854","0.34672286368012756","0.75991983492904","0","","","","","","","","",""
"","html-keyboard-response","141","446228","0.0-79.0-1.0","""event"",""trial"",""time""
""fullscreenenter"",""0"",""3585""
","
","
","""event"",""trial"",""time""
""fullscreenenter"",""0"",""3585""
","
","null","<p></p>","null","","","","","","","","","","","","","","","","","","","","","","","",""
"","do_recog","142","449658","0.0-80.0-0.0","""event"",""trial"",""time""
""fullscreenenter"",""0"",""3585""
","
","
","""event"",""trial"",""time""
""fullscreenenter"",""0"",""3585""
","
","1921","","","","","","","","54","","","","291","probe-46","","","","","1","[object Object]","116","2","1","","","",""
"","html-keyboard-response","143","450661","0.0-80.0-1.0","""event"",""trial"",""time""
""fullscreenenter"",""0"",""3585""
","
","
","""event"",""trial"",""time""
""fullscreenenter"",""0"",""3585""
","
","null","<p></p>","null","","","","","","","","","","","","","","","","","","","","","","","",""
"","do_trial","144","454587","0.0-81.0-0.0","""event"",""trial"",""time""
""fullscreenenter"",""0"",""3585""
","
","
","""event"",""trial"",""time""
""fullscreenenter"",""0"",""3585""
","
","1381.5","","","","","","","","51","0,1,1","6","blank","292","null","0.21340462535672416","0.3595476301306495","0.6533690489659395","1","","","","","","","","",""
"","html-keyboard-response","145","455594","0.0-81.0-1.0","""event"",""trial"",""time""
""fullscreenenter"",""0"",""3585""
","
","
","""event"",""trial"",""time""
""fullscreenenter"",""0"",""3585""
","
","null","<p></p>","null","","","","","","","","","","","","","","","","","","","","","","","",""
"","do_trial","146","459052","0.0-82.0-0.0","""event"",""trial"",""time""
""fullscreenenter"",""0"",""3585""
","
","
","""event"",""trial"",""time""
""fullscreenenter"",""0"",""3585""
","
","913.3000000119209","","","","","","","","51","0,0,1","6","blank","293","null","0.05475113310548176","0.42837680048499244","0.5745242717204713","1","","","","","","","","",""
"","html-keyboard-response","147","460056","0.0-82.0-1.0","""event"",""trial"",""time""
""fullscreenenter"",""0"",""3585""
","
","
","""event"",""trial"",""time""
""fullscreenenter"",""0"",""3585""
","
","null","<p></p>","null","","","","","","","","","","","","","","","","","","","","","","","",""
"","do_trial","148","463979","0.0-83.0-0.0","""event"",""trial"",""time""
""fullscreenenter"",""0"",""3585""
","
","
","""event"",""trial"",""time""
""fullscreenenter"",""0"",""3585""
","
","1381","","","","","","","","49","0,1,1","6","blank","294","null","0.11374921550727667","0.2545903468518256","0.5970907078971778","0","","","","","","","","",""
"","html-keyboard-response","149","464983","0.0-83.0-1.0","""event"",""trial"",""time""
""fullscreenenter"",""0"",""3585""
","
","
","""event"",""trial"",""time""
""fullscreenenter"",""0"",""3585""
","
","null","<p></p>","null","","","","","","","","","","","","","","","","","","","","","","","",""
"","do_trial","150","468077","0.0-84.0-0.0","""event"",""trial"",""time""
""fullscreenenter"",""0"",""3585""
","
","
","""event"",""trial"",""time""
""fullscreenenter"",""0"",""3585""
","
","550.8000000119209","","","","","","","","51","0,0,1","6","blank","295","null","0.1408142523801744","0.16613884375763868","0.46090590697143086","1","","","","","","","","",""
"","html-keyboard-response","151","469081","0.0-84.0-1.0","""event"",""trial"",""time""
""fullscreenenter"",""0"",""3585""
","
","
","""event"",""trial"",""time""
""fullscreenenter"",""0"",""3585""
","
","null","<p></p>","null","","","","","","","","","","","","","","","","","","","","","","","",""
"","do_trial","152","472168","0.0-85.0-0.0","""event"",""trial"",""time""
""fullscreenenter"",""0"",""3585""
","
","
","""event"",""trial"",""time""
""fullscreenenter"",""0"",""3585""
","
","545.0999999642372","","","","","","","","51","1,1,0","6","blank","296","null","0.13173931942368708","0.21141825353238172","0.5837875319621633","0","","","","","","","","",""
"","html-keyboard-response","153","473171","0.0-85.0-1.0","""event"",""trial"",""time""
""fullscreenenter"",""0"",""3585""
","
","
","""event"",""trial"",""time""
""fullscreenenter"",""0"",""3585""
","
","null","<p></p>","null","","","","","","","","","","","","","","","","","","","","","","","",""
"","do_trial","154","476435","0.0-86.0-0.0","""event"",""trial"",""time""
""fullscreenenter"",""0"",""3585""
","
","
","""event"",""trial"",""time""
""fullscreenenter"",""0"",""3585""
","
","722.8999999761581","","","","","","","","51","0,0,0","6","blank","297","null","0.09479190908804037","0.31801457160340885","0.4648573908558034","0","","","","","","","","",""
"","html-keyboard-response","155","477439","0.0-86.0-1.0","""event"",""trial"",""time""
""fullscreenenter"",""0"",""3585""
","
","
","""event"",""trial"",""time""
""fullscreenenter"",""0"",""3585""
","
","null","<p></p>","null","","","","","","","","","","","","","","","","","","","","","","","",""
"","do_recog","156","480755","0.0-87.0-0.0","""event"",""trial"",""time""
""fullscreenenter"",""0"",""3585""
","
","
","""event"",""trial"",""time""
""fullscreenenter"",""0"",""3585""
","
","1809.5","","","","","","","","54","","","","298","probe-07","","","","","1","[object Object]","115","2","1","","","",""
"","html-keyboard-response","157","481761","0.0-87.0-1.0","""event"",""trial"",""time""
""fullscreenenter"",""0"",""3585""
","
","
","""event"",""trial"",""time""
""fullscreenenter"",""0"",""3585""
","
","null","<p></p>","null","","","","","","","","","","","","","","","","","","","","","","","",""
"","do_trial","158","486011","0.0-88.0-0.0","""event"",""trial"",""time""
""fullscreenenter"",""0"",""3585""
","
","
","""event"",""trial"",""time""
""fullscreenenter"",""0"",""3585""
","
","1707.1000000238419","","","","","","","","50","0,0,1","6","blank","299","null","0.26466999792788803","0.3870793423496931","0.5292146782093476","0","","","","","","","","",""
"","html-keyboard-response","159","487013","0.0-88.0-1.0","""event"",""trial"",""time""
""fullscreenenter"",""0"",""3585""
","
","
","""event"",""trial"",""time""
""fullscreenenter"",""0"",""3585""
","
","null","<p></p>","null","","","","","","","","","","","","","","","","","","","","","","","",""
"","do_trial","160","489869","0.0-89.0-0.0","""event"",""trial"",""time""
""fullscreenenter"",""0"",""3585""
","
","
","""event"",""trial"",""time""
""fullscreenenter"",""0"",""3585""
","
","312.10000002384186","","","","","","","","50","0,0,1","6","blank","300","null","0.1146268119706719","0.3658018002717629","0.5342332371084098","0","","","","","","","","",""
"","html-keyboard-response","161","490873","0.0-89.0-1.0","""event"",""trial"",""time""
""fullscreenenter"",""0"",""3585""
","
","
","""event"",""trial"",""time""
""fullscreenenter"",""0"",""3585""
","
","null","<p></p>","null","","","","","","","","","","","","","","","","","","","","","","","",""
"","do_trial","162","493704","0.0-90.0-0.0","""event"",""trial"",""time""
""fullscreenenter"",""0"",""3585""
","
","
","""event"",""trial"",""time""
""fullscreenenter"",""0"",""3585""
","
","286.69999998807907","","","","","","","","49","0,0,0","6","blank","301","null","0.11240816104141227","0.3279215015565112","0.34728129214360676","0","","","","","","","","",""
"","html-keyboard-response","163","494709","0.0-90.0-1.0","""event"",""trial"",""time""
""fullscreenenter"",""0"",""3585""
","
","
","""event"",""trial"",""time""
""fullscreenenter"",""0"",""3585""
","
","null","<p></p>","null","","","","","","","","","","","","","","","","","","","","","","","",""
"","do_trial","164","497736","0.0-91.0-0.0","""event"",""trial"",""time""
""fullscreenenter"",""0"",""3585""
","
","
","""event"",""trial"",""time""
""fullscreenenter"",""0"",""3585""
","
","486.30000001192093","","","","","","","","49","1,1,0","6","blank","302","null","0.13355681552216397","0.40897644613255296","0.3334673408343394","1","","","","","","","","",""
"","html-keyboard-response","165","498741","0.0-91.0-1.0","""event"",""trial"",""time""
""fullscreenenter"",""0"",""3585""
","
","
","""event"",""trial"",""time""
""fullscreenenter"",""0"",""3585""
","
","null","<p></p>","null","","","","","","","","","","","","","","","","","","","","","","","",""
"","do_trial","166","501632","0.0-92.0-0.0","""event"",""trial"",""time""
""fullscreenenter"",""0"",""3585""
","
","
","""event"",""trial"",""time""
""fullscreenenter"",""0"",""3585""
","
","349.19999998807907","","","","","","","","51","0,1,0","6","blank","303","null","0.24195850519350728","0.3503662143771064","0.2808518910473702","0","","","","","","","","",""
"","html-keyboard-response","167","502637","0.0-92.0-1.0","""event"",""trial"",""time""
""fullscreenenter"",""0"",""3585""
","
","
","""event"",""trial"",""time""
""fullscreenenter"",""0"",""3585""
","
","null","<p></p>","null","","","","","","","","","","","","","","","","","","","","","","","",""
"","do_trial","168","505510","0.0-93.0-0.0","""event"",""trial"",""time""
""fullscreenenter"",""0"",""3585""
","
","
","""event"",""trial"",""time""
""fullscreenenter"",""0"",""3585""
","
","328.5","","","","","","","","51","0,1,1","6","blank","304","null","0.1929184914337561","0.45551911821799823","0.2486577606605639","1","","","","","","","","",""
"","html-keyboard-response","169","506516","0.0-93.0-1.0","""event"",""trial"",""time""
""fullscreenenter"",""0"",""3585""
","
","
","""event"",""trial"",""time""
""fullscreenenter"",""0"",""3585""
","
","null","<p></p>","null","","","","","","","","","","","","","","","","","","","","","","","",""
"","do_recog","170","509842","0.0-94.0-0.0","""event"",""trial"",""time""
""fullscreenenter"",""0"",""3585""
","
","
","""event"",""trial"",""time""
""fullscreenenter"",""0"",""3585""
","
","1815.199999988079","","","","","","","","53","","","","305","probe-215","","","","","1","[object Object]","71","1","1","","","",""
"","html-keyboard-response","171","510845","0.0-94.0-1.0","""event"",""trial"",""time""
""fullscreenenter"",""0"",""3585""
","
","
","""event"",""trial"",""time""
""fullscreenenter"",""0"",""3585""
","
","null","<p></p>","null","","","","","","","","","","","","","","","","","","","","","","","",""
"","do_trial","172","514593","0.0-95.0-0.0","""event"",""trial"",""time""
""fullscreenenter"",""0"",""3585""
","
","
","""event"",""trial"",""time""
""fullscreenenter"",""0"",""3585""
","
","1204.699999988079","","","","","","","","49","0,1,0","6","blank","306","null","0.34088522532302223","0.45576969274384305","0.36662149120753795","0","","","","","","","","",""
"","html-keyboard-response","173","515595","0.0-95.0-1.0","""event"",""trial"",""time""
""fullscreenenter"",""0"",""3585""
","
","
","""event"",""trial"",""time""
""fullscreenenter"",""0"",""3585""
","
","null","<p></p>","null","","","","","","","","","","","","","","","","","","","","","","","",""
"","do_trial","174","518426","0.0-96.0-0.0","""event"",""trial"",""time""
""fullscreenenter"",""0"",""3585""
","
","
","""event"",""trial"",""time""
""fullscreenenter"",""0"",""3585""
","
","288.5","","","","","","","","51","1,0,0","6","blank","307","null","0.32404069178890405","0.5290781170804272","0.43356037836490613","0","","","","","","","","",""
"","html-keyboard-response","175","519428","0.0-96.0-1.0","""event"",""trial"",""time""
""fullscreenenter"",""0"",""3585""
","
","
","""event"",""trial"",""time""
""fullscreenenter"",""0"",""3585""
","
","null","<p></p>","null","","","","","","","","","","","","","","","","","","","","","","","",""
"","do_trial","176","522408","0.0-97.0-0.0","""event"",""trial"",""time""
""fullscreenenter"",""0"",""3585""
","
","
","""event"",""trial"",""time""
""fullscreenenter"",""0"",""3585""
","
","437.80000001192093","","","","","","","","51","0,1,1","6","blank","308","null","0.248956850444608","0.5238873109101938","0.3830039978584477","1","","","","","","","","",""
"","html-keyboard-response","177","523411","0.0-97.0-1.0","""event"",""trial"",""time""
""fullscreenenter"",""0"",""3585""
","
","
","""event"",""trial"",""time""
""fullscreenenter"",""0"",""3585""
","
","null","<p></p>","null","","","","","","","","","","","","","","","","","","","","","","","",""
"","break","178","525216","0.0-98.0-0.0","""event"",""trial"",""time""
""fullscreenenter"",""0"",""3585""
","
","
","""event"",""trial"",""time""
""fullscreenenter"",""0"",""3585""
","
","1803.0999999642372","<div class='center'><p>Time to take a quick break! You have 2 minutes to rest, but you can move on sooner if you'd like.</p><p> Press the <b>space bar</b> to continue.</p></div>","32","","","","","","","","","","","","","","","","","","","","","","","",""
"","do_trial","179","528671","0.0-98.0-1.0","""event"",""trial"",""time""
""fullscreenenter"",""0"",""3585""
","
","
","""event"",""trial"",""time""
""fullscreenenter"",""0"",""3585""
","
","918.3000000119209","","","","","","","","49","0,1,0","6","blank","309","null","0.1421880663623929","0.7030789715767826","0.27766292078738253","0","","","","","","","","",""
"","html-keyboard-response","180","529677","0.0-98.0-2.0","""event"",""trial"",""time""
""fullscreenenter"",""0"",""3585""
","
","
","""event"",""trial"",""time""
""fullscreenenter"",""0"",""3585""
","
","null","<p></p>","null","","","","","","","","","","","","","","","","","","","","","","","",""
"","do_recog","181","533362","0.0-99.0-0.0","""event"",""trial"",""time""
""fullscreenenter"",""0"",""3585""
","
","
","""event"",""trial"",""time""
""fullscreenenter"",""0"",""3585""
","
","2176.100000023842","","","","","","","","55","","","","310","probe-52","","","","","1","[object Object]","151","3","0","","","",""
"","html-keyboard-response","182","534363","0.0-99.0-1.0","""event"",""trial"",""time""
""fullscreenenter"",""0"",""3585""
","
","
","""event"",""trial"",""time""
""fullscreenenter"",""0"",""3585""
","
","null","<p></p>","null","","","","","","","","","","","","","","","","","","","","","","","",""
"","do_trial","183","538834","0.0-100.0-0.0","""event"",""trial"",""time""
""fullscreenenter"",""0"",""3585""
","
","
","""event"",""trial"",""time""
""fullscreenenter"",""0"",""3585""
","
","1887.0999999642372","","","","","","","","49","0,0,1","6","blank","311","null","0.15153845108273947","0.6581628107251528","0.24741084249897183","0","","","","","","","","",""
"","html-keyboard-response","184","539838","0.0-100.0-1.0","""event"",""trial"",""time""
""fullscreenenter"",""0"",""3585""
","
","
","""event"",""trial"",""time""
""fullscreenenter"",""0"",""3585""
","
","null","<p></p>","null","","","","","","","","","","","","","","","","","","","","","","","",""
"","do_recog","185","543152","0.0-101.0-0.0","""event"",""trial"",""time""
""fullscreenenter"",""0"",""3585""
","
","
","""event"",""trial"",""time""
""fullscreenenter"",""0"",""3585""
","
","1806.1000000238419","","","","","","","","53","","","","312","probe-219","","","","","1","[object Object]","154","3","1","","","",""
"","html-keyboard-response","186","544155","0.0-101.0-1.0","""event"",""trial"",""time""
""fullscreenenter"",""0"",""3585""
","
","
","""event"",""trial"",""time""
""fullscreenenter"",""0"",""3585""
","
","null","<p></p>","null","","","","","","","","","","","","","","","","","","","","","","","",""
"","do_trial","187","547712","0.0-102.0-0.0","""event"",""trial"",""time""
""fullscreenenter"",""0"",""3585""
","
","
","""event"",""trial"",""time""
""fullscreenenter"",""0"",""3585""
","
","1017.1000000238419","","","","","","","","51","0,1,0","6","blank","313","null","0.26438684510659294","0.5559461765941177","0.29023980528228466","0","","","","","","","","",""
"","html-keyboard-response","188","548716","0.0-102.0-1.0","""event"",""trial"",""time""
""fullscreenenter"",""0"",""3585""
","
","
","""event"",""trial"",""time""
""fullscreenenter"",""0"",""3585""
","
","null","<p></p>","null","","","","","","","","","","","","","","","","","","","","","","","",""
"","do_recog","189","551857","0.0-103.0-0.0","""event"",""trial"",""time""
""fullscreenenter"",""0"",""3585""
","
","
","""event"",""trial"",""time""
""fullscreenenter"",""0"",""3585""
","
","1633.2999999523163","","","","","","","","53","","","","314","probe-65","","","","","1","[object Object]","34","0","1","","","",""
"","html-keyboard-response","190","552862","0.0-103.0-1.0","""event"",""trial"",""time""
""fullscreenenter"",""0"",""3585""
","
","
","""event"",""trial"",""time""
""fullscreenenter"",""0"",""3585""
","
","null","<p></p>","null","","","","","","","","","","","","","","","","","","","","","","","",""
"","do_trial","191","556317","0.0-104.0-0.0","""event"",""trial"",""time""
""fullscreenenter"",""0"",""3585""
","
","
","""event"",""trial"",""time""
""fullscreenenter"",""0"",""3585""
","
","912","","","","","","","","50","1,0,0","6","blank","315","null","0.24374107562868638","0.6823436757126475","0.22080035990250757","0","","","","","","","","",""
"","html-keyboard-response","192","557319","0.0-104.0-1.0","""event"",""trial"",""time""
""fullscreenenter"",""0"",""3585""
","
","
","""event"",""trial"",""time""
""fullscreenenter"",""0"",""3585""
","
","null","<p></p>","null","","","","","","","","","","","","","","","","","","","","","","","",""
"","do_trial","193","560345","0.0-105.0-0.0","""event"",""trial"",""time""
""fullscreenenter"",""0"",""3585""
","
","
","""event"",""trial"",""time""
""fullscreenenter"",""0"",""3585""
","
","487.5","","","","","","","","51","1,1,0","6","blank","316","null","0.27722774908555203","0.7292986197790716","0.33526395474061893","0","","","","","","","","",""
"","html-keyboard-response","194","561347","0.0-105.0-1.0","""event"",""trial"",""time""
""fullscreenenter"",""0"",""3585""
","
","
","""event"",""trial"",""time""
""fullscreenenter"",""0"",""3585""
","
","null","<p></p>","null","","","","","","","","","","","","","","","","","","","","","","","",""
"","do_trial","195","564225","0.0-106.0-0.0","""event"",""trial"",""time""
""fullscreenenter"",""0"",""3585""
","
","
","""event"",""trial"",""time""
""fullscreenenter"",""0"",""3585""
","
","334","","","","","","","","49","0,1,0","6","blank","317","null","0.13709820474904275","0.47496815080963545","0.21792222273579767","0","","","","","","","","",""
"","html-keyboard-response","196","565229","0.0-106.0-1.0","""event"",""trial"",""time""
""fullscreenenter"",""0"",""3585""
","
","
","""event"",""trial"",""time""
""fullscreenenter"",""0"",""3585""
","
","null","<p></p>","null","","","","","","","","","","","","","","","","","","","","","","","",""
"","do_trial","197","568235","0.0-107.0-0.0","""event"",""trial"",""time""
""fullscreenenter"",""0"",""3585""
","
","
","""event"",""trial"",""time""
""fullscreenenter"",""0"",""3585""
","
","465.19999998807907","","","","","","","","51","0,1,0","6","blank","318","null","0.13198494074693662","0.6122772564158053","0.22806965642293087","0","","","","","","","","",""
"","html-keyboard-response","198","569240","0.0-107.0-1.0","""event"",""trial"",""time""
""fullscreenenter"",""0"",""3585""
","
","
","""event"",""trial"",""time""
""fullscreenenter"",""0"",""3585""
","
","null","<p></p>","null","","","","","","","","","","","","","","","","","","","","","","","",""
"","do_trial","199","572344","0.0-108.0-0.0","""event"",""trial"",""time""
""fullscreenenter"",""0"",""3585""
","
","
","""event"",""trial"",""time""
""fullscreenenter"",""0"",""3585""
","
","560.3999999761581","","","","","","","","51","0,1,0","6","blank","319","null","0.09347077217330005","0.5718167322604023","0.2289867445878006","0","","","","","","","","",""
"","html-keyboard-response","200","573347","0.0-108.0-1.0","""event"",""trial"",""time""
""fullscreenenter"",""0"",""3585""
","
","
","""event"",""trial"",""time""
""fullscreenenter"",""0"",""3585""
","
","null","<p></p>","null","","","","","","","","","","","","","","","","","","","","","","","",""
"","do_recog","201","577240","0.0-109.0-0.0","""event"",""trial"",""time""
""fullscreenenter"",""0"",""3585""
","
","
","""event"",""trial"",""time""
""fullscreenenter"",""0"",""3585""
","
","2387.199999988079","","","","","","","","54","","","","320","probe-44","","","","","1","[object Object]","119","2","1","","","",""
"","html-keyboard-response","202","578245","0.0-109.0-1.0","""event"",""trial"",""time""
""fullscreenenter"",""0"",""3585""
","
","
","""event"",""trial"",""time""
""fullscreenenter"",""0"",""3585""
","
","null","<p></p>","null","","","","","","","","","","","","","","","","","","","","","","","",""
"","do_trial","203","582251","0.0-110.0-0.0","""event"",""trial"",""time""
""fullscreenenter"",""0"",""3585""
","
","
","""event"",""trial"",""time""
""fullscreenenter"",""0"",""3585""
","
","1462.699999988079","","","","","","","","49","0,1,1","6","blank","321","null","0.11211513987139457","0.6921762485791557","0.33217927612306114","0","","","","","","","","",""
"","html-keyboard-response","204","583255","0.0-110.0-1.0","""event"",""trial"",""time""
""fullscreenenter"",""0"",""3585""
","
","
","""event"",""trial"",""time""
""fullscreenenter"",""0"",""3585""
","
","null","<p></p>","null","","","","","","","","","","","","","","","","","","","","","","","",""
"","do_recog","205","587024","0.0-111.0-0.0","""event"",""trial"",""time""
""fullscreenenter"",""0"",""3585""
","
","
","""event"",""trial"",""time""
""fullscreenenter"",""0"",""3585""
","
","2260.800000011921","","","","","","","","53","","","","322","probe-84","","","","","1","[object Object]","150","3","1","","","",""
"","html-keyboard-response","206","588029","0.0-111.0-1.0","""event"",""trial"",""time""
""fullscreenenter"",""0"",""3585""
","
","
","""event"",""trial"",""time""
""fullscreenenter"",""0"",""3585""
","
","null","<p></p>","null","","","","","","","","","","","","","","","","","","","","","","","",""
"","do_trial","207","591823","0.0-112.0-0.0","""event"",""trial"",""time""
""fullscreenenter"",""0"",""3585""
","
","
","""event"",""trial"",""time""
""fullscreenenter"",""0"",""3585""
","
","1255.0999999642372","","","","","","","","49","0,1,0","6","blank","323","null","0.21768443178421457","0.8411021784624484","0.45088379170221077","0","","","","","","","","",""
"","html-keyboard-response","208","592829","0.0-112.0-1.0","""event"",""trial"",""time""
""fullscreenenter"",""0"",""3585""
","
","
","""event"",""trial"",""time""
""fullscreenenter"",""0"",""3585""
","
","null","<p></p>","null","","","","","","","","","","","","","","","","","","","","","","","",""
"","do_trial","209","595711","0.0-113.0-0.0","""event"",""trial"",""time""
""fullscreenenter"",""0"",""3585""
","
","
","""event"",""trial"",""time""
""fullscreenenter"",""0"",""3585""
","
","334.5999999642372","","","","","","","","51","0,1,0","6","blank","324","null","0.22208735456593282","0.6572629791756834","0.315941490141788","0","","","","","","","","",""
"","html-keyboard-response","210","596713","0.0-113.0-1.0","""event"",""trial"",""time""
""fullscreenenter"",""0"",""3585""
","
","
","""event"",""trial"",""time""
""fullscreenenter"",""0"",""3585""
","
","null","<p></p>","null","","","","","","","","","","","","","","","","","","","","","","","",""
"","do_trial","211","599699","0.0-114.0-0.0","""event"",""trial"",""time""
""fullscreenenter"",""0"",""3585""
","
","
","""event"",""trial"",""time""
""fullscreenenter"",""0"",""3585""
","
","446.4000000357628","","","","","","","","50","0,1,0","6","blank","325","null","0.19828710177615555","0.5978840189852987","0.31601547436464833","1","","","","","","","","",""
"","html-keyboard-response","212","600701","0.0-114.0-1.0","""event"",""trial"",""time""
""fullscreenenter"",""0"",""3585""
","
","
","""event"",""trial"",""time""
""fullscreenenter"",""0"",""3585""
","
","null","<p></p>","null","","","","","","","","","","","","","","","","","","","","","","","",""
"","do_trial","213","603614","0.0-115.0-0.0","""event"",""trial"",""time""
""fullscreenenter"",""0"",""3585""
","
","
","""event"",""trial"",""time""
""fullscreenenter"",""0"",""3585""
","
","373.10000002384186","","","","","","","","50","0,0,1","6","blank","326","null","0.15119952093998498","0.6539760107379716","0.3321405897139979","0","","","","","","","","",""
"","html-keyboard-response","214","604616","0.0-115.0-1.0","""event"",""trial"",""time""
""fullscreenenter"",""0"",""3585""
","
","
","""event"",""trial"",""time""
""fullscreenenter"",""0"",""3585""
","
","null","<p></p>","null","","","","","","","","","","","","","","","","","","","","","","","",""
"","do_trial","215","607496","0.0-116.0-0.0","""event"",""trial"",""time""
""fullscreenenter"",""0"",""3585""
","
","
","""event"",""trial"",""time""
""fullscreenenter"",""0"",""3585""
","
","340.39999997615814","","","","","","","","50","0,0,0","6","blank","327","null","0.1404987714295283","0.5907201352820589","0.3668087270382435","0","","","","","","","","",""
"","html-keyboard-response","216","608501","0.0-116.0-1.0","""event"",""trial"",""time""
""fullscreenenter"",""0"",""3585""
","
","
","""event"",""trial"",""time""
""fullscreenenter"",""0"",""3585""
","
","null","<p></p>","null","","","","","","","","","","","","","","","","","","","","","","","",""
"","do_recog","217","611740","0.0-117.0-0.0","""event"",""trial"",""time""
""fullscreenenter"",""0"",""3585""
","
","
","""event"",""trial"",""time""
""fullscreenenter"",""0"",""3585""
","
","1729.1000000238419","","","","","","","","53","","","","328","probe-38","","","","","1","[object Object]","33","0","1","","","",""
"","html-keyboard-response","218","612746","0.0-117.0-1.0","""event"",""trial"",""time""
""fullscreenenter"",""0"",""3585""
","
","
","""event"",""trial"",""time""
""fullscreenenter"",""0"",""3585""
","
","null","<p></p>","null","","","","","","","","","","","","","","","","","","","","","","","",""
"","do_trial","219","616244","0.0-118.0-0.0","""event"",""trial"",""time""
""fullscreenenter"",""0"",""3585""
","
","
","""event"",""trial"",""time""
""fullscreenenter"",""0"",""3585""
","
","951.1000000238419","","","","","","","","51","0,1,1","6","blank","329","null","0.14793248676241283","0.5043654770462349","0.4198242195740786","1","","","","","","","","",""
"","html-keyboard-response","220","617248","0.0-118.0-1.0","""event"",""trial"",""time""
""fullscreenenter"",""0"",""3585""
","
","
","""event"",""trial"",""time""
""fullscreenenter"",""0"",""3585""
","
","null","<p></p>","null","","","","","","","","","","","","","","","","","","","","","","","",""
"","do_recog","221","620710","0.0-119.0-0.0","""event"",""trial"",""time""
""fullscreenenter"",""0"",""3585""
","
","
","""event"",""trial"",""time""
""fullscreenenter"",""0"",""3585""
","
","1951.300000011921","","","","","","","","54","","","","330","probe-247","","","","","0","[object Object]","null","null","0","","","",""
"","html-keyboard-response","222","621713","0.0-119.0-1.0","""event"",""trial"",""time""
""fullscreenenter"",""0"",""3585""
","
","
","""event"",""trial"",""time""
""fullscreenenter"",""0"",""3585""
","
","null","<p></p>","null","","","","","","","","","","","","","","","","","","","","","","","",""
"","do_trial","223","625263","0.0-120.0-0.0","""event"",""trial"",""time""
""fullscreenenter"",""0"",""3585""
","
","
","""event"",""trial"",""time""
""fullscreenenter"",""0"",""3585""
","
","1006.6999999880791","","","","","","","","49","0,0,1","6","blank","331","null","0.05240490531103726","0.3904995103612084","0.4038287374111807","0","","","","","","","","",""
"","html-keyboard-response","224","626269","0.0-120.0-1.0","""event"",""trial"",""time""
""fullscreenenter"",""0"",""3585""
","
","
","""event"",""trial"",""time""
""fullscreenenter"",""0"",""3585""
","
","null","<p></p>","null","","","","","","","","","","","","","","","","","","","","","","","",""
"","do_trial","225","629589","0.0-121.0-0.0","""event"",""trial"",""time""
""fullscreenenter"",""0"",""3585""
","
","
","""event"",""trial"",""time""
""fullscreenenter"",""0"",""3585""
","
","778","","","","","","","","51","0,0,0","6","blank","332","null","0.06704120924442218","0.41945713771226667","0.37829726639632927","0","","","","","","","","",""
"","html-keyboard-response","226","630593","0.0-121.0-1.0","""event"",""trial"",""time""
""fullscreenenter"",""0"",""3585""
","
","
","""event"",""trial"",""time""
""fullscreenenter"",""0"",""3585""
","
","null","<p></p>","null","","","","","","","","","","","","","","","","","","","","","","","",""
"","do_trial","227","633461","0.0-122.0-0.0","""event"",""trial"",""time""
""fullscreenenter"",""0"",""3585""
","
","
","""event"",""trial"",""time""
""fullscreenenter"",""0"",""3585""
","
","325.0999999642372","","","","","","","","50","0,0,0","6","blank","333","null","0.1868815830921848","0.5120170469474524","0.30059365274123684","0","","","","","","","","",""
"","html-keyboard-response","228","634463","0.0-122.0-1.0","""event"",""trial"",""time""
""fullscreenenter"",""0"",""3585""
","
","
","""event"",""trial"",""time""
""fullscreenenter"",""0"",""3585""
","
","null","<p></p>","null","","","","","","","","","","","","","","","","","","","","","","","",""
"","do_trial","229","637397","0.0-123.0-0.0","""event"",""trial"",""time""
""fullscreenenter"",""0"",""3585""
","
","
","""event"",""trial"",""time""
""fullscreenenter"",""0"",""3585""
","
","389.5999999642372","","","","","","","","51","0,0,1","6","blank","334","null","0.1732217546474935","0.4299003600998438","0.31898046855849027","1","","","","","","","","",""
"","html-keyboard-response","230","638399","0.0-123.0-1.0","""event"",""trial"",""time""
""fullscreenenter"",""0"",""3585""
","
","
","""event"",""trial"",""time""
""fullscreenenter"",""0"",""3585""
","
","null","<p></p>","null","","","","","","","","","","","","","","","","","","","","","","","",""
"","do_trial","231","641259","0.0-124.0-0.0","""event"",""trial"",""time""
""fullscreenenter"",""0"",""3585""
","
","
","""event"",""trial"",""time""
""fullscreenenter"",""0"",""3585""
","
","315.10000002384186","","","","","","","","51","0,1,1","6","blank","335","null","0.14643408729226673","0.44038924317683603","0.12404715527133188","1","","","","","","","","",""
"","html-keyboard-response","232","642264","0.0-124.0-1.0","""event"",""trial"",""time""
""fullscreenenter"",""0"",""3585""
","
","
","""event"",""trial"",""time""
""fullscreenenter"",""0"",""3585""
","
","null","<p></p>","null","","","","","","","","","","","","","","","","","","","","","","","",""
"","do_trial","233","645418","0.0-125.0-0.0","""event"",""trial"",""time""
""fullscreenenter"",""0"",""3585""
","
","
","""event"",""trial"",""time""
""fullscreenenter"",""0"",""3585""
","
","613.7999999523163","","","","","","","","51","0,1,0","6","blank","336","null","0.09126891178104582","0.4508200393320169","0.08643897973410884","0","","","","","","","","",""
"","html-keyboard-response","234","646422","0.0-125.0-1.0","""event"",""trial"",""time""
""fullscreenenter"",""0"",""3585""
","
","
","""event"",""trial"",""time""
""fullscreenenter"",""0"",""3585""
","
","null","<p></p>","null","","","","","","","","","","","","","","","","","","","","","","","",""
"","do_recog","235","650025","0.0-126.0-0.0","""event"",""trial"",""time""
""fullscreenenter"",""0"",""3585""
","
","
","""event"",""trial"",""time""
""fullscreenenter"",""0"",""3585""
","
","2092.800000011921","","","","","","","","55","","","","337","probe-252","","","","","0","[object Object]","null","null","1","","","",""
"","html-keyboard-response","236","651030","0.0-126.0-1.0","""event"",""trial"",""time""
""fullscreenenter"",""0"",""3585""
","
","
","""event"",""trial"",""time""
""fullscreenenter"",""0"",""3585""
","
","null","<p></p>","null","","","","","","","","","","","","","","","","","","","","","","","",""
"","do_trial","237","655278","0.0-127.0-0.0","""event"",""trial"",""time""
""fullscreenenter"",""0"",""3585""
","
","
","""event"",""trial"",""time""
""fullscreenenter"",""0"",""3585""
","
","1705.1000000238419","","","","","","","","49","0,1,0","6","blank","338","null","0.06501626295115848","0.6154456051361372","0.3225915451977058","0","","","","","","","","",""
"","html-keyboard-response","238","656283","0.0-127.0-1.0","""event"",""trial"",""time""
""fullscreenenter"",""0"",""3585""
","
","
","""event"",""trial"",""time""
""fullscreenenter"",""0"",""3585""
","
","null","<p></p>","null","","","","","","","","","","","","","","","","","","","","","","","",""
"","do_trial","239","659234","0.0-128.0-0.0","""event"",""trial"",""time""
""fullscreenenter"",""0"",""3585""
","
","
","""event"",""trial"",""time""
""fullscreenenter"",""0"",""3585""
","
","409.5","","","","","","","","51","0,0,1","6","blank","339","null","0.10812680592435635","0.5583311060771015","0.4532661323870778","1","","","","","","","","",""
"","html-keyboard-response","240","660238","0.0-128.0-1.0","""event"",""trial"",""time""
""fullscreenenter"",""0"",""3585""
","
","
","""event"",""trial"",""time""
""fullscreenenter"",""0"",""3585""
","
","null","<p></p>","null","","","","","","","","","","","","","","","","","","","","","","","",""
"","do_trial","241","663297","0.0-129.0-0.0","""event"",""trial"",""time""
""fullscreenenter"",""0"",""3585""
","
","
","""event"",""trial"",""time""
""fullscreenenter"",""0"",""3585""
","
","518.1999999880791","","","","","","","","51","0,1,1","6","blank","340","null","0.15507269583355585","0.6204077252849458","0.44826497497952955","1","","","","","","","","",""
"","html-keyboard-response","242","664299","0.0-129.0-1.0","""event"",""trial"",""time""
""fullscreenenter"",""0"",""3585""
","
","
","""event"",""trial"",""time""
""fullscreenenter"",""0"",""3585""
","
","null","<p></p>","null","","","","","","","","","","","","","","","","","","","","","","","",""
"","do_trial","243","668137","0.0-130.0-0.0","""event"",""trial"",""time""
""fullscreenenter"",""0"",""3585""
","
","
","""event"",""trial"",""time""
""fullscreenenter"",""0"",""3585""
","
","1296.8999999761581","","","","","","","","51","0,1,0","6","blank","341","null","0.2101025273450259","0.44043246894251653","0.37954954163303994","0","","","","","","","","",""
"","html-keyboard-response","244","669140","0.0-130.0-1.0","""event"",""trial"",""time""
""fullscreenenter"",""0"",""3585""
","
","
","""event"",""trial"",""time""
""fullscreenenter"",""0"",""3585""
","
","null","<p></p>","null","","","","","","","","","","","","","","","","","","","","","","","",""
"","do_recog","245","672898","0.0-131.0-0.0","""event"",""trial"",""time""
""fullscreenenter"",""0"",""3585""
","
","
","""event"",""trial"",""time""
""fullscreenenter"",""0"",""3585""
","
","2249.199999988079","","","","","","","","55","","","","342","probe-241","","","","","0","[object Object]","null","null","1","","","",""
"","html-keyboard-response","246","673901","0.0-131.0-1.0","""event"",""trial"",""time""
""fullscreenenter"",""0"",""3585""
","
","
","""event"",""trial"",""time""
""fullscreenenter"",""0"",""3585""
","
","null","<p></p>","null","","","","","","","","","","","","","","","","","","","","","","","",""
"","do_trial","247","677368","0.0-132.0-0.0","""event"",""trial"",""time""
""fullscreenenter"",""0"",""3585""
","
","
","""event"",""trial"",""time""
""fullscreenenter"",""0"",""3585""
","
","924.8000000119209","","","","","","","","49","0,1,0","6","blank","343","null","0.16872849068410514","0.5729940985845537","0.3480286112594154","0","","","","","","","","",""
"","html-keyboard-response","248","678372","0.0-132.0-1.0","""event"",""trial"",""time""
""fullscreenenter"",""0"",""3585""
","
","
","""event"",""trial"",""time""
""fullscreenenter"",""0"",""3585""
","
","null","<p></p>","null","","","","","","","","","","","","","","","","","","","","","","","",""
"","do_trial","249","681350","0.0-133.0-0.0","""event"",""trial"",""time""
""fullscreenenter"",""0"",""3585""
","
","
","""event"",""trial"",""time""
""fullscreenenter"",""0"",""3585""
","
","439.5","","","","","","","","51","1,0,0","6","blank","344","null","0.15602049613880073","0.7034807341078282","0.30540096191384514","0","","","","","","","","",""
"","html-keyboard-response","250","682353","0.0-133.0-1.0","""event"",""trial"",""time""
""fullscreenenter"",""0"",""3585""
","
","
","""event"",""trial"",""time""
""fullscreenenter"",""0"",""3585""
","
","null","<p></p>","null","","","","","","","","","","","","","","","","","","","","","","","",""
"","do_trial","251","685591","0.0-134.0-0.0","""event"",""trial"",""time""
""fullscreenenter"",""0"",""3585""
","
","
","""event"",""trial"",""time""
""fullscreenenter"",""0"",""3585""
","
","697.8000000119209","","","","","","","","50","0,1,0","6","blank","345","null","0.14506523689762296","0.6287819939210482","0.4179166252607111","1","","","","","","","","",""
"","html-keyboard-response","252","686594","0.0-134.0-1.0","""event"",""trial"",""time""
""fullscreenenter"",""0"",""3585""
","
","
","""event"",""trial"",""time""
""fullscreenenter"",""0"",""3585""
","
","null","<p></p>","null","","","","","","","","","","","","","","","","","","","","","","","",""
"","do_trial","253","689431","0.0-135.0-0.0","""event"",""trial"",""time""
""fullscreenenter"",""0"",""3585""
","
","
","""event"",""trial"",""time""
""fullscreenenter"",""0"",""3585""
","
","295.5","","","","","","","","50","0,1,1","6","blank","346","null","0.1915333799559976","0.6987630264009428","0.3705375080735442","1","","","","","","","","",""
"","html-keyboard-response","254","690435","0.0-135.0-1.0","""event"",""trial"",""time""
""fullscreenenter"",""0"",""3585""
","
","
","""event"",""trial"",""time""
""fullscreenenter"",""0"",""3585""
","
","null","<p></p>","null","","","","","","","","","","","","","","","","","","","","","","","",""
"","do_trial","255","693702","0.0-136.0-0.0","""event"",""trial"",""time""
""fullscreenenter"",""0"",""3585""
","
","
","""event"",""trial"",""time""
""fullscreenenter"",""0"",""3585""
","
","724.1000000238419","","","","","","","","50","0,0,0","6","blank","347","null","0.1205913500402215","0.6672229477079098","0.36200373503143435","0","","","","","","","","",""
"","html-keyboard-response","256","694704","0.0-136.0-1.0","""event"",""trial"",""time""
""fullscreenenter"",""0"",""3585""
","
","
","""event"",""trial"",""time""
""fullscreenenter"",""0"",""3585""
","
","null","<p></p>","null","","","","","","","","","","","","","","","","","","","","","","","",""
"","do_trial","257","697641","0.0-137.0-0.0","""event"",""trial"",""time""
""fullscreenenter"",""0"",""3585""
","
","
","""event"",""trial"",""time""
""fullscreenenter"",""0"",""3585""
","
","393.60000002384186","","","","","","","","51","0,0,0","6","blank","348","null","0.18569152433452651","0.6883414058139009","0.39943925115093765","0","","","","","","","","",""
"","html-keyboard-response","258","698645","0.0-137.0-1.0","""event"",""trial"",""time""
""fullscreenenter"",""0"",""3585""
","
","
","""event"",""trial"",""time""
""fullscreenenter"",""0"",""3585""
","
","null","<p></p>","null","","","","","","","","","","","","","","","","","","","","","","","",""
"","break","259","700643","0.0-138.0-0.0","""event"",""trial"",""time""
""fullscreenenter"",""0"",""3585""
","
","
","""event"",""trial"",""time""
""fullscreenenter"",""0"",""3585""
","
","1997.2999999523163","<div class='center'><p>Time to take a quick break! You have 2 minutes to rest, but you can move on sooner if you'd like.</p><p> Press the <b>space bar</b> to continue.</p></div>","32","","","","","","","","","","","","","","","","","","","","","","","",""
"","do_trial","260","705384","0.0-138.0-1.0","""event"",""trial"",""time""
""fullscreenenter"",""0"",""3585""
","
","
","""event"",""trial"",""time""
""fullscreenenter"",""0"",""3585""
","
","2202.600000023842","","","","","","","","49","1,0,1","6","blank","349","null","0.47115000909315496","0.6772037968310375","0.3616743692153524","1","","","","","","","","",""
"","html-keyboard-response","261","706388","0.0-138.0-2.0","""event"",""trial"",""time""
""fullscreenenter"",""0"",""3585""
","
","
","""event"",""trial"",""time""
""fullscreenenter"",""0"",""3585""
","
","null","<p></p>","null","","","","","","","","","","","","","","","","","","","","","","","",""
"","do_recog","262","710026","0.0-139.0-0.0","""event"",""trial"",""time""
""fullscreenenter"",""0"",""3585""
","
","
","""event"",""trial"",""time""
""fullscreenenter"",""0"",""3585""
","
","2129.099999964237","","","","","","","","55","","","","350","probe-57","","","","","1","[object Object]","110","2","0","","","",""
"","html-keyboard-response","263","711031","0.0-139.0-1.0","""event"",""trial"",""time""
""fullscreenenter"",""0"",""3585""
","
","
","""event"",""trial"",""time""
""fullscreenenter"",""0"",""3585""
","
","null","<p></p>","null","","","","","","","","","","","","","","","","","","","","","","","",""
"","do_trial","264","714765","0.0-140.0-0.0","""event"",""trial"",""time""
""fullscreenenter"",""0"",""3585""
","
","
","""event"",""trial"",""time""
""fullscreenenter"",""0"",""3585""
","
","1192.699999988079","","","","","","","","50","1,0,1","6","blank","351","null","0.5598477744360313","0.6728591259725302","0.3164734645411793","0","","","","","","","","",""
"","html-keyboard-response","265","715769","0.0-140.0-1.0","""event"",""trial"",""time""
""fullscreenenter"",""0"",""3585""
","
","
","""event"",""trial"",""time""
""fullscreenenter"",""0"",""3585""
","
","null","<p></p>","null","","","","","","","","","","","","","","","","","","","","","","","",""
"","do_trial","266","718991","0.0-141.0-0.0","""event"",""trial"",""time""
""fullscreenenter"",""0"",""3585""
","
","
","""event"",""trial"",""time""
""fullscreenenter"",""0"",""3585""
","
","682.6999999880791","","","","","","","","51","1,0,0","6","blank","352","null","0.7017345038223328","0.5566457104432179","0.34349661211175","0","","","","","","","","",""
"","html-keyboard-response","267","719995","0.0-141.0-1.0","""event"",""trial"",""time""
""fullscreenenter"",""0"",""3585""
","
","
","""event"",""trial"",""time""
""fullscreenenter"",""0"",""3585""
","
","null","<p></p>","null","","","","","","","","","","","","","","","","","","","","","","","",""
"","do_trial","268","723111","0.0-142.0-0.0","""event"",""trial"",""time""
""fullscreenenter"",""0"",""3585""
","
","
","""event"",""trial"",""time""
""fullscreenenter"",""0"",""3585""
","
","577.4000000357628","","","","","","","","49","1,0,0","6","blank","353","null","0.7107565399201581","0.3769520410641771","0.34579311814268165","1","","","","","","","","",""
"","html-keyboard-response","269","724115","0.0-142.0-1.0","""event"",""trial"",""time""
""fullscreenenter"",""0"",""3585""
","
","
","""event"",""trial"",""time""
""fullscreenenter"",""0"",""3585""
","
","null","<p></p>","null","","","","","","","","","","","","","","","","","","","","","","","",""
"","do_trial","270","727548","0.0-143.0-0.0","""event"",""trial"",""time""
""fullscreenenter"",""0"",""3585""
","
","
","""event"",""trial"",""time""
""fullscreenenter"",""0"",""3585""
","
","890.7999999523163","","","","","","","","49","1,0,1","6","blank","354","null","0.6093979737027889","0.13938480871193767","0.37926666868168846","1","","","","","","","","",""
"","html-keyboard-response","271","728553","0.0-143.0-1.0","""event"",""trial"",""time""
""fullscreenenter"",""0"",""3585""
","
","
","""event"",""trial"",""time""
""fullscreenenter"",""0"",""3585""
","
","null","<p></p>","null","","","","","","","","","","","","","","","","","","","","","","","",""
"","do_recog","272","732060","0.0-144.0-0.0","""event"",""trial"",""time""
""fullscreenenter"",""0"",""3585""
","
","
","""event"",""trial"",""time""
""fullscreenenter"",""0"",""3585""
","
","2000.800000011921","","","","","","","","56","","","","355","probe-142","","","","","1","[object Object]","198","4","0","","","",""
"","html-keyboard-response","273","733065","0.0-144.0-1.0","""event"",""trial"",""time""
""fullscreenenter"",""0"",""3585""
","
","
","""event"",""trial"",""time""
""fullscreenenter"",""0"",""3585""
","
","null","<p></p>","null","","","","","","","","","","","","","","","","","","","","","","","",""
"","do_trial","274","736723","0.0-145.0-0.0","""event"",""trial"",""time""
""fullscreenenter"",""0"",""3585""
","
","
","""event"",""trial"",""time""
""fullscreenenter"",""0"",""3585""
","
","1116.5","","","","","","","","50","1,0,1","6","blank","356","null","0.578615474340238","0.2501678225943651","0.415813136594664","0","","","","","","","","",""
"","html-keyboard-response","275","737728","0.0-145.0-1.0","""event"",""trial"",""time""
""fullscreenenter"",""0"",""3585""
","
","
","""event"",""trial"",""time""
""fullscreenenter"",""0"",""3585""
","
","null","<p></p>","null","","","","","","","","","","","","","","","","","","","","","","","",""
"","do_trial","276","740629","0.0-146.0-0.0","""event"",""trial"",""time""
""fullscreenenter"",""0"",""3585""
","
","
","""event"",""trial"",""time""
""fullscreenenter"",""0"",""3585""
","
","357.19999998807907","","","","","","","","51","0,0,1","6","blank","357","null","0.6698082242850671","0.09599124896774144","0.38885496333475694","1","","","","","","","","",""
"","html-keyboard-response","277","741632","0.0-146.0-1.0","""event"",""trial"",""time""
""fullscreenenter"",""0"",""3585""
","
","
","""event"",""trial"",""time""
""fullscreenenter"",""0"",""3585""
","
