"success","trial_type","trial_index","time_elapsed","internal_node_id","interactions","blur_events","focus_events","fullscreenenter_events","fullscreenexit_events","rt","stimulus","key_press","subject_id","participant_id","age","gender","prompt","response","choice_outcomes","context_n","context_img_id","trial_n","probe_img_id","pR_red","pR_white","pR_black","outcome","is_valid","image_to_show","probed_trial","probed_context","correct","probe","probed_trial_n","probed_context_n","context_im"
"true","fullscreen","0","2938","0.0-0.0","""event"",""trial"",""time""
""fullscreenenter"",""0"",""1954""
","
","
","""event"",""trial"",""time""
""fullscreenenter"",""0"",""1954""
","
","","","","","","","","","","","","","","","","","","","","","","","","","","",""
"","pavlovia","1","2950","0.0-1.0","""event"",""trial"",""time""
""fullscreenenter"",""0"",""1954""
","
","
","""event"",""trial"",""time""
""fullscreenenter"",""0"",""1954""
","
","","","","","","","","","","","","","","","","","","","","","","","","","","",""
"","welc_back","2","12763","0.0-2.0","""event"",""trial"",""time""
""fullscreenenter"",""0"",""1954""
","
","
","""event"",""trial"",""time""
""fullscreenenter"",""0"",""1954""
","
","null","run_exp/static/audio/clip_29_welcome_back.m4a","null","744","916","8","Female","<div class='center'><p>Welcome to day 2!</p><p> Yesterday, you were the head captain of a pirate ship. You asked your fellow pirates to rob other ships of their gold across six different islands.</p></div>","","","","","","","","","","","","","","","","","","",""
"","html-keyboard-response","3","13409","0.0-3.0","""event"",""trial"",""time""
""fullscreenenter"",""0"",""1954""
","
","
","""event"",""trial"",""time""
""fullscreenenter"",""0"",""1954""
","
","640.8999999910593","<div class='center'><p>Welcome to day 2!</p><p> Yesterday, you were the head captain of a pirate ship. You asked your fellow pirates to rob other ships of their gold across six different islands.</p><p><b>[Press the space bar to continue]</b></p></div>","32","","","","","","","","","","","","","","","","","","","","","","","",""
"","day_1_summary_goal","4","30651","0.0-4.0","""event"",""trial"",""time""
""fullscreenenter"",""0"",""1954""
","
","
","""event"",""trial"",""time""
""fullscreenenter"",""0"",""1954""
","
","null","run_exp/static/audio/clip_30_goal_of_game.m4a","null","","","","","<div class='center'><p>Today, like yesterday, you get to pick which pirate you want to rob the next ship.</p><p>If the pirate is successful in robbing a ship, you get gold coins that look like this: </p><p><img src='run_exp/static/images/tutorial/reward.png' height='150'></p><p> If they were not successful in robbing the ship, then you will get no gold coins and you'll see a big red x like this: </p><p><img src='run_exp/static/images/tutorial/reward_no.png' height='150'></p></div>","","","","","","","","","","","","","","","","","","",""
"","html-keyboard-response","5","31091","0.0-5.0","""event"",""trial"",""time""
""fullscreenenter"",""0"",""1954""
","
","
","""event"",""trial"",""time""
""fullscreenenter"",""0"",""1954""
","
","435.5","<div class='center'><p>Today, like yesterday, you get to pick which pirate you want to rob the next ship.</p><p>If the pirate is successful in robbing a ship, you get gold coins that look like this: </p><p><img src='run_exp/static/images/tutorial/reward.png' height='150'></p><p> If they were not successful in robbing the ship, then you will get no gold coins and you'll see a big red x like this: </p><p><img src='run_exp/static/images/tutorial/reward_no.png' height='150'></p><p><b>[Press the space bar to continue]</b></p></div>","32","","","","","","","","","","","","","","","","","","","","","","","",""
"","day_1_summary_pick","6","45797","0.0-6.0","""event"",""trial"",""time""
""fullscreenenter"",""0"",""1954""
","
","
","""event"",""trial"",""time""
""fullscreenenter"",""0"",""1954""
","
","null","run_exp/static/audio/clip_31_how_to_pick_a_pirate.m4a","null","","","","","<div class='center'><p>Also, just like yesterday, you will use the 1,2,3 keys on your keyboard to pick a pirate. Press '1' to choose red beard, '2' to choose white beard, and '3' to choose black beard . You only have 3 seconds to pick a pirate, so please make a choice quickly!</p></div>","","","","","","","","","","","","","","","","","","",""
"","html-keyboard-response","7","46375","0.0-7.0","""event"",""trial"",""time""
""fullscreenenter"",""0"",""1954""
","
","
","""event"",""trial"",""time""
""fullscreenenter"",""0"",""1954""
","
","575.2999999970198","<div class='center'><p>Also, just like yesterday, you will use the 1,2,3 keys on your keyboard to pick a pirate. Press '1' to choose red beard, '2' to choose white beard, and '3' to choose black beard . You only have 3 seconds to pick a pirate, so please make a choice quickly!</p><p><b>[Press the space bar to continue]</b></p></div>","32","","","","","","","","","","","","","","","","","","","","","","","",""
"","test_phase_begin","8","76775","0.0-8.0","""event"",""trial"",""time""
""fullscreenenter"",""0"",""1954""
","
","
","""event"",""trial"",""time""
""fullscreenenter"",""0"",""1954""
","
","null","run_exp/static/audio/clip_32_final_place.m4a","null","","","","","<div class='center'><p>You’ve arrived at the final island of your journey! Unfortunately, it’s very foggy out, so you won’t be able to see it in the distance like the other islands you've visited.</p><p>You’ll still be deciding which pirate you want to rob a ship like before. However, because of the fog, you also won’t be able to see the ship.</p><p>This means you do not have to remember the ships you rob on this island.</p><p>Unlike yesterday, you won't be visiting multiple islands today. You will stay on this island for the entire game. This game will last ~30 minutes.</p></div>","","","","","","","","","","","","","","","","","","",""
"","html-keyboard-response","9","77292","0.0-9.0","""event"",""trial"",""time""
""fullscreenenter"",""0"",""1954""
","
","
","""event"",""trial"",""time""
""fullscreenenter"",""0"",""1954""
","
","512.4000000059605","<div class='center'><p>You’ve arrived at the final island of your journey! Unfortunately, it’s very foggy out, so you won’t be able to see it in the distance like the other islands you've visited.</p><p>You’ll still be deciding which pirate you want to rob a ship like before. However, because of the fog, you also won’t be able to see the ship.</p><p>This means you do not have to remember the ships you rob on this island.</p><p>Unlike yesterday, you won't be visiting multiple islands today. You will stay on this island for the entire game. This game will last ~30 minutes.</p><p><b>[Press the space bar to continue]</b></p></div>","32","","","","","","","","","","","","","","","","","","","","","","","",""
"","explain_probe_1","10","85017","0.0-10.0","""event"",""trial"",""time""
""fullscreenenter"",""0"",""1954""
","
","
","""event"",""trial"",""time""
""fullscreenenter"",""0"",""1954""
","
","null","run_exp/static/audio/clip_33_recognition_1.m4a","null","","","","","<div class='center'><p> Sometimes you’ll be shown a ship, and you will be asked if you saw this ship on a past island.</p><p> Here is an example of what you will see.</p><p><img src='run_exp/static/images/tutorial/example_recog_trial.png' height='500'></p></div>","","","","","","","","","","","","","","","","","","",""
"","html-keyboard-response","11","86062","0.0-11.0","""event"",""trial"",""time""
""fullscreenenter"",""0"",""1954""
","
","
","""event"",""trial"",""time""
""fullscreenenter"",""0"",""1954""
","
","1041.5","<div class='center'><p> Sometimes you’ll be shown a ship, and you will be asked if you saw this ship on a past island.</p><p> Here is an example of what you will see.</p><p><img src='run_exp/static/images/tutorial/example_recog_trial.png' height='500'></p><p><b>[Press the space bar to continue]</b></p></div>","32","","","","","","","","","","","","","","","","","","","","","","","",""
"","explain_probe_2","12","107775","0.0-12.0","""event"",""trial"",""time""
""fullscreenenter"",""0"",""1954""
","
","
","""event"",""trial"",""time""
""fullscreenenter"",""0"",""1954""
","
","null","run_exp/static/audio/clip_34_recognition_2.m4a","null","","","","","<div class='center'><p> You will press the 5, 6, 7, 8 keys on your keyboard to respond.</p><p>If you are sure you saw the ship, press <b>5</b> on your keyboard.</p><p> If you think you saw it before but aren't sure, then press <b>6</b>.</p><p> If you think you have <b>not</b> seen it before but aren't sure, then press <b>7</b>.</p><p> If you are sure you did <b>not</b> see the ship before, then press <b>8</b>.</p><p><img src='run_exp/static/images/tutorial/example_recog_trial.png' height='500'></p></div>","","","","","","","","","","","","","","","","","","",""
"","html-keyboard-response","13","109086","0.0-13.0","""event"",""trial"",""time""
""fullscreenenter"",""0"",""1954""
","
","
","""event"",""trial"",""time""
""fullscreenenter"",""0"",""1954""
","
","1308","<div class='center'><p> You will press the 5, 6, 7, 8 keys on your keyboard to respond.</p><p>If you are sure you saw the ship, press <b>5</b> on your keyboard.</p><p> If you think you saw it before but aren't sure, then press <b>6</b>.</p><p> If you think you have <b>not</b> seen it before but aren't sure, then press <b>7</b>.</p><p> If you are sure you did <b>not</b> see the ship before, then press <b>8</b>.</p><p><img src='run_exp/static/images/tutorial/example_recog_trial.png' height='500'></p><p><b>[Press the space bar to continue]</b></p></div>","32","","","","","","","","","","","","","","","","","","","","","","","",""
"","explain_outcome","14","126295","0.0-14.0","""event"",""trial"",""time""
""fullscreenenter"",""0"",""1954""
","
","
","""event"",""trial"",""time""
""fullscreenenter"",""0"",""1954""
","
","null","run_exp/static/audio/clip_35_recognition_3.m4a","null","","","","","<div class='center'><p> If you remember correctly, then you’ll get a gold coin like this: </p><p><img src='run_exp/static/images/tutorial/reward_small.png' height='200'></p><p>If you do not remember correctly, then you'll see a red x like this: </p><p><img src='run_exp/static/images/tutorial/reward_no.png' height='200'></p><p>Importantly, when you are shown a ship, take the time to remind yourself which island you saw it on. This will help you in the next part of the study.</p></div>","","","","","","","","","","","","","","","","","","",""
"","html-keyboard-response","15","127196","0.0-15.0","""event"",""trial"",""time""
""fullscreenenter"",""0"",""1954""
","
","
","""event"",""trial"",""time""
""fullscreenenter"",""0"",""1954""
","
","897.3999999910593","<div class='center'><p> If you remember correctly, then you’ll get a gold coin like this: </p><p><img src='run_exp/static/images/tutorial/reward_small.png' height='200'></p><p>If you do not remember correctly, then you'll see a red x like this: </p><p><img src='run_exp/static/images/tutorial/reward_no.png' height='200'></p><p>Importantly, when you are shown a ship, take the time to remind yourself which island you saw it on. This will help you in the next part of the study.</p><p><b>[Press the space bar to continue]</b></p></div>","32","","","","","","","","","","","","","","","","","","","","","","","",""
"","begin_test_phase","16","143006","0.0-16.0","""event"",""trial"",""time""
""fullscreenenter"",""0"",""1954""
","
","
","""event"",""trial"",""time""
""fullscreenenter"",""0"",""1954""
","
","null","run_exp/static/audio/clip_36_begin_final.m4a","null","","","","","<div class='center'><p>Let's go over the important points again. Your job is to: </p><p>1. Pick the pirate who is best at robbing ships and will bring you back gold coins. </p><p>2. Correctly remember whether or not you saw a ship before. If you did see the ship before, remind yourself on which island you saw it. </p></div>","","","","","","","","","","","","","","","","","","",""
"","html-keyboard-response","17","144418","0.0-17.0","""event"",""trial"",""time""
""fullscreenenter"",""0"",""1954""
","
","
","""event"",""trial"",""time""
""fullscreenenter"",""0"",""1954""
","
","1299.0999999940395","<div class='center'><p>Let's go over the important points again. Your job is to: </p><p>1. Pick the pirate who is best at robbing ships and will bring you back gold coins. </p><p>2. Correctly remember whether or not you saw a ship before. If you did see the ship before, remind yourself on which island you saw it. </p><p><b>[Press the space bar to continue]</b></p></div>","32","","","","","","","","","","","","","","","","","","","","","","","",""
"","do_welcome","18","148440","0.0-18.0","""event"",""trial"",""time""
""fullscreenenter"",""0"",""1954""
","
","
","""event"",""trial"",""time""
""fullscreenenter"",""0"",""1954""
","
","null","","","","","","","","null","","","","","","","","","","","","","","","","","",""
"","do_trial","19","152479","0.0-19.0-0.0","""event"",""trial"",""time""
""fullscreenenter"",""0"",""1954""
","
","
","""event"",""trial"",""time""
""fullscreenenter"",""0"",""1954""
","
","1481","","","","","","","","50","0,1,1","6","blank","230","null","0.5257136055101788","0.39941119321371615","0.0683710146268801","1","","","","","","","","",""
"","html-keyboard-response","20","153483","0.0-19.0-1.0","""event"",""trial"",""time""
""fullscreenenter"",""0"",""1954""
","
","
","""event"",""trial"",""time""
""fullscreenenter"",""0"",""1954""
","
","null","<p></p>","null","","","","","","","","","","","","","","","","","","","","","","","",""
"","do_trial","21","156658","0.0-20.0-0.0","""event"",""trial"",""time""
""fullscreenenter"",""0"",""1954""
","
","
","""event"",""trial"",""time""
""fullscreenenter"",""0"",""1954""
","
","561.8999999910593","","","","","","","","51","0,0,0","6","blank","231","null","0.4554670366644756","0.4629952233132011","0.06912110376806054","0","","","","","","","","",""
"","html-keyboard-response","22","157661","0.0-20.0-1.0","""event"",""trial"",""time""
""fullscreenenter"",""0"",""1954""
","
","
","""event"",""trial"",""time""
""fullscreenenter"",""0"",""1954""
","
","null","<p></p>","null","","","","","","","","","","","","","","","","","","","","","","","",""
"","do_trial","23","160557","0.0-21.0-0.0","""event"",""trial"",""time""
""fullscreenenter"",""0"",""1954""
","
","
","""event"",""trial"",""time""
""fullscreenenter"",""0"",""1954""
","
","341.5","","","","","","","","50","0,1,0","6","blank","232","null","0.38291411148147303","0.5393495204540684","0.1634488966320408","1","","","","","","","","",""
"","html-keyboard-response","24","161560","0.0-21.0-1.0","""event"",""trial"",""time""
""fullscreenenter"",""0"",""1954""
","
","
","""event"",""trial"",""time""
""fullscreenenter"",""0"",""1954""
","
","null","<p></p>","null","","","","","","","","","","","","","","","","","","","","","","","",""
"","do_trial","25","164529","0.0-22.0-0.0","""event"",""trial"",""time""
""fullscreenenter"",""0"",""1954""
","
","
","""event"",""trial"",""time""
""fullscreenenter"",""0"",""1954""
","
","359.40000000596046","","","","","","","","50","1,0,0","6","blank","233","null","0.5075627283292311","0.5009880489055689","0.21446605700422816","0","","","","","","","","",""
"","html-keyboard-response","26","165531","0.0-22.0-1.0","""event"",""trial"",""time""
""fullscreenenter"",""0"",""1954""
","
","
","""event"",""trial"",""time""
""fullscreenenter"",""0"",""1954""
","
","null","<p></p>","null","","","","","","","","","","","","","","","","","","","","","","","",""
"","do_trial","27","168597","0.0-23.0-0.0","""event"",""trial"",""time""
""fullscreenenter"",""0"",""1954""
","
","
","""event"",""trial"",""time""
""fullscreenenter"",""0"",""1954""
","
","450.5","","","","","","","","50","1,0,0","6","blank","234","null","0.49876683548625755","0.431786658226104","0.07688416584868758","0","","","","","","","","",""
"","html-keyboard-response","28","169600","0.0-23.0-1.0","""event"",""trial"",""time""
""fullscreenenter"",""0"",""1954""
","
","
","""event"",""trial"",""time""
""fullscreenenter"",""0"",""1954""
","
","null","<p></p>","null","","","","","","","","","","","","","","","","","","","","","","","",""
"","do_trial","29","172521","0.0-24.0-0.0","""event"",""trial"",""time""
""fullscreenenter"",""0"",""1954""
","
","
","""event"",""trial"",""time""
""fullscreenenter"",""0"",""1954""
","
","313.20000000298023","","","","","","","","49","0,1,0","6","blank","235","null","0.48489753153758924","0.376695562360416","0.13200676316439272","0","","","","","","","","",""
"","html-keyboard-response","30","173524","0.0-24.0-1.0","""event"",""trial"",""time""
""fullscreenenter"",""0"",""1954""
","
","
","""event"",""trial"",""time""
""fullscreenenter"",""0"",""1954""
","
","null","<p></p>","null","","","","","","","","","","","","","","","","","","","","","","","",""
"","do_trial","31","176472","0.0-25.0-0.0","""event"",""trial"",""time""
""fullscreenenter"",""0"",""1954""
","
","
","""event"",""trial"",""time""
""fullscreenenter"",""0"",""1954""
","
","345.70000000298023","","","","","","","","51","1,1,0","6","blank","236","null","0.36185655949027234","0.3260142728288151","0.15263407897378492","0","","","","","","","","",""
"","html-keyboard-response","32","177474","0.0-25.0-1.0","""event"",""trial"",""time""
""fullscreenenter"",""0"",""1954""
","
","
","""event"",""trial"",""time""
""fullscreenenter"",""0"",""1954""
","
","null","<p></p>","null","","","","","","","","","","","","","","","","","","","","","","","",""
"","do_trial","33","180401","0.0-26.0-0.0","""event"",""trial"",""time""
""fullscreenenter"",""0"",""1954""
","
","
","""event"",""trial"",""time""
""fullscreenenter"",""0"",""1954""
","
","318","","","","","","","","50","1,1,1","6","blank","237","null","0.41349114329639614","0.20519683423938354","0.14765750307072817","1","","","","","","","","",""
"","html-keyboard-response","34","181404","0.0-26.0-1.0","""event"",""trial"",""time""
""fullscreenenter"",""0"",""1954""
","
","
","""event"",""trial"",""time""
""fullscreenenter"",""0"",""1954""
","
","null","<p></p>","null","","","","","","","","","","","","","","","","","","","","","","","",""
"","do_trial","35","184358","0.0-27.0-0.0","""event"",""trial"",""time""
""fullscreenenter"",""0"",""1954""
","
","
","""event"",""trial"",""time""
""fullscreenenter"",""0"",""1954""
","
","355.5","","","","","","","","50","0,1,0","6","blank","238","null","0.5450742971824419","0.1583583308466004","0.13018774702580746","1","","","","","","","","",""
"","html-keyboard-response","36","185360","0.0-27.0-1.0","""event"",""trial"",""time""
""fullscreenenter"",""0"",""1954""
","
","
","""event"",""trial"",""time""
""fullscreenenter"",""0"",""1954""
","
","null","<p></p>","null","","","","","","","","","","","","","","","","","","","","","","","",""
"","do_trial","37","188631","0.0-28.0-0.0","""event"",""trial"",""time""
""fullscreenenter"",""0"",""1954""
","
","
","""event"",""trial"",""time""
""fullscreenenter"",""0"",""1954""
","
","669.3999999910593","","","","","","","","49","0,0,0","6","blank","239","null","0.6755123841901517","0.24752982399220594","0.15488967457607392","0","","","","","","","","",""
"","html-keyboard-response","38","189635","0.0-28.0-1.0","""event"",""trial"",""time""
""fullscreenenter"",""0"",""1954""
","
","
","""event"",""trial"",""time""
""fullscreenenter"",""0"",""1954""
","
","null","<p></p>","null","","","","","","","","","","","","","","","","","","","","","","","",""
"","do_trial","39","192660","0.0-29.0-0.0","""event"",""trial"",""time""
""fullscreenenter"",""0"",""1954""
","
","
","""event"",""trial"",""time""
""fullscreenenter"",""0"",""1954""
","
","416.6000000089407","","","","","","","","50","0,1,1","6","blank","240","null","0.6921102247655639","0.20327990318518957","0.2869111561763032","1","","","","","","","","",""
"","html-keyboard-response","40","193663","0.0-29.0-1.0","""event"",""trial"",""time""
""fullscreenenter"",""0"",""1954""
","
","
","""event"",""trial"",""time""
""fullscreenenter"",""0"",""1954""
","
","null","<p></p>","null","","","","","","","","","","","","","","","","","","","","","","","",""
"","do_trial","41","196641","0.0-30.0-0.0","""event"",""trial"",""time""
""fullscreenenter"",""0"",""1954""
","
","
","""event"",""trial"",""time""
""fullscreenenter"",""0"",""1954""
","
","414.59999999403954","","","","","","","","50","1,1,1","6","blank","241","null","0.6874121639608717","0.3830121863186488","0.37251022405436646","1","","","","","","","","",""
"","html-keyboard-response","42","197644","0.0-30.0-1.0","""event"",""trial"",""time""
""fullscreenenter"",""0"",""1954""
","
","
","""event"",""trial"",""time""
""fullscreenenter"",""0"",""1954""
","
","null","<p></p>","null","","","","","","","","","","","","","","","","","","","","","","","",""
"","do_trial","43","200835","0.0-31.0-0.0","""event"",""trial"",""time""
""fullscreenenter"",""0"",""1954""
","
","
","""event"",""trial"",""time""
""fullscreenenter"",""0"",""1954""
","
","621.8999999910593","","","","","","","","51","0,0,0","6","blank","242","null","0.6531998818662567","0.2790234682834271","0.37321852018169155","0","","","","","","","","",""
"","html-keyboard-response","44","201838","0.0-31.0-1.0","""event"",""trial"",""time""
""fullscreenenter"",""0"",""1954""
","
","
","""event"",""trial"",""time""
""fullscreenenter"",""0"",""1954""
","
","null","<p></p>","null","","","","","","","","","","","","","","","","","","","","","","","",""
"","do_recog","45","207855","0.0-32.0-0.0","""event"",""trial"",""time""
""fullscreenenter"",""0"",""1954""
","
","
","""event"",""trial"",""time""
""fullscreenenter"",""0"",""1954""
","
","null","","","","","","","","null","","","","243","probe-176","","","","","1","[object Object]","152","3","0","","","",""
"","html-keyboard-response","46","208859","0.0-32.0-1.0","""event"",""trial"",""time""
""fullscreenenter"",""0"",""1954""
","
","
","""event"",""trial"",""time""
""fullscreenenter"",""0"",""1954""
","
","null","<p></p>","null","","","","","","","","","","","","","","","","","","","","","","","",""
"","do_trial","47","213032","0.0-33.0-0.0","""event"",""trial"",""time""
""fullscreenenter"",""0"",""1954""
","
","
","""event"",""trial"",""time""
""fullscreenenter"",""0"",""1954""
","
","1625.699999988079","","","","","","","","50","0,0,1","6","blank","244","null","0.6419968665850498","0.3459276408082003","0.4608124398592473","0","","","","","","","","",""
"","html-keyboard-response","48","214035","0.0-33.0-1.0","""event"",""trial"",""time""
""fullscreenenter"",""0"",""1954""
","
","
","""event"",""trial"",""time""
""fullscreenenter"",""0"",""1954""
","
","null","<p></p>","null","","","","","","","","","","","","","","","","","","","","","","","",""
"","do_trial","49","217804","0.0-34.0-0.0","""event"",""trial"",""time""
""fullscreenenter"",""0"",""1954""
","
","
","""event"",""trial"",""time""
""fullscreenenter"",""0"",""1954""
","
","1183.7999999970198","","","","","","","","51","0,0,0","6","blank","245","null","0.41985660190475005","0.1664743834621529","0.3670687104622347","0","","","","","","","","",""
"","html-keyboard-response","50","218806","0.0-34.0-1.0","""event"",""trial"",""time""
""fullscreenenter"",""0"",""1954""
","
","
","""event"",""trial"",""time""
""fullscreenenter"",""0"",""1954""
","
","null","<p></p>","null","","","","","","","","","","","","","","","","","","","","","","","",""
"","do_trial","51","221808","0.0-35.0-0.0","""event"",""trial"",""time""
""fullscreenenter"",""0"",""1954""
","
","
","""event"",""trial"",""time""
""fullscreenenter"",""0"",""1954""
","
","399.90000000596046","","","","","","","","50","1,1,1","6","blank","246","null","0.44014269027070435","0.19095129450663936","0.4181523404746205","1","","","","","","","","",""
"","html-keyboard-response","52","222811","0.0-35.0-1.0","""event"",""trial"",""time""
""fullscreenenter"",""0"",""1954""
","
","
","""event"",""trial"",""time""
""fullscreenenter"",""0"",""1954""
","
","null","<p></p>","null","","","","","","","","","","","","","","","","","","","","","","","",""
"","do_recog","53","226501","0.0-36.0-0.0","""event"",""trial"",""time""
""fullscreenenter"",""0"",""1954""
","
","
","""event"",""trial"",""time""
""fullscreenenter"",""0"",""1954""
","
","2175.0999999940395","","","","","","","","56","","","","247","probe-174","","","","","1","[object Object]","71","1","0","","","",""
"","html-keyboard-response","54","227504","0.0-36.0-1.0","""event"",""trial"",""time""
""fullscreenenter"",""0"",""1954""
","
","
","""event"",""trial"",""time""
""fullscreenenter"",""0"",""1954""
","
","null","<p></p>","null","","","","","","","","","","","","","","","","","","","","","","","",""
"","do_trial","55","230923","0.0-37.0-0.0","""event"",""trial"",""time""
""fullscreenenter"",""0"",""1954""
","
","
","""event"",""trial"",""time""
""fullscreenenter"",""0"",""1954""
","
","825.2999999970198","","","","","","","","50","0,0,0","6","blank","248","null","0.43795640767584915","0.05190792792361039","0.4566703146873867","0","","","","","","","","",""
"","html-keyboard-response","56","231926","0.0-37.0-1.0","""event"",""trial"",""time""
""fullscreenenter"",""0"",""1954""
","
","
","""event"",""trial"",""time""
""fullscreenenter"",""0"",""1954""
","
","null","<p></p>","null","","","","","","","","","","","","","","","","","","","","","","","",""
"","do_recog","57","236280","0.0-38.0-0.0","""event"",""trial"",""time""
""fullscreenenter"",""0"",""1954""
","
","
","""event"",""trial"",""time""
""fullscreenenter"",""0"",""1954""
","
","2840.199999988079","","","","","","","","53","","","","249","probe-160","","","","","1","[object Object]","34","0","1","","","",""
"","html-keyboard-response","58","237283","0.0-38.0-1.0","""event"",""trial"",""time""
""fullscreenenter"",""0"",""1954""
","
","
","""event"",""trial"",""time""
""fullscreenenter"",""0"",""1954""
","
","null","<p></p>","null","","","","","","","","","","","","","","","","","","","","","","","",""
"","do_trial","59","240562","0.0-39.0-0.0","""event"",""trial"",""time""
""fullscreenenter"",""0"",""1954""
","
","
","""event"",""trial"",""time""
""fullscreenenter"",""0"",""1954""
","
","670.8999999910593","","","","","","","","50","1,0,0","6","blank","250","null","0.37968665740438895","0.11030990531026955","0.47713140929897324","0","","","","","","","","",""
"","html-keyboard-response","60","241564","0.0-39.0-1.0","""event"",""trial"",""time""
""fullscreenenter"",""0"",""1954""
","
","
","""event"",""trial"",""time""
""fullscreenenter"",""0"",""1954""
","
","null","<p></p>","null","","","","","","","","","","","","","","","","","","","","","","","",""
"","do_trial","61","245430","0.0-40.0-0.0","""event"",""trial"",""time""
""fullscreenenter"",""0"",""1954""
","
","
","""event"",""trial"",""time""
""fullscreenenter"",""0"",""1954""
","
","1293.0999999940395","","","","","","","","51","1,0,1","6","blank","251","null","0.37314346137348053","0.19179546676773687","0.521715589664631","1","","","","","","","","",""
"","html-keyboard-response","62","246433","0.0-40.0-1.0","""event"",""trial"",""time""
""fullscreenenter"",""0"",""1954""
","
","
","""event"",""trial"",""time""
""fullscreenenter"",""0"",""1954""
","
","null","<p></p>","null","","","","","","","","","","","","","","","","","","","","","","","",""
"","do_trial","63","249403","0.0-41.0-0.0","""event"",""trial"",""time""
""fullscreenenter"",""0"",""1954""
","
","
","""event"",""trial"",""time""
""fullscreenenter"",""0"",""1954""
","
","368.5","","","","","","","","51","1,0,1","6","blank","252","null","0.3516236135559045","0.3017798885706242","0.6173492564580684","1","","","","","","","","",""
"","html-keyboard-response","64","250405","0.0-41.0-1.0","""event"",""trial"",""time""
""fullscreenenter"",""0"",""1954""
","
","
","""event"",""trial"",""time""
""fullscreenenter"",""0"",""1954""
","
","null","<p></p>","null","","","","","","","","","","","","","","","","","","","","","","","",""
"","do_trial","65","253294","0.0-42.0-0.0","""event"",""trial"",""time""
""fullscreenenter"",""0"",""1954""
","
","
","""event"",""trial"",""time""
""fullscreenenter"",""0"",""1954""
","
","347.79999999701977","","","","","","","","51","1,0,0","6","blank","253","null","0.4755521595788821","0.25933186872836783","0.4129153582846354","0","","","","","","","","",""
"","html-keyboard-response","66","254297","0.0-42.0-1.0","""event"",""trial"",""time""
""fullscreenenter"",""0"",""1954""
","
","
","""event"",""trial"",""time""
""fullscreenenter"",""0"",""1954""
","
","null","<p></p>","null","","","","","","","","","","","","","","","","","","","","","","","",""
"","do_recog","67","258038","0.0-43.0-0.0","""event"",""trial"",""time""
""fullscreenenter"",""0"",""1954""
","
","
","""event"",""trial"",""time""
""fullscreenenter"",""0"",""1954""
","
","2227.7000000029802","","","","","","","","53","","","","254","probe-103","","","","","1","[object Object]","117","2","1","","","",""
"","html-keyboard-response","68","259041","0.0-43.0-1.0","""event"",""trial"",""time""
""fullscreenenter"",""0"",""1954""
","
","
","""event"",""trial"",""time""
""fullscreenenter"",""0"",""1954""
","
","null","<p></p>","null","","","","","","","","","","","","","","","","","","","","","","","",""
"","do_trial","69","262321","0.0-44.0-0.0","""event"",""trial"",""time""
""fullscreenenter"",""0"",""1954""
","
","
","""event"",""trial"",""time""
""fullscreenenter"",""0"",""1954""
","
","678.7000000029802","","","","","","","","50","1,0,0","6","blank","255","null","0.443527276600236","0.1086978526964738","0.48438153717209076","0","","","","","","","","",""
"","html-keyboard-response","70","263324","0.0-44.0-1.0","""event"",""trial"",""time""
""fullscreenenter"",""0"",""1954""
","
","
","""event"",""trial"",""time""
""fullscreenenter"",""0"",""1954""
","
","null","<p></p>","null","","","","","","","","","","","","","","","","","","","","","","","",""
"","do_trial","71","266486","0.0-45.0-0.0","""event"",""trial"",""time""
""fullscreenenter"",""0"",""1954""
","
","
","""event"",""trial"",""time""
""fullscreenenter"",""0"",""1954""
","
","564.9000000059605","","","","","","","","51","0,0,0","6","blank","256","null","0.33190754393128624","0.13666179339088613","0.29387023430048403","0","","","","","","","","",""
"","html-keyboard-response","72","267488","0.0-45.0-1.0","""event"",""trial"",""time""
""fullscreenenter"",""0"",""1954""
","
","
","""event"",""trial"",""time""
""fullscreenenter"",""0"",""1954""
","
","null","<p></p>","null","","","","","","","","","","","","","","","","","","","","","","","",""
"","do_trial","73","270576","0.0-46.0-0.0","""event"",""trial"",""time""
""fullscreenenter"",""0"",""1954""
","
","
","""event"",""trial"",""time""
""fullscreenenter"",""0"",""1954""
","
","513.7000000029802","","","","","","","","49","0,1,1","6","blank","257","null","0.3613063628494378","0.10141166925568154","0.3047776668748973","0","","","","","","","","",""
"","html-keyboard-response","74","271579","0.0-46.0-1.0","""event"",""trial"",""time""
""fullscreenenter"",""0"",""1954""
","
","
","""event"",""trial"",""time""
""fullscreenenter"",""0"",""1954""
","
","null","<p></p>","null","","","","","","","","","","","","","","","","","","","","","","","",""
"","do_trial","75","274178","0.0-47.0-0.0","""event"",""trial"",""time""
""fullscreenenter"",""0"",""1954""
","
","
","""event"",""trial"",""time""
""fullscreenenter"",""0"",""1954""
","
","0.20000000298023224","","","","","","","","50","0,0,0","6","blank","258","null","0.4416162499507552","0.10369630810145275","0.3569445630600105","0","","","","","","","","",""
"","html-keyboard-response","76","275181","0.0-47.0-1.0","""event"",""trial"",""time""
""fullscreenenter"",""0"",""1954""
","
","
","""event"",""trial"",""time""
""fullscreenenter"",""0"",""1954""
","
","null","<p></p>","null","","","","","","","","","","","","","","","","","","","","","","","",""
"","do_trial","77","278073","0.0-48.0-0.0","""event"",""trial"",""time""
""fullscreenenter"",""0"",""1954""
","
","
","""event"",""trial"",""time""
""fullscreenenter"",""0"",""1954""
","
","279.20000000298023","","","","","","","","51","1,1,1","6","blank","259","null","0.33802807417697045","0.1860939690075203","0.38028508675087525","1","","","","","","","","",""
"","html-keyboard-response","78","279076","0.0-48.0-1.0","""event"",""trial"",""time""
""fullscreenenter"",""0"",""1954""
","
","
","""event"",""trial"",""time""
""fullscreenenter"",""0"",""1954""
","
","null","<p></p>","null","","","","","","","","","","","","","","","","","","","","","","","",""
"","do_trial","79","282246","0.0-49.0-0.0","""event"",""trial"",""time""
""fullscreenenter"",""0"",""1954""
","
","
","""event"",""trial"",""time""
""fullscreenenter"",""0"",""1954""
","
","564.9000000059605","","","","","","","","51","0,0,1","6","blank","260","null","0.16901627833467686","0.15142837168094067","0.4726193015877134","1","","","","","","","","",""
"","html-keyboard-response","80","283248","0.0-49.0-1.0","""event"",""trial"",""time""
""fullscreenenter"",""0"",""1954""
","
","
","""event"",""trial"",""time""
""fullscreenenter"",""0"",""1954""
","
","null","<p></p>","null","","","","","","","","","","","","","","","","","","","","","","","",""
"","do_recog","81","286795","0.0-50.0-0.0","""event"",""trial"",""time""
""fullscreenenter"",""0"",""1954""
","
","
","""event"",""trial"",""time""
""fullscreenenter"",""0"",""1954""
","
","2032.7000000029802","","","","","","","","55","","","","261","probe-39","","","","","1","[object Object]","112","2","0","","","",""
"","html-keyboard-response","82","287798","0.0-50.0-1.0","""event"",""trial"",""time""
""fullscreenenter"",""0"",""1954""
","
","
","""event"",""trial"",""time""
""fullscreenenter"",""0"",""1954""
","
","null","<p></p>","null","","","","","","","","","","","","","","","","","","","","","","","",""
"","do_trial","83","291082","0.0-51.0-0.0","""event"",""trial"",""time""
""fullscreenenter"",""0"",""1954""
","
","
","""event"",""trial"",""time""
""fullscreenenter"",""0"",""1954""
","
","680.9000000059605","","","","","","","","50","0,1,1","6","blank","262","null","0.17496639967718966","0.09893004322147961","0.4949316269466362","1","","","","","","","","",""
"","html-keyboard-response","84","292085","0.0-51.0-1.0","""event"",""trial"",""time""
""fullscreenenter"",""0"",""1954""
","
","
","""event"",""trial"",""time""
""fullscreenenter"",""0"",""1954""
","
","null","<p></p>","null","","","","","","","","","","","","","","","","","","","","","","","",""
"","do_trial","85","295255","0.0-52.0-0.0","""event"",""trial"",""time""
""fullscreenenter"",""0"",""1954""
","
","
","""event"",""trial"",""time""
""fullscreenenter"",""0"",""1954""
","
","565.3999999910593","","","","","","","","50","0,0,0","6","blank","263","null","0.2516173171941322","0.08095385713104718","0.3937023346076953","0","","","","","","","","",""
"","html-keyboard-response","86","296257","0.0-52.0-1.0","""event"",""trial"",""time""
""fullscreenenter"",""0"",""1954""
","
","
","""event"",""trial"",""time""
""fullscreenenter"",""0"",""1954""
","
","null","<p></p>","null","","","","","","","","","","","","","","","","","","","","","","","",""
"","do_trial","87","298954","0.0-53.0-0.0","""event"",""trial"",""time""
""fullscreenenter"",""0"",""1954""
","
","
","""event"",""trial"",""time""
""fullscreenenter"",""0"",""1954""
","
","113.70000000298023","","","","","","","","51","1,0,1","6","blank","264","null","0.24647225943436005","0.13487541549102552","0.525195708391935","1","","","","","","","","",""
"","html-keyboard-response","88","299956","0.0-53.0-1.0","""event"",""trial"",""time""
""fullscreenenter"",""0"",""1954""
","
","
","""event"",""trial"",""time""
""fullscreenenter"",""0"",""1954""
","
","null","<p></p>","null","","","","","","","","","","","","","","","","","","","","","","","",""
"","do_trial","89","302839","0.0-54.0-0.0","""event"",""trial"",""time""
""fullscreenenter"",""0"",""1954""
","
","
","""event"",""trial"",""time""
""fullscreenenter"",""0"",""1954""
","
","309.8999999910593","","","","","","","","50","0,0,0","6","blank","265","null","0.15102877915596866","0.0607211769141315","0.5913091474100705","0","","","","","","","","",""
"","html-keyboard-response","90","303841","0.0-54.0-1.0","""event"",""trial"",""time""
""fullscreenenter"",""0"",""1954""
","
","
","""event"",""trial"",""time""
""fullscreenenter"",""0"",""1954""
","
","null","<p></p>","null","","","","","","","","","","","","","","","","","","","","","","","",""
"","do_recog","91","307187","0.0-55.0-0.0","""event"",""trial"",""time""
""fullscreenenter"",""0"",""1954""
","
","
","""event"",""trial"",""time""
""fullscreenenter"",""0"",""1954""
","
","1832.4000000059605","","","","","","","","53","","","","266","probe-179","","","","","1","[object Object]","119","2","1","","","",""
"","html-keyboard-response","92","308189","0.0-55.0-1.0","""event"",""trial"",""time""
""fullscreenenter"",""0"",""1954""
","
","
","""event"",""trial"",""time""
""fullscreenenter"",""0"",""1954""
","
","null","<p></p>","null","","","","","","","","","","","","","","","","","","","","","","","",""
"","do_trial","93","311375","0.0-56.0-0.0","""event"",""trial"",""time""
""fullscreenenter"",""0"",""1954""
","
","
","""event"",""trial"",""time""
""fullscreenenter"",""0"",""1954""
","
","572.6999999880791","","","","","","","","51","0,0,0","6","blank","267","null","0.21344170531643983","0.1144105208033717","0.6314822490980903","0","","","","","","","","",""
"","html-keyboard-response","94","312378","0.0-56.0-1.0","""event"",""trial"",""time""
""fullscreenenter"",""0"",""1954""
","
","
","""event"",""trial"",""time""
""fullscreenenter"",""0"",""1954""
","
","null","<p></p>","null","","","","","","","","","","","","","","","","","","","","","","","",""
"","do_trial","95","315362","0.0-57.0-0.0","""event"",""trial"",""time""
""fullscreenenter"",""0"",""1954""
","
","
","""event"",""trial"",""time""
""fullscreenenter"",""0"",""1954""
","
","379.59999999403954","","","","","","","","50","1,0,1","6","blank","268","null","0.13387258279374845","0.0877132253421477","0.6096358161333068","0","","","","","","","","",""
"","html-keyboard-response","96","316363","0.0-57.0-1.0","""event"",""trial"",""time""
""fullscreenenter"",""0"",""1954""
","
","
","""event"",""trial"",""time""
""fullscreenenter"",""0"",""1954""
","
","null","<p></p>","null","","","","","","","","","","","","","","","","","","","","","","","",""
"","break","97","378920","0.0-58.0-0.0","""event"",""trial"",""time""
""fullscreenenter"",""0"",""1954""
","
","
","""event"",""trial"",""time""
""fullscreenenter"",""0"",""1954""
","
","62553.69999998808","<div class='center'><p>Time to take a quick break! You have 2 minutes to rest, but you can move on sooner if you'd like.</p><p> Press the <b>space bar</b> to continue.</p></div>","32","","","","","","","","","","","","","","","","","","","","","","","",""
"","do_trial","98","383028","0.0-58.0-1.0","""event"",""trial"",""time""
""fullscreenenter"",""0"",""1954""
","
","
","""event"",""trial"",""time""
""fullscreenenter"",""0"",""1954""
","
","1504.6000000089407","","","","","","","","50","1,0,1","6","blank","269","null","0.22908420478114458","0.13096754604197813","0.6927036897390864","0","","","","","","","","",""
"","html-keyboard-response","99","384030","0.0-58.0-2.0","""event"",""trial"",""time""
""fullscreenenter"",""0"",""1954""
","
","
","""event"",""trial"",""time""
""fullscreenenter"",""0"",""1954""
","
","null","<p></p>","null","","","","","","","","","","","","","","","","","","","","","","","",""
"","do_trial","100","386879","0.0-59.0-0.0","""event"",""trial"",""time""
""fullscreenenter"",""0"",""1954""
","
","
","""event"",""trial"",""time""
""fullscreenenter"",""0"",""1954""
","
","279.29999999701977","","","","","","","","51","0,0,0","6","blank","270","null","0.16182539195224863","0.2384785483034839","0.663188988124435","0","","","","","","","","",""
"","html-keyboard-response","101","387881","0.0-59.0-1.0","""event"",""trial"",""time""
""fullscreenenter"",""0"",""1954""
","
","
","""event"",""trial"",""time""
""fullscreenenter"",""0"",""1954""
","
","null","<p></p>","null","","","","","","","","","","","","","","","","","","","","","","","",""
"","do_recog","102","391306","0.0-60.0-0.0","""event"",""trial"",""time""
""fullscreenenter"",""0"",""1954""
","
","
","""event"",""trial"",""time""
""fullscreenenter"",""0"",""1954""
","
","1911.199999988079","","","","","","","","53","","","","271","probe-105","","","","","1","[object Object]","154","3","1","","","",""
"","html-keyboard-response","103","392309","0.0-60.0-1.0","""event"",""trial"",""time""
""fullscreenenter"",""0"",""1954""
","
","
","""event"",""trial"",""time""
""fullscreenenter"",""0"",""1954""
","
","null","<p></p>","null","","","","","","","","","","","","","","","","","","","","","","","",""
"","do_trial","104","395284","0.0-61.0-0.0","""event"",""trial"",""time""
""fullscreenenter"",""0"",""1954""
","
","
","""event"",""trial"",""time""
""fullscreenenter"",""0"",""1954""
","
","366.79999999701977","","","","","","","","49","0,0,0","6","blank","272","null","0.2777949286161906","0.17009079990468165","0.653022586444067","0","","","","","","","","",""
"","html-keyboard-response","105","396286","0.0-61.0-1.0","""event"",""trial"",""time""
""fullscreenenter"",""0"",""1954""
","
","
","""event"",""trial"",""time""
""fullscreenenter"",""0"",""1954""
","
","null","<p></p>","null","","","","","","","","","","","","","","","","","","","","","","","",""
"","do_trial","106","399193","0.0-62.0-0.0","""event"",""trial"",""time""
""fullscreenenter"",""0"",""1954""
","
","
","""event"",""trial"",""time""
""fullscreenenter"",""0"",""1954""
","
","304.70000000298023","","","","","","","","50","0,0,1","6","blank","273","null","0.39829972729718494","0.18458765002837627","0.5624619783481565","0","","","","","","","","",""
"","html-keyboard-response","107","400195","0.0-62.0-1.0","""event"",""trial"",""time""
""fullscreenenter"",""0"",""1954""
","
","
","""event"",""trial"",""time""
""fullscreenenter"",""0"",""1954""
","
","null","<p></p>","null","","","","","","","","","","","","","","","","","","","","","","","",""
"","do_recog","108","403500","0.0-63.0-0.0","""event"",""trial"",""time""
""fullscreenenter"",""0"",""1954""
","
","
","""event"",""trial"",""time""
""fullscreenenter"",""0"",""1954""
","
","1791.5999999940395","","","","","","","","56","","","","274","probe-05","","","","","1","[object Object]","116","2","0","","","",""
"","html-keyboard-response","109","404503","0.0-63.0-1.0","""event"",""trial"",""time""
""fullscreenenter"",""0"",""1954""
","
","
","""event"",""trial"",""time""
""fullscreenenter"",""0"",""1954""
","
","null","<p></p>","null","","","","","","","","","","","","","","","","","","","","","","","",""
"","do_trial","110","407774","0.0-64.0-0.0","""event"",""trial"",""time""
""fullscreenenter"",""0"",""1954""
","
","
","""event"",""trial"",""time""
""fullscreenenter"",""0"",""1954""
","
","659.2000000029802","","","","","","","","50","0,0,0","6","blank","275","null","0.34967779692519574","0.062286256029127254","0.5270501988676118","0","","","","","","","","",""
"","html-keyboard-response","111","408776","0.0-64.0-1.0","""event"",""trial"",""time""
""fullscreenenter"",""0"",""1954""
","
","
","""event"",""trial"",""time""
""fullscreenenter"",""0"",""1954""
","
","null","<p></p>","null","","","","","","","","","","","","","","","","","","","","","","","",""
"","do_trial","112","411777","0.0-65.0-0.0","""event"",""trial"",""time""
""fullscreenenter"",""0"",""1954""
","
","
","""event"",""trial"",""time""
""fullscreenenter"",""0"",""1954""
","
","399.70000000298023","","","","","","","","51","0,0,1","6","blank","276","null","0.2553620424325177","0.06700073042591642","0.46872229193447357","1","","","","","","","","",""
"","html-keyboard-response","113","412779","0.0-65.0-1.0","""event"",""trial"",""time""
""fullscreenenter"",""0"",""1954""
","
","
","""event"",""trial"",""time""
""fullscreenenter"",""0"",""1954""
","
","null","<p></p>","null","","","","","","","","","","","","","","","","","","","","","","","",""
"","do_recog","114","415931","0.0-66.0-0.0","""event"",""trial"",""time""
""fullscreenenter"",""0"",""1954""
","
","
","""event"",""trial"",""time""
""fullscreenenter"",""0"",""1954""
","
","1638.4000000059605","","","","","","","","53","","","","277","probe-236","","","","","0","[object Object]","null","null","0","","","",""
"","html-keyboard-response","115","416932","0.0-66.0-1.0","""event"",""trial"",""time""
""fullscreenenter"",""0"",""1954""
","
","
","""event"",""trial"",""time""
""fullscreenenter"",""0"",""1954""
","
","null","<p></p>","null","","","","","","","","","","","","","","","","","","","","","","","",""
"","do_trial","116","420054","0.0-67.0-0.0","""event"",""trial"",""time""
""fullscreenenter"",""0"",""1954""
","
","
","""event"",""trial"",""time""
""fullscreenenter"",""0"",""1954""
","
","520.0999999940395","","","","","","","","51","0,0,0","6","blank","278","null","0.2557293684231175","0.17253394327563926","0.33727012971006415","0","","","","","","","","",""
"","html-keyboard-response","117","421056","0.0-67.0-1.0","""event"",""trial"",""time""
""fullscreenenter"",""0"",""1954""
","
","
","""event"",""trial"",""time""
""fullscreenenter"",""0"",""1954""
","
","null","<p></p>","null","","","","","","","","","","","","","","","","","","","","","","","",""
"","do_recog","118","424483","0.0-68.0-0.0","""event"",""trial"",""time""
""fullscreenenter"",""0"",""1954""
","
","
","""event"",""trial"",""time""
""fullscreenenter"",""0"",""1954""
","
","1912.6000000089407","","","","","","","","53","","","","279","probe-119","","","","","1","[object Object]","195","4","1","","","",""
"","html-keyboard-response","119","425484","0.0-68.0-1.0","""event"",""trial"",""time""
""fullscreenenter"",""0"",""1954""
","
","
","""event"",""trial"",""time""
""fullscreenenter"",""0"",""1954""
","
","null","<p></p>","null","","","","","","","","","","","","","","","","","","","","","","","",""
"","do_trial","120","428638","0.0-69.0-0.0","""event"",""trial"",""time""
""fullscreenenter"",""0"",""1954""
","
","
","""event"",""trial"",""time""
""fullscreenenter"",""0"",""1954""
","
","553","","","","","","","","50","0,0,0","6","blank","280","null","0.226384697092055","0.12121205300080963","0.46386652935374467","0","","","","","","","","",""
"","html-keyboard-response","121","429640","0.0-69.0-1.0","""event"",""trial"",""time""
""fullscreenenter"",""0"",""1954""
","
","
","""event"",""trial"",""time""
""fullscreenenter"",""0"",""1954""
","
","null","<p></p>","null","","","","","","","","","","","","","","","","","","","","","","","",""
"","do_trial","122","432563","0.0-70.0-0.0","""event"",""trial"",""time""
""fullscreenenter"",""0"",""1954""
","
","
","""event"",""trial"",""time""
""fullscreenenter"",""0"",""1954""
","
","321.5","","","","","","","","51","0,0,0","6","blank","281","null","0.26849332494844236","0.18221711748590255","0.4207681716429117","0","","","","","","","","",""
"","html-keyboard-response","123","433565","0.0-70.0-1.0","""event"",""trial"",""time""
""fullscreenenter"",""0"",""1954""
","
","
","""event"",""trial"",""time""
""fullscreenenter"",""0"",""1954""
","
","null","<p></p>","null","","","","","","","","","","","","","","","","","","","","","","","",""
"","do_recog","124","436880","0.0-71.0-0.0","""event"",""trial"",""time""
""fullscreenenter"",""0"",""1954""
","
","
","""event"",""trial"",""time""
""fullscreenenter"",""0"",""1954""
","
","1801.5","","","","","","","","56","","","","282","probe-218","","","","","1","[object Object]","77","1","0","","","",""
"","html-keyboard-response","125","437883","0.0-71.0-1.0","""event"",""trial"",""time""
""fullscreenenter"",""0"",""1954""
","
","
","""event"",""trial"",""time""
""fullscreenenter"",""0"",""1954""
","
","null","<p></p>","null","","","","","","","","","","","","","","","","","","","","","","","",""
"","do_trial","126","440914","0.0-72.0-0.0","""event"",""trial"",""time""
""fullscreenenter"",""0"",""1954""
","
","
","""event"",""trial"",""time""
""fullscreenenter"",""0"",""1954""
","
","426.19999998807907","","","","","","","","49","0,0,0","6","blank","283","null","0.29315875889145404","0.23137909194325113","0.4423134191946179","0","","","","","","","","",""
"","html-keyboard-response","127","441916","0.0-72.0-1.0","""event"",""trial"",""time""
""fullscreenenter"",""0"",""1954""
","
","
","""event"",""trial"",""time""
""fullscreenenter"",""0"",""1954""
","
","null","<p></p>","null","","","","","","","","","","","","","","","","","","","","","","","",""
"","do_recog","128","445109","0.0-73.0-0.0","""event"",""trial"",""time""
""fullscreenenter"",""0"",""1954""
","
","
","""event"",""trial"",""time""
""fullscreenenter"",""0"",""1954""
","
","1679.199999988079","","","","","","","","53","","","","284","probe-03","","","","","1","[object Object]","157","3","1","","","",""
"","html-keyboard-response","129","446112","0.0-73.0-1.0","""event"",""trial"",""time""
""fullscreenenter"",""0"",""1954""
","
","
","""event"",""trial"",""time""
""fullscreenenter"",""0"",""1954""
","
","null","<p></p>","null","","","","","","","","","","","","","","","","","","","","","","","",""
"","do_trial","130","449135","0.0-74.0-0.0","""event"",""trial"",""time""
""fullscreenenter"",""0"",""1954""
","
","
","""event"",""trial"",""time""
""fullscreenenter"",""0"",""1954""
","
","412.70000000298023","","","","","","","","50","1,0,0","6","blank","285","null","0.22800894652318873","0.12794653255960026","0.5867457575658941","0","","","","","","","","",""
"","html-keyboard-response","131","450137","0.0-74.0-1.0","""event"",""trial"",""time""
""fullscreenenter"",""0"",""1954""
","
","
","""event"",""trial"",""time""
""fullscreenenter"",""0"",""1954""
","
","null","<p></p>","null","","","","","","","","","","","","","","","","","","","","","","","",""
"","do_trial","132","453077","0.0-75.0-0.0","""event"",""trial"",""time""
""fullscreenenter"",""0"",""1954""
","
","
","""event"",""trial"",""time""
""fullscreenenter"",""0"",""1954""
","
","396.5","","","","","","","","51","1,0,1","6","blank","286","null","0.4020658122558113","0.25216740279003264","0.5988580821924558","1","","","","","","","","",""
"","html-keyboard-response","133","454079","0.0-75.0-1.0","""event"",""trial"",""time""
""fullscreenenter"",""0"",""1954""
","
","
","""event"",""trial"",""time""
""fullscreenenter"",""0"",""1954""
","
","null","<p></p>","null","","","","","","","","","","","","","","","","","","","","","","","",""
"","do_trial","134","457008","0.0-76.0-0.0","""event"",""trial"",""time""
""fullscreenenter"",""0"",""1954""
","
","
","""event"",""trial"",""time""
""fullscreenenter"",""0"",""1954""
","
","362.5","","","","","","","","51","0,0,1","6","blank","287","null","0.27077287065266886","0.1325524775493254","0.5888551160921394","1","","","","","","","","",""
"","html-keyboard-response","135","458010","0.0-76.0-1.0","""event"",""trial"",""time""
""fullscreenenter"",""0"",""1954""
","
","
","""event"",""trial"",""time""
""fullscreenenter"",""0"",""1954""
","
","null","<p></p>","null","","","","","","","","","","","","","","","","","","","","","","","",""
"","do_recog","136","461005","0.0-77.0-0.0","""event"",""trial"",""time""
""fullscreenenter"",""0"",""1954""
","
","
","""event"",""trial"",""time""
""fullscreenenter"",""0"",""1954""
","
","1481.0999999940395","","","","","","","","53","","","","288","probe-157","","","","","1","[object Object]","39","0","1","","","",""
"","html-keyboard-response","137","462007","0.0-77.0-1.0","""event"",""trial"",""time""
""fullscreenenter"",""0"",""1954""
","
","
","""event"",""trial"",""time""
""fullscreenenter"",""0"",""1954""
","
","null","<p></p>","null","","","","","","","","","","","","","","","","","","","","","","","",""
"","do_trial","138","464953","0.0-78.0-0.0","""event"",""trial"",""time""
""fullscreenenter"",""0"",""1954""
","
","
","""event"",""trial"",""time""
""fullscreenenter"",""0"",""1954""
","
","343.8999999910593","","","","","","","","51","0,0,1","6","blank","289","null","0.1457883886340552","0.10761139976609098","0.560713816564428","1","","","","","","","","",""
"","html-keyboard-response","139","465956","0.0-78.0-1.0","""event"",""trial"",""time""
""fullscreenenter"",""0"",""1954""
","
","
","""event"",""trial"",""time""
""fullscreenenter"",""0"",""1954""
","
","null","<p></p>","null","","","","","","","","","","","","","","","","","","","","","","","",""
"","do_trial","140","468676","0.0-79.0-0.0","""event"",""trial"",""time""
""fullscreenenter"",""0"",""1954""
","
","
","""event"",""trial"",""time""
""fullscreenenter"",""0"",""1954""
","
","119.5","","","","","","","","51","1,0,1","6","blank","290","null","0.16221605916148796","0.09987079864150705","0.6294560050327386","1","","","","","","","","",""
"","html-keyboard-response","141","469678","0.0-79.0-1.0","""event"",""trial"",""time""
""fullscreenenter"",""0"",""1954""
","
","
","""event"",""trial"",""time""
""fullscreenenter"",""0"",""1954""
","
","null","<p></p>","null","","","","","","","","","","","","","","","","","","","","","","","",""
"","do_trial","142","472855","0.0-80.0-0.0","""event"",""trial"",""time""
""fullscreenenter"",""0"",""1954""
","
","
","""event"",""trial"",""time""
""fullscreenenter"",""0"",""1954""
","
","573.4000000059605","","","","","","","","51","0,1,1","6","blank","291","null","0.06184849835541808","0.22842638482665012","0.6281405546861677","1","","","","","","","","",""
"","html-keyboard-response","143","473857","0.0-80.0-1.0","""event"",""trial"",""time""
""fullscreenenter"",""0"",""1954""
","
","
","""event"",""trial"",""time""
""fullscreenenter"",""0"",""1954""
","
","null","<p></p>","null","","","","","","","","","","","","","","","","","","","","","","","",""
"","do_recog","144","476860","0.0-81.0-0.0","""event"",""trial"",""time""
""fullscreenenter"",""0"",""1954""
","
","
","""event"",""trial"",""time""
""fullscreenenter"",""0"",""1954""
","
","1489.3999999910593","","","","","","","","53","","","","292","probe-19","","","","","1","[object Object]","35","0","1","","","",""
"","html-keyboard-response","145","477863","0.0-81.0-1.0","""event"",""trial"",""time""
""fullscreenenter"",""0"",""1954""
","
","
","""event"",""trial"",""time""
""fullscreenenter"",""0"",""1954""
","
","null","<p></p>","null","","","","","","","","","","","","","","","","","","","","","","","",""
"","do_trial","146","480998","0.0-82.0-0.0","""event"",""trial"",""time""
""fullscreenenter"",""0"",""1954""
","
","
","""event"",""trial"",""time""
""fullscreenenter"",""0"",""1954""
","
","581.8999999910593","","","","","","","","51","0,0,1","6","blank","293","null","0.1929641812583358","0.1875370111823863","0.6442150302749917","1","","","","","","","","",""
"","html-keyboard-response","147","482001","0.0-82.0-1.0","""event"",""trial"",""time""
""fullscreenenter"",""0"",""1954""
","
","
","""event"",""trial"",""time""
""fullscreenenter"",""0"",""1954""
","
","null","<p></p>","null","","","","","","","","","","","","","","","","","","","","","","","",""
"","do_trial","148","485130","0.0-83.0-0.0","""event"",""trial"",""time""
""fullscreenenter"",""0"",""1954""
","
","
","""event"",""trial"",""time""
""fullscreenenter"",""0"",""1954""
","
","518.1999999880791","","","","","","","","51","0,0,1","6","blank","294","null","0.14247103577671794","0.20425821095095525","0.6665237550937918","1","","","","","","","","",""
"","html-keyboard-response","149","486133","0.0-83.0-1.0","""event"",""trial"",""time""
""fullscreenenter"",""0"",""1954""
","
","
","""event"",""trial"",""time""
""fullscreenenter"",""0"",""1954""
","
","null","<p></p>","null","","","","","","","","","","","","","","","","","","","","","","","",""
"","do_trial","150","488703","0.0-84.0-0.0","""event"",""trial"",""time""
""fullscreenenter"",""0"",""1954""
","
","
","""event"",""trial"",""time""
""fullscreenenter"",""0"",""1954""
","
","6.0999999940395355","","","","","","","","51","0,0,1","6","blank","295","null","0.3308031867978902","0.07849906807370038","0.6837255538049929","1","","","","","","","","",""
"","html-keyboard-response","151","489705","0.0-84.0-1.0","""event"",""trial"",""time""
""fullscreenenter"",""0"",""1954""
","
","
","""event"",""trial"",""time""
""fullscreenenter"",""0"",""1954""
","
","null","<p></p>","null","","","","","","","","","","","","","","","","","","","","","","","",""
"","do_trial","152","492675","0.0-85.0-0.0","""event"",""trial"",""time""
""fullscreenenter"",""0"",""1954""
","
","
","""event"",""trial"",""time""
""fullscreenenter"",""0"",""1954""
","
","406.8999999910593","","","","","","","","51","1,0,1","6","blank","296","null","0.40918490025972687","0.36330104548521186","0.49152681240371","1","","","","","","","","",""
"","html-keyboard-response","153","493677","0.0-85.0-1.0","""event"",""trial"",""time""
""fullscreenenter"",""0"",""1954""
","
","
","""event"",""trial"",""time""
""fullscreenenter"",""0"",""1954""
","
","null","<p></p>","null","","","","","","","","","","","","","","","","","","","","","","","",""
"","do_trial","154","496383","0.0-86.0-0.0","""event"",""trial"",""time""
""fullscreenenter"",""0"",""1954""
","
","
","""event"",""trial"",""time""
""fullscreenenter"",""0"",""1954""
","
","138","","","","","","","","51","0,0,0","6","blank","297","null","0.2957297398551066","0.47890180934281873","0.3563233256764864","0","","","","","","","","",""
"","html-keyboard-response","155","497385","0.0-86.0-1.0","""event"",""trial"",""time""
""fullscreenenter"",""0"",""1954""
","
","
","""event"",""trial"",""time""
""fullscreenenter"",""0"",""1954""
","
","null","<p></p>","null","","","","","","","","","","","","","","","","","","","","","","","",""
"","do_recog","156","500451","0.0-87.0-0.0","""event"",""trial"",""time""
""fullscreenenter"",""0"",""1954""
","
","
","""event"",""trial"",""time""
""fullscreenenter"",""0"",""1954""
","
","1552.9000000059605","","","","","","","","53","","","","298","probe-75","","","","","1","[object Object]","194","4","1","","","",""
"","html-keyboard-response","157","501454","0.0-87.0-1.0","""event"",""trial"",""time""
""fullscreenenter"",""0"",""1954""
","
","
","""event"",""trial"",""time""
""fullscreenenter"",""0"",""1954""
","
","null","<p></p>","null","","","","","","","","","","","","","","","","","","","","","","","",""
"","do_trial","158","504486","0.0-88.0-0.0","""event"",""trial"",""time""
""fullscreenenter"",""0"",""1954""
","
","
","""event"",""trial"",""time""
""fullscreenenter"",""0"",""1954""
","
","429.40000000596046","","","","","","","","49","0,1,0","6","blank","299","null","0.09419614760038349","0.411152007503095","0.28562403554068205","0","","","","","","","","",""
"","html-keyboard-response","159","505488","0.0-88.0-1.0","""event"",""trial"",""time""
""fullscreenenter"",""0"",""1954""
","
","
","""event"",""trial"",""time""
""fullscreenenter"",""0"",""1954""
","
","null","<p></p>","null","","","","","","","","","","","","","","","","","","","","","","","",""
"","do_recog","160","508476","0.0-89.0-0.0","""event"",""trial"",""time""
""fullscreenenter"",""0"",""1954""
","
","
","""event"",""trial"",""time""
""fullscreenenter"",""0"",""1954""
","
","1473.7999999970198","","","","","","","","53","","","","300","probe-143","","","","","1","[object Object]","197","4","1","","","",""
"","html-keyboard-response","161","509478","0.0-89.0-1.0","""event"",""trial"",""time""
""fullscreenenter"",""0"",""1954""
","
","
","""event"",""trial"",""time""
""fullscreenenter"",""0"",""1954""
","
","null","<p></p>","null","","","","","","","","","","","","","","","","","","","","","","","",""
"","do_trial","162","512536","0.0-90.0-0.0","""event"",""trial"",""time""
""fullscreenenter"",""0"",""1954""
","
","
","""event"",""trial"",""time""
""fullscreenenter"",""0"",""1954""
","
","453","","","","","","","","51","0,1,1","6","blank","301","null","0.05549205555538042","0.3653263225394964","0.3025636047468974","1","","","","","","","","",""
"","html-keyboard-response","163","513538","0.0-90.0-1.0","""event"",""trial"",""time""
""fullscreenenter"",""0"",""1954""
","
","
","""event"",""trial"",""time""
""fullscreenenter"",""0"",""1954""
","
","null","<p></p>","null","","","","","","","","","","","","","","","","","","","","","","","",""
"","do_recog","164","517769","0.0-91.0-0.0","""event"",""trial"",""time""
""fullscreenenter"",""0"",""1954""
","
","
","""event"",""trial"",""time""
""fullscreenenter"",""0"",""1954""
","
","2717.0999999940395","","","","","","","","53","","","","302","probe-254","","","","","0","[object Object]","null","null","0","","","",""
"","html-keyboard-response","165","518772","0.0-91.0-1.0","""event"",""trial"",""time""
""fullscreenenter"",""0"",""1954""
","
","
","""event"",""trial"",""time""
""fullscreenenter"",""0"",""1954""
","
","null","<p></p>","null","","","","","","","","","","","","","","","","","","","","","","","",""
"","do_trial","166","522108","0.0-92.0-0.0","""event"",""trial"",""time""
""fullscreenenter"",""0"",""1954""
","
","
","""event"",""trial"",""time""
""fullscreenenter"",""0"",""1954""
","
","732.9000000059605","","","","","","","","51","0,0,1","6","blank","303","null","0.25755194645123886","0.4573105825992267","0.27844732828882207","1","","","","","","","","",""
"","html-keyboard-response","167","523111","0.0-92.0-1.0","""event"",""trial"",""time""
""fullscreenenter"",""0"",""1954""
","
","
","""event"",""trial"",""time""
""fullscreenenter"",""0"",""1954""
","
","null","<p></p>","null","","","","","","","","","","","","","","","","","","","","","","","",""
"","do_trial","168","526049","0.0-93.0-0.0","""event"",""trial"",""time""
""fullscreenenter"",""0"",""1954""
","
","
","""event"",""trial"",""time""
""fullscreenenter"",""0"",""1954""
","
","336","","","","","","","","51","0,0,1","6","blank","304","null","0.2753047194894991","0.35868539029954116","0.33883065808652113","1","","","","","","","","",""
"","html-keyboard-response","169","527051","0.0-93.0-1.0","""event"",""trial"",""time""
""fullscreenenter"",""0"",""1954""
","
","
","""event"",""trial"",""time""
""fullscreenenter"",""0"",""1954""
","
","null","<p></p>","null","","","","","","","","","","","","","","","","","","","","","","","",""
"","do_trial","170","530316","0.0-94.0-0.0","""event"",""trial"",""time""
""fullscreenenter"",""0"",""1954""
","
","
","""event"",""trial"",""time""
""fullscreenenter"",""0"",""1954""
","
","670.7999999970198","","","","","","","","51","0,0,0","6","blank","305","null","0.25348243119079145","0.310327837355559","0.24063783427275126","0","","","","","","","","",""
"","html-keyboard-response","171","531319","0.0-94.0-1.0","""event"",""trial"",""time""
""fullscreenenter"",""0"",""1954""
","
","
","""event"",""trial"",""time""
""fullscreenenter"",""0"",""1954""
","
","null","<p></p>","null","","","","","","","","","","","","","","","","","","","","","","","",""
"","do_trial","172","534423","0.0-95.0-0.0","""event"",""trial"",""time""
""fullscreenenter"",""0"",""1954""
","
","
","""event"",""trial"",""time""
""fullscreenenter"",""0"",""1954""
","
","500.30000001192093","","","","","","","","50","1,1,0","6","blank","306","null","0.15736213162223345","0.4734345248319207","0.14718152571557055","1","","","","","","","","",""
"","html-keyboard-response","173","535425","0.0-95.0-1.0","""event"",""trial"",""time""
""fullscreenenter"",""0"",""1954""
","
","
","""event"",""trial"",""time""
""fullscreenenter"",""0"",""1954""
","
","null","<p></p>","null","","","","","","","","","","","","","","","","","","","","","","","",""
"","do_trial","174","538340","0.0-96.0-0.0","""event"",""trial"",""time""
""fullscreenenter"",""0"",""1954""
","
","
","""event"",""trial"",""time""
""fullscreenenter"",""0"",""1954""
","
","345.09999999403954","","","","","","","","50","0,0,0","6","blank","307","null","0.1923447400075902","0.5832976153649719","0.35721269126197186","0","","","","","","","","",""
"","html-keyboard-response","175","539343","0.0-96.0-1.0","""event"",""trial"",""time""
""fullscreenenter"",""0"",""1954""
","
","
","""event"",""trial"",""time""
""fullscreenenter"",""0"",""1954""
","
","null","<p></p>","null","","","","","","","","","","","","","","","","","","","","","","","",""
"","do_recog","176","545356","0.0-97.0-0.0","""event"",""trial"",""time""
""fullscreenenter"",""0"",""1954""
","
","
","""event"",""trial"",""time""
""fullscreenenter"",""0"",""1954""
","
","null","","","","","","","","null","","","","308","probe-234","","","","","0","[object Object]","null","null","0","","","",""
"","html-keyboard-response","177","546359","0.0-97.0-1.0","""event"",""trial"",""time""
""fullscreenenter"",""0"",""1954""
","
","
","""event"",""trial"",""time""
""fullscreenenter"",""0"",""1954""
","
","null","<p></p>","null","","","","","","","","","","","","","","","","","","","","","","","",""
"","break","178","582439","0.0-98.0-0.0","""event"",""trial"",""time""
""fullscreenenter"",""0"",""1954""
","
","
","""event"",""trial"",""time""
""fullscreenenter"",""0"",""1954""
","
","36077.39999999106","<div class='center'><p>Time to take a quick break! You have 2 minutes to rest, but you can move on sooner if you'd like.</p><p> Press the <b>space bar</b> to continue.</p></div>","32","","","","","","","","","","","","","","","","","","","","","","","",""
"","do_trial","179","586252","0.0-98.0-1.0","""event"",""trial"",""time""
""fullscreenenter"",""0"",""1954""
","
","
","""event"",""trial"",""time""
""fullscreenenter"",""0"",""1954""
","
","1210.2000000029802","","","","","","","","50","0,1,1","6","blank","309","null","0.08601173400975848","0.5865118953247952","0.3752832578880986","1","","","","","","","","",""
"","html-keyboard-response","180","587255","0.0-98.0-2.0","""event"",""trial"",""time""
""fullscreenenter"",""0"",""1954""
","
","
","""event"",""trial"",""time""
""fullscreenenter"",""0"",""1954""
","
","null","<p></p>","null","","","","","","","","","","","","","","","","","","","","","","","",""
"","do_recog","181","590575","0.0-99.0-0.0","""event"",""trial"",""time""
""fullscreenenter"",""0"",""1954""
","
","
","""event"",""trial"",""time""
""fullscreenenter"",""0"",""1954""
","
","1806.8999999910593","","","","","","","","53","","","","310","probe-66","","","","","1","[object Object]","199","4","1","","","",""
"","html-keyboard-response","182","591577","0.0-99.0-1.0","""event"",""trial"",""time""
""fullscreenenter"",""0"",""1954""
","
","
","""event"",""trial"",""time""
""fullscreenenter"",""0"",""1954""
","
","null","<p></p>","null","","","","","","","","","","","","","","","","","","","","","","","",""
"","do_trial","183","594530","0.0-100.0-0.0","""event"",""trial"",""time""
""fullscreenenter"",""0"",""1954""
","
","
","""event"",""trial"",""time""
""fullscreenenter"",""0"",""1954""
","
","342.20000000298023","","","","","","","","50","0,0,1","6","blank","311","null","0.06103095057504057","0.4584932023706837","0.3541911369607889","0","","","","","","","","",""
"","html-keyboard-response","184","595533","0.0-100.0-1.0","""event"",""trial"",""time""
""fullscreenenter"",""0"",""1954""
","
","
","""event"",""trial"",""time""
""fullscreenenter"",""0"",""1954""
","
","null","<p></p>","null","","","","","","","","","","","","","","","","","","","","","","","",""
"","do_trial","185","598102","0.0-101.0-0.0","""event"",""trial"",""time""
""fullscreenenter"",""0"",""1954""
","
","
","""event"",""trial"",""time""
""fullscreenenter"",""0"",""1954""
","
","0.09999999403953552","","","","","","","","51","0,0,0","6","blank","312","null","0.12207875657405882","0.4665446513805322","0.37973789930865354","0","","","","","","","","",""
"","html-keyboard-response","186","599104","0.0-101.0-1.0","""event"",""trial"",""time""
""fullscreenenter"",""0"",""1954""
","
","
","""event"",""trial"",""time""
""fullscreenenter"",""0"",""1954""
","
","null","<p></p>","null","","","","","","","","","","","","","","","","","","","","","","","",""
"","do_trial","187","601932","0.0-102.0-0.0","""event"",""trial"",""time""
""fullscreenenter"",""0"",""1954""
","
","
","""event"",""trial"",""time""
""fullscreenenter"",""0"",""1954""
","
","236.8999999910593","","","","","","","","49","0,0,0","6","blank","313","null","0.11056313251264788","0.42317129623998434","0.23634314292780484","0","","","","","","","","",""
"","html-keyboard-response","188","602934","0.0-102.0-1.0","""event"",""trial"",""time""
""fullscreenenter"",""0"",""1954""
","
","
","""event"",""trial"",""time""
""fullscreenenter"",""0"",""1954""
","
","null","<p></p>","null","","","","","","","","","","","","","","","","","","","","","","","",""
"","do_recog","189","605677","0.0-103.0-0.0","""event"",""trial"",""time""
""fullscreenenter"",""0"",""1954""
","
","
","""event"",""trial"",""time""
""fullscreenenter"",""0"",""1954""
","
","1228.5999999940395","","","","","","","","53","","","","314","probe-46","","","","","1","[object Object]","79","1","1","","","",""
"","html-keyboard-response","190","606679","0.0-103.0-1.0","""event"",""trial"",""time""
""fullscreenenter"",""0"",""1954""
","
","
","""event"",""trial"",""time""
""fullscreenenter"",""0"",""1954""
","
","null","<p></p>","null","","","","","","","","","","","","","","","","","","","","","","","",""
"","do_trial","191","609283","0.0-104.0-0.0","""event"",""trial"",""time""
""fullscreenenter"",""0"",""1954""
","
","
","""event"",""trial"",""time""
""fullscreenenter"",""0"",""1954""
","
","0.09999999403953552","","","","","","","","50","0,1,0","6","blank","315","null","0.14472724534850287","0.3575742789913564","0.3096382049029382","1","","","","","","","","",""
"","html-keyboard-response","192","610285","0.0-104.0-1.0","""event"",""trial"",""time""
""fullscreenenter"",""0"",""1954""
","
","
","""event"",""trial"",""time""
""fullscreenenter"",""0"",""1954""
","
","null","<p></p>","null","","","","","","","","","","","","","","","","","","","","","","","",""
"","do_trial","193","613210","0.0-105.0-0.0","""event"",""trial"",""time""
""fullscreenenter"",""0"",""1954""
","
","
","""event"",""trial"",""time""
""fullscreenenter"",""0"",""1954""
","
","324","","","","","","","","51","0,1,0","6","blank","316","null","0.09201195523067664","0.49359674319577934","0.26541542942987756","0","","","","","","","","",""
"","html-keyboard-response","194","614212","0.0-105.0-1.0","""event"",""trial"",""time""
""fullscreenenter"",""0"",""1954""
","
","
","""event"",""trial"",""time""
""fullscreenenter"",""0"",""1954""
","
","null","<p></p>","null","","","","","","","","","","","","","","","","","","","","","","","",""
"","do_trial","195","616872","0.0-106.0-0.0","""event"",""trial"",""time""
""fullscreenenter"",""0"",""1954""
","
","
","""event"",""trial"",""time""
""fullscreenenter"",""0"",""1954""
","
","56","","","","","","","","49","0,1,1","6","blank","317","null","0.09628190595135827","0.6652557283861401","0.21383433174690467","0","","","","","","","","",""
"","html-keyboard-response","196","617874","0.0-106.0-1.0","""event"",""trial"",""time""
""fullscreenenter"",""0"",""1954""
","
","
","""event"",""trial"",""time""
""fullscreenenter"",""0"",""1954""
","
","null","<p></p>","null","","","","","","","","","","","","","","","","","","","","","","","",""
"","do_trial","197","620508","0.0-107.0-0.0","""event"",""trial"",""time""
""fullscreenenter"",""0"",""1954""
","
","
","""event"",""trial"",""time""
""fullscreenenter"",""0"",""1954""
","
","20.700000002980232","","","","","","","","50","0,1,1","6","blank","318","null","0.11671818971146851","0.706223062553871","0.3331139317263408","1","","","","","","","","",""
"","html-keyboard-response","198","621510","0.0-107.0-1.0","""event"",""trial"",""time""
""fullscreenenter"",""0"",""1954""
","
","
","""event"",""trial"",""time""
""fullscreenenter"",""0"",""1954""
","
","null","<p></p>","null","","","","","","","","","","","","","","","","","","","","","","","",""
"","do_trial","199","624119","0.0-108.0-0.0","""event"",""trial"",""time""
""fullscreenenter"",""0"",""1954""
","
","
","""event"",""trial"",""time""
""fullscreenenter"",""0"",""1954""
","
","0.09999999403953552","","","","","","","","50","0,1,0","6","blank","319","null","0.05023906777152665","0.5661617936171088","0.2882710096650501","1","","","","","","","","",""
"","html-keyboard-response","200","625121","0.0-108.0-1.0","""event"",""trial"",""time""
""fullscreenenter"",""0"",""1954""
","
","
","""event"",""trial"",""time""
""fullscreenenter"",""0"",""1954""
","
","null","<p></p>","null","","","","","","","","","","","","","","","","","","","","","","","",""
"","do_trial","201","627719","0.0-109.0-0.0","""event"",""trial"",""time""
""fullscreenenter"",""0"",""1954""
","
","
","""event"",""trial"",""time""
""fullscreenenter"",""0"",""1954""
","
","0.10000000894069672","","","","","","","","50","0,0,0","6","blank","320","null","0.25667219436160926","0.4888219709653587","0.2526683635293928","0","","","","","","","","",""
"","html-keyboard-response","202","628722","0.0-109.0-1.0","""event"",""trial"",""time""
""fullscreenenter"",""0"",""1954""
","
","
","""event"",""trial"",""time""
""fullscreenenter"",""0"",""1954""
","
","null","<p></p>","null","","","","","","","","","","","","","","","","","","","","","","","",""
"","do_trial","203","631773","0.0-110.0-0.0","""event"",""trial"",""time""
""fullscreenenter"",""0"",""1954""
","
","
","""event"",""trial"",""time""
""fullscreenenter"",""0"",""1954""
","
","443.1000000089407","","","","","","","","50","0,1,0","6","blank","321","null","0.26455172927077075","0.5401147956501945","0.29064215725576165","1","","","","","","","","",""
"","html-keyboard-response","204","632776","0.0-110.0-1.0","""event"",""trial"",""time""
""fullscreenenter"",""0"",""1954""
","
","
","""event"",""trial"",""time""
""fullscreenenter"",""0"",""1954""
","
","null","<p></p>","null","","","","","","","","","","","","","","","","","","","","","","","",""
"","do_recog","205","635833","0.0-111.0-0.0","""event"",""trial"",""time""
""fullscreenenter"",""0"",""1954""
","
","
","""event"",""trial"",""time""
""fullscreenenter"",""0"",""1954""
","
","1543.5","","","","","","","","53","","","","322","probe-131","","","","","1","[object Object]","192","4","1","","","",""
"","html-keyboard-response","206","636835","0.0-111.0-1.0","""event"",""trial"",""time""
""fullscreenenter"",""0"",""1954""
","
","
","""event"",""trial"",""time""
""fullscreenenter"",""0"",""1954""
","
","null","<p></p>","null","","","","","","","","","","","","","","","","","","","","","","","",""
"","do_trial","207","639442","0.0-112.0-0.0","""event"",""trial"",""time""
""fullscreenenter"",""0"",""1954""
","
","
","""event"",""trial"",""time""
""fullscreenenter"",""0"",""1954""
","
","0.09999999403953552","","","","","","","","50","0,0,0","6","blank","323","null","0.319328136583536","0.7147193783641445","0.2848416258629961","0","","","","","","","","",""
"","html-keyboard-response","208","640444","0.0-112.0-1.0","""event"",""trial"",""time""
""fullscreenenter"",""0"",""1954""
","
","
","""event"",""trial"",""time""
""fullscreenenter"",""0"",""1954""
","
","null","<p></p>","null","","","","","","","","","","","","","","","","","","","","","","","",""
"","do_trial","209","643066","0.0-113.0-0.0","""event"",""trial"",""time""
""fullscreenenter"",""0"",""1954""
","
","
","""event"",""trial"",""time""
""fullscreenenter"",""0"",""1954""
","
","17","","","","","","","","50","0,1,0","6","blank","324","null","0.18005163683873368","0.7495705605608015","0.3294227949094794","1","","","","","","","","",""
"","html-keyboard-response","210","644068","0.0-113.0-1.0","""event"",""trial"",""time""
""fullscreenenter"",""0"",""1954""
","
","
","""event"",""trial"",""time""
""fullscreenenter"",""0"",""1954""
","
","null","<p></p>","null","","","","","","","","","","","","","","","","","","","","","","","",""
"","do_trial","211","646664","0.0-114.0-0.0","""event"",""trial"",""time""
""fullscreenenter"",""0"",""1954""
","
","
","""event"",""trial"",""time""
""fullscreenenter"",""0"",""1954""
","
","0.10000000894069672","","","","","","","","50","0,1,0","6","blank","325","null","0.08313681485469637","0.8466331617894626","0.1525606007111353","1","","","","","","","","",""
"","html-keyboard-response","212","647667","0.0-114.0-1.0","""event"",""trial"",""time""
""fullscreenenter"",""0"",""1954""
","
","
","""event"",""trial"",""time""
""fullscreenenter"",""0"",""1954""
","
","null","<p></p>","null","","","","","","","","","","","","","","","","","","","","","","","",""
"","do_recog","213","651179","0.0-115.0-0.0","""event"",""trial"",""time""
""fullscreenenter"",""0"",""1954""
","
","
","""event"",""trial"",""time""
""fullscreenenter"",""0"",""1954""
","
","1998","","","","","","","","53","","","","326","probe-117","","","","","1","[object Object]","118","2","1","","","",""
"","html-keyboard-response","214","652182","0.0-115.0-1.0","""event"",""trial"",""time""
""fullscreenenter"",""0"",""1954""
","
","
","""event"",""trial"",""time""
""fullscreenenter"",""0"",""1954""
","
","null","<p></p>","null","","","","","","","","","","","","","","","","","","","","","","","",""
"","do_trial","215","654931","0.0-116.0-0.0","""event"",""trial"",""time""
""fullscreenenter"",""0"",""1954""
","
","
","""event"",""trial"",""time""
""fullscreenenter"",""0"",""1954""
","
","140.70000000298023","","","","","","","","50","0,0,0","6","blank","327","null","0.11660723021076813","0.7782267315341446","0.19716079533815908","0","","","","","","","","",""
"","html-keyboard-response","216","655933","0.0-116.0-1.0","""event"",""trial"",""time""
""fullscreenenter"",""0"",""1954""
","
","
","""event"",""trial"",""time""
""fullscreenenter"",""0"",""1954""
","
","null","<p></p>","null","","","","","","","","","","","","","","","","","","","","","","","",""
"","do_trial","217","658744","0.0-117.0-0.0","""event"",""trial"",""time""
""fullscreenenter"",""0"",""1954""
","
","
","""event"",""trial"",""time""
""fullscreenenter"",""0"",""1954""
","
","247.79999999701977","","","","","","","","51","0,0,0","6","blank","328","null","0.15977820562777473","0.6952370654809384","0.20860177770539756","0","","","","","","","","",""
"","html-keyboard-response","218","659747","0.0-117.0-1.0","""event"",""trial"",""time""
""fullscreenenter"",""0"",""1954""
","
","
","""event"",""trial"",""time""
""fullscreenenter"",""0"",""1954""
","
","null","<p></p>","null","","","","","","","","","","","","","","","","","","","","","","","",""
"","do_trial","219","662347","0.0-118.0-0.0","""event"",""trial"",""time""
""fullscreenenter"",""0"",""1954""
","
","
","""event"",""trial"",""time""
""fullscreenenter"",""0"",""1954""
","
","0.20000000298023224","","","","","","","","50","0,1,1","6","blank","329","null","0.22794146798995144","0.7305786748772006","0.1437031727896618","1","","","","","","","","",""
"","html-keyboard-response","220","663350","0.0-118.0-1.0","""event"",""trial"",""time""
""fullscreenenter"",""0"",""1954""
","
","
","""event"",""trial"",""time""
""fullscreenenter"",""0"",""1954""
","
","null","<p></p>","null","","","","","","","","","","","","","","","","","","","","","","","",""
"","do_trial","221","666026","0.0-119.0-0.0","""event"",""trial"",""time""
""fullscreenenter"",""0"",""1954""
","
","
","""event"",""trial"",""time""
""fullscreenenter"",""0"",""1954""
","
","116.70000000298023","","","","","","","","50","0,1,0","6","blank","330","null","0.20423718316968015","0.5863362903635968","0.09848069061731252","1","","","","","","","","",""
"","html-keyboard-response","222","667028","0.0-119.0-1.0","""event"",""trial"",""time""
""fullscreenenter"",""0"",""1954""
","
","
","""event"",""trial"",""time""
""fullscreenenter"",""0"",""1954""
","
","null","<p></p>","null","","","","","","","","","","","","","","","","","","","","","","","",""
"","do_trial","223","669929","0.0-120.0-0.0","""event"",""trial"",""time""
""fullscreenenter"",""0"",""1954""
","
","
","""event"",""trial"",""time""
""fullscreenenter"",""0"",""1954""
","
","359.79999999701977","","","","","","","","50","0,1,0","6","blank","331","null","0.08617773479522414","0.5752296149186477","0.23931954409603837","1","","","","","","","","",""
"","html-keyboard-response","224","670932","0.0-120.0-1.0","""event"",""trial"",""time""
""fullscreenenter"",""0"",""1954""
","
","
","""event"",""trial"",""time""
""fullscreenenter"",""0"",""1954""
","
","null","<p></p>","null","","","","","","","","","","","","","","","","","","","","","","","",""
"","do_trial","225","673811","0.0-121.0-0.0","""event"",""trial"",""time""
""fullscreenenter"",""0"",""1954""
","
","
","""event"",""trial"",""time""
""fullscreenenter"",""0"",""1954""
","
","307.70000000298023","","","","","","","","50","0,0,0","6","blank","332","null","0.09421363829557294","0.5385633989303387","0.2866196401741731","0","","","","","","","","",""
"","html-keyboard-response","226","674813","0.0-121.0-1.0","""event"",""trial"",""time""
""fullscreenenter"",""0"",""1954""
","
","
","""event"",""trial"",""time""
""fullscreenenter"",""0"",""1954""
","
","null","<p></p>","null","","","","","","","","","","","","","","","","","","","","","","","",""
"","do_recog","227","678212","0.0-122.0-0.0","""event"",""trial"",""time""
""fullscreenenter"",""0"",""1954""
","
","
","""event"",""trial"",""time""
""fullscreenenter"",""0"",""1954""
","
","1884.6000000089407","","","","","","","","53","","","","333","probe-133","","","","","1","[object Object]","151","3","1","","","",""
"","html-keyboard-response","228","679214","0.0-122.0-1.0","""event"",""trial"",""time""
""fullscreenenter"",""0"",""1954""
","
","
","""event"",""trial"",""time""
""fullscreenenter"",""0"",""1954""
","
","null","<p></p>","null","","","","","","","","","","","","","","","","","","","","","","","",""
"","do_trial","229","682255","0.0-123.0-0.0","""event"",""trial"",""time""
""fullscreenenter"",""0"",""1954""
","
","
","""event"",""trial"",""time""
""fullscreenenter"",""0"",""1954""
","
","444.5","","","","","","","","50","0,1,1","6","blank","334","null","0.1172586278718752","0.6277178971041232","0.4550910754581233","1","","","","","","","","",""
"","html-keyboard-response","230","683258","0.0-123.0-1.0","""event"",""trial"",""time""
""fullscreenenter"",""0"",""1954""
","
","
","""event"",""trial"",""time""
""fullscreenenter"",""0"",""1954""
","
","null","<p></p>","null","","","","","","","","","","","","","","","","","","","","","","","",""
"","do_trial","231","686099","0.0-124.0-0.0","""event"",""trial"",""time""
""fullscreenenter"",""0"",""1954""
","
","
","""event"",""trial"",""time""
""fullscreenenter"",""0"",""1954""
","
","289.8999999910593","","","","","","","","50","0,0,0","6","blank","335","null","0.11798426275280272","0.5863654205994007","0.48156627842227795","0","","","","","","","","",""
"","html-keyboard-response","232","687101","0.0-124.0-1.0","""event"",""trial"",""time""
""fullscreenenter"",""0"",""1954""
","
","
","""event"",""trial"",""time""
""fullscreenenter"",""0"",""1954""
","
","null","<p></p>","null","","","","","","","","","","","","","","","","","","","","","","","",""
"","do_recog","233","690214","0.0-125.0-0.0","""event"",""trial"",""time""
""fullscreenenter"",""0"",""1954""
","
","
","""event"",""trial"",""time""
""fullscreenenter"",""0"",""1954""
","
","1599","","","","","","","","53","","","","336","probe-208","","","","","1","[object Object]","196","4","1","","","",""
"","html-keyboard-response","234","691216","0.0-125.0-1.0","""event"",""trial"",""time""
""fullscreenenter"",""0"",""1954""
","
","
","""event"",""trial"",""time""
""fullscreenenter"",""0"",""1954""
","
","null","<p></p>","null","","","","","","","","","","","","","","","","","","","","","","","",""
"","do_trial","235","694417","0.0-126.0-0.0","""event"",""trial"",""time""
""fullscreenenter"",""0"",""1954""
","
","
","""event"",""trial"",""time""
""fullscreenenter"",""0"",""1954""
","
","598.6999999880791","","","","","","","","50","1,0,0","6","blank","337","null","0.11309369329424546","0.6503011031851892","0.577492827273228","0","","","","","","","","",""
"","html-keyboard-response","236","695420","0.0-126.0-1.0","""event"",""trial"",""time""
""fullscreenenter"",""0"",""1954""
","
","
","""event"",""trial"",""time""
""fullscreenenter"",""0"",""1954""
","
","null","<p></p>","null","","","","","","","","","","","","","","","","","","","","","","","",""
"","do_recog","237","698544","0.0-127.0-0.0","""event"",""trial"",""time""
""fullscreenenter"",""0"",""1954""
","
","
","""event"",""trial"",""time""
""fullscreenenter"",""0"",""1954""
","
","1610","","","","","","","","53","","","","338","probe-250","","","","","0","[object Object]","null","null","0","","","",""
"","html-keyboard-response","238","699546","0.0-127.0-1.0","""event"",""trial"",""time""
""fullscreenenter"",""0"",""1954""
","
","
","""event"",""trial"",""time""
""fullscreenenter"",""0"",""1954""
","
","null","<p></p>","null","","","","","","","","","","","","","","","","","","","","","","","",""
"","do_trial","239","702363","0.0-128.0-0.0","""event"",""trial"",""time""
""fullscreenenter"",""0"",""1954""
","
","
","""event"",""trial"",""time""
""fullscreenenter"",""0"",""1954""
","
","202.79999999701977","","","","","","","","50","1,0,0","6","blank","339","null","0.05791621302791943","0.5785930325574868","0.501724729367909","0","","","","","","","","",""
"","html-keyboard-response","240","703365","0.0-128.0-1.0","""event"",""trial"",""time""
""fullscreenenter"",""0"",""1954""
","
","
","""event"",""trial"",""time""
""fullscreenenter"",""0"",""1954""
","
","null","<p></p>","null","","","","","","","","","","","","","","","","","","","","","","","",""
"","do_trial","241","706275","0.0-129.0-0.0","""event"",""trial"",""time""
""fullscreenenter"",""0"",""1954""
","
","
","""event"",""trial"",""time""
""fullscreenenter"",""0"",""1954""
","
","308.20000000298023","","","","","","","","50","0,1,1","6","blank","340","null","0.07393387464373449","0.4146744153166426","0.485937257046505","1","","","","","","","","",""
"","html-keyboard-response","242","707278","0.0-129.0-1.0","""event"",""trial"",""time""
""fullscreenenter"",""0"",""1954""
","
","
","""event"",""trial"",""time""
""fullscreenenter"",""0"",""1954""
","
","null","<p></p>","null","","","","","","","","","","","","","","","","","","","","","","","",""
"","do_trial","243","709930","0.0-130.0-0.0","""event"",""trial"",""time""
""fullscreenenter"",""0"",""1954""
","
","
","""event"",""trial"",""time""
""fullscreenenter"",""0"",""1954""
","
","56.400000005960464","","","","","","","","50","1,1,1","6","blank","341","null","0.13777648680201732","0.4998963441740532","0.2838142518441449","1","","","","","","","","",""
"","html-keyboard-response","244","710933","0.0-130.0-1.0","""event"",""trial"",""time""
""fullscreenenter"",""0"",""1954""
","
","
","""event"",""trial"",""time""
""fullscreenenter"",""0"",""1954""
","
","null","<p></p>","null","","","","","","","","","","","","","","","","","","","","","","","",""
"","do_recog","245","714496","0.0-131.0-0.0","""event"",""trial"",""time""
""fullscreenenter"",""0"",""1954""
","
","
","""event"",""trial"",""time""
""fullscreenenter"",""0"",""1954""
","
","2049.5","","","","","","","","53","","","","342","probe-223","","","","","1","[object Object]","76","1","1","","","",""
"","html-keyboard-response","246","715499","0.0-131.0-1.0","""event"",""trial"",""time""
""fullscreenenter"",""0"",""1954""
","
","
","""event"",""trial"",""time""
""fullscreenenter"",""0"",""1954""
","
","null","<p></p>","null","","","","","","","","","","","","","","","","","","","","","","","",""
"","do_trial","247","718321","0.0-132.0-0.0","""event"",""trial"",""time""
""fullscreenenter"",""0"",""1954""
","
","
","""event"",""trial"",""time""
""fullscreenenter"",""0"",""1954""
","
","211.79999999701977","","","","","","","","50","0,0,0","6","blank","343","null","0.09231938505858622","0.6308139577557368","0.2738244338454592","0","","","","","","","","",""
"","html-keyboard-response","248","719325","0.0-132.0-1.0","""event"",""trial"",""time""
""fullscreenenter"",""0"",""1954""
","
","
","""event"",""trial"",""time""
""fullscreenenter"",""0"",""1954""
","
","null","<p></p>","null","","","","","","","","","","","","","","","","","","","","","","","",""
"","do_trial","249","721927","0.0-133.0-0.0","""event"",""trial"",""time""
""fullscreenenter"",""0"",""1954""
","
","
","""event"",""trial"",""time""
""fullscreenenter"",""0"",""1954""
","
","0.20000000298023224","","","","","","","","50","0,0,1","6","blank","344","null","0.09238990236430468","0.7212163799773085","0.17882540993412416","0","","","","","","","","",""
"","html-keyboard-response","250","722931","0.0-133.0-1.0","""event"",""trial"",""time""
""fullscreenenter"",""0"",""1954""
","
","
","""event"",""trial"",""time""
""fullscreenenter"",""0"",""1954""
","
","null","<p></p>","null","","","","","","","","","","","","","","","","","","","","","","","",""
"","do_trial","251","728999","0.0-134.0-0.0","""event"",""trial"",""time""
""fullscreenenter"",""0"",""1954""
","
","
","""event"",""trial"",""time""
""fullscreenenter"",""0"",""1954""
","
","null","","","","","","","","null","1,0,0","6","blank","345","null","0.10581829916068954","0.6313811729449758","0.26054521145880566","","","","","","","","","",""
"","html-keyboard-response","252","730003","0.0-134.0-1.0","""event"",""trial"",""time""
""fullscreenenter"",""0"",""1954""
","
","
","""event"",""trial"",""time""
""fullscreenenter"",""0"",""1954""
","
","null","<p></p>","null","","","","","","","","","","","","","","","","","","","","","","","",""
"","do_recog","253","733324","0.0-135.0-0.0","""event"",""trial"",""time""
""fullscreenenter"",""0"",""1954""
","
","
","""event"",""trial"",""time""
""fullscreenenter"",""0"",""1954""
","
","1808.0999999940395","","","","","","","","53","","","","346","probe-111","","","","","1","[object Object]","111","2","1","","","",""
"","html-keyboard-response","254","734326","0.0-135.0-1.0","""event"",""trial"",""time""
""fullscreenenter"",""0"",""1954""
","
","
","""event"",""trial"",""time""
""fullscreenenter"",""0"",""1954""
","
","null","<p></p>","null","","","","","","","","","","","","","","","","","","","","","","","",""
"","do_trial","255","739211","0.0-136.0-0.0","""event"",""trial"",""time""
""fullscreenenter"",""0"",""1954""
","
","
","""event"",""trial"",""time""
""fullscreenenter"",""0"",""1954""
","
","2284.3999999910593","","","","","","","","51","0,1,0","6","blank","347","null","0.2623025178759077","0.6997280197102851","0.27947195262144137","0","","","","","","","","",""
"","html-keyboard-response","256","740214","0.0-136.0-1.0","""event"",""trial"",""time""
""fullscreenenter"",""0"",""1954""
","
","
","""event"",""trial"",""time""
""fullscreenenter"",""0"",""1954""
","
","null","<p></p>","null","","","","","","","","","","","","","","","","","","","","","","","",""
"","do_recog","257","743440","0.0-137.0-0.0","""event"",""trial"",""time""
""fullscreenenter"",""0"",""1954""
","
","
","""event"",""trial"",""time""
""fullscreenenter"",""0"",""1954""
","
","1712.7000000029802","","","","","","","","53","","","","348","probe-45","","","","","1","[object Object]","38","0","1","","","",""
"","html-keyboard-response","258","744441","0.0-137.0-1.0","""event"",""trial"",""time""
""fullscreenenter"",""0"",""1954""
","
","
","""event"",""trial"",""time""
""fullscreenenter"",""0"",""1954""
","
","null","<p></p>","null","","","","","","","","","","","","","","","","","","","","","","","",""
"","break","259","766480","0.0-138.0-0.0","""event"",""trial"",""time""
""fullscreenenter"",""0"",""1954""
","
","
","""event"",""trial"",""time""
""fullscreenenter"",""0"",""1954""
","
","22037.29999999702","<div class='center'><p>Time to take a quick break! You have 2 minutes to rest, but you can move on sooner if you'd like.</p><p> Press the <b>space bar</b> to continue.</p></div>","32","","","","","","","","","","","","","","","","","","","","","","","",""
"","do_trial","260","772567","0.0-138.0-1.0","""event"",""trial"",""time""
""fullscreenenter"",""0"",""1954""
","
","
","""event"",""trial"",""time""
""fullscreenenter"",""0"",""1954""
","
","null","","","","","","","","null","1,1,1","6","blank","349","null","0.29369009271577295","0.6381876759617796","0.33938650460614583","","","","","","","","","",""
"","html-keyboard-response","261","773570","0.0-138.0-2.0","""event"",""trial"",""time""
""fullscreenenter"",""0"",""1954""
","
","
","""event"",""trial"",""time""
""fullscreenenter"",""0"",""1954""
","
","null","<p></p>","null","","","","","","","","","","","","","","","","","","","","","","","",""
"","do_trial","262","776523","0.0-139.0-0.0","""event"",""trial"",""time""
""fullscreenenter"",""0"",""1954""
","
","
","""event"",""trial"",""time""
""fullscreenenter"",""0"",""1954""
","
","347.6000000089407","","","","","","","","50","0,0,0","6","blank","350","null","0.29458650263663105","0.3084249470500675","0.3817538343880337","0","","","","","","","","",""
"","html-keyboard-response","263","777525","0.0-139.0-1.0","""event"",""trial"",""time""
""fullscreenenter"",""0"",""1954""
","
","
","""event"",""trial"",""time""
""fullscreenenter"",""0"",""1954""
","
","null","<p></p>","null","","","","","","","","","","","","","","","","","","","","","","","",""
"","do_trial","264","780505","0.0-140.0-0.0","""event"",""trial"",""time""
""fullscreenenter"",""0"",""1954""
","
","
","""event"",""trial"",""time""
""fullscreenenter"",""0"",""1954""
","
","377.1000000089407","","","","","","","","49","1,0,0","6","blank","351","null","0.39783484790972296","0.07980293801561951","0.32410610863421824","1","","","","","","","","",""
"","html-keyboard-response","265","781507","0.0-140.0-1.0","""event"",""trial"",""time""
""fullscreenenter"",""0"",""1954""
","
","
","""event"",""trial"",""time""
""fullscreenenter"",""0"",""1954""
","
","null","<p></p>","null","","","","","","","","","","","","","","","","","","","","","","","",""
"","do_trial","266","784101","0.0-141.0-0.0","""event"",""trial"",""time""
""fullscreenenter"",""0"",""1954""
","
","
","""event"",""trial"",""time""
""fullscreenenter"",""0"",""1954""
","
","19.299999997019768","","","","","","","","49","0,1,0","6","blank","352","null","0.5330790185246191","0.13693803146996683","0.30171814443029027","0","","","","","","","","",""
"","html-keyboard-response","267","785104","0.0-141.0-1.0","""event"",""trial"",""time""
""fullscreenenter"",""0"",""1954""
","
","
","""event"",""trial"",""time""
""fullscreenenter"",""0"",""1954""
","
","null","<p></p>","null","","","","","","","","","","","","","","","","","","","","","","","",""
"","do_trial","268","787710","0.0-142.0-0.0","""event"",""trial"",""time""
""fullscreenenter"",""0"",""1954""
","
","
","""event"",""trial"",""time""
""fullscreenenter"",""0"",""1954""
","
","0.29999999701976776","","","","","","","","49","1,1,0","6","blank","353","null","0.6878116462637023","0.09814556263413333","0.24726109285762046","1","","","","","","","","",""
"","html-keyboard-response","269","788713","0.0-142.0-1.0","""event"",""trial"",""time""
""fullscreenenter"",""0"",""1954""
","
","
","""event"",""trial"",""time""
""fullscreenenter"",""0"",""1954""
","
","null","<p></p>","null","","","","","","","","","","","","","","","","","","","","","","","",""
"","do_recog","270","791776","0.0-143.0-0.0","""event"",""trial"",""time""
""fullscreenenter"",""0"",""1954""
","
","
","""event"",""trial"",""time""
""fullscreenenter"",""0"",""1954""
","
","1549.5999999940395","","","","","","","","53","","","","354","probe-84","","","","","1","[object Object]","159","3","1","","","",""
"","html-keyboard-response","271","792778","0.0-143.0-1.0","""event"",""trial"",""time""
""fullscreenenter"",""0"",""1954""
","
","
","""event"",""trial"",""time""
""fullscreenenter"",""0"",""1954""
","
","null","<p></p>","null","","","","","","","","","","","","","","","","","","","","","","","",""
"","do_trial","272","795453","0.0-144.0-0.0","""event"",""trial"",""time""
""fullscreenenter"",""0"",""1954""
","
","
","""event"",""trial"",""time""
""fullscreenenter"",""0"",""1954""
","
","63.3999999910593","","","","","","","","49","1,0,1","6","blank","355","null","0.6751028739166197","0.08757352142927723","0.18285016667087037","1","","","","","","","","",""
"","html-keyboard-response","273","796457","0.0-144.0-1.0","""event"",""trial"",""time""
""fullscreenenter"",""0"",""1954""
","
","
","""event"",""trial"",""time""
""fullscreenenter"",""0"",""1954""
","
","null","<p></p>","null","","","","","","","","","","","","","","","","","","","","","","","",""
"","do_trial","274","799141","0.0-145.0-0.0","""event"",""trial"",""time""
""fullscreenenter"",""0"",""1954""
","
","
","""event"",""trial"",""time""
""fullscreenenter"",""0"",""1954""
","
","82.5","","","","","","","","49","1,0,0","6","blank","356","null","0.6920012031296413","0.06061077540816232","0.15902696308316094","1","","","","","","","","",""
"","html-keyboard-response","275","800143","0.0-145.0-1.0","""event"",""trial"",""time""
""fullscreenenter"",""0"",""1954""
","
","
","""event"",""trial"",""time""
""fullscreenenter"",""0"",""1954""
","
","null","<p></p>","null","","","","","","","","","","","","","","","","","","","","","","","",""
"","do_trial","276","803258","0.0-146.0-0.0","""event"",""trial"",""time""
""fullscreenenter"",""0"",""1954""
","
","
","""event"",""trial"",""time""
""fullscreenenter"",""0"",""1954""
","
","512.1000000089407","","","","","","","","49","1,0,0","6","blank","357","null","0.6447951560506374","0.08285311666783264","0.19369286333915786","1","","","","","","","","",""
"","html-keyboard-response","277","804261","0.0-146.0-1.0","""event"",""trial"",""time""
""fullscreenenter"",""0"",""1954""
","
","
","""event"",""trial"",""time""
