"success","trial_type","trial_index","time_elapsed","internal_node_id","interactions","blur_events","focus_events","fullscreenenter_events","fullscreenexit_events","rt","stimulus","key_press","subject_id","participant_id","age","gender","prompt","response","choice_outcomes","context_n","context_img_id","trial_n","probe_img_id","pR_red","pR_white","pR_black","outcome","is_valid","image_to_show","probed_trial","probed_context","correct","probe","probed_trial_n","probed_context_n","context_im"
"true","fullscreen","0","6533","0.0-0.0","""event"",""trial"",""time""
""fullscreenenter"",""0"",""5552""
","
","
","""event"",""trial"",""time""
""fullscreenenter"",""0"",""5552""
","
","","","","","","","","","","","","","","","","","","","","","","","","","","",""
"","pavlovia","1","6538","0.0-1.0","""event"",""trial"",""time""
""fullscreenenter"",""0"",""5552""
","
","
","""event"",""trial"",""time""
""fullscreenenter"",""0"",""5552""
","
","","","","","","","","","","","","","","","","","","","","","","","","","","",""
"","welc_back","2","16401","0.0-2.0","""event"",""trial"",""time""
""fullscreenenter"",""0"",""5552""
","
","
","""event"",""trial"",""time""
""fullscreenenter"",""0"",""5552""
","
","null","run_exp/static/audio/clip_29_welcome_back.m4a","null","872","1183","15","Female","<div class='center'><p>Welcome to day 2!</p><p> Yesterday, you were the head captain of a pirate ship. You asked your fellow pirates to rob other ships of their gold across six different islands.</p></div>","","","","","","","","","","","","","","","","","","",""
"","html-keyboard-response","3","19681","0.0-3.0","""event"",""trial"",""time""
""fullscreenenter"",""0"",""5552""
","
","
","""event"",""trial"",""time""
""fullscreenenter"",""0"",""5552""
","
","3277.0999999998603","<div class='center'><p>Welcome to day 2!</p><p> Yesterday, you were the head captain of a pirate ship. You asked your fellow pirates to rob other ships of their gold across six different islands.</p><p><b>[Press the space bar to continue]</b></p></div>","32","","","","","","","","","","","","","","","","","","","","","","","",""
"","day_1_summary_goal","4","37113","0.0-4.0","""event"",""trial"",""time""
""fullscreenenter"",""0"",""5552""
","
","
","""event"",""trial"",""time""
""fullscreenenter"",""0"",""5552""
","
","null","run_exp/static/audio/clip_30_goal_of_game.m4a","null","","","","","<div class='center'><p>Today, like yesterday, you get to pick which pirate you want to rob the next ship.</p><p>If the pirate is successful in robbing a ship, you get gold coins that look like this: </p><p><img src='run_exp/static/images/tutorial/reward.png' height='150'></p><p> If they were not successful in robbing the ship, then you will get no gold coins and you'll see a big red x like this: </p><p><img src='run_exp/static/images/tutorial/reward_no.png' height='150'></p></div>","","","","","","","","","","","","","","","","","","",""
"","html-keyboard-response","5","38585","0.0-5.0","""event"",""trial"",""time""
""fullscreenenter"",""0"",""5552""
","
","
","""event"",""trial"",""time""
""fullscreenenter"",""0"",""5552""
","
","1470.3000000000466","<div class='center'><p>Today, like yesterday, you get to pick which pirate you want to rob the next ship.</p><p>If the pirate is successful in robbing a ship, you get gold coins that look like this: </p><p><img src='run_exp/static/images/tutorial/reward.png' height='150'></p><p> If they were not successful in robbing the ship, then you will get no gold coins and you'll see a big red x like this: </p><p><img src='run_exp/static/images/tutorial/reward_no.png' height='150'></p><p><b>[Press the space bar to continue]</b></p></div>","32","","","","","","","","","","","","","","","","","","","","","","","",""
"","day_1_summary_pick","6","53459","0.0-6.0","""event"",""trial"",""time""
""fullscreenenter"",""0"",""5552""
","
","
","""event"",""trial"",""time""
""fullscreenenter"",""0"",""5552""
","
","null","run_exp/static/audio/clip_31_how_to_pick_a_pirate.m4a","null","","","","","<div class='center'><p>Also, just like yesterday, you will use the 1,2,3 keys on your keyboard to pick a pirate. Press '1' to choose red beard, '2' to choose white beard, and '3' to choose black beard . You only have 3 seconds to pick a pirate, so please make a choice quickly!</p></div>","","","","","","","","","","","","","","","","","","",""
"","html-keyboard-response","7","54762","0.0-7.0","""event"",""trial"",""time""
""fullscreenenter"",""0"",""5552""
","
","
","""event"",""trial"",""time""
""fullscreenenter"",""0"",""5552""
","
","1301.0999999998603","<div class='center'><p>Also, just like yesterday, you will use the 1,2,3 keys on your keyboard to pick a pirate. Press '1' to choose red beard, '2' to choose white beard, and '3' to choose black beard . You only have 3 seconds to pick a pirate, so please make a choice quickly!</p><p><b>[Press the space bar to continue]</b></p></div>","32","","","","","","","","","","","","","","","","","","","","","","","",""
"","test_phase_begin","8","85410","0.0-8.0","""event"",""trial"",""time""
""fullscreenenter"",""0"",""5552""
","
","
","""event"",""trial"",""time""
""fullscreenenter"",""0"",""5552""
","
","null","run_exp/static/audio/clip_32_final_place.m4a","null","","","","","<div class='center'><p>You’ve arrived at the final island of your journey! Unfortunately, it’s very foggy out, so you won’t be able to see it in the distance like the other islands you've visited.</p><p>You’ll still be deciding which pirate you want to rob a ship like before. However, because of the fog, you also won’t be able to see the ship.</p><p>This means you do not have to remember the ships you rob on this island.</p><p>Unlike yesterday, you won't be visiting multiple islands today. You will stay on this island for the entire game. This game will last ~30 minutes.</p></div>","","","","","","","","","","","","","","","","","","",""
"","html-keyboard-response","9","86070","0.0-9.0","""event"",""trial"",""time""
""fullscreenenter"",""0"",""5552""
","
","
","""event"",""trial"",""time""
""fullscreenenter"",""0"",""5552""
","
","658.3000000000466","<div class='center'><p>You’ve arrived at the final island of your journey! Unfortunately, it’s very foggy out, so you won’t be able to see it in the distance like the other islands you've visited.</p><p>You’ll still be deciding which pirate you want to rob a ship like before. However, because of the fog, you also won’t be able to see the ship.</p><p>This means you do not have to remember the ships you rob on this island.</p><p>Unlike yesterday, you won't be visiting multiple islands today. You will stay on this island for the entire game. This game will last ~30 minutes.</p><p><b>[Press the space bar to continue]</b></p></div>","32","","","","","","","","","","","","","","","","","","","","","","","",""
"","explain_probe_1","10","94047","0.0-10.0","""event"",""trial"",""time""
""fullscreenenter"",""0"",""5552""
","
","
","""event"",""trial"",""time""
""fullscreenenter"",""0"",""5552""
","
","null","run_exp/static/audio/clip_33_recognition_1.m4a","null","","","","","<div class='center'><p> Sometimes you’ll be shown a ship, and you will be asked if you saw this ship on a past island.</p><p> Here is an example of what you will see.</p><p><img src='run_exp/static/images/tutorial/example_recog_trial.png' height='500'></p></div>","","","","","","","","","","","","","","","","","","",""
"","html-keyboard-response","11","95727","0.0-11.0","""event"",""trial"",""time""
""fullscreenenter"",""0"",""5552""
","
","
","""event"",""trial"",""time""
""fullscreenenter"",""0"",""5552""
","
","1677.5","<div class='center'><p> Sometimes you’ll be shown a ship, and you will be asked if you saw this ship on a past island.</p><p> Here is an example of what you will see.</p><p><img src='run_exp/static/images/tutorial/example_recog_trial.png' height='500'></p><p><b>[Press the space bar to continue]</b></p></div>","32","","","","","","","","","","","","","","","","","","","","","","","",""
"","explain_probe_2","12","117639","0.0-12.0","""event"",""trial"",""time""
""fullscreenenter"",""0"",""5552""
","
","
","""event"",""trial"",""time""
""fullscreenenter"",""0"",""5552""
","
","null","run_exp/static/audio/clip_34_recognition_2.m4a","null","","","","","<div class='center'><p> You will press the 5, 6, 7, 8 keys on your keyboard to respond.</p><p>If you are sure you saw the ship, press <b>5</b> on your keyboard.</p><p> If you think you saw it before but aren't sure, then press <b>6</b>.</p><p> If you think you have <b>not</b> seen it before but aren't sure, then press <b>7</b>.</p><p> If you are sure you did <b>not</b> see the ship before, then press <b>8</b>.</p><p><img src='run_exp/static/images/tutorial/example_recog_trial.png' height='500'></p></div>","","","","","","","","","","","","","","","","","","",""
"","html-keyboard-response","13","118706","0.0-13.0","""event"",""trial"",""time""
""fullscreenenter"",""0"",""5552""
","
","
","""event"",""trial"",""time""
""fullscreenenter"",""0"",""5552""
","
","1065.5999999998603","<div class='center'><p> You will press the 5, 6, 7, 8 keys on your keyboard to respond.</p><p>If you are sure you saw the ship, press <b>5</b> on your keyboard.</p><p> If you think you saw it before but aren't sure, then press <b>6</b>.</p><p> If you think you have <b>not</b> seen it before but aren't sure, then press <b>7</b>.</p><p> If you are sure you did <b>not</b> see the ship before, then press <b>8</b>.</p><p><img src='run_exp/static/images/tutorial/example_recog_trial.png' height='500'></p><p><b>[Press the space bar to continue]</b></p></div>","32","","","","","","","","","","","","","","","","","","","","","","","",""
"","explain_outcome","14","136122","0.0-14.0","""event"",""trial"",""time""
""fullscreenenter"",""0"",""5552""
","
","
","""event"",""trial"",""time""
""fullscreenenter"",""0"",""5552""
","
","null","run_exp/static/audio/clip_35_recognition_3.m4a","null","","","","","<div class='center'><p> If you remember correctly, then you’ll get a gold coin like this: </p><p><img src='run_exp/static/images/tutorial/reward_small.png' height='200'></p><p>If you do not remember correctly, then you'll see a red x like this: </p><p><img src='run_exp/static/images/tutorial/reward_no.png' height='200'></p><p>Importantly, when you are shown a ship, take the time to remind yourself which island you saw it on. This will help you in the next part of the study.</p></div>","","","","","","","","","","","","","","","","","","",""
"","html-keyboard-response","15","136959","0.0-15.0","""event"",""trial"",""time""
""fullscreenenter"",""0"",""5552""
","
","
","""event"",""trial"",""time""
""fullscreenenter"",""0"",""5552""
","
","835.2000000001863","<div class='center'><p> If you remember correctly, then you’ll get a gold coin like this: </p><p><img src='run_exp/static/images/tutorial/reward_small.png' height='200'></p><p>If you do not remember correctly, then you'll see a red x like this: </p><p><img src='run_exp/static/images/tutorial/reward_no.png' height='200'></p><p>Importantly, when you are shown a ship, take the time to remind yourself which island you saw it on. This will help you in the next part of the study.</p><p><b>[Press the space bar to continue]</b></p></div>","32","","","","","","","","","","","","","","","","","","","","","","","",""
"","begin_test_phase","16","153026","0.0-16.0","""event"",""trial"",""time""
""fullscreenenter"",""0"",""5552""
","
","
","""event"",""trial"",""time""
""fullscreenenter"",""0"",""5552""
","
","null","run_exp/static/audio/clip_36_begin_final.m4a","null","","","","","<div class='center'><p>Let's go over the important points again. Your job is to: </p><p>1. Pick the pirate who is best at robbing ships and will bring you back gold coins. </p><p>2. Correctly remember whether or not you saw a ship before. If you did see the ship before, remind yourself on which island you saw it. </p></div>","","","","","","","","","","","","","","","","","","",""
"","html-keyboard-response","17","154113","0.0-17.0","""event"",""trial"",""time""
""fullscreenenter"",""0"",""5552""
","
","
","""event"",""trial"",""time""
""fullscreenenter"",""0"",""5552""
","
","1013","<div class='center'><p>Let's go over the important points again. Your job is to: </p><p>1. Pick the pirate who is best at robbing ships and will bring you back gold coins. </p><p>2. Correctly remember whether or not you saw a ship before. If you did see the ship before, remind yourself on which island you saw it. </p><p><b>[Press the space bar to continue]</b></p></div>","32","","","","","","","","","","","","","","","","","","","","","","","",""
"","do_welcome","18","158122","0.0-18.0","""event"",""trial"",""time""
""fullscreenenter"",""0"",""5552""
","
","
","""event"",""trial"",""time""
""fullscreenenter"",""0"",""5552""
","
","null","","","","","","","","null","","","","","","","","","","","","","","","","","",""
"","do_trial","19","162633","0.0-19.0-0.0","""event"",""trial"",""time""
""fullscreenenter"",""0"",""5552""
","
","
","""event"",""trial"",""time""
""fullscreenenter"",""0"",""5552""
","
","1927.7999999998137","","","","","","","","50","1,0,0","6","blank","230","null","0.20511052008135813","0.5889073312897581","0.2907752268556039","0","","","","","","","","",""
"","html-keyboard-response","20","163639","0.0-19.0-1.0","""event"",""trial"",""time""
""fullscreenenter"",""0"",""5552""
","
","
","""event"",""trial"",""time""
""fullscreenenter"",""0"",""5552""
","
","null","<p></p>","null","","","","","","","","","","","","","","","","","","","","","","","",""
"","do_trial","21","166850","0.0-20.0-0.0","""event"",""trial"",""time""
""fullscreenenter"",""0"",""5552""
","
","
","""event"",""trial"",""time""
""fullscreenenter"",""0"",""5552""
","
","636.6999999999534","","","","","","","","50","0,0,1","6","blank","231","null","0.20814030649548312","0.5480025247997581","0.2710514278155212","0","","","","","","","","",""
"","html-keyboard-response","22","167852","0.0-20.0-1.0","""event"",""trial"",""time""
""fullscreenenter"",""0"",""5552""
""blur"",""23"",""170761""
""focus"",""23"",""170970""
","""event"",""trial"",""time""
""blur"",""23"",""170761""
","""event"",""trial"",""time""
""focus"",""23"",""170970""
","""event"",""trial"",""time""
""fullscreenenter"",""0"",""5552""
","
","null","<p></p>","null","","","","","","","","","","","","","","","","","","","","","","","",""
"","do_trial","23","171248","0.0-21.0-0.0","""event"",""trial"",""time""
""fullscreenenter"",""0"",""5552""
""blur"",""23"",""170761""
""focus"",""23"",""170970""
","""event"",""trial"",""time""
""blur"",""23"",""170761""
","""event"",""trial"",""time""
""focus"",""23"",""170970""
","""event"",""trial"",""time""
""fullscreenenter"",""0"",""5552""
","
","821.8000000000466","","","","","","","","50","0,1,1","6","blank","232","null","0.10375608498892415","0.7771603460471636","0.2623704030203311","1","","","","","","","","",""
"","html-keyboard-response","24","172250","0.0-21.0-1.0","""event"",""trial"",""time""
""fullscreenenter"",""0"",""5552""
""blur"",""23"",""170761""
""focus"",""23"",""170970""
","""event"",""trial"",""time""
""blur"",""23"",""170761""
","""event"",""trial"",""time""
""focus"",""23"",""170970""
","""event"",""trial"",""time""
""fullscreenenter"",""0"",""5552""
","
","null","<p></p>","null","","","","","","","","","","","","","","","","","","","","","","","",""
"","do_trial","25","175219","0.0-22.0-0.0","""event"",""trial"",""time""
""fullscreenenter"",""0"",""5552""
""blur"",""23"",""170761""
""focus"",""23"",""170970""
","""event"",""trial"",""time""
""blur"",""23"",""170761""
","""event"",""trial"",""time""
""focus"",""23"",""170970""
","""event"",""trial"",""time""
""fullscreenenter"",""0"",""5552""
","
","395","","","","","","","","51","1,1,0","6","blank","233","null","0.2034651961701367","0.5918170944581552","0.3740274705972755","0","","","","","","","","",""
"","html-keyboard-response","26","176222","0.0-22.0-1.0","""event"",""trial"",""time""
""fullscreenenter"",""0"",""5552""
""blur"",""23"",""170761""
""focus"",""23"",""170970""
","""event"",""trial"",""time""
""blur"",""23"",""170761""
","""event"",""trial"",""time""
""focus"",""23"",""170970""
","""event"",""trial"",""time""
""fullscreenenter"",""0"",""5552""
","
","null","<p></p>","null","","","","","","","","","","","","","","","","","","","","","","","",""
"","do_trial","27","179901","0.0-23.0-0.0","""event"",""trial"",""time""
""fullscreenenter"",""0"",""5552""
""blur"",""23"",""170761""
""focus"",""23"",""170970""
","""event"",""trial"",""time""
""blur"",""23"",""170761""
","""event"",""trial"",""time""
""focus"",""23"",""170970""
","""event"",""trial"",""time""
""fullscreenenter"",""0"",""5552""
","
","1105","","","","","","","","49","0,0,0","6","blank","234","null","0.3002422311607976","0.6721127525550585","0.2373920078822372","0","","","","","","","","",""
"","html-keyboard-response","28","180903","0.0-23.0-1.0","""event"",""trial"",""time""
""fullscreenenter"",""0"",""5552""
""blur"",""23"",""170761""
""focus"",""23"",""170970""
","""event"",""trial"",""time""
""blur"",""23"",""170761""
","""event"",""trial"",""time""
""focus"",""23"",""170970""
","""event"",""trial"",""time""
""fullscreenenter"",""0"",""5552""
","
","null","<p></p>","null","","","","","","","","","","","","","","","","","","","","","","","",""
"","do_trial","29","184613","0.0-24.0-0.0","""event"",""trial"",""time""
""fullscreenenter"",""0"",""5552""
""blur"",""23"",""170761""
""focus"",""23"",""170970""
","""event"",""trial"",""time""
""blur"",""23"",""170761""
","""event"",""trial"",""time""
""focus"",""23"",""170970""
","""event"",""trial"",""time""
""fullscreenenter"",""0"",""5552""
","
","1136.3000000000466","","","","","","","","51","0,1,1","6","blank","235","null","0.19756152859744017","0.6357641640855678","0.27332665153983426","1","","","","","","","","",""
"","html-keyboard-response","30","185615","0.0-24.0-1.0","""event"",""trial"",""time""
""fullscreenenter"",""0"",""5552""
""blur"",""23"",""170761""
""focus"",""23"",""170970""
","""event"",""trial"",""time""
""blur"",""23"",""170761""
","""event"",""trial"",""time""
""focus"",""23"",""170970""
","""event"",""trial"",""time""
""fullscreenenter"",""0"",""5552""
","
","null","<p></p>","null","","","","","","","","","","","","","","","","","","","","","","","",""
"","do_trial","31","188499","0.0-25.0-0.0","""event"",""trial"",""time""
""fullscreenenter"",""0"",""5552""
""blur"",""23"",""170761""
""focus"",""23"",""170970""
","""event"",""trial"",""time""
""blur"",""23"",""170761""
","""event"",""trial"",""time""
""focus"",""23"",""170970""
","""event"",""trial"",""time""
""fullscreenenter"",""0"",""5552""
","
","311.69999999995343","","","","","","","","51","0,1,0","6","blank","236","null","0.16095180226179412","0.49836483519892066","0.1373278884918621","0","","","","","","","","",""
"","html-keyboard-response","32","189501","0.0-25.0-1.0","""event"",""trial"",""time""
""fullscreenenter"",""0"",""5552""
""blur"",""23"",""170761""
""focus"",""23"",""170970""
","""event"",""trial"",""time""
""blur"",""23"",""170761""
","""event"",""trial"",""time""
""focus"",""23"",""170970""
","""event"",""trial"",""time""
""fullscreenenter"",""0"",""5552""
","
","null","<p></p>","null","","","","","","","","","","","","","","","","","","","","","","","",""
"","do_trial","33","192744","0.0-26.0-0.0","""event"",""trial"",""time""
""fullscreenenter"",""0"",""5552""
""blur"",""23"",""170761""
""focus"",""23"",""170970""
","""event"",""trial"",""time""
""blur"",""23"",""170761""
","""event"",""trial"",""time""
""focus"",""23"",""170970""
","""event"",""trial"",""time""
""fullscreenenter"",""0"",""5552""
","
","670.1999999999534","","","","","","","","49","0,1,0","6","blank","237","null","0.06073064123856231","0.5683161205268494","0.2648389484336271","0","","","","","","","","",""
"","html-keyboard-response","34","193746","0.0-26.0-1.0","""event"",""trial"",""time""
""fullscreenenter"",""0"",""5552""
""blur"",""23"",""170761""
""focus"",""23"",""170970""
","""event"",""trial"",""time""
""blur"",""23"",""170761""
","""event"",""trial"",""time""
""focus"",""23"",""170970""
","""event"",""trial"",""time""
""fullscreenenter"",""0"",""5552""
","
","null","<p></p>","null","","","","","","","","","","","","","","","","","","","","","","","",""
"","do_trial","35","197202","0.0-27.0-0.0","""event"",""trial"",""time""
""fullscreenenter"",""0"",""5552""
""blur"",""23"",""170761""
""focus"",""23"",""170970""
","""event"",""trial"",""time""
""blur"",""23"",""170761""
","""event"",""trial"",""time""
""focus"",""23"",""170970""
","""event"",""trial"",""time""
""fullscreenenter"",""0"",""5552""
","
","882.1000000000931","","","","","","","","50","0,1,1","6","blank","238","null","0.12877147522727114","0.5278869646445787","0.3849587233651139","1","","","","","","","","",""
"","html-keyboard-response","36","198205","0.0-27.0-1.0","""event"",""trial"",""time""
""fullscreenenter"",""0"",""5552""
""blur"",""23"",""170761""
""focus"",""23"",""170970""
","""event"",""trial"",""time""
""blur"",""23"",""170761""
","""event"",""trial"",""time""
""focus"",""23"",""170970""
","""event"",""trial"",""time""
""fullscreenenter"",""0"",""5552""
","
","null","<p></p>","null","","","","","","","","","","","","","","","","","","","","","","","",""
"","do_trial","37","201464","0.0-28.0-0.0","""event"",""trial"",""time""
""fullscreenenter"",""0"",""5552""
""blur"",""23"",""170761""
""focus"",""23"",""170970""
","""event"",""trial"",""time""
""blur"",""23"",""170761""
","""event"",""trial"",""time""
""focus"",""23"",""170970""
","""event"",""trial"",""time""
""fullscreenenter"",""0"",""5552""
","
","685.5","","","","","","","","51","0,1,0","6","blank","239","null","0.19896039989103023","0.5674833714691514","0.3061327864170174","0","","","","","","","","",""
"","html-keyboard-response","38","202466","0.0-28.0-1.0","""event"",""trial"",""time""
""fullscreenenter"",""0"",""5552""
""blur"",""23"",""170761""
""focus"",""23"",""170970""
","""event"",""trial"",""time""
""blur"",""23"",""170761""
","""event"",""trial"",""time""
""focus"",""23"",""170970""
","""event"",""trial"",""time""
""fullscreenenter"",""0"",""5552""
","
","null","<p></p>","null","","","","","","","","","","","","","","","","","","","","","","","",""
"","do_trial","39","206023","0.0-29.0-0.0","""event"",""trial"",""time""
""fullscreenenter"",""0"",""5552""
""blur"",""23"",""170761""
""focus"",""23"",""170970""
","""event"",""trial"",""time""
""blur"",""23"",""170761""
","""event"",""trial"",""time""
""focus"",""23"",""170970""
","""event"",""trial"",""time""
""fullscreenenter"",""0"",""5552""
","
","981","","","","","","","","49","0,0,0","6","blank","240","null","0.4018057714551802","0.42963667627776875","0.40813984459700975","0","","","","","","","","",""
"","html-keyboard-response","40","207025","0.0-29.0-1.0","""event"",""trial"",""time""
""fullscreenenter"",""0"",""5552""
""blur"",""23"",""170761""
""focus"",""23"",""170970""
","""event"",""trial"",""time""
""blur"",""23"",""170761""
","""event"",""trial"",""time""
""focus"",""23"",""170970""
","""event"",""trial"",""time""
""fullscreenenter"",""0"",""5552""
","
","null","<p></p>","null","","","","","","","","","","","","","","","","","","","","","","","",""
"","do_recog","41","213034","0.0-30.0-0.0","""event"",""trial"",""time""
""fullscreenenter"",""0"",""5552""
""blur"",""23"",""170761""
""focus"",""23"",""170970""
","""event"",""trial"",""time""
""blur"",""23"",""170761""
","""event"",""trial"",""time""
""focus"",""23"",""170970""
","""event"",""trial"",""time""
""fullscreenenter"",""0"",""5552""
","
","null","","","","","","","","null","","","","241","probe-57","","","","","1","[object Object]","155","3","0","","","",""
"","html-keyboard-response","42","214038","0.0-30.0-1.0","""event"",""trial"",""time""
""fullscreenenter"",""0"",""5552""
""blur"",""23"",""170761""
""focus"",""23"",""170970""
","""event"",""trial"",""time""
""blur"",""23"",""170761""
","""event"",""trial"",""time""
""focus"",""23"",""170970""
","""event"",""trial"",""time""
""fullscreenenter"",""0"",""5552""
","
","null","<p></p>","null","","","","","","","","","","","","","","","","","","","","","","","",""
"","do_trial","43","217566","0.0-31.0-0.0","""event"",""trial"",""time""
""fullscreenenter"",""0"",""5552""
""blur"",""23"",""170761""
""focus"",""23"",""170970""
","""event"",""trial"",""time""
""blur"",""23"",""170761""
","""event"",""trial"",""time""
""focus"",""23"",""170970""
","""event"",""trial"",""time""
""fullscreenenter"",""0"",""5552""
","
","954.5","","","","","","","","49","1,0,0","6","blank","242","null","0.3855164526787452","0.3685753588175133","0.44264239696213475","1","","","","","","","","",""
"","html-keyboard-response","44","218567","0.0-31.0-1.0","""event"",""trial"",""time""
""fullscreenenter"",""0"",""5552""
""blur"",""23"",""170761""
""focus"",""23"",""170970""
","""event"",""trial"",""time""
""blur"",""23"",""170761""
","""event"",""trial"",""time""
""focus"",""23"",""170970""
","""event"",""trial"",""time""
""fullscreenenter"",""0"",""5552""
","
","null","<p></p>","null","","","","","","","","","","","","","","","","","","","","","","","",""
"","do_trial","45","221950","0.0-32.0-0.0","""event"",""trial"",""time""
""fullscreenenter"",""0"",""5552""
""blur"",""23"",""170761""
""focus"",""23"",""170970""
","""event"",""trial"",""time""
""blur"",""23"",""170761""
","""event"",""trial"",""time""
""focus"",""23"",""170970""
","""event"",""trial"",""time""
""fullscreenenter"",""0"",""5552""
","
","809.1000000000931","","","","","","","","49","1,0,0","6","blank","243","null","0.6177188800514942","0.4543465704062847","0.2426937306127746","1","","","","","","","","",""
"","html-keyboard-response","46","222952","0.0-32.0-1.0","""event"",""trial"",""time""
""fullscreenenter"",""0"",""5552""
""blur"",""23"",""170761""
""focus"",""23"",""170970""
","""event"",""trial"",""time""
""blur"",""23"",""170761""
","""event"",""trial"",""time""
""focus"",""23"",""170970""
","""event"",""trial"",""time""
""fullscreenenter"",""0"",""5552""
","
","null","<p></p>","null","","","","","","","","","","","","","","","","","","","","","","","",""
"","do_trial","47","226427","0.0-33.0-0.0","""event"",""trial"",""time""
""fullscreenenter"",""0"",""5552""
""blur"",""23"",""170761""
""focus"",""23"",""170970""
","""event"",""trial"",""time""
""blur"",""23"",""170761""
","""event"",""trial"",""time""
""focus"",""23"",""170970""
","""event"",""trial"",""time""
""fullscreenenter"",""0"",""5552""
","
","901","","","","","","","","50","1,1,0","6","blank","244","null","0.7590446946812128","0.41466958375245455","0.19020578618099013","1","","","","","","","","",""
"","html-keyboard-response","48","227430","0.0-33.0-1.0","""event"",""trial"",""time""
""fullscreenenter"",""0"",""5552""
""blur"",""23"",""170761""
""focus"",""23"",""170970""
","""event"",""trial"",""time""
""blur"",""23"",""170761""
","""event"",""trial"",""time""
""focus"",""23"",""170970""
","""event"",""trial"",""time""
""fullscreenenter"",""0"",""5552""
","
","null","<p></p>","null","","","","","","","","","","","","","","","","","","","","","","","",""
"","do_recog","49","231222","0.0-34.0-0.0","""event"",""trial"",""time""
""fullscreenenter"",""0"",""5552""
""blur"",""23"",""170761""
""focus"",""23"",""170970""
","""event"",""trial"",""time""
""blur"",""23"",""170761""
","""event"",""trial"",""time""
""focus"",""23"",""170970""
","""event"",""trial"",""time""
""fullscreenenter"",""0"",""5552""
","
","2284.0999999998603","","","","","","","","54","","","","245","probe-01","","","","","1","[object Object]","190","4","1","","","",""
"","html-keyboard-response","50","232224","0.0-34.0-1.0","""event"",""trial"",""time""
""fullscreenenter"",""0"",""5552""
""blur"",""23"",""170761""
""focus"",""23"",""170970""
","""event"",""trial"",""time""
""blur"",""23"",""170761""
","""event"",""trial"",""time""
""focus"",""23"",""170970""
","""event"",""trial"",""time""
""fullscreenenter"",""0"",""5552""
","
","null","<p></p>","null","","","","","","","","","","","","","","","","","","","","","","","",""
"","do_trial","51","235926","0.0-35.0-0.0","""event"",""trial"",""time""
""fullscreenenter"",""0"",""5552""
""blur"",""23"",""170761""
""focus"",""23"",""170970""
","""event"",""trial"",""time""
""blur"",""23"",""170761""
","""event"",""trial"",""time""
""focus"",""23"",""170970""
","""event"",""trial"",""time""
""fullscreenenter"",""0"",""5552""
","
","1126.2000000001863","","","","","","","","50","1,0,0","6","blank","246","null","0.7783235931470301","0.4639567671739293","0.26932691766839745","0","","","","","","","","",""
"","html-keyboard-response","52","236928","0.0-35.0-1.0","""event"",""trial"",""time""
""fullscreenenter"",""0"",""5552""
""blur"",""23"",""170761""
""focus"",""23"",""170970""
","""event"",""trial"",""time""
""blur"",""23"",""170761""
","""event"",""trial"",""time""
""focus"",""23"",""170970""
","""event"",""trial"",""time""
""fullscreenenter"",""0"",""5552""
","
","null","<p></p>","null","","","","","","","","","","","","","","","","","","","","","","","",""
"","do_trial","53","240297","0.0-36.0-0.0","""event"",""trial"",""time""
""fullscreenenter"",""0"",""5552""
""blur"",""23"",""170761""
""focus"",""23"",""170970""
","""event"",""trial"",""time""
""blur"",""23"",""170761""
","""event"",""trial"",""time""
""focus"",""23"",""170970""
","""event"",""trial"",""time""
""fullscreenenter"",""0"",""5552""
","
","796.5999999998603","","","","","","","","49","1,1,0","6","blank","247","null","0.6577466722541603","0.4097984597975303","0.20052195109835555","1","","","","","","","","",""
"","html-keyboard-response","54","241300","0.0-36.0-1.0","""event"",""trial"",""time""
""fullscreenenter"",""0"",""5552""
""blur"",""23"",""170761""
""focus"",""23"",""170970""
","""event"",""trial"",""time""
""blur"",""23"",""170761""
","""event"",""trial"",""time""
""focus"",""23"",""170970""
","""event"",""trial"",""time""
""fullscreenenter"",""0"",""5552""
","
","null","<p></p>","null","","","","","","","","","","","","","","","","","","","","","","","",""
"","do_trial","55","243931","0.0-37.0-0.0","""event"",""trial"",""time""
""fullscreenenter"",""0"",""5552""
""blur"",""23"",""170761""
""focus"",""23"",""170970""
","""event"",""trial"",""time""
""blur"",""23"",""170761""
","""event"",""trial"",""time""
""focus"",""23"",""170970""
","""event"",""trial"",""time""
""fullscreenenter"",""0"",""5552""
","
","58.5","","","","","","","","50","1,1,1","6","blank","248","null","0.7008116402852167","0.40524692637943","0.22967587020108768","1","","","","","","","","",""
"","html-keyboard-response","56","244933","0.0-37.0-1.0","""event"",""trial"",""time""
""fullscreenenter"",""0"",""5552""
""blur"",""23"",""170761""
""focus"",""23"",""170970""
","""event"",""trial"",""time""
""blur"",""23"",""170761""
","""event"",""trial"",""time""
""focus"",""23"",""170970""
","""event"",""trial"",""time""
""fullscreenenter"",""0"",""5552""
","
","null","<p></p>","null","","","","","","","","","","","","","","","","","","","","","","","",""
"","do_trial","57","247907","0.0-38.0-0.0","""event"",""trial"",""time""
""fullscreenenter"",""0"",""5552""
""blur"",""23"",""170761""
""focus"",""23"",""170970""
","""event"",""trial"",""time""
""blur"",""23"",""170761""
","""event"",""trial"",""time""
""focus"",""23"",""170970""
","""event"",""trial"",""time""
""fullscreenenter"",""0"",""5552""
","
","400.4000000001397","","","","","","","","51","0,0,0","6","blank","249","null","0.6634039799029583","0.5266427724525486","0.20058196779543777","0","","","","","","","","",""
"","html-keyboard-response","58","248909","0.0-38.0-1.0","""event"",""trial"",""time""
""fullscreenenter"",""0"",""5552""
""blur"",""23"",""170761""
""focus"",""23"",""170970""
","""event"",""trial"",""time""
""blur"",""23"",""170761""
","""event"",""trial"",""time""
""focus"",""23"",""170970""
","""event"",""trial"",""time""
""fullscreenenter"",""0"",""5552""
","
","null","<p></p>","null","","","","","","","","","","","","","","","","","","","","","","","",""
"","do_trial","59","251920","0.0-39.0-0.0","""event"",""trial"",""time""
""fullscreenenter"",""0"",""5552""
""blur"",""23"",""170761""
""focus"",""23"",""170970""
","""event"",""trial"",""time""
""blur"",""23"",""170761""
","""event"",""trial"",""time""
""focus"",""23"",""170970""
","""event"",""trial"",""time""
""fullscreenenter"",""0"",""5552""
","
","435","","","","","","","","50","1,1,0","6","blank","250","null","0.6134211661585276","0.4206906817916649","0.2329676333187426","1","","","","","","","","",""
"","html-keyboard-response","60","252922","0.0-39.0-1.0","""event"",""trial"",""time""
""fullscreenenter"",""0"",""5552""
""blur"",""23"",""170761""
""focus"",""23"",""170970""
","""event"",""trial"",""time""
""blur"",""23"",""170761""
","""event"",""trial"",""time""
""focus"",""23"",""170970""
","""event"",""trial"",""time""
""fullscreenenter"",""0"",""5552""
","
","null","<p></p>","null","","","","","","","","","","","","","","","","","","","","","","","",""
"","do_trial","61","256572","0.0-40.0-0.0","""event"",""trial"",""time""
""fullscreenenter"",""0"",""5552""
""blur"",""23"",""170761""
""focus"",""23"",""170970""
","""event"",""trial"",""time""
""blur"",""23"",""170761""
","""event"",""trial"",""time""
""focus"",""23"",""170970""
","""event"",""trial"",""time""
""fullscreenenter"",""0"",""5552""
","
","1076.8999999999069","","","","","","","","49","0,0,1","6","blank","251","null","0.45842818986710415","0.4225653748750808","0.30560443146678024","0","","","","","","","","",""
"","html-keyboard-response","62","257574","0.0-40.0-1.0","""event"",""trial"",""time""
""fullscreenenter"",""0"",""5552""
""blur"",""23"",""170761""
""focus"",""23"",""170970""
","""event"",""trial"",""time""
""blur"",""23"",""170761""
","""event"",""trial"",""time""
""focus"",""23"",""170970""
","""event"",""trial"",""time""
""fullscreenenter"",""0"",""5552""
","
","null","<p></p>","null","","","","","","","","","","","","","","","","","","","","","","","",""
"","do_trial","63","260170","0.0-41.0-0.0","""event"",""trial"",""time""
""fullscreenenter"",""0"",""5552""
""blur"",""23"",""170761""
""focus"",""23"",""170970""
","""event"",""trial"",""time""
""blur"",""23"",""170761""
","""event"",""trial"",""time""
""focus"",""23"",""170970""
","""event"",""trial"",""time""
""fullscreenenter"",""0"",""5552""
","
","20.5","","","","","","","","50","0,0,0","6","blank","252","null","0.5047297120971324","0.3229199520096783","0.16618559751533224","0","","","","","","","","",""
"","html-keyboard-response","64","261172","0.0-41.0-1.0","""event"",""trial"",""time""
""fullscreenenter"",""0"",""5552""
""blur"",""23"",""170761""
""focus"",""23"",""170970""
","""event"",""trial"",""time""
""blur"",""23"",""170761""
","""event"",""trial"",""time""
""focus"",""23"",""170970""
","""event"",""trial"",""time""
""fullscreenenter"",""0"",""5552""
","
","null","<p></p>","null","","","","","","","","","","","","","","","","","","","","","","","",""
"","do_recog","65","265068","0.0-42.0-0.0","""event"",""trial"",""time""
""fullscreenenter"",""0"",""5552""
""blur"",""23"",""170761""
""focus"",""23"",""170970""
","""event"",""trial"",""time""
""blur"",""23"",""170761""
","""event"",""trial"",""time""
""focus"",""23"",""170970""
","""event"",""trial"",""time""
""fullscreenenter"",""0"",""5552""
","
","2388.1999999999534","","","","","","","","54","","","","253","probe-124","","","","","1","[object Object]","194","4","1","","","",""
"","html-keyboard-response","66","266071","0.0-42.0-1.0","""event"",""trial"",""time""
""fullscreenenter"",""0"",""5552""
""blur"",""23"",""170761""
""focus"",""23"",""170970""
","""event"",""trial"",""time""
""blur"",""23"",""170761""
","""event"",""trial"",""time""
""focus"",""23"",""170970""
","""event"",""trial"",""time""
""fullscreenenter"",""0"",""5552""
","
","null","<p></p>","null","","","","","","","","","","","","","","","","","","","","","","","",""
"","do_trial","67","269481","0.0-43.0-0.0","""event"",""trial"",""time""
""fullscreenenter"",""0"",""5552""
""blur"",""23"",""170761""
""focus"",""23"",""170970""
","""event"",""trial"",""time""
""blur"",""23"",""170761""
","""event"",""trial"",""time""
""focus"",""23"",""170970""
","""event"",""trial"",""time""
""fullscreenenter"",""0"",""5552""
","
","838.1999999999534","","","","","","","","51","0,1,1","6","blank","254","null","0.4644672521112218","0.37270567188613285","0.26798069487511855","1","","","","","","","","",""
"","html-keyboard-response","68","270483","0.0-43.0-1.0","""event"",""trial"",""time""
""fullscreenenter"",""0"",""5552""
""blur"",""23"",""170761""
""focus"",""23"",""170970""
","""event"",""trial"",""time""
""blur"",""23"",""170761""
","""event"",""trial"",""time""
""focus"",""23"",""170970""
","""event"",""trial"",""time""
""fullscreenenter"",""0"",""5552""
","
","null","<p></p>","null","","","","","","","","","","","","","","","","","","","","","","","",""
"","do_trial","69","273069","0.0-44.0-0.0","""event"",""trial"",""time""
""fullscreenenter"",""0"",""5552""
""blur"",""23"",""170761""
""focus"",""23"",""170970""
","""event"",""trial"",""time""
""blur"",""23"",""170761""
","""event"",""trial"",""time""
""focus"",""23"",""170970""
","""event"",""trial"",""time""
""fullscreenenter"",""0"",""5552""
","
","13.299999999813735","","","","","","","","50","0,0,1","6","blank","255","null","0.44876995655699853","0.3033770847839348","0.19193389976246406","0","","","","","","","","",""
"","html-keyboard-response","70","274071","0.0-44.0-1.0","""event"",""trial"",""time""
""fullscreenenter"",""0"",""5552""
""blur"",""23"",""170761""
""focus"",""23"",""170970""
","""event"",""trial"",""time""
""blur"",""23"",""170761""
","""event"",""trial"",""time""
""focus"",""23"",""170970""
","""event"",""trial"",""time""
""fullscreenenter"",""0"",""5552""
","
","null","<p></p>","null","","","","","","","","","","","","","","","","","","","","","","","",""
"","do_trial","71","277351","0.0-45.0-0.0","""event"",""trial"",""time""
""fullscreenenter"",""0"",""5552""
""blur"",""23"",""170761""
""focus"",""23"",""170970""
","""event"",""trial"",""time""
""blur"",""23"",""170761""
","""event"",""trial"",""time""
""focus"",""23"",""170970""
","""event"",""trial"",""time""
""fullscreenenter"",""0"",""5552""
","
","706.0999999998603","","","","","","","","49","1,1,0","6","blank","256","null","0.5231793264818474","0.16327989530009596","0.1604043289665178","1","","","","","","","","",""
"","html-keyboard-response","72","278353","0.0-45.0-1.0","""event"",""trial"",""time""
""fullscreenenter"",""0"",""5552""
""blur"",""23"",""170761""
""focus"",""23"",""170970""
","""event"",""trial"",""time""
""blur"",""23"",""170761""
","""event"",""trial"",""time""
""focus"",""23"",""170970""
","""event"",""trial"",""time""
""fullscreenenter"",""0"",""5552""
","
","null","<p></p>","null","","","","","","","","","","","","","","","","","","","","","","","",""
"","do_trial","73","281699","0.0-46.0-0.0","""event"",""trial"",""time""
""fullscreenenter"",""0"",""5552""
""blur"",""23"",""170761""
""focus"",""23"",""170970""
","""event"",""trial"",""time""
""blur"",""23"",""170761""
","""event"",""trial"",""time""
""focus"",""23"",""170970""
","""event"",""trial"",""time""
""fullscreenenter"",""0"",""5552""
","
","772","","","","","","","","50","1,1,1","6","blank","257","null","0.4215113333050529","0.5161574904309904","0.10524803127319089","1","","","","","","","","",""
"","html-keyboard-response","74","282702","0.0-46.0-1.0","""event"",""trial"",""time""
""fullscreenenter"",""0"",""5552""
""blur"",""23"",""170761""
""focus"",""23"",""170970""
","""event"",""trial"",""time""
""blur"",""23"",""170761""
","""event"",""trial"",""time""
""focus"",""23"",""170970""
","""event"",""trial"",""time""
""fullscreenenter"",""0"",""5552""
","
","null","<p></p>","null","","","","","","","","","","","","","","","","","","","","","","","",""
"","do_recog","75","286401","0.0-47.0-0.0","""event"",""trial"",""time""
""fullscreenenter"",""0"",""5552""
""blur"",""23"",""170761""
""focus"",""23"",""170970""
","""event"",""trial"",""time""
""blur"",""23"",""170761""
","""event"",""trial"",""time""
""focus"",""23"",""170970""
","""event"",""trial"",""time""
""fullscreenenter"",""0"",""5552""
","
","2190.399999999907","","","","","","","","53","","","","258","probe-255","","","","","0","[object Object]","null","null","0","","","",""
"","html-keyboard-response","76","287403","0.0-47.0-1.0","""event"",""trial"",""time""
""fullscreenenter"",""0"",""5552""
""blur"",""23"",""170761""
""focus"",""23"",""170970""
","""event"",""trial"",""time""
""blur"",""23"",""170761""
","""event"",""trial"",""time""
""focus"",""23"",""170970""
","""event"",""trial"",""time""
""fullscreenenter"",""0"",""5552""
","
","null","<p></p>","null","","","","","","","","","","","","","","","","","","","","","","","",""
"","do_trial","77","291346","0.0-48.0-0.0","""event"",""trial"",""time""
""fullscreenenter"",""0"",""5552""
""blur"",""23"",""170761""
""focus"",""23"",""170970""
","""event"",""trial"",""time""
""blur"",""23"",""170761""
","""event"",""trial"",""time""
""focus"",""23"",""170970""
","""event"",""trial"",""time""
""fullscreenenter"",""0"",""5552""
","
","1370","","","","","","","","49","1,1,0","6","blank","259","null","0.418069572246482","0.48465529969620336","0.15157995281809922","1","","","","","","","","",""
"","html-keyboard-response","78","292348","0.0-48.0-1.0","""event"",""trial"",""time""
""fullscreenenter"",""0"",""5552""
""blur"",""23"",""170761""
""focus"",""23"",""170970""
","""event"",""trial"",""time""
""blur"",""23"",""170761""
","""event"",""trial"",""time""
""focus"",""23"",""170970""
","""event"",""trial"",""time""
""fullscreenenter"",""0"",""5552""
","
","null","<p></p>","null","","","","","","","","","","","","","","","","","","","","","","","",""
"","do_trial","79","296266","0.0-49.0-0.0","""event"",""trial"",""time""
""fullscreenenter"",""0"",""5552""
""blur"",""23"",""170761""
""focus"",""23"",""170970""
","""event"",""trial"",""time""
""blur"",""23"",""170761""
","""event"",""trial"",""time""
""focus"",""23"",""170970""
","""event"",""trial"",""time""
""fullscreenenter"",""0"",""5552""
","
","1343.5","","","","","","","","50","1,1,1","6","blank","260","null","0.5763362097540566","0.43450436575338425","0.23705642032172797","1","","","","","","","","",""
"","html-keyboard-response","80","297268","0.0-49.0-1.0","""event"",""trial"",""time""
""fullscreenenter"",""0"",""5552""
""blur"",""23"",""170761""
""focus"",""23"",""170970""
","""event"",""trial"",""time""
""blur"",""23"",""170761""
","""event"",""trial"",""time""
""focus"",""23"",""170970""
","""event"",""trial"",""time""
""fullscreenenter"",""0"",""5552""
","
","null","<p></p>","null","","","","","","","","","","","","","","","","","","","","","","","",""
"","do_trial","81","300984","0.0-50.0-0.0","""event"",""trial"",""time""
""fullscreenenter"",""0"",""5552""
""blur"",""23"",""170761""
""focus"",""23"",""170970""
","""event"",""trial"",""time""
""blur"",""23"",""170761""
","""event"",""trial"",""time""
""focus"",""23"",""170970""
","""event"",""trial"",""time""
""fullscreenenter"",""0"",""5552""
","
","1144.5","","","","","","","","49","1,0,0","6","blank","261","null","0.7600234629681166","0.3252380945749488","0.11501757421537573","1","","","","","","","","",""
"","html-keyboard-response","82","301987","0.0-50.0-1.0","""event"",""trial"",""time""
""fullscreenenter"",""0"",""5552""
""blur"",""23"",""170761""
""focus"",""23"",""170970""
","""event"",""trial"",""time""
""blur"",""23"",""170761""
","""event"",""trial"",""time""
""focus"",""23"",""170970""
","""event"",""trial"",""time""
""fullscreenenter"",""0"",""5552""
","
","null","<p></p>","null","","","","","","","","","","","","","","","","","","","","","","","",""
"","do_trial","83","305668","0.0-51.0-0.0","""event"",""trial"",""time""
""fullscreenenter"",""0"",""5552""
""blur"",""23"",""170761""
""focus"",""23"",""170970""
","""event"",""trial"",""time""
""blur"",""23"",""170761""
","""event"",""trial"",""time""
""focus"",""23"",""170970""
","""event"",""trial"",""time""
""fullscreenenter"",""0"",""5552""
","
","1108.1000000000931","","","","","","","","49","1,0,0","6","blank","262","null","0.6774876043514761","0.31264221751013155","0.20005959450467856","1","","","","","","","","",""
"","html-keyboard-response","84","306670","0.0-51.0-1.0","""event"",""trial"",""time""
""fullscreenenter"",""0"",""5552""
""blur"",""23"",""170761""
""focus"",""23"",""170970""
","""event"",""trial"",""time""
""blur"",""23"",""170761""
","""event"",""trial"",""time""
""focus"",""23"",""170970""
","""event"",""trial"",""time""
""fullscreenenter"",""0"",""5552""
","
","null","<p></p>","null","","","","","","","","","","","","","","","","","","","","","","","",""
"","do_recog","85","312679","0.0-52.0-0.0","""event"",""trial"",""time""
""fullscreenenter"",""0"",""5552""
""blur"",""23"",""170761""
""focus"",""23"",""170970""
","""event"",""trial"",""time""
""blur"",""23"",""170761""
","""event"",""trial"",""time""
""focus"",""23"",""170970""
","""event"",""trial"",""time""
""fullscreenenter"",""0"",""5552""
","
","null","","","","","","","","null","","","","263","probe-126","","","","","1","[object Object]","198","4","0","","","",""
"","html-keyboard-response","86","313682","0.0-52.0-1.0","""event"",""trial"",""time""
""fullscreenenter"",""0"",""5552""
""blur"",""23"",""170761""
""focus"",""23"",""170970""
","""event"",""trial"",""time""
""blur"",""23"",""170761""
","""event"",""trial"",""time""
""focus"",""23"",""170970""
","""event"",""trial"",""time""
""fullscreenenter"",""0"",""5552""
","
","null","<p></p>","null","","","","","","","","","","","","","","","","","","","","","","","",""
"","do_trial","87","317112","0.0-53.0-0.0","""event"",""trial"",""time""
""fullscreenenter"",""0"",""5552""
""blur"",""23"",""170761""
""focus"",""23"",""170970""
","""event"",""trial"",""time""
""blur"",""23"",""170761""
","""event"",""trial"",""time""
""focus"",""23"",""170970""
","""event"",""trial"",""time""
""fullscreenenter"",""0"",""5552""
","
","857.2000000001863","","","","","","","","49","0,0,1","6","blank","264","null","0.48506559261069554","0.29570380319629197","0.07467646931383955","0","","","","","","","","",""
"","html-keyboard-response","88","318114","0.0-53.0-1.0","""event"",""trial"",""time""
""fullscreenenter"",""0"",""5552""
""blur"",""23"",""170761""
""focus"",""23"",""170970""
","""event"",""trial"",""time""
""blur"",""23"",""170761""
","""event"",""trial"",""time""
""focus"",""23"",""170970""
","""event"",""trial"",""time""
""fullscreenenter"",""0"",""5552""
","
","null","<p></p>","null","","","","","","","","","","","","","","","","","","","","","","","",""
"","do_recog","89","321421","0.0-54.0-0.0","""event"",""trial"",""time""
""fullscreenenter"",""0"",""5552""
""blur"",""23"",""170761""
""focus"",""23"",""170970""
","""event"",""trial"",""time""
""blur"",""23"",""170761""
","""event"",""trial"",""time""
""focus"",""23"",""170970""
","""event"",""trial"",""time""
""fullscreenenter"",""0"",""5552""
","
","1798.6999999999534","","","","","","","","54","","","","265","probe-174","","","","","1","[object Object]","79","1","1","","","",""
"","html-keyboard-response","90","322424","0.0-54.0-1.0","""event"",""trial"",""time""
""fullscreenenter"",""0"",""5552""
""blur"",""23"",""170761""
""focus"",""23"",""170970""
","""event"",""trial"",""time""
""blur"",""23"",""170761""
","""event"",""trial"",""time""
""focus"",""23"",""170970""
","""event"",""trial"",""time""
""fullscreenenter"",""0"",""5552""
","
","null","<p></p>","null","","","","","","","","","","","","","","","","","","","","","","","",""
"","do_trial","91","326840","0.0-55.0-0.0","""event"",""trial"",""time""
""fullscreenenter"",""0"",""5552""
""blur"",""23"",""170761""
""focus"",""23"",""170970""
","""event"",""trial"",""time""
""blur"",""23"",""170761""
","""event"",""trial"",""time""
""focus"",""23"",""170970""
","""event"",""trial"",""time""
""fullscreenenter"",""0"",""5552""
","
","1842.8000000000466","","","","","","","","49","1,0,1","6","blank","266","null","0.5475469119465748","0.2918982009555571","0.17967092685160027","1","","","","","","","","",""
"","html-keyboard-response","92","327843","0.0-55.0-1.0","""event"",""trial"",""time""
""fullscreenenter"",""0"",""5552""
""blur"",""23"",""170761""
""focus"",""23"",""170970""
","""event"",""trial"",""time""
""blur"",""23"",""170761""
","""event"",""trial"",""time""
""focus"",""23"",""170970""
","""event"",""trial"",""time""
""fullscreenenter"",""0"",""5552""
","
","null","<p></p>","null","","","","","","","","","","","","","","","","","","","","","","","",""
"","do_trial","93","331664","0.0-56.0-0.0","""event"",""trial"",""time""
""fullscreenenter"",""0"",""5552""
""blur"",""23"",""170761""
""focus"",""23"",""170970""
","""event"",""trial"",""time""
""blur"",""23"",""170761""
","""event"",""trial"",""time""
""focus"",""23"",""170970""
","""event"",""trial"",""time""
""fullscreenenter"",""0"",""5552""
","
","1248.5","","","","","","","","50","1,1,0","6","blank","267","null","0.5371613791098356","0.36280556713650775","0.21638852546051254","1","","","","","","","","",""
"","html-keyboard-response","94","332666","0.0-56.0-1.0","""event"",""trial"",""time""
""fullscreenenter"",""0"",""5552""
""blur"",""23"",""170761""
""focus"",""23"",""170970""
","""event"",""trial"",""time""
""blur"",""23"",""170761""
","""event"",""trial"",""time""
""focus"",""23"",""170970""
","""event"",""trial"",""time""
""fullscreenenter"",""0"",""5552""
","
","null","<p></p>","null","","","","","","","","","","","","","","","","","","","","","","","",""
"","do_trial","95","336307","0.0-57.0-0.0","""event"",""trial"",""time""
""fullscreenenter"",""0"",""5552""
""blur"",""23"",""170761""
""focus"",""23"",""170970""
","""event"",""trial"",""time""
""blur"",""23"",""170761""
","""event"",""trial"",""time""
""focus"",""23"",""170970""
","""event"",""trial"",""time""
""fullscreenenter"",""0"",""5552""
","
","1067.6999999999534","","","","","","","","50","0,0,0","6","blank","268","null","0.5218887448634962","0.2948777321997548","0.21282430839953845","0","","","","","","","","",""
"","html-keyboard-response","96","337309","0.0-57.0-1.0","""event"",""trial"",""time""
""fullscreenenter"",""0"",""5552""
""blur"",""23"",""170761""
""focus"",""23"",""170970""
","""event"",""trial"",""time""
""blur"",""23"",""170761""
","""event"",""trial"",""time""
""focus"",""23"",""170970""
","""event"",""trial"",""time""
""fullscreenenter"",""0"",""5552""
","
","null","<p></p>","null","","","","","","","","","","","","","","","","","","","","","","","",""
"","break","97","428611","0.0-58.0-0.0","""event"",""trial"",""time""
""fullscreenenter"",""0"",""5552""
""blur"",""23"",""170761""
""focus"",""23"",""170970""
","""event"",""trial"",""time""
""blur"",""23"",""170761""
","""event"",""trial"",""time""
""focus"",""23"",""170970""
","""event"",""trial"",""time""
""fullscreenenter"",""0"",""5552""
","
","91299.19999999995","<div class='center'><p>Time to take a quick break! You have 2 minutes to rest, but you can move on sooner if you'd like.</p><p> Press the <b>space bar</b> to continue.</p></div>","32","","","","","","","","","","","","","","","","","","","","","","","",""
"","do_trial","98","432266","0.0-58.0-1.0","""event"",""trial"",""time""
""fullscreenenter"",""0"",""5552""
""blur"",""23"",""170761""
""focus"",""23"",""170970""
","""event"",""trial"",""time""
""blur"",""23"",""170761""
","""event"",""trial"",""time""
""focus"",""23"",""170970""
","""event"",""trial"",""time""
""fullscreenenter"",""0"",""5552""
","
","1080.6000000000931","","","","","","","","49","0,1,0","6","blank","269","null","0.5962854554863578","0.13689574684418962","0.0587935005061024","0","","","","","","","","",""
"","html-keyboard-response","99","433268","0.0-58.0-2.0","""event"",""trial"",""time""
""fullscreenenter"",""0"",""5552""
""blur"",""23"",""170761""
""focus"",""23"",""170970""
","""event"",""trial"",""time""
""blur"",""23"",""170761""
","""event"",""trial"",""time""
""focus"",""23"",""170970""
","""event"",""trial"",""time""
""fullscreenenter"",""0"",""5552""
","
","null","<p></p>","null","","","","","","","","","","","","","","","","","","","","","","","",""
"","do_recog","100","436753","0.0-59.0-0.0","""event"",""trial"",""time""
""fullscreenenter"",""0"",""5552""
""blur"",""23"",""170761""
""focus"",""23"",""170970""
","""event"",""trial"",""time""
""blur"",""23"",""170761""
","""event"",""trial"",""time""
""focus"",""23"",""170970""
","""event"",""trial"",""time""
""fullscreenenter"",""0"",""5552""
","
","1977.1000000000931","","","","","","","","54","","","","270","probe-73","","","","","1","[object Object]","118","2","1","","","",""
"","html-keyboard-response","101","437756","0.0-59.0-1.0","""event"",""trial"",""time""
""fullscreenenter"",""0"",""5552""
""blur"",""23"",""170761""
""focus"",""23"",""170970""
","""event"",""trial"",""time""
""blur"",""23"",""170761""
","""event"",""trial"",""time""
""focus"",""23"",""170970""
","""event"",""trial"",""time""
""fullscreenenter"",""0"",""5552""
","
","null","<p></p>","null","","","","","","","","","","","","","","","","","","","","","","","",""
"","do_trial","102","441662","0.0-60.0-0.0","""event"",""trial"",""time""
""fullscreenenter"",""0"",""5552""
""blur"",""23"",""170761""
""focus"",""23"",""170970""
","""event"",""trial"",""time""
""blur"",""23"",""170761""
","""event"",""trial"",""time""
""focus"",""23"",""170970""
","""event"",""trial"",""time""
""fullscreenenter"",""0"",""5552""
","
","1332","","","","","","","","51","1,1,0","6","blank","271","null","0.7274120862795708","0.06037141305533775","0.08538118702453598","0","","","","","","","","",""
"","html-keyboard-response","103","442664","0.0-60.0-1.0","""event"",""trial"",""time""
""fullscreenenter"",""0"",""5552""
""blur"",""23"",""170761""
""focus"",""23"",""170970""
","""event"",""trial"",""time""
""blur"",""23"",""170761""
","""event"",""trial"",""time""
""focus"",""23"",""170970""
","""event"",""trial"",""time""
""fullscreenenter"",""0"",""5552""
","
","null","<p></p>","null","","","","","","","","","","","","","","","","","","","","","","","",""
"","do_trial","104","446206","0.0-61.0-0.0","""event"",""trial"",""time""
""fullscreenenter"",""0"",""5552""
""blur"",""23"",""170761""
""focus"",""23"",""170970""
","""event"",""trial"",""time""
""blur"",""23"",""170761""
","""event"",""trial"",""time""
""focus"",""23"",""170970""
","""event"",""trial"",""time""
""fullscreenenter"",""0"",""5552""
","
","970","","","","","","","","49","0,0,0","6","blank","272","null","0.5963769968754755","0.13459875966594084","0.15266289413104547","0","","","","","","","","",""
"","html-keyboard-response","105","447208","0.0-61.0-1.0","""event"",""trial"",""time""
""fullscreenenter"",""0"",""5552""
""blur"",""23"",""170761""
""focus"",""23"",""170970""
","""event"",""trial"",""time""
""blur"",""23"",""170761""
","""event"",""trial"",""time""
""focus"",""23"",""170970""
","""event"",""trial"",""time""
""fullscreenenter"",""0"",""5552""
","
","null","<p></p>","null","","","","","","","","","","","","","","","","","","","","","","","",""
"","do_recog","106","451013","0.0-62.0-0.0","""event"",""trial"",""time""
""fullscreenenter"",""0"",""5552""
""blur"",""23"",""170761""
""focus"",""23"",""170970""
","""event"",""trial"",""time""
""blur"",""23"",""170761""
","""event"",""trial"",""time""
""focus"",""23"",""170970""
","""event"",""trial"",""time""
""fullscreenenter"",""0"",""5552""
","
","2296.0999999998603","","","","","","","","55","","","","273","probe-50","","","","","1","[object Object]","153","3","0","","","",""
"","html-keyboard-response","107","452016","0.0-62.0-1.0","""event"",""trial"",""time""
""fullscreenenter"",""0"",""5552""
""blur"",""23"",""170761""
""focus"",""23"",""170970""
","""event"",""trial"",""time""
""blur"",""23"",""170761""
","""event"",""trial"",""time""
""focus"",""23"",""170970""
","""event"",""trial"",""time""
""fullscreenenter"",""0"",""5552""
","
","null","<p></p>","null","","","","","","","","","","","","","","","","","","","","","","","",""
"","do_trial","108","455542","0.0-63.0-0.0","""event"",""trial"",""time""
""fullscreenenter"",""0"",""5552""
""blur"",""23"",""170761""
""focus"",""23"",""170970""
","""event"",""trial"",""time""
""blur"",""23"",""170761""
","""event"",""trial"",""time""
""focus"",""23"",""170970""
","""event"",""trial"",""time""
""fullscreenenter"",""0"",""5552""
","
","952.3999999999069","","","","","","","","49","1,0,0","6","blank","274","null","0.589078119120421","0.05760999051449222","0.19480273072383916","1","","","","","","","","",""
"","html-keyboard-response","109","456544","0.0-63.0-1.0","""event"",""trial"",""time""
""fullscreenenter"",""0"",""5552""
""blur"",""23"",""170761""
""focus"",""23"",""170970""
","""event"",""trial"",""time""
""blur"",""23"",""170761""
","""event"",""trial"",""time""
""focus"",""23"",""170970""
","""event"",""trial"",""time""
""fullscreenenter"",""0"",""5552""
","
","null","<p></p>","null","","","","","","","","","","","","","","","","","","","","","","","",""
"","do_trial","110","459971","0.0-64.0-0.0","""event"",""trial"",""time""
""fullscreenenter"",""0"",""5552""
""blur"",""23"",""170761""
""focus"",""23"",""170970""
","""event"",""trial"",""time""
""blur"",""23"",""170761""
","""event"",""trial"",""time""
""focus"",""23"",""170970""
","""event"",""trial"",""time""
""fullscreenenter"",""0"",""5552""
","
","853.3000000000466","","","","","","","","50","0,0,0","6","blank","275","null","0.45187782959296835","0.1829726879187016","0.15689928256231767","0","","","","","","","","",""
"","html-keyboard-response","111","460973","0.0-64.0-1.0","""event"",""trial"",""time""
""fullscreenenter"",""0"",""5552""
""blur"",""23"",""170761""
""focus"",""23"",""170970""
","""event"",""trial"",""time""
""blur"",""23"",""170761""
","""event"",""trial"",""time""
""focus"",""23"",""170970""
","""event"",""trial"",""time""
""fullscreenenter"",""0"",""5552""
","
","null","<p></p>","null","","","","","","","","","","","","","","","","","","","","","","","",""
"","do_trial","112","463794","0.0-65.0-0.0","""event"",""trial"",""time""
""fullscreenenter"",""0"",""5552""
""blur"",""23"",""170761""
""focus"",""23"",""170970""
","""event"",""trial"",""time""
""blur"",""23"",""170761""
","""event"",""trial"",""time""
""focus"",""23"",""170970""
","""event"",""trial"",""time""
""fullscreenenter"",""0"",""5552""
","
","247.19999999995343","","","","","","","","51","1,0,1","6","blank","276","null","0.5789182800797698","0.22119230831445752","0.2053919930576512","1","","","","","","","","",""
"","html-keyboard-response","113","464796","0.0-65.0-1.0","""event"",""trial"",""time""
""fullscreenenter"",""0"",""5552""
""blur"",""23"",""170761""
""focus"",""23"",""170970""
","""event"",""trial"",""time""
""blur"",""23"",""170761""
","""event"",""trial"",""time""
""focus"",""23"",""170970""
","""event"",""trial"",""time""
""fullscreenenter"",""0"",""5552""
","
","null","<p></p>","null","","","","","","","","","","","","","","","","","","","","","","","",""
"","do_trial","114","468110","0.0-66.0-0.0","""event"",""trial"",""time""
""fullscreenenter"",""0"",""5552""
""blur"",""23"",""170761""
""focus"",""23"",""170970""
","""event"",""trial"",""time""
""blur"",""23"",""170761""
","""event"",""trial"",""time""
""focus"",""23"",""170970""
","""event"",""trial"",""time""
""fullscreenenter"",""0"",""5552""
","
","740.6999999999534","","","","","","","","49","0,1,0","6","blank","277","null","0.46872002938282764","0.4344621740719536","0.050678212208022655","0","","","","","","","","",""
"","html-keyboard-response","115","469112","0.0-66.0-1.0","""event"",""trial"",""time""
""fullscreenenter"",""0"",""5552""
""blur"",""23"",""170761""
""focus"",""23"",""170970""
","""event"",""trial"",""time""
""blur"",""23"",""170761""
","""event"",""trial"",""time""
""focus"",""23"",""170970""
","""event"",""trial"",""time""
""fullscreenenter"",""0"",""5552""
","
","null","<p></p>","null","","","","","","","","","","","","","","","","","","","","","","","",""
"","do_trial","116","472691","0.0-67.0-0.0","""event"",""trial"",""time""
""fullscreenenter"",""0"",""5552""
""blur"",""23"",""170761""
""focus"",""23"",""170970""
","""event"",""trial"",""time""
""blur"",""23"",""170761""
","""event"",""trial"",""time""
""focus"",""23"",""170970""
","""event"",""trial"",""time""
""fullscreenenter"",""0"",""5552""
","
","1005.9000000001397","","","","","","","","50","0,0,0","6","blank","278","null","0.6073681568884858","0.38824838840834636","0.20694382323698846","0","","","","","","","","",""
"","html-keyboard-response","117","473693","0.0-67.0-1.0","""event"",""trial"",""time""
""fullscreenenter"",""0"",""5552""
""blur"",""23"",""170761""
""focus"",""23"",""170970""
","""event"",""trial"",""time""
""blur"",""23"",""170761""
","""event"",""trial"",""time""
""focus"",""23"",""170970""
","""event"",""trial"",""time""
""fullscreenenter"",""0"",""5552""
","
","null","<p></p>","null","","","","","","","","","","","","","","","","","","","","","","","",""
"","do_trial","118","476908","0.0-68.0-0.0","""event"",""trial"",""time""
""fullscreenenter"",""0"",""5552""
""blur"",""23"",""170761""
""focus"",""23"",""170970""
","""event"",""trial"",""time""
""blur"",""23"",""170761""
","""event"",""trial"",""time""
""focus"",""23"",""170970""
","""event"",""trial"",""time""
""fullscreenenter"",""0"",""5552""
","
","643.4000000001397","","","","","","","","51","0,0,0","6","blank","279","null","0.56686220990842","0.4188499356481663","0.28469478193923436","0","","","","","","","","",""
"","html-keyboard-response","119","477911","0.0-68.0-1.0","""event"",""trial"",""time""
""fullscreenenter"",""0"",""5552""
""blur"",""23"",""170761""
""focus"",""23"",""170970""
","""event"",""trial"",""time""
""blur"",""23"",""170761""
","""event"",""trial"",""time""
""focus"",""23"",""170970""
","""event"",""trial"",""time""
""fullscreenenter"",""0"",""5552""
","
","null","<p></p>","null","","","","","","","","","","","","","","","","","","","","","","","",""
"","do_trial","120","481593","0.0-69.0-0.0","""event"",""trial"",""time""
""fullscreenenter"",""0"",""5552""
""blur"",""23"",""170761""
""focus"",""23"",""170970""
","""event"",""trial"",""time""
""blur"",""23"",""170761""
","""event"",""trial"",""time""
""focus"",""23"",""170970""
","""event"",""trial"",""time""
""fullscreenenter"",""0"",""5552""
","
","1109.8999999999069","","","","","","","","50","1,0,0","6","blank","280","null","0.467394908662351","0.5337840323130275","0.23488035867983828","0","","","","","","","","",""
"","html-keyboard-response","121","482595","0.0-69.0-1.0","""event"",""trial"",""time""
""fullscreenenter"",""0"",""5552""
""blur"",""23"",""170761""
""focus"",""23"",""170970""
","""event"",""trial"",""time""
""blur"",""23"",""170761""
","""event"",""trial"",""time""
""focus"",""23"",""170970""
","""event"",""trial"",""time""
""fullscreenenter"",""0"",""5552""
","
","null","<p></p>","null","","","","","","","","","","","","","","","","","","","","","","","",""
"","do_recog","122","486044","0.0-70.0-0.0","""event"",""trial"",""time""
""fullscreenenter"",""0"",""5552""
""blur"",""23"",""170761""
""focus"",""23"",""170970""
","""event"",""trial"",""time""
""blur"",""23"",""170761""
","""event"",""trial"",""time""
""focus"",""23"",""170970""
","""event"",""trial"",""time""
""fullscreenenter"",""0"",""5552""
","
","1940","","","","","","","","55","","","","281","probe-249","","","","","0","[object Object]","null","null","1","","","",""
"","html-keyboard-response","123","487047","0.0-70.0-1.0","""event"",""trial"",""time""
""fullscreenenter"",""0"",""5552""
""blur"",""23"",""170761""
""focus"",""23"",""170970""
","""event"",""trial"",""time""
""blur"",""23"",""170761""
","""event"",""trial"",""time""
""focus"",""23"",""170970""
","""event"",""trial"",""time""
""fullscreenenter"",""0"",""5552""
","
","null","<p></p>","null","","","","","","","","","","","","","","","","","","","","","","","",""
"","do_trial","124","491037","0.0-71.0-0.0","""event"",""trial"",""time""
""fullscreenenter"",""0"",""5552""
""blur"",""23"",""170761""
""focus"",""23"",""170970""
","""event"",""trial"",""time""
""blur"",""23"",""170761""
","""event"",""trial"",""time""
""focus"",""23"",""170970""
","""event"",""trial"",""time""
""fullscreenenter"",""0"",""5552""
","
","1414.9000000001397","","","","","","","","50","0,0,0","6","blank","282","null","0.29690846797725584","0.378462044463713","0.191382615545462","0","","","","","","","","",""
"","html-keyboard-response","125","492039","0.0-71.0-1.0","""event"",""trial"",""time""
""fullscreenenter"",""0"",""5552""
""blur"",""23"",""170761""
""focus"",""23"",""170970""
","""event"",""trial"",""time""
""blur"",""23"",""170761""
","""event"",""trial"",""time""
""focus"",""23"",""170970""
","""event"",""trial"",""time""
""fullscreenenter"",""0"",""5552""
","
","null","<p></p>","null","","","","","","","","","","","","","","","","","","","","","","","",""
"","do_trial","126","497016","0.0-72.0-0.0","""event"",""trial"",""time""
""fullscreenenter"",""0"",""5552""
""blur"",""23"",""170761""
""focus"",""23"",""170970""
","""event"",""trial"",""time""
""blur"",""23"",""170761""
","""event"",""trial"",""time""
""focus"",""23"",""170970""
","""event"",""trial"",""time""
""fullscreenenter"",""0"",""5552""
","
","2404.2999999998137","","","","","","","","50","0,0,0","6","blank","283","null","0.37971705053369326","0.45214814989862845","0.08252845059261348","0","","","","","","","","",""
"","html-keyboard-response","127","498018","0.0-72.0-1.0","""event"",""trial"",""time""
""fullscreenenter"",""0"",""5552""
""blur"",""23"",""170761""
""focus"",""23"",""170970""
","""event"",""trial"",""time""
""blur"",""23"",""170761""
","""event"",""trial"",""time""
""focus"",""23"",""170970""
","""event"",""trial"",""time""
""fullscreenenter"",""0"",""5552""
","
","null","<p></p>","null","","","","","","","","","","","","","","","","","","","","","","","",""
"","do_trial","128","501197","0.0-73.0-0.0","""event"",""trial"",""time""
""fullscreenenter"",""0"",""5552""
""blur"",""23"",""170761""
""focus"",""23"",""170970""
","""event"",""trial"",""time""
""blur"",""23"",""170761""
","""event"",""trial"",""time""
""focus"",""23"",""170970""
","""event"",""trial"",""time""
""fullscreenenter"",""0"",""5552""
","
","605.2000000001863","","","","","","","","49","0,1,0","6","blank","284","null","0.4521345116682649","0.34453746751107117","0.06016153265193003","0","","","","","","","","",""
"","html-keyboard-response","129","502199","0.0-73.0-1.0","""event"",""trial"",""time""
""fullscreenenter"",""0"",""5552""
""blur"",""23"",""170761""
""focus"",""23"",""170970""
","""event"",""trial"",""time""
""blur"",""23"",""170761""
","""event"",""trial"",""time""
""focus"",""23"",""170970""
","""event"",""trial"",""time""
""fullscreenenter"",""0"",""5552""
","
","null","<p></p>","null","","","","","","","","","","","","","","","","","","","","","","","",""
"","do_trial","130","505249","0.0-74.0-0.0","""event"",""trial"",""time""
""fullscreenenter"",""0"",""5552""
""blur"",""23"",""170761""
""focus"",""23"",""170970""
","""event"",""trial"",""time""
""blur"",""23"",""170761""
","""event"",""trial"",""time""
""focus"",""23"",""170970""
","""event"",""trial"",""time""
""fullscreenenter"",""0"",""5552""
","
","475.70000000018626","","","","","","","","49","1,0,0","6","blank","285","null","0.502699359491178","0.2881421124024142","0.08626543873598662","1","","","","","","","","",""
"","html-keyboard-response","131","506251","0.0-74.0-1.0","""event"",""trial"",""time""
""fullscreenenter"",""0"",""5552""
""blur"",""23"",""170761""
""focus"",""23"",""170970""
","""event"",""trial"",""time""
""blur"",""23"",""170761""
","""event"",""trial"",""time""
""focus"",""23"",""170970""
","""event"",""trial"",""time""
""fullscreenenter"",""0"",""5552""
","
","null","<p></p>","null","","","","","","","","","","","","","","","","","","","","","","","",""
"","do_trial","132","509170","0.0-75.0-0.0","""event"",""trial"",""time""
""fullscreenenter"",""0"",""5552""
""blur"",""23"",""170761""
""focus"",""23"",""170970""
","""event"",""trial"",""time""
""blur"",""23"",""170761""
","""event"",""trial"",""time""
""focus"",""23"",""170970""
","""event"",""trial"",""time""
""fullscreenenter"",""0"",""5552""
","
","346.60000000009313","","","","","","","","50","1,0,0","6","blank","286","null","0.620561147669051","0.3068511790897773","0.16679175397270693","0","","","","","","","","",""
"","html-keyboard-response","133","510172","0.0-75.0-1.0","""event"",""trial"",""time""
""fullscreenenter"",""0"",""5552""
""blur"",""23"",""170761""
""focus"",""23"",""170970""
","""event"",""trial"",""time""
""blur"",""23"",""170761""
","""event"",""trial"",""time""
""focus"",""23"",""170970""
","""event"",""trial"",""time""
""fullscreenenter"",""0"",""5552""
","
","null","<p></p>","null","","","","","","","","","","","","","","","","","","","","","","","",""
"","do_trial","134","513089","0.0-76.0-0.0","""event"",""trial"",""time""
""fullscreenenter"",""0"",""5552""
""blur"",""23"",""170761""
""focus"",""23"",""170970""
","""event"",""trial"",""time""
""blur"",""23"",""170761""
","""event"",""trial"",""time""
""focus"",""23"",""170970""
","""event"",""trial"",""time""
""fullscreenenter"",""0"",""5552""
","
","342.80000000004657","","","","","","","","51","1,0,1","6","blank","287","null","0.5965417963838339","0.29135549392817667","0.18022268102801234","1","","","","","","","","",""
"","html-keyboard-response","135","514091","0.0-76.0-1.0","""event"",""trial"",""time""
""fullscreenenter"",""0"",""5552""
""blur"",""23"",""170761""
""focus"",""23"",""170970""
","""event"",""trial"",""time""
""blur"",""23"",""170761""
","""event"",""trial"",""time""
""focus"",""23"",""170970""
","""event"",""trial"",""time""
""fullscreenenter"",""0"",""5552""
","
","null","<p></p>","null","","","","","","","","","","","","","","","","","","","","","","","",""
"","do_recog","136","517395","0.0-77.0-0.0","""event"",""trial"",""time""
""fullscreenenter"",""0"",""5552""
""blur"",""23"",""170761""
""focus"",""23"",""170970""
","""event"",""trial"",""time""
""blur"",""23"",""170761""
","""event"",""trial"",""time""
""focus"",""23"",""170970""
","""event"",""trial"",""time""
""fullscreenenter"",""0"",""5552""
","
","1796.5999999998603","","","","","","","","55","","","","288","probe-169","","","","","1","[object Object]","32","0","0","","","",""
"","html-keyboard-response","137","518398","0.0-77.0-1.0","""event"",""trial"",""time""
""fullscreenenter"",""0"",""5552""
""blur"",""23"",""170761""
""focus"",""23"",""170970""
","""event"",""trial"",""time""
""blur"",""23"",""170761""
","""event"",""trial"",""time""
""focus"",""23"",""170970""
","""event"",""trial"",""time""
""fullscreenenter"",""0"",""5552""
","
","null","<p></p>","null","","","","","","","","","","","","","","","","","","","","","","","",""
"","do_trial","138","523372","0.0-78.0-0.0","""event"",""trial"",""time""
""fullscreenenter"",""0"",""5552""
""blur"",""23"",""170761""
""focus"",""23"",""170970""
","""event"",""trial"",""time""
""blur"",""23"",""170761""
","""event"",""trial"",""time""
""focus"",""23"",""170970""
","""event"",""trial"",""time""
""fullscreenenter"",""0"",""5552""
","
","2400.5999999998603","","","","","","","","50","0,0,0","6","blank","289","null","0.5233100333706615","0.4857937916949359","0.0948035988363651","0","","","","","","","","",""
"","html-keyboard-response","139","524374","0.0-78.0-1.0","""event"",""trial"",""time""
""fullscreenenter"",""0"",""5552""
""blur"",""23"",""170761""
""focus"",""23"",""170970""
","""event"",""trial"",""time""
""blur"",""23"",""170761""
","""event"",""trial"",""time""
""focus"",""23"",""170970""
","""event"",""trial"",""time""
""fullscreenenter"",""0"",""5552""
","
","null","<p></p>","null","","","","","","","","","","","","","","","","","","","","","","","",""
"","do_recog","140","527503","0.0-79.0-0.0","""event"",""trial"",""time""
""fullscreenenter"",""0"",""5552""
""blur"",""23"",""170761""
""focus"",""23"",""170970""
","""event"",""trial"",""time""
""blur"",""23"",""170761""
","""event"",""trial"",""time""
""focus"",""23"",""170970""
","""event"",""trial"",""time""
""fullscreenenter"",""0"",""5552""
","
","1620.5999999998603","","","","","","","","54","","","","290","probe-137","","","","","1","[object Object]","119","2","1","","","",""
"","html-keyboard-response","141","528505","0.0-79.0-1.0","""event"",""trial"",""time""
""fullscreenenter"",""0"",""5552""
""blur"",""23"",""170761""
""focus"",""23"",""170970""
","""event"",""trial"",""time""
""blur"",""23"",""170761""
","""event"",""trial"",""time""
""focus"",""23"",""170970""
","""event"",""trial"",""time""
""fullscreenenter"",""0"",""5552""
","
","null","<p></p>","null","","","","","","","","","","","","","","","","","","","","","","","",""
"","do_trial","142","532869","0.0-80.0-0.0","""event"",""trial"",""time""
""fullscreenenter"",""0"",""5552""
""blur"",""23"",""170761""
""focus"",""23"",""170970""
","""event"",""trial"",""time""
""blur"",""23"",""170761""
","""event"",""trial"",""time""
""focus"",""23"",""170970""
","""event"",""trial"",""time""
""fullscreenenter"",""0"",""5552""
","
","1790.1000000000931","","","","","","","","50","1,1,1","6","blank","291","null","0.48554896760644356","0.43672145620750885","0.1136467754277127","1","","","","","","","","",""
"","html-keyboard-response","143","533871","0.0-80.0-1.0","""event"",""trial"",""time""
""fullscreenenter"",""0"",""5552""
""blur"",""23"",""170761""
""focus"",""23"",""170970""
","""event"",""trial"",""time""
""blur"",""23"",""170761""
","""event"",""trial"",""time""
""focus"",""23"",""170970""
","""event"",""trial"",""time""
""fullscreenenter"",""0"",""5552""
","
","null","<p></p>","null","","","","","","","","","","","","","","","","","","","","","","","",""
"","do_recog","144","537533","0.0-81.0-0.0","""event"",""trial"",""time""
""fullscreenenter"",""0"",""5552""
""blur"",""23"",""170761""
""focus"",""23"",""170970""
","""event"",""trial"",""time""
""blur"",""23"",""170761""
","""event"",""trial"",""time""
""focus"",""23"",""170970""
","""event"",""trial"",""time""
""fullscreenenter"",""0"",""5552""
","
","2153.6999999999534","","","","","","","","53","","","","292","probe-231","","","","","0","[object Object]","null","null","0","","","",""
"","html-keyboard-response","145","538535","0.0-81.0-1.0","""event"",""trial"",""time""
""fullscreenenter"",""0"",""5552""
""blur"",""23"",""170761""
""focus"",""23"",""170970""
","""event"",""trial"",""time""
""blur"",""23"",""170761""
","""event"",""trial"",""time""
""focus"",""23"",""170970""
","""event"",""trial"",""time""
""fullscreenenter"",""0"",""5552""
","
","null","<p></p>","null","","","","","","","","","","","","","","","","","","","","","","","",""
"","do_trial","146","542291","0.0-82.0-0.0","""event"",""trial"",""time""
""fullscreenenter"",""0"",""5552""
""blur"",""23"",""170761""
""focus"",""23"",""170970""
","""event"",""trial"",""time""
""blur"",""23"",""170761""
","""event"",""trial"",""time""
""focus"",""23"",""170970""
","""event"",""trial"",""time""
""fullscreenenter"",""0"",""5552""
","
","1182","","","","","","","","49","0,1,0","6","blank","293","null","0.5679495565404497","0.5482500439862742","0.1816143702491619","0","","","","","","","","",""
"","html-keyboard-response","147","543293","0.0-82.0-1.0","""event"",""trial"",""time""
""fullscreenenter"",""0"",""5552""
""blur"",""23"",""170761""
""focus"",""23"",""170970""
","""event"",""trial"",""time""
""blur"",""23"",""170761""
","""event"",""trial"",""time""
""focus"",""23"",""170970""
","""event"",""trial"",""time""
""fullscreenenter"",""0"",""5552""
","
","null","<p></p>","null","","","","","","","","","","","","","","","","","","","","","","","",""
"","do_trial","148","547075","0.0-83.0-0.0","""event"",""trial"",""time""
""fullscreenenter"",""0"",""5552""
""blur"",""23"",""170761""
""focus"",""23"",""170970""
","""event"",""trial"",""time""
""blur"",""23"",""170761""
","""event"",""trial"",""time""
""focus"",""23"",""170970""
","""event"",""trial"",""time""
""fullscreenenter"",""0"",""5552""
","
","1208.5","","","","","","","","50","0,0,0","6","blank","294","null","0.40219975461399843","0.5509584962147395","0.15568551379590148","0","","","","","","","","",""
"","html-keyboard-response","149","548077","0.0-83.0-1.0","""event"",""trial"",""time""
""fullscreenenter"",""0"",""5552""
""blur"",""23"",""170761""
""focus"",""23"",""170970""
","""event"",""trial"",""time""
""blur"",""23"",""170761""
","""event"",""trial"",""time""
""focus"",""23"",""170970""
","""event"",""trial"",""time""
""fullscreenenter"",""0"",""5552""
","
","null","<p></p>","null","","","","","","","","","","","","","","","","","","","","","","","",""
"","do_trial","150","551719","0.0-84.0-0.0","""event"",""trial"",""time""
""fullscreenenter"",""0"",""5552""
""blur"",""23"",""170761""
""focus"",""23"",""170970""
","""event"",""trial"",""time""
""blur"",""23"",""170761""
","""event"",""trial"",""time""
""focus"",""23"",""170970""
","""event"",""trial"",""time""
""fullscreenenter"",""0"",""5552""
","
","1068","","","","","","","","51","0,1,0","6","blank","295","null","0.2525086421661935","0.563613355275882","0.13523414574282946","0","","","","","","","","",""
"","html-keyboard-response","151","552721","0.0-84.0-1.0","""event"",""trial"",""time""
""fullscreenenter"",""0"",""5552""
""blur"",""23"",""170761""
""focus"",""23"",""170970""
","""event"",""trial"",""time""
""blur"",""23"",""170761""
","""event"",""trial"",""time""
""focus"",""23"",""170970""
","""event"",""trial"",""time""
""fullscreenenter"",""0"",""5552""
","
","null","<p></p>","null","","","","","","","","","","","","","","","","","","","","","","","",""
"","do_trial","152","556388","0.0-85.0-0.0","""event"",""trial"",""time""
""fullscreenenter"",""0"",""5552""
""blur"",""23"",""170761""
""focus"",""23"",""170970""
","""event"",""trial"",""time""
""blur"",""23"",""170761""
","""event"",""trial"",""time""
""focus"",""23"",""170970""
","""event"",""trial"",""time""
""fullscreenenter"",""0"",""5552""
","
","1093.0999999998603","","","","","","","","50","0,0,0","6","blank","296","null","0.2356291515008419","0.6130132557961894","0.18309782952151643","0","","","","","","","","",""
"","html-keyboard-response","153","557390","0.0-85.0-1.0","""event"",""trial"",""time""
""fullscreenenter"",""0"",""5552""
""blur"",""23"",""170761""
""focus"",""23"",""170970""
","""event"",""trial"",""time""
""blur"",""23"",""170761""
","""event"",""trial"",""time""
""focus"",""23"",""170970""
","""event"",""trial"",""time""
""fullscreenenter"",""0"",""5552""
","
","null","<p></p>","null","","","","","","","","","","","","","","","","","","","","","","","",""
"","do_recog","154","560879","0.0-86.0-0.0","""event"",""trial"",""time""
""fullscreenenter"",""0"",""5552""
""blur"",""23"",""170761""
""focus"",""23"",""170970""
","""event"",""trial"",""time""
""blur"",""23"",""170761""
","""event"",""trial"",""time""
""focus"",""23"",""170970""
","""event"",""trial"",""time""
""fullscreenenter"",""0"",""5552""
","
","1980.9000000001397","","","","","","","","55","","","","297","probe-108","","","","","1","[object Object]","70","1","0","","","",""
"","html-keyboard-response","155","561881","0.0-86.0-1.0","""event"",""trial"",""time""
""fullscreenenter"",""0"",""5552""
""blur"",""23"",""170761""
""focus"",""23"",""170970""
","""event"",""trial"",""time""
""blur"",""23"",""170761""
","""event"",""trial"",""time""
""focus"",""23"",""170970""
","""event"",""trial"",""time""
""fullscreenenter"",""0"",""5552""
","
","null","<p></p>","null","","","","","","","","","","","","","","","","","","","","","","","",""
"","do_trial","156","565791","0.0-87.0-0.0","""event"",""trial"",""time""
""fullscreenenter"",""0"",""5552""
""blur"",""23"",""170761""
""focus"",""23"",""170970""
","""event"",""trial"",""time""
""blur"",""23"",""170761""
","""event"",""trial"",""time""
""focus"",""23"",""170970""
","""event"",""trial"",""time""
""fullscreenenter"",""0"",""5552""
","
","1338.3999999999069","","","","","","","","51","0,1,0","6","blank","298","null","0.1939621148800933","0.5453378968009213","0.2216786494568534","0","","","","","","","","",""
"","html-keyboard-response","157","566793","0.0-87.0-1.0","""event"",""trial"",""time""
""fullscreenenter"",""0"",""5552""
""blur"",""23"",""170761""
""focus"",""23"",""170970""
","""event"",""trial"",""time""
""blur"",""23"",""170761""
","""event"",""trial"",""time""
""focus"",""23"",""170970""
","""event"",""trial"",""time""
""fullscreenenter"",""0"",""5552""
","
","null","<p></p>","null","","","","","","","","","","","","","","","","","","","","","","","",""
"","do_trial","158","569731","0.0-88.0-0.0","""event"",""trial"",""time""
""fullscreenenter"",""0"",""5552""
""blur"",""23"",""170761""
""focus"",""23"",""170970""
","""event"",""trial"",""time""
""blur"",""23"",""170761""
","""event"",""trial"",""time""
""focus"",""23"",""170970""
","""event"",""trial"",""time""
""fullscreenenter"",""0"",""5552""
","
","365","","","","","","","","49","0,1,0","6","blank","299","null","0.1837230098838407","0.604372281497997","0.19900515396996699","0","","","","","","","","",""
"","html-keyboard-response","159","570733","0.0-88.0-1.0","""event"",""trial"",""time""
""fullscreenenter"",""0"",""5552""
""blur"",""23"",""170761""
""focus"",""23"",""170970""
","""event"",""trial"",""time""
""blur"",""23"",""170761""
","""event"",""trial"",""time""
""focus"",""23"",""170970""
","""event"",""trial"",""time""
""fullscreenenter"",""0"",""5552""
","
","null","<p></p>","null","","","","","","","","","","","","","","","","","","","","","","","",""
"","do_trial","160","573697","0.0-89.0-0.0","""event"",""trial"",""time""
""fullscreenenter"",""0"",""5552""
""blur"",""23"",""170761""
""focus"",""23"",""170970""
","""event"",""trial"",""time""
""blur"",""23"",""170761""
","""event"",""trial"",""time""
""focus"",""23"",""170970""
","""event"",""trial"",""time""
""fullscreenenter"",""0"",""5552""
","
","390.89999999990687","","","","","","","","51","0,1,0","6","blank","300","null","0.273925705075269","0.6534012747594033","0.10044175923469353","0","","","","","","","","",""
"","html-keyboard-response","161","574699","0.0-89.0-1.0","""event"",""trial"",""time""
""fullscreenenter"",""0"",""5552""
""blur"",""23"",""170761""
""focus"",""23"",""170970""
","""event"",""trial"",""time""
""blur"",""23"",""170761""
","""event"",""trial"",""time""
""focus"",""23"",""170970""
","""event"",""trial"",""time""
""fullscreenenter"",""0"",""5552""
","
","null","<p></p>","null","","","","","","","","","","","","","","","","","","","","","","","",""
"","do_trial","162","577803","0.0-90.0-0.0","""event"",""trial"",""time""
""fullscreenenter"",""0"",""5552""
""blur"",""23"",""170761""
""focus"",""23"",""170970""
","""event"",""trial"",""time""
""blur"",""23"",""170761""
","""event"",""trial"",""time""
""focus"",""23"",""170970""
","""event"",""trial"",""time""
""fullscreenenter"",""0"",""5552""
","
","529.6000000000931","","","","","","","","50","1,0,0","6","blank","301","null","0.2658586429054084","0.6727704399260214","0.09031199981316151","0","","","","","","","","",""
"","html-keyboard-response","163","578805","0.0-90.0-1.0","""event"",""trial"",""time""
""fullscreenenter"",""0"",""5552""
""blur"",""23"",""170761""
""focus"",""23"",""170970""
","""event"",""trial"",""time""
""blur"",""23"",""170761""
","""event"",""trial"",""time""
""focus"",""23"",""170970""
","""event"",""trial"",""time""
""fullscreenenter"",""0"",""5552""
","
","null","<p></p>","null","","","","","","","","","","","","","","","","","","","","","","","",""
"","do_trial","164","581691","0.0-91.0-0.0","""event"",""trial"",""time""
""fullscreenenter"",""0"",""5552""
""blur"",""23"",""170761""
""focus"",""23"",""170970""
","""event"",""trial"",""time""
""blur"",""23"",""170761""
","""event"",""trial"",""time""
""focus"",""23"",""170970""
","""event"",""trial"",""time""
""fullscreenenter"",""0"",""5552""
","
","315.19999999995343","","","","","","","","51","1,1,0","6","blank","302","null","0.34171018469800657","0.6509089233273667","0.13675949956401032","0","","","","","","","","",""
"","html-keyboard-response","165","582693","0.0-91.0-1.0","""event"",""trial"",""time""
""fullscreenenter"",""0"",""5552""
""blur"",""23"",""170761""
""focus"",""23"",""170970""
","""event"",""trial"",""time""
""blur"",""23"",""170761""
","""event"",""trial"",""time""
""focus"",""23"",""170970""
","""event"",""trial"",""time""
""fullscreenenter"",""0"",""5552""
","
","null","<p></p>","null","","","","","","","","","","","","","","","","","","","","","","","",""
"","do_recog","166","586784","0.0-92.0-0.0","""event"",""trial"",""time""
""fullscreenenter"",""0"",""5552""
""blur"",""23"",""170761""
""focus"",""23"",""170970""
","""event"",""trial"",""time""
""blur"",""23"",""170761""
","""event"",""trial"",""time""
""focus"",""23"",""170970""
","""event"",""trial"",""time""
""fullscreenenter"",""0"",""5552""
","
","2582.899999999907","","","","","","","","55","","","","303","probe-186","","","","","1","[object Object]","152","3","0","","","",""
"","html-keyboard-response","167","587787","0.0-92.0-1.0","""event"",""trial"",""time""
""fullscreenenter"",""0"",""5552""
""blur"",""23"",""170761""
""focus"",""23"",""170970""
","""event"",""trial"",""time""
""blur"",""23"",""170761""
","""event"",""trial"",""time""
""focus"",""23"",""170970""
","""event"",""trial"",""time""
""fullscreenenter"",""0"",""5552""
","
","null","<p></p>","null","","","","","","","","","","","","","","","","","","","","","","","",""
"","do_trial","168","593860","0.0-93.0-0.0","""event"",""trial"",""time""
""fullscreenenter"",""0"",""5552""
""blur"",""23"",""170761""
""focus"",""23"",""170970""
","""event"",""trial"",""time""
""blur"",""23"",""170761""
","""event"",""trial"",""time""
""focus"",""23"",""170970""
","""event"",""trial"",""time""
""fullscreenenter"",""0"",""5552""
","
","null","","","","","","","","null","1,1,0","6","blank","304","null","0.36799841628672475","0.7379226911516465","0.11212485934232913","","","","","","","","","",""
"","html-keyboard-response","169","594862","0.0-93.0-1.0","""event"",""trial"",""time""
""fullscreenenter"",""0"",""5552""
""blur"",""23"",""170761""
""focus"",""23"",""170970""
","""event"",""trial"",""time""
""blur"",""23"",""170761""
","""event"",""trial"",""time""
""focus"",""23"",""170970""
","""event"",""trial"",""time""
""fullscreenenter"",""0"",""5552""
","
","null","<p></p>","null","","","","","","","","","","","","","","","","","","","","","","","",""
"","do_trial","170","597436","0.0-94.0-0.0","""event"",""trial"",""time""
""fullscreenenter"",""0"",""5552""
""blur"",""23"",""170761""
""focus"",""23"",""170970""
","""event"",""trial"",""time""
""blur"",""23"",""170761""
","""event"",""trial"",""time""
""focus"",""23"",""170970""
","""event"",""trial"",""time""
""fullscreenenter"",""0"",""5552""
","
","0.39999999990686774","","","","","","","","50","1,1,0","6","blank","305","null","0.30044421990178755","0.6454852593291891","0.16030383924822214","1","","","","","","","","",""
"","html-keyboard-response","171","598438","0.0-94.0-1.0","""event"",""trial"",""time""
""fullscreenenter"",""0"",""5552""
""blur"",""23"",""170761""
""focus"",""23"",""170970""
","""event"",""trial"",""time""
""blur"",""23"",""170761""
","""event"",""trial"",""time""
""focus"",""23"",""170970""
","""event"",""trial"",""time""
""fullscreenenter"",""0"",""5552""
","
","null","<p></p>","null","","","","","","","","","","","","","","","","","","","","","","","",""
"","do_recog","172","602310","0.0-95.0-0.0","""event"",""trial"",""time""
""fullscreenenter"",""0"",""5552""
""blur"",""23"",""170761""
""focus"",""23"",""170970""
","""event"",""trial"",""time""
""blur"",""23"",""170761""
","""event"",""trial"",""time""
""focus"",""23"",""170970""
","""event"",""trial"",""time""
""fullscreenenter"",""0"",""5552""
","
","2363.899999999907","","","","","","","","53","","","","306","probe-44","","","","","1","[object Object]","116","2","1","","","",""
"","html-keyboard-response","173","603312","0.0-95.0-1.0","""event"",""trial"",""time""
""fullscreenenter"",""0"",""5552""
""blur"",""23"",""170761""
""focus"",""23"",""170970""
","""event"",""trial"",""time""
""blur"",""23"",""170761""
","""event"",""trial"",""time""
""focus"",""23"",""170970""
","""event"",""trial"",""time""
""fullscreenenter"",""0"",""5552""
","
","null","<p></p>","null","","","","","","","","","","","","","","","","","","","","","","","",""
"","do_trial","174","609385","0.0-96.0-0.0","""event"",""trial"",""time""
""fullscreenenter"",""0"",""5552""
""blur"",""23"",""170761""
""focus"",""23"",""170970""
","""event"",""trial"",""time""
""blur"",""23"",""170761""
","""event"",""trial"",""time""
""focus"",""23"",""170970""
","""event"",""trial"",""time""
""fullscreenenter"",""0"",""5552""
","
","null","","","","","","","","null","0,0,0","6","blank","307","null","0.25490925037352463","0.6347472075760036","0.09901285028856802","","","","","","","","","",""
"","html-keyboard-response","175","610387","0.0-96.0-1.0","""event"",""trial"",""time""
""fullscreenenter"",""0"",""5552""
""blur"",""23"",""170761""
""focus"",""23"",""170970""
","""event"",""trial"",""time""
""blur"",""23"",""170761""
","""event"",""trial"",""time""
""focus"",""23"",""170970""
","""event"",""trial"",""time""
""fullscreenenter"",""0"",""5552""
","
","null","<p></p>","null","","","","","","","","","","","","","","","","","","","","","","","",""
"","do_trial","176","613893","0.0-97.0-0.0","""event"",""trial"",""time""
""fullscreenenter"",""0"",""5552""
""blur"",""23"",""170761""
""focus"",""23"",""170970""
","""event"",""trial"",""time""
""blur"",""23"",""170761""
","""event"",""trial"",""time""
""focus"",""23"",""170970""
","""event"",""trial"",""time""
""fullscreenenter"",""0"",""5552""
","
","932.6999999999534","","","","","","","","49","1,0,0","6","blank","308","null","0.260979934787021","0.5486654613333429","0.08431242840950208","1","","","","","","","","",""
"","html-keyboard-response","177","614896","0.0-97.0-1.0","""event"",""trial"",""time""
""fullscreenenter"",""0"",""5552""
""blur"",""23"",""170761""
""focus"",""23"",""170970""
","""event"",""trial"",""time""
""blur"",""23"",""170761""
","""event"",""trial"",""time""
""focus"",""23"",""170970""
","""event"",""trial"",""time""
""fullscreenenter"",""0"",""5552""
","
","null","<p></p>","null","","","","","","","","","","","","","","","","","","","","","","","",""
"","break","178","671400","0.0-98.0-0.0","""event"",""trial"",""time""
""fullscreenenter"",""0"",""5552""
""blur"",""23"",""170761""
""focus"",""23"",""170970""
","""event"",""trial"",""time""
""blur"",""23"",""170761""
","""event"",""trial"",""time""
""focus"",""23"",""170970""
","""event"",""trial"",""time""
""fullscreenenter"",""0"",""5552""
","
","56501.90000000014","<div class='center'><p>Time to take a quick break! You have 2 minutes to rest, but you can move on sooner if you'd like.</p><p> Press the <b>space bar</b> to continue.</p></div>","32","","","","","","","","","","","","","","","","","","","","","","","",""
"","do_trial","179","675075","0.0-98.0-1.0","""event"",""trial"",""time""
""fullscreenenter"",""0"",""5552""
""blur"",""23"",""170761""
""focus"",""23"",""170970""
","""event"",""trial"",""time""
""blur"",""23"",""170761""
","""event"",""trial"",""time""
""focus"",""23"",""170970""
","""event"",""trial"",""time""
""fullscreenenter"",""0"",""5552""
","
","1101.5999999998603","","","","","","","","50","0,1,0","6","blank","309","null","0.3048850695567477","0.559453010017947","0.14707546534462856","1","","","","","","","","",""
"","html-keyboard-response","180","676077","0.0-98.0-2.0","""event"",""trial"",""time""
""fullscreenenter"",""0"",""5552""
""blur"",""23"",""170761""
""focus"",""23"",""170970""
","""event"",""trial"",""time""
""blur"",""23"",""170761""
","""event"",""trial"",""time""
""focus"",""23"",""170970""
","""event"",""trial"",""time""
""fullscreenenter"",""0"",""5552""
","
","null","<p></p>","null","","","","","","","","","","","","","","","","","","","","","","","",""
"","do_trial","181","678719","0.0-99.0-0.0","""event"",""trial"",""time""
""fullscreenenter"",""0"",""5552""
""blur"",""23"",""170761""
""focus"",""23"",""170970""
","""event"",""trial"",""time""
""blur"",""23"",""170761""
","""event"",""trial"",""time""
""focus"",""23"",""170970""
","""event"",""trial"",""time""
""fullscreenenter"",""0"",""5552""
","
","67.69999999995343","","","","","","","","50","0,0,0","6","blank","310","null","0.3347631419197481","0.6124132954836123","0.3064438933792213","0","","","","","","","","",""
"","html-keyboard-response","182","679721","0.0-99.0-1.0","""event"",""trial"",""time""
""fullscreenenter"",""0"",""5552""
""blur"",""23"",""170761""
""focus"",""23"",""170970""
","""event"",""trial"",""time""
""blur"",""23"",""170761""
","""event"",""trial"",""time""
""focus"",""23"",""170970""
","""event"",""trial"",""time""
""fullscreenenter"",""0"",""5552""
","
","null","<p></p>","null","","","","","","","","","","","","","","","","","","","","","","","",""
"","do_trial","183","683376","0.0-100.0-0.0","""event"",""trial"",""time""
""fullscreenenter"",""0"",""5552""
""blur"",""23"",""170761""
""focus"",""23"",""170970""
","""event"",""trial"",""time""
""blur"",""23"",""170761""
","""event"",""trial"",""time""
""focus"",""23"",""170970""
","""event"",""trial"",""time""
""fullscreenenter"",""0"",""5552""
","
","1081.6000000000931","","","","","","","","49","1,1,0","6","blank","311","null","0.3022768930768723","0.7087359337454447","0.1852945852404552","1","","","","","","","","",""
"","html-keyboard-response","184","684378","0.0-100.0-1.0","""event"",""trial"",""time""
""fullscreenenter"",""0"",""5552""
""blur"",""23"",""170761""
""focus"",""23"",""170970""
","""event"",""trial"",""time""
""blur"",""23"",""170761""
","""event"",""trial"",""time""
""focus"",""23"",""170970""
","""event"",""trial"",""time""
""fullscreenenter"",""0"",""5552""
","
","null","<p></p>","null","","","","","","","","","","","","","","","","","","","","","","","",""
"","do_trial","185","688651","0.0-101.0-0.0","""event"",""trial"",""time""
""fullscreenenter"",""0"",""5552""
""blur"",""23"",""170761""
""focus"",""23"",""170970""
","""event"",""trial"",""time""
""blur"",""23"",""170761""
","""event"",""trial"",""time""
""focus"",""23"",""170970""
","""event"",""trial"",""time""
""fullscreenenter"",""0"",""5552""
","
","1699.3999999999069","","","","","","","","50","0,0,0","6","blank","312","null","0.2859465578188657","0.6843529540924651","0.17403201124251527","0","","","","","","","","",""
"","html-keyboard-response","186","689654","0.0-101.0-1.0","""event"",""trial"",""time""
""fullscreenenter"",""0"",""5552""
""blur"",""23"",""170761""
""focus"",""23"",""170970""
","""event"",""trial"",""time""
""blur"",""23"",""170761""
","""event"",""trial"",""time""
""focus"",""23"",""170970""
","""event"",""trial"",""time""
""fullscreenenter"",""0"",""5552""
","
","null","<p></p>","null","","","","","","","","","","","","","","","","","","","","","","","",""
"","do_recog","187","693290","0.0-102.0-0.0","""event"",""trial"",""time""
""fullscreenenter"",""0"",""5552""
""blur"",""23"",""170761""
""focus"",""23"",""170970""
","""event"",""trial"",""time""
""blur"",""23"",""170761""
","""event"",""trial"",""time""
""focus"",""23"",""170970""
","""event"",""trial"",""time""
""fullscreenenter"",""0"",""5552""
","
","2128.399999999907","","","","","","","","55","","","","313","probe-106","","","","","1","[object Object]","38","0","0","","","",""
"","html-keyboard-response","188","694292","0.0-102.0-1.0","""event"",""trial"",""time""
""fullscreenenter"",""0"",""5552""
""blur"",""23"",""170761""
""focus"",""23"",""170970""
","""event"",""trial"",""time""
""blur"",""23"",""170761""
","""event"",""trial"",""time""
""focus"",""23"",""170970""
","""event"",""trial"",""time""
""fullscreenenter"",""0"",""5552""
","
","null","<p></p>","null","","","","","","","","","","","","","","","","","","","","","","","",""
"","do_trial","189","698039","0.0-103.0-0.0","""event"",""trial"",""time""
""fullscreenenter"",""0"",""5552""
""blur"",""23"",""170761""
""focus"",""23"",""170970""
","""event"",""trial"",""time""
""blur"",""23"",""170761""
","""event"",""trial"",""time""
""focus"",""23"",""170970""
","""event"",""trial"",""time""
""fullscreenenter"",""0"",""5552""
","
","1172.4000000001397","","","","","","","","50","0,1,0","6","blank","314","null","0.29633318981058215","0.7462644299958981","0.15120873141121158","1","","","","","","","","",""
"","html-keyboard-response","190","699041","0.0-103.0-1.0","""event"",""trial"",""time""
""fullscreenenter"",""0"",""5552""
""blur"",""23"",""170761""
""focus"",""23"",""170970""
","""event"",""trial"",""time""
""blur"",""23"",""170761""
","""event"",""trial"",""time""
""focus"",""23"",""170970""
","""event"",""trial"",""time""
""fullscreenenter"",""0"",""5552""
","
","null","<p></p>","null","","","","","","","","","","","","","","","","","","","","","","","",""
"","do_trial","191","701963","0.0-104.0-0.0","""event"",""trial"",""time""
""fullscreenenter"",""0"",""5552""
""blur"",""23"",""170761""
""focus"",""23"",""170970""
","""event"",""trial"",""time""
""blur"",""23"",""170761""
","""event"",""trial"",""time""
""focus"",""23"",""170970""
","""event"",""trial"",""time""
""fullscreenenter"",""0"",""5552""
","
