"success","trial_type","trial_index","time_elapsed","internal_node_id","interactions","blur_events","focus_events","fullscreenenter_events","fullscreenexit_events","rt","stimulus","key_press","subject_id","participant_id","age","gender","prompt","response","choice_outcomes","context_n","context_img_id","trial_n","probe_img_id","pR_red","pR_white","pR_black","outcome","is_valid","image_to_show","probed_trial","probed_context","correct","probe","probed_trial_n","probed_context_n","context_im"
"true","fullscreen","0","4804","0.0-0.0","""event"",""trial"",""time""
""fullscreenenter"",""0"",""3825""
","
","
","""event"",""trial"",""time""
""fullscreenenter"",""0"",""3825""
","
","","","","","","","","","","","","","","","","","","","","","","","","","","",""
"","pavlovia","1","4810","0.0-1.0","""event"",""trial"",""time""
""fullscreenenter"",""0"",""3825""
","
","
","""event"",""trial"",""time""
""fullscreenenter"",""0"",""3825""
","
","","","","","","","","","","","","","","","","","","","","","","","","","","",""
"","welc_back","2","14605","0.0-2.0","""event"",""trial"",""time""
""fullscreenenter"",""0"",""3825""
","
","
","""event"",""trial"",""time""
""fullscreenenter"",""0"",""3825""
","
","null","run_exp/static/audio/clip_29_welcome_back.m4a","null","423","72","12","Female","<div class='center'><p>Welcome to day 2!</p><p> Yesterday, you were the head captain of a pirate ship. You asked your fellow pirates to rob other ships of their gold across six different islands.</p></div>","","","","","","","","","","","","","","","","","","",""
"","html-keyboard-response","3","17072","0.0-3.0","""event"",""trial"",""time""
""fullscreenenter"",""0"",""3825""
","
","
","""event"",""trial"",""time""
""fullscreenenter"",""0"",""3825""
","
","2465.5","<div class='center'><p>Welcome to day 2!</p><p> Yesterday, you were the head captain of a pirate ship. You asked your fellow pirates to rob other ships of their gold across six different islands.</p><p><b>[Press the space bar to continue]</b></p></div>","32","","","","","","","","","","","","","","","","","","","","","","","",""
"","day_1_summary_goal","4","34265","0.0-4.0","""event"",""trial"",""time""
""fullscreenenter"",""0"",""3825""
","
","
","""event"",""trial"",""time""
""fullscreenenter"",""0"",""3825""
","
","null","run_exp/static/audio/clip_30_goal_of_game.m4a","null","","","","","<div class='center'><p>Today, like yesterday, you get to pick which pirate you want to rob the next ship.</p><p>If the pirate is successful in robbing a ship, you get gold coins that look like this: </p><p><img src='run_exp/static/images/tutorial/reward.png' height='150'></p><p> If they were not successful in robbing the ship, then you will get no gold coins and you'll see a big red x like this: </p><p><img src='run_exp/static/images/tutorial/reward_no.png' height='150'></p></div>","","","","","","","","","","","","","","","","","","",""
"","html-keyboard-response","5","34712","0.0-5.0","""event"",""trial"",""time""
""fullscreenenter"",""0"",""3825""
","
","
","""event"",""trial"",""time""
""fullscreenenter"",""0"",""3825""
","
","445.29999923706055","<div class='center'><p>Today, like yesterday, you get to pick which pirate you want to rob the next ship.</p><p>If the pirate is successful in robbing a ship, you get gold coins that look like this: </p><p><img src='run_exp/static/images/tutorial/reward.png' height='150'></p><p> If they were not successful in robbing the ship, then you will get no gold coins and you'll see a big red x like this: </p><p><img src='run_exp/static/images/tutorial/reward_no.png' height='150'></p><p><b>[Press the space bar to continue]</b></p></div>","32","","","","","","","","","","","","","","","","","","","","","","","",""
"","day_1_summary_pick","6","49403","0.0-6.0","""event"",""trial"",""time""
""fullscreenenter"",""0"",""3825""
","
","
","""event"",""trial"",""time""
""fullscreenenter"",""0"",""3825""
","
","null","run_exp/static/audio/clip_31_how_to_pick_a_pirate.m4a","null","","","","","<div class='center'><p>Also, just like yesterday, you will use the 1,2,3 keys on your keyboard to pick a pirate. Press '1' to choose red beard, '2' to choose white beard, and '3' to choose black beard . You only have 3 seconds to pick a pirate, so please make a choice quickly!</p></div>","","","","","","","","","","","","","","","","","","",""
"","html-keyboard-response","7","50878","0.0-7.0","""event"",""trial"",""time""
""fullscreenenter"",""0"",""3825""
","
","
","""event"",""trial"",""time""
""fullscreenenter"",""0"",""3825""
","
","1473.6000003814697","<div class='center'><p>Also, just like yesterday, you will use the 1,2,3 keys on your keyboard to pick a pirate. Press '1' to choose red beard, '2' to choose white beard, and '3' to choose black beard . You only have 3 seconds to pick a pirate, so please make a choice quickly!</p><p><b>[Press the space bar to continue]</b></p></div>","32","","","","","","","","","","","","","","","","","","","","","","","",""
"","test_phase_begin","8","81264","0.0-8.0","""event"",""trial"",""time""
""fullscreenenter"",""0"",""3825""
","
","
","""event"",""trial"",""time""
""fullscreenenter"",""0"",""3825""
","
","null","run_exp/static/audio/clip_32_final_place.m4a","null","","","","","<div class='center'><p>You’ve arrived at the final island of your journey! Unfortunately, it’s very foggy out, so you won’t be able to see it in the distance like the other islands you've visited.</p><p>You’ll still be deciding which pirate you want to rob a ship like before. However, because of the fog, you also won’t be able to see the ship.</p><p>This means you do not have to remember the ships you rob on this island.</p><p>Unlike yesterday, you won't be visiting multiple islands today. You will stay on this island for the entire game. This game will last ~30 minutes.</p></div>","","","","","","","","","","","","","","","","","","",""
"","html-keyboard-response","9","82335","0.0-9.0","""event"",""trial"",""time""
""fullscreenenter"",""0"",""3825""
","
","
","""event"",""trial"",""time""
""fullscreenenter"",""0"",""3825""
","
","1069.6999998092651","<div class='center'><p>You’ve arrived at the final island of your journey! Unfortunately, it’s very foggy out, so you won’t be able to see it in the distance like the other islands you've visited.</p><p>You’ll still be deciding which pirate you want to rob a ship like before. However, because of the fog, you also won’t be able to see the ship.</p><p>This means you do not have to remember the ships you rob on this island.</p><p>Unlike yesterday, you won't be visiting multiple islands today. You will stay on this island for the entire game. This game will last ~30 minutes.</p><p><b>[Press the space bar to continue]</b></p></div>","32","","","","","","","","","","","","","","","","","","","","","","","",""
"","explain_probe_1","10","90044","0.0-10.0","""event"",""trial"",""time""
""fullscreenenter"",""0"",""3825""
","
","
","""event"",""trial"",""time""
""fullscreenenter"",""0"",""3825""
","
","null","run_exp/static/audio/clip_33_recognition_1.m4a","null","","","","","<div class='center'><p> Sometimes you’ll be shown a ship, and you will be asked if you saw this ship on a past island.</p><p> Here is an example of what you will see.</p><p><img src='run_exp/static/images/tutorial/example_recog_trial.png' height='500'></p></div>","","","","","","","","","","","","","","","","","","",""
"","html-keyboard-response","11","92359","0.0-11.0","""event"",""trial"",""time""
""fullscreenenter"",""0"",""3825""
","
","
","""event"",""trial"",""time""
""fullscreenenter"",""0"",""3825""
","
","2313.5","<div class='center'><p> Sometimes you’ll be shown a ship, and you will be asked if you saw this ship on a past island.</p><p> Here is an example of what you will see.</p><p><img src='run_exp/static/images/tutorial/example_recog_trial.png' height='500'></p><p><b>[Press the space bar to continue]</b></p></div>","32","","","","","","","","","","","","","","","","","","","","","","","",""
"","explain_probe_2","12","114063","0.0-12.0","""event"",""trial"",""time""
""fullscreenenter"",""0"",""3825""
","
","
","""event"",""trial"",""time""
""fullscreenenter"",""0"",""3825""
","
","null","run_exp/static/audio/clip_34_recognition_2.m4a","null","","","","","<div class='center'><p> You will press the 5, 6, 7, 8 keys on your keyboard to respond.</p><p>If you are sure you saw the ship, press <b>5</b> on your keyboard.</p><p> If you think you saw it before but aren't sure, then press <b>6</b>.</p><p> If you think you have <b>not</b> seen it before but aren't sure, then press <b>7</b>.</p><p> If you are sure you did <b>not</b> see the ship before, then press <b>8</b>.</p><p><img src='run_exp/static/images/tutorial/example_recog_trial.png' height='500'></p></div>","","","","","","","","","","","","","","","","","","",""
"","html-keyboard-response","13","115270","0.0-13.0","""event"",""trial"",""time""
""fullscreenenter"",""0"",""3825""
","
","
","""event"",""trial"",""time""
""fullscreenenter"",""0"",""3825""
","
","1205.1999998092651","<div class='center'><p> You will press the 5, 6, 7, 8 keys on your keyboard to respond.</p><p>If you are sure you saw the ship, press <b>5</b> on your keyboard.</p><p> If you think you saw it before but aren't sure, then press <b>6</b>.</p><p> If you think you have <b>not</b> seen it before but aren't sure, then press <b>7</b>.</p><p> If you are sure you did <b>not</b> see the ship before, then press <b>8</b>.</p><p><img src='run_exp/static/images/tutorial/example_recog_trial.png' height='500'></p><p><b>[Press the space bar to continue]</b></p></div>","32","","","","","","","","","","","","","","","","","","","","","","","",""
"","explain_outcome","14","132463","0.0-14.0","""event"",""trial"",""time""
""fullscreenenter"",""0"",""3825""
","
","
","""event"",""trial"",""time""
""fullscreenenter"",""0"",""3825""
","
","null","run_exp/static/audio/clip_35_recognition_3.m4a","null","","","","","<div class='center'><p> If you remember correctly, then you’ll get a gold coin like this: </p><p><img src='run_exp/static/images/tutorial/reward_small.png' height='200'></p><p>If you do not remember correctly, then you'll see a red x like this: </p><p><img src='run_exp/static/images/tutorial/reward_no.png' height='200'></p><p>Importantly, when you are shown a ship, take the time to remind yourself which island you saw it on. This will help you in the next part of the study.</p></div>","","","","","","","","","","","","","","","","","","",""
"","html-keyboard-response","15","133702","0.0-15.0","""event"",""trial"",""time""
""fullscreenenter"",""0"",""3825""
","
","
","""event"",""trial"",""time""
""fullscreenenter"",""0"",""3825""
","
","1237.8000001907349","<div class='center'><p> If you remember correctly, then you’ll get a gold coin like this: </p><p><img src='run_exp/static/images/tutorial/reward_small.png' height='200'></p><p>If you do not remember correctly, then you'll see a red x like this: </p><p><img src='run_exp/static/images/tutorial/reward_no.png' height='200'></p><p>Importantly, when you are shown a ship, take the time to remind yourself which island you saw it on. This will help you in the next part of the study.</p><p><b>[Press the space bar to continue]</b></p></div>","32","","","","","","","","","","","","","","","","","","","","","","","",""
"","begin_test_phase","16","149503","0.0-16.0","""event"",""trial"",""time""
""fullscreenenter"",""0"",""3825""
","
","
","""event"",""trial"",""time""
""fullscreenenter"",""0"",""3825""
","
","null","run_exp/static/audio/clip_36_begin_final.m4a","null","","","","","<div class='center'><p>Let's go over the important points again. Your job is to: </p><p>1. Pick the pirate who is best at robbing ships and will bring you back gold coins. </p><p>2. Correctly remember whether or not you saw a ship before. If you did see the ship before, remind yourself on which island you saw it. </p></div>","","","","","","","","","","","","","","","","","","",""
"","html-keyboard-response","17","150830","0.0-17.0","""event"",""trial"",""time""
""fullscreenenter"",""0"",""3825""
","
","
","""event"",""trial"",""time""
""fullscreenenter"",""0"",""3825""
","
","1247.3000001907349","<div class='center'><p>Let's go over the important points again. Your job is to: </p><p>1. Pick the pirate who is best at robbing ships and will bring you back gold coins. </p><p>2. Correctly remember whether or not you saw a ship before. If you did see the ship before, remind yourself on which island you saw it. </p><p><b>[Press the space bar to continue]</b></p></div>","32","","","","","","","","","","","","","","","","","","","","","","","",""
"","do_welcome","18","154852","0.0-18.0","""event"",""trial"",""time""
""fullscreenenter"",""0"",""3825""
","
","
","""event"",""trial"",""time""
""fullscreenenter"",""0"",""3825""
","
","null","","","","","","","","null","","","","","","","","","","","","","","","","","",""
"","do_trial","19","159293","0.0-19.0-0.0","""event"",""trial"",""time""
""fullscreenenter"",""0"",""3825""
","
","
","""event"",""trial"",""time""
""fullscreenenter"",""0"",""3825""
","
","1869.3999996185303","","","","","","","","50","1,0,0","6","blank","230","null","0.6180417363146046","0.12112373111513561","0.24270987852415724","0","","","","","","","","",""
"","html-keyboard-response","20","160312","0.0-19.0-1.0","""event"",""trial"",""time""
""fullscreenenter"",""0"",""3825""
","
","
","""event"",""trial"",""time""
""fullscreenenter"",""0"",""3825""
","
","null","<p></p>","null","","","","","","","","","","","","","","","","","","","","","","","",""
"","do_trial","21","163492","0.0-20.0-0.0","""event"",""trial"",""time""
""fullscreenenter"",""0"",""3825""
","
","
","""event"",""trial"",""time""
""fullscreenenter"",""0"",""3825""
","
","612.8999996185303","","","","","","","","51","0,0,0","6","blank","231","null","0.6353726583098397","0.08596325598378357","0.26872697867479023","0","","","","","","","","",""
"","html-keyboard-response","22","164512","0.0-20.0-1.0","""event"",""trial"",""time""
""fullscreenenter"",""0"",""3825""
","
","
","""event"",""trial"",""time""
""fullscreenenter"",""0"",""3825""
","
","null","<p></p>","null","","","","","","","","","","","","","","","","","","","","","","","",""
"","do_trial","23","167397","0.0-21.0-0.0","""event"",""trial"",""time""
""fullscreenenter"",""0"",""3825""
","
","
","""event"",""trial"",""time""
""fullscreenenter"",""0"",""3825""
","
","319.6000003814697","","","","","","","","49","1,0,0","6","blank","232","null","0.7000982083433932","0.10223801748782535","0.21143956151043689","1","","","","","","","","",""
"","html-keyboard-response","24","168399","0.0-21.0-1.0","""event"",""trial"",""time""
""fullscreenenter"",""0"",""3825""
","
","
","""event"",""trial"",""time""
""fullscreenenter"",""0"",""3825""
","
","null","<p></p>","null","","","","","","","","","","","","","","","","","","","","","","","",""
"","do_trial","25","171529","0.0-22.0-0.0","""event"",""trial"",""time""
""fullscreenenter"",""0"",""3825""
","
","
","""event"",""trial"",""time""
""fullscreenenter"",""0"",""3825""
","
","572.6999998092651","","","","","","","","50","1,0,0","6","blank","233","null","0.6836176786573919","0.1811336002852403","0.17861783008946616","0","","","","","","","","",""
"","html-keyboard-response","26","172545","0.0-22.0-1.0","""event"",""trial"",""time""
""fullscreenenter"",""0"",""3825""
","
","
","""event"",""trial"",""time""
""fullscreenenter"",""0"",""3825""
","
","null","<p></p>","null","","","","","","","","","","","","","","","","","","","","","","","",""
"","do_trial","27","175803","0.0-23.0-0.0","""event"",""trial"",""time""
""fullscreenenter"",""0"",""3825""
","
","
","""event"",""trial"",""time""
""fullscreenenter"",""0"",""3825""
","
","700","","","","","","","","49","0,0,0","6","blank","234","null","0.5611306298492228","0.15992115097031692","0.1919916407372281","0","","","","","","","","",""
"","html-keyboard-response","28","176813","0.0-23.0-1.0","""event"",""trial"",""time""
""fullscreenenter"",""0"",""3825""
","
","
","""event"",""trial"",""time""
""fullscreenenter"",""0"",""3825""
","
","null","<p></p>","null","","","","","","","","","","","","","","","","","","","","","","","",""
"","do_trial","29","179815","0.0-24.0-0.0","""event"",""trial"",""time""
""fullscreenenter"",""0"",""3825""
","
","
","""event"",""trial"",""time""
""fullscreenenter"",""0"",""3825""
","
","455.1000003814697","","","","","","","","49","1,0,0","6","blank","235","null","0.7158510546622645","0.062322865344358346","0.22120330919855744","1","","","","","","","","",""
"","html-keyboard-response","30","180827","0.0-24.0-1.0","""event"",""trial"",""time""
""fullscreenenter"",""0"",""3825""
","
","
","""event"",""trial"",""time""
""fullscreenenter"",""0"",""3825""
","
","null","<p></p>","null","","","","","","","","","","","","","","","","","","","","","","","",""
"","do_trial","31","183830","0.0-25.0-0.0","""event"",""trial"",""time""
""fullscreenenter"",""0"",""3825""
","
","
","""event"",""trial"",""time""
""fullscreenenter"",""0"",""3825""
","
","450.30000019073486","","","","","","","","49","0,0,0","6","blank","236","null","0.6235969233392659","0.06316267135483854","0.3851088779563458","0","","","","","","","","",""
"","html-keyboard-response","32","184846","0.0-25.0-1.0","""event"",""trial"",""time""
""fullscreenenter"",""0"",""3825""
","
","
","""event"",""trial"",""time""
""fullscreenenter"",""0"",""3825""
","
","null","<p></p>","null","","","","","","","","","","","","","","","","","","","","","","","",""
"","do_trial","33","188147","0.0-26.0-0.0","""event"",""trial"",""time""
""fullscreenenter"",""0"",""3825""
","
","
","""event"",""trial"",""time""
""fullscreenenter"",""0"",""3825""
","
","749.0999994277954","","","","","","","","49","0,0,0","6","blank","237","null","0.5436227261765627","0.069400766344228","0.37764218620414497","0","","","","","","","","",""
"","html-keyboard-response","34","189162","0.0-26.0-1.0","""event"",""trial"",""time""
""fullscreenenter"",""0"",""3825""
","
","
","""event"",""trial"",""time""
""fullscreenenter"",""0"",""3825""
","
","null","<p></p>","null","","","","","","","","","","","","","","","","","","","","","","","",""
"","do_trial","35","192269","0.0-27.0-0.0","""event"",""trial"",""time""
""fullscreenenter"",""0"",""3825""
","
","
","""event"",""trial"",""time""
""fullscreenenter"",""0"",""3825""
","
","544.1999998092651","","","","","","","","49","1,0,1","6","blank","238","null","0.6183889365523207","0.08559485587875612","0.4745443890244283","1","","","","","","","","",""
"","html-keyboard-response","36","193279","0.0-27.0-1.0","""event"",""trial"",""time""
""fullscreenenter"",""0"",""3825""
","
","
","""event"",""trial"",""time""
""fullscreenenter"",""0"",""3825""
","
","null","<p></p>","null","","","","","","","","","","","","","","","","","","","","","","","",""
"","do_trial","37","196444","0.0-28.0-0.0","""event"",""trial"",""time""
""fullscreenenter"",""0"",""3825""
","
","
","""event"",""trial"",""time""
""fullscreenenter"",""0"",""3825""
","
","612.8999996185303","","","","","","","","49","1,1,0","6","blank","239","null","0.6639975286275599","0.23222679605102137","0.5687561578038829","1","","","","","","","","",""
"","html-keyboard-response","38","197447","0.0-28.0-1.0","""event"",""trial"",""time""
""fullscreenenter"",""0"",""3825""
","
","
","""event"",""trial"",""time""
""fullscreenenter"",""0"",""3825""
","
","null","<p></p>","null","","","","","","","","","","","","","","","","","","","","","","","",""
"","do_trial","39","200364","0.0-29.0-0.0","""event"",""trial"",""time""
""fullscreenenter"",""0"",""3825""
","
","
","""event"",""trial"",""time""
""fullscreenenter"",""0"",""3825""
","
","356.5","","","","","","","","51","0,0,0","6","blank","240","null","0.6036496908758524","0.30183592403472775","0.6204225152058128","0","","","","","","","","",""
"","html-keyboard-response","40","201380","0.0-29.0-1.0","""event"",""trial"",""time""
""fullscreenenter"",""0"",""3825""
","
","
","""event"",""trial"",""time""
""fullscreenenter"",""0"",""3825""
","
","null","<p></p>","null","","","","","","","","","","","","","","","","","","","","","","","",""
"","do_trial","41","204480","0.0-30.0-0.0","""event"",""trial"",""time""
""fullscreenenter"",""0"",""3825""
","
","
","""event"",""trial"",""time""
""fullscreenenter"",""0"",""3825""
","
","532.6000003814697","","","","","","","","51","0,1,1","6","blank","241","null","0.5749816078541179","0.25680962413807473","0.6296927936404164","1","","","","","","","","",""
"","html-keyboard-response","42","205496","0.0-30.0-1.0","""event"",""trial"",""time""
""fullscreenenter"",""0"",""3825""
","
","
","""event"",""trial"",""time""
""fullscreenenter"",""0"",""3825""
","
","null","<p></p>","null","","","","","","","","","","","","","","","","","","","","","","","",""
"","do_recog","43","211515","0.0-31.0-0.0","""event"",""trial"",""time""
""fullscreenenter"",""0"",""3825""
","
","
","""event"",""trial"",""time""
""fullscreenenter"",""0"",""3825""
","
","null","","","","","","","","null","","","","242","probe-42","","","","","1","[object Object]","37","0","0","","","",""
"","html-keyboard-response","44","212529","0.0-31.0-1.0","""event"",""trial"",""time""
""fullscreenenter"",""0"",""3825""
","
","
","""event"",""trial"",""time""
""fullscreenenter"",""0"",""3825""
","
","null","<p></p>","null","","","","","","","","","","","","","","","","","","","","","","","",""
"","do_trial","45","216530","0.0-32.0-0.0","""event"",""trial"",""time""
""fullscreenenter"",""0"",""3825""
","
","
","""event"",""trial"",""time""
""fullscreenenter"",""0"",""3825""
","
","1443","","","","","","","","51","0,1,0","6","blank","243","null","0.41738495656045405","0.640978060966853","0.5139440230905102","0","","","","","","","","",""
"","html-keyboard-response","46","217546","0.0-32.0-1.0","""event"",""trial"",""time""
""fullscreenenter"",""0"",""3825""
","
","
","""event"",""trial"",""time""
""fullscreenenter"",""0"",""3825""
","
","null","<p></p>","null","","","","","","","","","","","","","","","","","","","","","","","",""
"","do_trial","47","220497","0.0-33.0-0.0","""event"",""trial"",""time""
""fullscreenenter"",""0"",""3825""
","
","
","""event"",""trial"",""time""
""fullscreenenter"",""0"",""3825""
","
","404.79999923706055","","","","","","","","51","0,1,0","6","blank","244","null","0.36797347832586397","0.5674185204648897","0.3323899449082133","0","","","","","","","","",""
"","html-keyboard-response","48","221513","0.0-33.0-1.0","""event"",""trial"",""time""
""fullscreenenter"",""0"",""3825""
","
","
","""event"",""trial"",""time""
""fullscreenenter"",""0"",""3825""
","
","null","<p></p>","null","","","","","","","","","","","","","","","","","","","","","","","",""
"","do_trial","49","224631","0.0-34.0-0.0","""event"",""trial"",""time""
""fullscreenenter"",""0"",""3825""
","
","
","""event"",""trial"",""time""
""fullscreenenter"",""0"",""3825""
","
","574.1999998092651","","","","","","","","50","0,0,0","6","blank","245","null","0.32710206060949704","0.6480820343710733","0.203068017248613","0","","","","","","","","",""
"","html-keyboard-response","50","225645","0.0-34.0-1.0","""event"",""trial"",""time""
""fullscreenenter"",""0"",""3825""
","
","
","""event"",""trial"",""time""
""fullscreenenter"",""0"",""3825""
","
","null","<p></p>","null","","","","","","","","","","","","","","","","","","","","","","","",""
"","do_trial","51","228783","0.0-35.0-0.0","""event"",""trial"",""time""
""fullscreenenter"",""0"",""3825""
","
","
","""event"",""trial"",""time""
""fullscreenenter"",""0"",""3825""
","
","585.8000001907349","","","","","","","","49","1,0,0","6","blank","246","null","0.3995527473767788","0.6726895887986813","0.21856620059362072","1","","","","","","","","",""
"","html-keyboard-response","52","229787","0.0-35.0-1.0","""event"",""trial"",""time""
""fullscreenenter"",""0"",""3825""
","
","
","""event"",""trial"",""time""
""fullscreenenter"",""0"",""3825""
","
","null","<p></p>","null","","","","","","","","","","","","","","","","","","","","","","","",""
"","do_recog","53","234253","0.0-36.0-0.0","""event"",""trial"",""time""
""fullscreenenter"",""0"",""3825""
","
","
","""event"",""trial"",""time""
""fullscreenenter"",""0"",""3825""
","
","2961","","","","","","","","53","","","","247","probe-09","","","","","1","[object Object]","35","0","1","","","",""
"","html-keyboard-response","54","235265","0.0-36.0-1.0","""event"",""trial"",""time""
""fullscreenenter"",""0"",""3825""
","
","
","""event"",""trial"",""time""
""fullscreenenter"",""0"",""3825""
","
","null","<p></p>","null","","","","","","","","","","","","","","","","","","","","","","","",""
"","do_trial","55","238613","0.0-37.0-0.0","""event"",""trial"",""time""
""fullscreenenter"",""0"",""3825""
","
","
","""event"",""trial"",""time""
""fullscreenenter"",""0"",""3825""
","
","797","","","","","","","","50","0,1,0","6","blank","248","null","0.14961457472923176","0.725283408645807","0.1517494690341483","1","","","","","","","","",""
"","html-keyboard-response","56","239629","0.0-37.0-1.0","""event"",""trial"",""time""
""fullscreenenter"",""0"",""3825""
","
","
","""event"",""trial"",""time""
""fullscreenenter"",""0"",""3825""
","
","null","<p></p>","null","","","","","","","","","","","","","","","","","","","","","","","",""
"","do_recog","57","243611","0.0-38.0-0.0","""event"",""trial"",""time""
""fullscreenenter"",""0"",""3825""
","
","
","""event"",""trial"",""time""
""fullscreenenter"",""0"",""3825""
","
","2463.6000003814697","","","","","","","","56","","","","249","probe-243","","","","","0","[object Object]","null","null","1","","","",""
"","html-keyboard-response","58","244614","0.0-38.0-1.0","""event"",""trial"",""time""
""fullscreenenter"",""0"",""3825""
","
","
","""event"",""trial"",""time""
""fullscreenenter"",""0"",""3825""
","
","null","<p></p>","null","","","","","","","","","","","","","","","","","","","","","","","",""
"","do_trial","59","248314","0.0-39.0-0.0","""event"",""trial"",""time""
""fullscreenenter"",""0"",""3825""
","
","
","""event"",""trial"",""time""
""fullscreenenter"",""0"",""3825""
","
","1144.6999998092651","","","","","","","","50","0,1,0","6","blank","250","null","0.27814626122821573","0.6140670369420289","0.16076517334768345","1","","","","","","","","",""
"","html-keyboard-response","60","249330","0.0-39.0-1.0","""event"",""trial"",""time""
""fullscreenenter"",""0"",""3825""
","
","
","""event"",""trial"",""time""
""fullscreenenter"",""0"",""3825""
","
","null","<p></p>","null","","","","","","","","","","","","","","","","","","","","","","","",""
"","do_recog","61","253265","0.0-40.0-0.0","""event"",""trial"",""time""
""fullscreenenter"",""0"",""3825""
","
","
","""event"",""trial"",""time""
""fullscreenenter"",""0"",""3825""
","
","2426.8999996185303","","","","","","","","55","","","","251","probe-51","","","","","1","[object Object]","157","3","0","","","",""
"","html-keyboard-response","62","254280","0.0-40.0-1.0","""event"",""trial"",""time""
""fullscreenenter"",""0"",""3825""
","
","
","""event"",""trial"",""time""
""fullscreenenter"",""0"",""3825""
","
","null","<p></p>","null","","","","","","","","","","","","","","","","","","","","","","","",""
"","do_trial","63","257931","0.0-41.0-0.0","""event"",""trial"",""time""
""fullscreenenter"",""0"",""3825""
","
","
","""event"",""trial"",""time""
""fullscreenenter"",""0"",""3825""
","
","1094.5999994277954","","","","","","","","51","0,0,0","6","blank","252","null","0.294443010345581","0.6446483360093201","0.11471696155133146","0","","","","","","","","",""
"","html-keyboard-response","64","258947","0.0-41.0-1.0","""event"",""trial"",""time""
""fullscreenenter"",""0"",""3825""
","
","
","""event"",""trial"",""time""
""fullscreenenter"",""0"",""3825""
","
","null","<p></p>","null","","","","","","","","","","","","","","","","","","","","","","","",""
"","do_trial","65","262514","0.0-42.0-0.0","""event"",""trial"",""time""
""fullscreenenter"",""0"",""3825""
","
","
","""event"",""trial"",""time""
""fullscreenenter"",""0"",""3825""
","
","1019.1999998092651","","","","","","","","49","0,1,1","6","blank","253","null","0.17986036588120313","0.5965779463970146","0.09778334238363261","0","","","","","","","","",""
"","html-keyboard-response","66","263531","0.0-42.0-1.0","""event"",""trial"",""time""
""fullscreenenter"",""0"",""3825""
","
","
","""event"",""trial"",""time""
""fullscreenenter"",""0"",""3825""
","
","null","<p></p>","null","","","","","","","","","","","","","","","","","","","","","","","",""
"","do_trial","67","266433","0.0-43.0-0.0","""event"",""trial"",""time""
""fullscreenenter"",""0"",""3825""
","
","
","""event"",""trial"",""time""
""fullscreenenter"",""0"",""3825""
","
","356.69999980926514","","","","","","","","49","0,1,0","6","blank","254","null","0.19303083088422074","0.6154461054877102","0.17771002729295923","0","","","","","","","","",""
"","html-keyboard-response","68","267446","0.0-43.0-1.0","""event"",""trial"",""time""
""fullscreenenter"",""0"",""3825""
","
","
","""event"",""trial"",""time""
""fullscreenenter"",""0"",""3825""
","
","null","<p></p>","null","","","","","","","","","","","","","","","","","","","","","","","",""
"","do_recog","69","271196","0.0-44.0-0.0","""event"",""trial"",""time""
""fullscreenenter"",""0"",""3825""
","
","
","""event"",""trial"",""time""
""fullscreenenter"",""0"",""3825""
","
","2238.199999809265","","","","","","","","53","","","","255","probe-90","","","","","1","[object Object]","152","3","1","","","",""
"","html-keyboard-response","70","272212","0.0-44.0-1.0","""event"",""trial"",""time""
""fullscreenenter"",""0"",""3825""
","
","
","""event"",""trial"",""time""
""fullscreenenter"",""0"",""3825""
","
","null","<p></p>","null","","","","","","","","","","","","","","","","","","","","","","","",""
"","do_trial","71","275922","0.0-45.0-0.0","""event"",""trial"",""time""
""fullscreenenter"",""0"",""3825""
","
","
","""event"",""trial"",""time""
""fullscreenenter"",""0"",""3825""
","
","1162.8999996185303","","","","","","","","50","0,0,0","6","blank","256","null","0.19957409381987506","0.5967825937775837","0.18682938272797409","0","","","","","","","","",""
"","html-keyboard-response","72","276929","0.0-45.0-1.0","""event"",""trial"",""time""
""fullscreenenter"",""0"",""3825""
","
","
","""event"",""trial"",""time""
""fullscreenenter"",""0"",""3825""
","
","null","<p></p>","null","","","","","","","","","","","","","","","","","","","","","","","",""
"","do_trial","73","280380","0.0-46.0-0.0","""event"",""trial"",""time""
""fullscreenenter"",""0"",""3825""
","
","
","""event"",""trial"",""time""
""fullscreenenter"",""0"",""3825""
","
","894.1999998092651","","","","","","","","51","0,0,0","6","blank","257","null","0.2667838963228365","0.64574993987749","0.08829990507584234","0","","","","","","","","",""
"","html-keyboard-response","74","281384","0.0-46.0-1.0","""event"",""trial"",""time""
""fullscreenenter"",""0"",""3825""
","
","
","""event"",""trial"",""time""
""fullscreenenter"",""0"",""3825""
","
","null","<p></p>","null","","","","","","","","","","","","","","","","","","","","","","","",""
"","do_trial","75","284447","0.0-47.0-0.0","""event"",""trial"",""time""
""fullscreenenter"",""0"",""3825""
","
","
","""event"",""trial"",""time""
""fullscreenenter"",""0"",""3825""
","
","511.6000003814697","","","","","","","","49","0,1,0","6","blank","258","null","0.2351955433628365","0.7411924145332724","0.07471231219302876","0","","","","","","","","",""
"","html-keyboard-response","76","285449","0.0-47.0-1.0","""event"",""trial"",""time""
""fullscreenenter"",""0"",""3825""
","
","
","""event"",""trial"",""time""
""fullscreenenter"",""0"",""3825""
","
","null","<p></p>","null","","","","","","","","","","","","","","","","","","","","","","","",""
"","do_trial","77","288913","0.0-48.0-0.0","""event"",""trial"",""time""
""fullscreenenter"",""0"",""3825""
","
","
","""event"",""trial"",""time""
""fullscreenenter"",""0"",""3825""
","
","910.3999996185303","","","","","","","","50","0,1,0","6","blank","259","null","0.20999733699479875","0.7799682385281255","0.06872188353191626","1","","","","","","","","",""
"","html-keyboard-response","78","289915","0.0-48.0-1.0","""event"",""trial"",""time""
""fullscreenenter"",""0"",""3825""
","
","
","""event"",""trial"",""time""
""fullscreenenter"",""0"",""3825""
","
","null","<p></p>","null","","","","","","","","","","","","","","","","","","","","","","","",""
"","do_trial","79","293117","0.0-49.0-0.0","""event"",""trial"",""time""
""fullscreenenter"",""0"",""3825""
","
","
","""event"",""trial"",""time""
""fullscreenenter"",""0"",""3825""
","
","659.6999998092651","","","","","","","","51","0,1,0","6","blank","260","null","0.1763482995691785","0.8329809981940727","0.0595464022325673","0","","","","","","","","",""
"","html-keyboard-response","80","294125","0.0-49.0-1.0","""event"",""trial"",""time""
""fullscreenenter"",""0"",""3825""
","
","
","""event"",""trial"",""time""
""fullscreenenter"",""0"",""3825""
","
","null","<p></p>","null","","","","","","","","","","","","","","","","","","","","","","","",""
"","do_trial","81","297168","0.0-50.0-0.0","""event"",""trial"",""time""
""fullscreenenter"",""0"",""3825""
","
","
","""event"",""trial"",""time""
""fullscreenenter"",""0"",""3825""
","
","498.30000019073486","","","","","","","","49","0,1,0","6","blank","261","null","0.24882463444108485","0.8237715957461843","0.1545168023049544","0","","","","","","","","",""
"","html-keyboard-response","82","298179","0.0-50.0-1.0","""event"",""trial"",""time""
""fullscreenenter"",""0"",""3825""
","
","
","""event"",""trial"",""time""
""fullscreenenter"",""0"",""3825""
","
","null","<p></p>","null","","","","","","","","","","","","","","","","","","","","","","","",""
"","do_trial","83","301298","0.0-51.0-0.0","""event"",""trial"",""time""
""fullscreenenter"",""0"",""3825""
","
","
","""event"",""trial"",""time""
""fullscreenenter"",""0"",""3825""
","
","572.2999992370605","","","","","","","","49","1,1,0","6","blank","262","null","0.2370807463225506","0.8237935178567033","0.14529979401834173","1","","","","","","","","",""
"","html-keyboard-response","84","302314","0.0-51.0-1.0","""event"",""trial"",""time""
""fullscreenenter"",""0"",""3825""
","
","
","""event"",""trial"",""time""
""fullscreenenter"",""0"",""3825""
","
","null","<p></p>","null","","","","","","","","","","","","","","","","","","","","","","","",""
"","do_recog","85","305264","0.0-52.0-0.0","""event"",""trial"",""time""
""fullscreenenter"",""0"",""3825""
","
","
","""event"",""trial"",""time""
""fullscreenenter"",""0"",""3825""
","
","1443","","","","","","","","53","","","","263","probe-215","","","","","1","[object Object]","34","0","1","","","",""
"","html-keyboard-response","86","306280","0.0-52.0-1.0","""event"",""trial"",""time""
""fullscreenenter"",""0"",""3825""
","
","
","""event"",""trial"",""time""
""fullscreenenter"",""0"",""3825""
","
","null","<p></p>","null","","","","","","","","","","","","","","","","","","","","","","","",""
"","do_trial","87","309796","0.0-53.0-0.0","""event"",""trial"",""time""
""fullscreenenter"",""0"",""3825""
","
","
","""event"",""trial"",""time""
""fullscreenenter"",""0"",""3825""
","
","966.6999998092651","","","","","","","","49","0,1,0","6","blank","264","null","0.26437194203884373","0.7867278747401274","0.08698210889897669","0","","","","","","","","",""
"","html-keyboard-response","88","310813","0.0-53.0-1.0","""event"",""trial"",""time""
""fullscreenenter"",""0"",""3825""
","
","
","""event"",""trial"",""time""
""fullscreenenter"",""0"",""3825""
","
","null","<p></p>","null","","","","","","","","","","","","","","","","","","","","","","","",""
"","do_recog","89","314043","0.0-54.0-0.0","""event"",""trial"",""time""
""fullscreenenter"",""0"",""3825""
","
","
","""event"",""trial"",""time""
""fullscreenenter"",""0"",""3825""
","
","1719.2999992370605","","","","","","","","56","","","","265","probe-36","","","","","1","[object Object]","194","4","0","","","",""
"","html-keyboard-response","90","315047","0.0-54.0-1.0","""event"",""trial"",""time""
""fullscreenenter"",""0"",""3825""
","
","
","""event"",""trial"",""time""
""fullscreenenter"",""0"",""3825""
","
","null","<p></p>","null","","","","","","","","","","","","","","","","","","","","","","","",""
"","do_trial","91","318282","0.0-55.0-0.0","""event"",""trial"",""time""
""fullscreenenter"",""0"",""3825""
","
","
","""event"",""trial"",""time""
""fullscreenenter"",""0"",""3825""
","
","677.3999996185303","","","","","","","","51","0,0,0","6","blank","266","null","0.23201317981395617","0.6536670233381058","0.20415779079690513","0","","","","","","","","",""
"","html-keyboard-response","92","319296","0.0-55.0-1.0","""event"",""trial"",""time""
""fullscreenenter"",""0"",""3825""
","
","
","""event"",""trial"",""time""
""fullscreenenter"",""0"",""3825""
","
","null","<p></p>","null","","","","","","","","","","","","","","","","","","","","","","","",""
"","do_recog","93","322513","0.0-56.0-0.0","""event"",""trial"",""time""
""fullscreenenter"",""0"",""3825""
","
","
","""event"",""trial"",""time""
""fullscreenenter"",""0"",""3825""
","
","1708.6000003814697","","","","","","","","53","","","","267","probe-162","","","","","1","[object Object]","119","2","1","","","",""
"","html-keyboard-response","94","323529","0.0-56.0-1.0","""event"",""trial"",""time""
""fullscreenenter"",""0"",""3825""
","
","
","""event"",""trial"",""time""
""fullscreenenter"",""0"",""3825""
","
","null","<p></p>","null","","","","","","","","","","","","","","","","","","","","","","","",""
"","do_trial","95","327087","0.0-57.0-0.0","""event"",""trial"",""time""
""fullscreenenter"",""0"",""3825""
","
","
","""event"",""trial"",""time""
""fullscreenenter"",""0"",""3825""
","
","1014","","","","","","","","49","1,1,0","6","blank","268","null","0.3577808540746311","0.7266690083131809","0.2741347728373843","1","","","","","","","","",""
"","html-keyboard-response","96","328089","0.0-57.0-1.0","""event"",""trial"",""time""
""fullscreenenter"",""0"",""3825""
","
","
","""event"",""trial"",""time""
""fullscreenenter"",""0"",""3825""
","
","null","<p></p>","null","","","","","","","","","","","","","","","","","","","","","","","",""
"","break","97","339001","0.0-58.0-0.0","""event"",""trial"",""time""
""fullscreenenter"",""0"",""3825""
","
","
","""event"",""trial"",""time""
""fullscreenenter"",""0"",""3825""
","
","10911","<div class='center'><p>Time to take a quick break! You have 2 minutes to rest, but you can move on sooner if you'd like.</p><p> Press the <b>space bar</b> to continue.</p></div>","32","","","","","","","","","","","","","","","","","","","","","","","",""
"","do_trial","98","342740","0.0-58.0-1.0","""event"",""trial"",""time""
""fullscreenenter"",""0"",""3825""
","
","
","""event"",""trial"",""time""
""fullscreenenter"",""0"",""3825""
","
","1182","","","","","","","","50","1,1,0","6","blank","269","null","0.38456263951287173","0.74227138251039","0.08599021236723633","1","","","","","","","","",""
"","html-keyboard-response","99","343757","0.0-58.0-2.0","""event"",""trial"",""time""
""fullscreenenter"",""0"",""3825""
","
","
","""event"",""trial"",""time""
""fullscreenenter"",""0"",""3825""
","
","null","<p></p>","null","","","","","","","","","","","","","","","","","","","","","","","",""
"","do_recog","100","346822","0.0-59.0-0.0","""event"",""trial"",""time""
""fullscreenenter"",""0"",""3825""
","
","
","""event"",""trial"",""time""
""fullscreenenter"",""0"",""3825""
","
","1551.3999996185303","","","","","","","","56","","","","270","probe-129","","","","","1","[object Object]","150","3","0","","","",""
"","html-keyboard-response","101","347830","0.0-59.0-1.0","""event"",""trial"",""time""
""fullscreenenter"",""0"",""3825""
","
","
","""event"",""trial"",""time""
""fullscreenenter"",""0"",""3825""
","
","null","<p></p>","null","","","","","","","","","","","","","","","","","","","","","","","",""
"","do_trial","102","350852","0.0-60.0-0.0","""event"",""trial"",""time""
""fullscreenenter"",""0"",""3825""
","
","
","""event"",""trial"",""time""
""fullscreenenter"",""0"",""3825""
","
","473.69999980926514","","","","","","","","51","0,1,0","6","blank","271","null","0.2437826288676833","0.6606256450137581","0.16157269304652525","0","","","","","","","","",""
"","html-keyboard-response","103","351864","0.0-60.0-1.0","""event"",""trial"",""time""
""fullscreenenter"",""0"",""3825""
","
","
","""event"",""trial"",""time""
""fullscreenenter"",""0"",""3825""
","
","null","<p></p>","null","","","","","","","","","","","","","","","","","","","","","","","",""
"","do_trial","104","355203","0.0-61.0-0.0","""event"",""trial"",""time""
""fullscreenenter"",""0"",""3825""
","
","
","""event"",""trial"",""time""
""fullscreenenter"",""0"",""3825""
","
","791.6000003814697","","","","","","","","50","0,1,0","6","blank","272","null","0.16758013811142966","0.6863586548213381","0.1687377203118829","1","","","","","","","","",""
"","html-keyboard-response","105","356213","0.0-61.0-1.0","""event"",""trial"",""time""
""fullscreenenter"",""0"",""3825""
","
","
","""event"",""trial"",""time""
""fullscreenenter"",""0"",""3825""
","
","null","<p></p>","null","","","","","","","","","","","","","","","","","","","","","","","",""
"","do_trial","106","359929","0.0-62.0-0.0","""event"",""trial"",""time""
""fullscreenenter"",""0"",""3825""
","
","
","""event"",""trial"",""time""
""fullscreenenter"",""0"",""3825""
","
","1162","","","","","","","","50","0,0,0","6","blank","273","null","0.2594961492966259","0.6089166293418057","0.10665683890684319","0","","","","","","","","",""
"","html-keyboard-response","107","360946","0.0-62.0-1.0","""event"",""trial"",""time""
""fullscreenenter"",""0"",""3825""
","
","
","""event"",""trial"",""time""
""fullscreenenter"",""0"",""3825""
","
","null","<p></p>","null","","","","","","","","","","","","","","","","","","","","","","","",""
"","do_trial","108","364165","0.0-63.0-0.0","""event"",""trial"",""time""
""fullscreenenter"",""0"",""3825""
","
","
","""event"",""trial"",""time""
""fullscreenenter"",""0"",""3825""
","
","668.8000001907349","","","","","","","","49","0,1,0","6","blank","274","null","0.298265801923341","0.6848637607229233","0.08477111587575584","0","","","","","","","","",""
"","html-keyboard-response","109","365180","0.0-63.0-1.0","""event"",""trial"",""time""
""fullscreenenter"",""0"",""3825""
","
","
","""event"",""trial"",""time""
""fullscreenenter"",""0"",""3825""
","
","null","<p></p>","null","","","","","","","","","","","","","","","","","","","","","","","",""
"","do_trial","110","368200","0.0-64.0-0.0","""event"",""trial"",""time""
""fullscreenenter"",""0"",""3825""
","
","
","""event"",""trial"",""time""
""fullscreenenter"",""0"",""3825""
","
","475.30000019073486","","","","","","","","49","0,0,0","6","blank","275","null","0.13304132590480677","0.795777190041257","0.11491930683159866","0","","","","","","","","",""
"","html-keyboard-response","111","369212","0.0-64.0-1.0","""event"",""trial"",""time""
""fullscreenenter"",""0"",""3825""
","
","
","""event"",""trial"",""time""
""fullscreenenter"",""0"",""3825""
","
","null","<p></p>","null","","","","","","","","","","","","","","","","","","","","","","","",""
"","do_trial","112","372171","0.0-65.0-0.0","""event"",""trial"",""time""
""fullscreenenter"",""0"",""3825""
","
","
","""event"",""trial"",""time""
""fullscreenenter"",""0"",""3825""
","
","409.69999980926514","","","","","","","","49","1,1,0","6","blank","276","null","0.14192558174419445","0.736491434928046","0.11490826713727559","1","","","","","","","","",""
"","html-keyboard-response","113","373183","0.0-65.0-1.0","""event"",""trial"",""time""
""fullscreenenter"",""0"",""3825""
","
","
","""event"",""trial"",""time""
""fullscreenenter"",""0"",""3825""
","
","null","<p></p>","null","","","","","","","","","","","","","","","","","","","","","","","",""
"","do_trial","114","376181","0.0-66.0-0.0","""event"",""trial"",""time""
""fullscreenenter"",""0"",""3825""
","
","
","""event"",""trial"",""time""
""fullscreenenter"",""0"",""3825""
","
","455.6000003814697","","","","","","","","49","0,0,0","6","blank","277","null","0.28340030832258245","0.7038520845269565","0.15895532165213125","0","","","","","","","","",""
"","html-keyboard-response","115","377197","0.0-66.0-1.0","""event"",""trial"",""time""
""fullscreenenter"",""0"",""3825""
","
","
","""event"",""trial"",""time""
""fullscreenenter"",""0"",""3825""
","
","null","<p></p>","null","","","","","","","","","","","","","","","","","","","","","","","",""
"","do_recog","116","380281","0.0-67.0-0.0","""event"",""trial"",""time""
""fullscreenenter"",""0"",""3825""
","
","
","""event"",""trial"",""time""
""fullscreenenter"",""0"",""3825""
","
","1575.2999992370605","","","","","","","","56","","","","278","probe-182","","","","","1","[object Object]","30","0","0","","","",""
"","html-keyboard-response","117","381297","0.0-67.0-1.0","""event"",""trial"",""time""
""fullscreenenter"",""0"",""3825""
","
","
","""event"",""trial"",""time""
""fullscreenenter"",""0"",""3825""
","
","null","<p></p>","null","","","","","","","","","","","","","","","","","","","","","","","",""
"","do_trial","118","384484","0.0-68.0-0.0","""event"",""trial"",""time""
""fullscreenenter"",""0"",""3825""
","
","
","""event"",""trial"",""time""
""fullscreenenter"",""0"",""3825""
","
","637.6000003814697","","","","","","","","51","1,0,0","6","blank","279","null","0.22076232756101077","0.6705518048686063","0.197624470774463","0","","","","","","","","",""
"","html-keyboard-response","119","385496","0.0-68.0-1.0","""event"",""trial"",""time""
""fullscreenenter"",""0"",""3825""
","
","
","""event"",""trial"",""time""
""fullscreenenter"",""0"",""3825""
","
","null","<p></p>","null","","","","","","","","","","","","","","","","","","","","","","","",""
"","do_trial","120","388701","0.0-69.0-0.0","""event"",""trial"",""time""
""fullscreenenter"",""0"",""3825""
","
","
","""event"",""trial"",""time""
""fullscreenenter"",""0"",""3825""
","
","653.6000003814697","","","","","","","","50","1,1,0","6","blank","280","null","0.3913222078200936","0.773288803865408","0.27552873167677433","1","","","","","","","","",""
"","html-keyboard-response","121","389713","0.0-69.0-1.0","""event"",""trial"",""time""
""fullscreenenter"",""0"",""3825""
","
","
","""event"",""trial"",""time""
""fullscreenenter"",""0"",""3825""
","
","null","<p></p>","null","","","","","","","","","","","","","","","","","","","","","","","",""
"","do_trial","122","392759","0.0-70.0-0.0","""event"",""trial"",""time""
""fullscreenenter"",""0"",""3825""
","
","
","""event"",""trial"",""time""
""fullscreenenter"",""0"",""3825""
","
","501.6000003814697","","","","","","","","50","1,0,0","6","blank","281","null","0.46005040647283096","0.7901759903904428","0.22559020966202376","0","","","","","","","","",""
"","html-keyboard-response","123","393764","0.0-70.0-1.0","""event"",""trial"",""time""
""fullscreenenter"",""0"",""3825""
","
","
","""event"",""trial"",""time""
""fullscreenenter"",""0"",""3825""
","
","null","<p></p>","null","","","","","","","","","","","","","","","","","","","","","","","",""
"","do_trial","124","397064","0.0-71.0-0.0","""event"",""trial"",""time""
""fullscreenenter"",""0"",""3825""
","
","
","""event"",""trial"",""time""
""fullscreenenter"",""0"",""3825""
","
","746.7999992370605","","","","","","","","49","0,0,0","6","blank","282","null","0.3701720715449481","0.6937087200348131","0.13232529892135075","0","","","","","","","","",""
"","html-keyboard-response","125","398080","0.0-71.0-1.0","""event"",""trial"",""time""
""fullscreenenter"",""0"",""3825""
","
","
","""event"",""trial"",""time""
""fullscreenenter"",""0"",""3825""
","
","null","<p></p>","null","","","","","","","","","","","","","","","","","","","","","","","",""
"","do_trial","126","401609","0.0-72.0-0.0","""event"",""trial"",""time""
""fullscreenenter"",""0"",""3825""
","
","
","""event"",""trial"",""time""
""fullscreenenter"",""0"",""3825""
","
","982.6999998092651","","","","","","","","50","1,1,1","6","blank","283","null","0.4083667253291989","0.6150887783429684","0.14434814807680457","1","","","","","","","","",""
"","html-keyboard-response","127","402615","0.0-72.0-1.0","""event"",""trial"",""time""
""fullscreenenter"",""0"",""3825""
","
","
","""event"",""trial"",""time""
""fullscreenenter"",""0"",""3825""
","
","null","<p></p>","null","","","","","","","","","","","","","","","","","","","","","","","",""
"","do_trial","128","405581","0.0-73.0-0.0","""event"",""trial"",""time""
""fullscreenenter"",""0"",""3825""
","
","
","""event"",""trial"",""time""
""fullscreenenter"",""0"",""3825""
","
","416.5","","","","","","","","50","0,0,1","6","blank","284","null","0.3745654404275537","0.6905851633395679","0.20272035382263048","0","","","","","","","","",""
"","html-keyboard-response","129","406596","0.0-73.0-1.0","""event"",""trial"",""time""
""fullscreenenter"",""0"",""3825""
","
","
","""event"",""trial"",""time""
""fullscreenenter"",""0"",""3825""
","
","null","<p></p>","null","","","","","","","","","","","","","","","","","","","","","","","",""
"","do_recog","130","409900","0.0-74.0-0.0","""event"",""trial"",""time""
""fullscreenenter"",""0"",""3825""
","
","
","""event"",""trial"",""time""
""fullscreenenter"",""0"",""3825""
","
","1784.1000003814697","","","","","","","","53","","","","285","probe-109","","","","","1","[object Object]","196","4","1","","","",""
"","html-keyboard-response","131","410913","0.0-74.0-1.0","""event"",""trial"",""time""
""fullscreenenter"",""0"",""3825""
","
","
","""event"",""trial"",""time""
""fullscreenenter"",""0"",""3825""
","
","null","<p></p>","null","","","","","","","","","","","","","","","","","","","","","","","",""
"","do_trial","132","414098","0.0-75.0-0.0","""event"",""trial"",""time""
""fullscreenenter"",""0"",""3825""
","
","
","""event"",""trial"",""time""
""fullscreenenter"",""0"",""3825""
","
","638.8999996185303","","","","","","","","50","1,1,0","6","blank","286","null","0.4203023347091777","0.5704423712080349","0.21223591769448888","1","","","","","","","","",""
"","html-keyboard-response","133","415101","0.0-75.0-1.0","""event"",""trial"",""time""
""fullscreenenter"",""0"",""3825""
","
","
","""event"",""trial"",""time""
""fullscreenenter"",""0"",""3825""
","
","null","<p></p>","null","","","","","","","","","","","","","","","","","","","","","","","",""
"","do_recog","134","417976","0.0-76.0-0.0","""event"",""trial"",""time""
""fullscreenenter"",""0"",""3825""
","
","
","""event"",""trial"",""time""
""fullscreenenter"",""0"",""3825""
","
","1367.5","","","","","","","","56","","","","287","probe-233","","","","","0","[object Object]","null","null","1","","","",""
"","html-keyboard-response","135","418984","0.0-76.0-1.0","""event"",""trial"",""time""
""fullscreenenter"",""0"",""3825""
","
","
","""event"",""trial"",""time""
""fullscreenenter"",""0"",""3825""
","
","null","<p></p>","null","","","","","","","","","","","","","","","","","","","","","","","",""
"","do_trial","136","421998","0.0-77.0-0.0","""event"",""trial"",""time""
""fullscreenenter"",""0"",""3825""
","
","
","""event"",""trial"",""time""
""fullscreenenter"",""0"",""3825""
","
","470.80000019073486","","","","","","","","50","0,1,0","6","blank","288","null","0.2703817721240684","0.6155915141559352","0.09778996309238851","1","","","","","","","","",""
"","html-keyboard-response","137","423012","0.0-77.0-1.0","""event"",""trial"",""time""
""fullscreenenter"",""0"",""3825""
","
","
","""event"",""trial"",""time""
""fullscreenenter"",""0"",""3825""
","
","null","<p></p>","null","","","","","","","","","","","","","","","","","","","","","","","",""
"","do_trial","138","426087","0.0-78.0-0.0","""event"",""trial"",""time""
""fullscreenenter"",""0"",""3825""
","
","
","""event"",""trial"",""time""
""fullscreenenter"",""0"",""3825""
","
","531.1000003814697","","","","","","","","50","0,1,0","6","blank","289","null","0.27713160122785124","0.583179361173976","0.28809068229893336","1","","","","","","","","",""
"","html-keyboard-response","139","427095","0.0-78.0-1.0","""event"",""trial"",""time""
""fullscreenenter"",""0"",""3825""
","
","
","""event"",""trial"",""time""
""fullscreenenter"",""0"",""3825""
","
","null","<p></p>","null","","","","","","","","","","","","","","","","","","","","","","","",""
"","do_recog","140","429867","0.0-79.0-0.0","""event"",""trial"",""time""
""fullscreenenter"",""0"",""3825""
","
","
","""event"",""trial"",""time""
""fullscreenenter"",""0"",""3825""
","
","1260.6000003814697","","","","","","","","56","","","","290","probe-76","","","","","1","[object Object]","192","4","0","","","",""
"","html-keyboard-response","141","430878","0.0-79.0-1.0","""event"",""trial"",""time""
""fullscreenenter"",""0"",""3825""
","
","
","""event"",""trial"",""time""
""fullscreenenter"",""0"",""3825""
","
","null","<p></p>","null","","","","","","","","","","","","","","","","","","","","","","","",""
"","do_trial","142","434007","0.0-80.0-0.0","""event"",""trial"",""time""
""fullscreenenter"",""0"",""3825""
","
","
","""event"",""trial"",""time""
""fullscreenenter"",""0"",""3825""
","
","584.6999998092651","","","","","","","","50","0,0,1","6","blank","291","null","0.33106751896356007","0.5225151771202338","0.10427784206331416","0","","","","","","","","",""
"","html-keyboard-response","143","435012","0.0-80.0-1.0","""event"",""trial"",""time""
""fullscreenenter"",""0"",""3825""
","
","
","""event"",""trial"",""time""
""fullscreenenter"",""0"",""3825""
","
","null","<p></p>","null","","","","","","","","","","","","","","","","","","","","","","","",""
"","do_trial","144","437948","0.0-81.0-0.0","""event"",""trial"",""time""
""fullscreenenter"",""0"",""3825""
","
","
","""event"",""trial"",""time""
""fullscreenenter"",""0"",""3825""
","
","390.79999923706055","","","","","","","","50","0,1,0","6","blank","292","null","0.2376628619223827","0.582522803374815","0.11219636762169465","1","","","","","","","","",""
"","html-keyboard-response","145","438962","0.0-81.0-1.0","""event"",""trial"",""time""
""fullscreenenter"",""0"",""3825""
","
","
","""event"",""trial"",""time""
""fullscreenenter"",""0"",""3825""
","
","null","<p></p>","null","","","","","","","","","","","","","","","","","","","","","","","",""
"","do_trial","146","442165","0.0-82.0-0.0","""event"",""trial"",""time""
""fullscreenenter"",""0"",""3825""
","
","
","""event"",""trial"",""time""
""fullscreenenter"",""0"",""3825""
","
","660.9000005722046","","","","","","","","50","1,1,0","6","blank","293","null","0.23777856439748374","0.6215263107632416","0.07284800215359072","1","","","","","","","","",""
"","html-keyboard-response","147","443179","0.0-82.0-1.0","""event"",""trial"",""time""
""fullscreenenter"",""0"",""3825""
","
","
","""event"",""trial"",""time""
""fullscreenenter"",""0"",""3825""
","
","null","<p></p>","null","","","","","","","","","","","","","","","","","","","","","","","",""
"","do_recog","148","445878","0.0-83.0-0.0","""event"",""trial"",""time""
""fullscreenenter"",""0"",""3825""
","
","
","""event"",""trial"",""time""
""fullscreenenter"",""0"",""3825""
","
","1185.3000001907349","","","","","","","","56","","","","294","probe-120","","","","","1","[object Object]","114","2","0","","","",""
"","html-keyboard-response","149","446894","0.0-83.0-1.0","""event"",""trial"",""time""
""fullscreenenter"",""0"",""3825""
","
","
","""event"",""trial"",""time""
""fullscreenenter"",""0"",""3825""
","
","null","<p></p>","null","","","","","","","","","","","","","","","","","","","","","","","",""
"","do_trial","150","449930","0.0-84.0-0.0","""event"",""trial"",""time""
""fullscreenenter"",""0"",""3825""
","
","
","""event"",""trial"",""time""
""fullscreenenter"",""0"",""3825""
","
","488","","","","","","","","50","0,1,0","6","blank","295","null","0.31582873981220316","0.5472368099926651","0.08077172500791661","1","","","","","","","","",""
"","html-keyboard-response","151","450944","0.0-84.0-1.0","""event"",""trial"",""time""
""fullscreenenter"",""0"",""3825""
","
","
","""event"",""trial"",""time""
""fullscreenenter"",""0"",""3825""
","
","null","<p></p>","null","","","","","","","","","","","","","","","","","","","","","","","",""
"","do_recog","152","453746","0.0-85.0-0.0","""event"",""trial"",""time""
""fullscreenenter"",""0"",""3825""
","
","
","""event"",""trial"",""time""
""fullscreenenter"",""0"",""3825""
","
","1291.5999994277954","","","","","","","","56","","","","296","probe-87","","","","","1","[object Object]","33","0","0","","","",""
"","html-keyboard-response","153","454759","0.0-85.0-1.0","""event"",""trial"",""time""
""fullscreenenter"",""0"",""3825""
","
","
","""event"",""trial"",""time""
""fullscreenenter"",""0"",""3825""
","
","null","<p></p>","null","","","","","","","","","","","","","","","","","","","","","","","",""
"","do_trial","154","457965","0.0-86.0-0.0","""event"",""trial"",""time""
""fullscreenenter"",""0"",""3825""
","
","
","""event"",""trial"",""time""
""fullscreenenter"",""0"",""3825""
","
","663","","","","","","","","50","1,0,0","6","blank","297","null","0.49994644401744076","0.5126213725728462","0.1012990829162018","0","","","","","","","","",""
"","html-keyboard-response","155","458976","0.0-86.0-1.0","""event"",""trial"",""time""
""fullscreenenter"",""0"",""3825""
","
","
","""event"",""trial"",""time""
""fullscreenenter"",""0"",""3825""
","
","null","<p></p>","null","","","","","","","","","","","","","","","","","","","","","","","",""
"","do_recog","156","461729","0.0-87.0-0.0","""event"",""trial"",""time""
""fullscreenenter"",""0"",""3825""
","
","
","""event"",""trial"",""time""
""fullscreenenter"",""0"",""3825""
","
","1244.7000007629395","","","","","","","","56","","","","298","probe-196","","","","","1","[object Object]","195","4","0","","","",""
"","html-keyboard-response","157","462730","0.0-87.0-1.0","""event"",""trial"",""time""
""fullscreenenter"",""0"",""3825""
","
","
","""event"",""trial"",""time""
""fullscreenenter"",""0"",""3825""
","
","null","<p></p>","null","","","","","","","","","","","","","","","","","","","","","","","",""
"","do_trial","158","466499","0.0-88.0-0.0","""event"",""trial"",""time""
""fullscreenenter"",""0"",""3825""
","
","
","""event"",""trial"",""time""
""fullscreenenter"",""0"",""3825""
","
","1220.6999998092651","","","","","","","","49","1,1,0","6","blank","299","null","0.46512278796582274","0.45956072325738706","0.16772955968180434","1","","","","","","","","",""
"","html-keyboard-response","159","467512","0.0-88.0-1.0","""event"",""trial"",""time""
""fullscreenenter"",""0"",""3825""
","
","
","""event"",""trial"",""time""
""fullscreenenter"",""0"",""3825""
","
","null","<p></p>","null","","","","","","","","","","","","","","","","","","","","","","","",""
"","do_recog","160","471179","0.0-89.0-0.0","""event"",""trial"",""time""
""fullscreenenter"",""0"",""3825""
","
","
","""event"",""trial"",""time""
""fullscreenenter"",""0"",""3825""
","
","2156.0999994277954","","","","","","","","53","","","","300","probe-213","","","","","1","[object Object]","112","2","1","","","",""
"","html-keyboard-response","161","472185","0.0-89.0-1.0","""event"",""trial"",""time""
""fullscreenenter"",""0"",""3825""
","
","
","""event"",""trial"",""time""
""fullscreenenter"",""0"",""3825""
","
","null","<p></p>","null","","","","","","","","","","","","","","","","","","","","","","","",""
"","do_trial","162","475723","0.0-90.0-0.0","""event"",""trial"",""time""
""fullscreenenter"",""0"",""3825""
","
","
","""event"",""trial"",""time""
""fullscreenenter"",""0"",""3825""
","
","981.1000003814697","","","","","","","","51","0,0,0","6","blank","301","null","0.45277152230892276","0.40999530950534663","0.13429285574220207","0","","","","","","","","",""
"","html-keyboard-response","163","476731","0.0-90.0-1.0","""event"",""trial"",""time""
""fullscreenenter"",""0"",""3825""
","
","
","""event"",""trial"",""time""
""fullscreenenter"",""0"",""3825""
","
","null","<p></p>","null","","","","","","","","","","","","","","","","","","","","","","","",""
"","do_recog","164","479587","0.0-91.0-0.0","""event"",""trial"",""time""
""fullscreenenter"",""0"",""3825""
","
","
","""event"",""trial"",""time""
""fullscreenenter"",""0"",""3825""
","
","1338.3000001907349","","","","","","","","56","","","","302","probe-52","","","","","1","[object Object]","115","2","0","","","",""
"","html-keyboard-response","165","480594","0.0-91.0-1.0","""event"",""trial"",""time""
""fullscreenenter"",""0"",""3825""
","
","
","""event"",""trial"",""time""
""fullscreenenter"",""0"",""3825""
","
","null","<p></p>","null","","","","","","","","","","","","","","","","","","","","","","","",""
"","do_trial","166","483731","0.0-92.0-0.0","""event"",""trial"",""time""
""fullscreenenter"",""0"",""3825""
","
","
","""event"",""trial"",""time""
""fullscreenenter"",""0"",""3825""
","
","590.3999996185303","","","","","","","","50","0,1,0","6","blank","303","null","0.48082702275760986","0.42230699409365585","0.053408520858504394","1","","","","","","","","",""
"","html-keyboard-response","167","484744","0.0-92.0-1.0","""event"",""trial"",""time""
""fullscreenenter"",""0"",""3825""
","
","
","""event"",""trial"",""time""
""fullscreenenter"",""0"",""3825""
","
","null","<p></p>","null","","","","","","","","","","","","","","","","","","","","","","","",""
"","do_trial","168","487964","0.0-93.0-0.0","""event"",""trial"",""time""
""fullscreenenter"",""0"",""3825""
","
","
","""event"",""trial"",""time""
""fullscreenenter"",""0"",""3825""
","
","671.6000003814697","","","","","","","","50","0,0,0","6","blank","304","null","0.6370521264047656","0.5018703433733666","0.0896386058080228","0","","","","","","","","",""
"","html-keyboard-response","169","488980","0.0-93.0-1.0","""event"",""trial"",""time""
""fullscreenenter"",""0"",""3825""
","
","
","""event"",""trial"",""time""
""fullscreenenter"",""0"",""3825""
","
","null","<p></p>","null","","","","","","","","","","","","","","","","","","","","","","","",""
"","do_trial","170","492559","0.0-94.0-0.0","""event"",""trial"",""time""
""fullscreenenter"",""0"",""3825""
","
","
","""event"",""trial"",""time""
""fullscreenenter"",""0"",""3825""
","
","1035.6999998092651","","","","","","","","49","1,1,0","6","blank","305","null","0.6632329267867673","0.3543382584316096","0.06544618867252643","1","","","","","","","","",""
"","html-keyboard-response","171","493565","0.0-94.0-1.0","""event"",""trial"",""time""
""fullscreenenter"",""0"",""3825""
","
","
","""event"",""trial"",""time""
""fullscreenenter"",""0"",""3825""
","
","null","<p></p>","null","","","","","","","","","","","","","","","","","","","","","","","",""
"","do_trial","172","496635","0.0-95.0-0.0","""event"",""trial"",""time""
""fullscreenenter"",""0"",""3825""
","
","
","""event"",""trial"",""time""
""fullscreenenter"",""0"",""3825""
","
","521.4000005722046","","","","","","","","51","1,1,1","6","blank","306","null","0.6088574029692089","0.4310068956053183","0.15665193448113554","1","","","","","","","","",""
"","html-keyboard-response","173","497647","0.0-95.0-1.0","""event"",""trial"",""time""
""fullscreenenter"",""0"",""3825""
","
","
","""event"",""trial"",""time""
""fullscreenenter"",""0"",""3825""
","
","null","<p></p>","null","","","","","","","","","","","","","","","","","","","","","","","",""
"","do_trial","174","500897","0.0-96.0-0.0","""event"",""trial"",""time""
""fullscreenenter"",""0"",""3825""
","
","
","""event"",""trial"",""time""
""fullscreenenter"",""0"",""3825""
","
","705","","","","","","","","50","0,0,1","6","blank","307","null","0.4686109857996763","0.5345666013562921","0.13238756970546692","0","","","","","","","","",""
"","html-keyboard-response","175","501898","0.0-96.0-1.0","""event"",""trial"",""time""
""fullscreenenter"",""0"",""3825""
","
","
","""event"",""trial"",""time""
""fullscreenenter"",""0"",""3825""
","
","null","<p></p>","null","","","","","","","","","","","","","","","","","","","","","","","",""
"","do_trial","176","504931","0.0-97.0-0.0","""event"",""trial"",""time""
""fullscreenenter"",""0"",""3825""
","
","
","""event"",""trial"",""time""
""fullscreenenter"",""0"",""3825""
","
","477.20000076293945","","","","","","","","49","1,0,0","6","blank","308","null","0.4410751605887508","0.35927311299702747","0.10414896835344123","1","","","","","","","","",""
"","html-keyboard-response","177","505944","0.0-97.0-1.0","""event"",""trial"",""time""
""fullscreenenter"",""0"",""3825""
","
","
","""event"",""trial"",""time""
""fullscreenenter"",""0"",""3825""
","
","null","<p></p>","null","","","","","","","","","","","","","","","","","","","","","","","",""
"","break","178","510297","0.0-98.0-0.0","""event"",""trial"",""time""
""fullscreenenter"",""0"",""3825""
","
","
","""event"",""trial"",""time""
""fullscreenenter"",""0"",""3825""
","
","4352.300000190735","<div class='center'><p>Time to take a quick break! You have 2 minutes to rest, but you can move on sooner if you'd like.</p><p> Press the <b>space bar</b> to continue.</p></div>","32","","","","","","","","","","","","","","","","","","","","","","","",""
"","do_recog","179","513782","0.0-98.0-1.0","""event"",""trial"",""time""
""fullscreenenter"",""0"",""3825""
","
","
","""event"",""trial"",""time""
""fullscreenenter"",""0"",""3825""
","
","1972.1000003814697","","","","","","","","56","","","","309","probe-06","","","","","1","[object Object]","155","3","0","","","",""
"","html-keyboard-response","180","514798","0.0-98.0-2.0","""event"",""trial"",""time""
""fullscreenenter"",""0"",""3825""
","
","
","""event"",""trial"",""time""
""fullscreenenter"",""0"",""3825""
","
","null","<p></p>","null","","","","","","","","","","","","","","","","","","","","","","","",""
"","do_trial","181","518307","0.0-99.0-0.0","""event"",""trial"",""time""
""fullscreenenter"",""0"",""3825""
","
","
","""event"",""trial"",""time""
""fullscreenenter"",""0"",""3825""
","
","953.0999994277954","","","","","","","","49","1,1,0","6","blank","310","null","0.49157824095916214","0.4183066357797794","0.15444640821857628","1","","","","","","","","",""
"","html-keyboard-response","182","519310","0.0-99.0-1.0","""event"",""trial"",""time""
""fullscreenenter"",""0"",""3825""
","
","
","""event"",""trial"",""time""
""fullscreenenter"",""0"",""3825""
","
","null","<p></p>","null","","","","","","","","","","","","","","","","","","","","","","","",""
"","do_recog","183","522008","0.0-100.0-0.0","""event"",""trial"",""time""
""fullscreenenter"",""0"",""3825""
","
","
","""event"",""trial"",""time""
""fullscreenenter"",""0"",""3825""
","
","1183.1999998092651","","","","","","","","56","","","","311","probe-98","","","","","1","[object Object]","78","1","0","","","",""
"","html-keyboard-response","184","523011","0.0-100.0-1.0","""event"",""trial"",""time""
""fullscreenenter"",""0"",""3825""
","
","
","""event"",""trial"",""time""
""fullscreenenter"",""0"",""3825""
","
","null","<p></p>","null","","","","","","","","","","","","","","","","","","","","","","","",""
"","do_trial","185","526284","0.0-101.0-0.0","""event"",""trial"",""time""
""fullscreenenter"",""0"",""3825""
","
","
","""event"",""trial"",""time""
""fullscreenenter"",""0"",""3825""
","
","724.6000003814697","","","","","","","","50","0,1,1","6","blank","312","null","0.48252686923643057","0.47878881893547875","0.16301172204610173","1","","","","","","","","",""
"","html-keyboard-response","186","527300","0.0-101.0-1.0","""event"",""trial"",""time""
""fullscreenenter"",""0"",""3825""
","
","
","""event"",""trial"",""time""
""fullscreenenter"",""0"",""3825""
","
","null","<p></p>","null","","","","","","","","","","","","","","","","","","","","","","","",""
"","do_trial","187","530514","0.0-102.0-0.0","""event"",""trial"",""time""
""fullscreenenter"",""0"",""3825""
","
","
","""event"",""trial"",""time""
""fullscreenenter"",""0"",""3825""
","
","660.8000001907349","","","","","","","","50","1,1,0","6","blank","313","null","0.5795779736290458","0.38304692783497507","0.101613411808829","1","","","","","","","","",""
"","html-keyboard-response","188","531522","0.0-102.0-1.0","""event"",""trial"",""time""
""fullscreenenter"",""0"",""3825""
","
","
","""event"",""trial"",""time""
""fullscreenenter"",""0"",""3825""
","
","null","<p></p>","null","","","","","","","","","","","","","","","","","","","","","","","",""
"","do_trial","189","534831","0.0-103.0-0.0","""event"",""trial"",""time""
""fullscreenenter"",""0"",""3825""
","
","
","""event"",""trial"",""time""
""fullscreenenter"",""0"",""3825""
","
","755.6000003814697","","","","","","","","50","1,1,0","6","blank","314","null","0.5150432979688072","0.3381952051969468","0.07690599699166645","1","","","","","","","","",""
"","html-keyboard-response","190","535836","0.0-103.0-1.0","""event"",""trial"",""time""
""fullscreenenter"",""0"",""3825""
","
","
","""event"",""trial"",""time""
""fullscreenenter"",""0"",""3825""
","
","null","<p></p>","null","","","","","","","","","","","","","","","","","","","","","","","",""
"","do_trial","191","539098","0.0-104.0-0.0","""event"",""trial"",""time""
""fullscreenenter"",""0"",""3825""
","
","
","""event"",""trial"",""time""
""fullscreenenter"",""0"",""3825""
","
","715.3000001907349","","","","","","","","50","1,0,0","6","blank","315","null","0.6899984121484025","0.32424744470924516","0.13593953865777553","0","","","","","","","","",""
"","html-keyboard-response","192","540109","0.0-104.0-1.0","""event"",""trial"",""time""
""fullscreenenter"",""0"",""3825""
","
","
","""event"",""trial"",""time""
""fullscreenenter"",""0"",""3825""
","
","null","<p></p>","null","","","","","","","","","","","","","","","","","","","","","","","",""
"","do_recog","193","543028","0.0-105.0-0.0","""event"",""trial"",""time""
""fullscreenenter"",""0"",""3825""
","
","
","""event"",""trial"",""time""
""fullscreenenter"",""0"",""3825""
","
","1399.8000001907349","","","","","","","","56","","","","316","probe-249","","","","","0","[object Object]","null","null","1","","","",""
"","html-keyboard-response","194","544045","0.0-105.0-1.0","""event"",""trial"",""time""
""fullscreenenter"",""0"",""3825""
","
","
","""event"",""trial"",""time""
""fullscreenenter"",""0"",""3825""
","
","null","<p></p>","null","","","","","","","","","","","","","","","","","","","","","","","",""
"","do_trial","195","547020","0.0-106.0-0.0","""event"",""trial"",""time""
""fullscreenenter"",""0"",""3825""
","
","
","""event"",""trial"",""time""
""fullscreenenter"",""0"",""3825""
","
","419","","","","","","","","50","1,0,0","6","blank","317","null","0.6732791226913176","0.3362755139919169","0.15105350959892994","0","","","","","","","","",""
"","html-keyboard-response","196","548029","0.0-106.0-1.0","""event"",""trial"",""time""
""fullscreenenter"",""0"",""3825""
","
","
","""event"",""trial"",""time""
""fullscreenenter"",""0"",""3825""
","
","null","<p></p>","null","","","","","","","","","","","","","","","","","","","","","","","",""
"","do_trial","197","550964","0.0-107.0-0.0","""event"",""trial"",""time""
""fullscreenenter"",""0"",""3825""
","
","
","""event"",""trial"",""time""
""fullscreenenter"",""0"",""3825""
","
","378.0999994277954","","","","","","","","51","0,1,0","6","blank","318","null","0.5687890969937339","0.27048717792870813","0.1164512642801702","0","","","","","","","","",""
"","html-keyboard-response","198","551978","0.0-107.0-1.0","""event"",""trial"",""time""
""fullscreenenter"",""0"",""3825""
","
","
","""event"",""trial"",""time""
""fullscreenenter"",""0"",""3825""
","
","null","<p></p>","null","","","","","","","","","","","","","","","","","","","","","","","",""
"","do_trial","199","556098","0.0-108.0-0.0","""event"",""trial"",""time""
""fullscreenenter"",""0"",""3825""
","
","
","""event"",""trial"",""time""
""fullscreenenter"",""0"",""3825""
","
","1573","","","","","","","","49","0,0,0","6","blank","319","null","0.5292914191518419","0.29754978383772096","0.19225028319501938","0","","","","","","","","",""
"","html-keyboard-response","200","557114","0.0-108.0-1.0","""event"",""trial"",""time""
""fullscreenenter"",""0"",""3825""
","
","
","""event"",""trial"",""time""
""fullscreenenter"",""0"",""3825""
","
","null","<p></p>","null","","","","","","","","","","","","","","","","","","","","","","","",""
"","do_recog","201","559905","0.0-109.0-0.0","""event"",""trial"",""time""
""fullscreenenter"",""0"",""3825""
","
","
","""event"",""trial"",""time""
""fullscreenenter"",""0"",""3825""
","
","1282.8999996185303","","","","","","","","56","","","","320","probe-167","","","","","1","[object Object]","70","1","0","","","",""
"","html-keyboard-response","202","560913","0.0-109.0-1.0","""event"",""trial"",""time""
""fullscreenenter"",""0"",""3825""
","
","
","""event"",""trial"",""time""
""fullscreenenter"",""0"",""3825""
","
","null","<p></p>","null","","","","","","","","","","","","","","","","","","","","","","","",""
"","do_trial","203","564207","0.0-110.0-0.0","""event"",""trial"",""time""
""fullscreenenter"",""0"",""3825""
","
","
","""event"",""trial"",""time""
""fullscreenenter"",""0"",""3825""
","
","750.1000003814697","","","","","","","","51","1,0,0","6","blank","321","null","0.5461235616131269","0.39148368698980307","0.27284765618015616","0","","","","","","","","",""
"","html-keyboard-response","204","565213","0.0-110.0-1.0","""event"",""trial"",""time""
""fullscreenenter"",""0"",""3825""
","
","
","""event"",""trial"",""time""
""fullscreenenter"",""0"",""3825""
","
","null","<p></p>","null","","","","","","","","","","","","","","","","","","","","","","","",""
"","do_trial","205","568280","0.0-111.0-0.0","""event"",""trial"",""time""
""fullscreenenter"",""0"",""3825""
","
","
","""event"",""trial"",""time""
""fullscreenenter"",""0"",""3825""
","
","514.5","","","","","","","","50","0,1,0","6","blank","322","null","0.4746555721836957","0.41932170556627674","0.2166435409510736","1","","","","","","","","",""
"","html-keyboard-response","206","569287","0.0-111.0-1.0","""event"",""trial"",""time""
""fullscreenenter"",""0"",""3825""
","
","
","""event"",""trial"",""time""
""fullscreenenter"",""0"",""3825""
","
","null","<p></p>","null","","","","","","","","","","","","","","","","","","","","","","","",""
"","do_recog","207","572030","0.0-112.0-0.0","""event"",""trial"",""time""
""fullscreenenter"",""0"",""3825""
","
","
","""event"",""trial"",""time""
""fullscreenenter"",""0"",""3825""
","
","1229.2000007629395","","","","","","","","56","","","","323","probe-55","","","","","1","[object Object]","154","3","0","","","",""
"","html-keyboard-response","208","573046","0.0-112.0-1.0","""event"",""trial"",""time""
""fullscreenenter"",""0"",""3825""
","
","
","""event"",""trial"",""time""
""fullscreenenter"",""0"",""3825""
","
","null","<p></p>","null","","","","","","","","","","","","","","","","","","","","","","","",""
"","do_trial","209","576316","0.0-113.0-0.0","""event"",""trial"",""time""
""fullscreenenter"",""0"",""3825""
","
","
","""event"",""trial"",""time""
""fullscreenenter"",""0"",""3825""
","
","717.6000003814697","","","","","","","","50","1,0,0","6","blank","324","null","0.5939378915810631","0.16113933683359843","0.2511705968163491","0","","","","","","","","",""
"","html-keyboard-response","210","577331","0.0-113.0-1.0","""event"",""trial"",""time""
""fullscreenenter"",""0"",""3825""
","
","
","""event"",""trial"",""time""
""fullscreenenter"",""0"",""3825""
","
","null","<p></p>","null","","","","","","","","","","","","","","","","","","","","","","","",""
"","do_recog","211","580580","0.0-114.0-0.0","""event"",""trial"",""time""
""fullscreenenter"",""0"",""3825""
","
","
","""event"",""trial"",""time""
""fullscreenenter"",""0"",""3825""
","
","1737","","","","","","","","53","","","","325","probe-40","","","","","1","[object Object]","39","0","1","","","",""
"","html-keyboard-response","212","581583","0.0-114.0-1.0","""event"",""trial"",""time""
""fullscreenenter"",""0"",""3825""
","
","
","""event"",""trial"",""time""
""fullscreenenter"",""0"",""3825""
","
","null","<p></p>","null","","","","","","","","","","","","","","","","","","","","","","","",""
"","do_trial","213","584940","0.0-115.0-0.0","""event"",""trial"",""time""
""fullscreenenter"",""0"",""3825""
","
","
","""event"",""trial"",""time""
""fullscreenenter"",""0"",""3825""
","
","801.4000005722046","","","","","","","","50","0,0,0","6","blank","326","null","0.5537758923015733","0.13725702784967744","0.28098237730975467","0","","","","","","","","",""
"","html-keyboard-response","214","585946","0.0-115.0-1.0","""event"",""trial"",""time""
""fullscreenenter"",""0"",""3825""
","
","
","""event"",""trial"",""time""
""fullscreenenter"",""0"",""3825""
","
","null","<p></p>","null","","","","","","","","","","","","","","","","","","","","","","","",""
"","do_trial","215","589209","0.0-116.0-0.0","""event"",""trial"",""time""
""fullscreenenter"",""0"",""3825""
","
","
","""event"",""trial"",""time""
""fullscreenenter"",""0"",""3825""
","
","709.3000001907349","","","","","","","","50","0,1,0","6","blank","327","null","0.6502723603671428","0.11033616297705595","0.18858084038173487","1","","","","","","","","",""
"","html-keyboard-response","216","590215","0.0-116.0-1.0","""event"",""trial"",""time""
""fullscreenenter"",""0"",""3825""
","
","
","""event"",""trial"",""time""
""fullscreenenter"",""0"",""3825""
","
","null","<p></p>","null","","","","","","","","","","","","","","","","","","","","","","","",""
"","do_trial","217","593282","0.0-117.0-0.0","""event"",""trial"",""time""
""fullscreenenter"",""0"",""3825""
","
","
","""event"",""trial"",""time""
""fullscreenenter"",""0"",""3825""
","
","515.4000005722046","","","","","","","","50","1,0,0","6","blank","328","null","0.5856619174770527","0.3303061224218494","0.09921008556546418","0","","","","","","","","",""
"","html-keyboard-response","218","594287","0.0-117.0-1.0","""event"",""trial"",""time""
""fullscreenenter"",""0"",""3825""
","
","
","""event"",""trial"",""time""
""fullscreenenter"",""0"",""3825""
","
","null","<p></p>","null","","","","","","","","","","","","","","","","","","","","","","","",""
"","do_trial","219","597214","0.0-118.0-0.0","""event"",""trial"",""time""
""fullscreenenter"",""0"",""3825""
","
","
","""event"",""trial"",""time""
""fullscreenenter"",""0"",""3825""
","
","381.70000076293945","","","","","","","","50","1,0,0","6","blank","329","null","0.6407635671177195","0.3019548328239742","0.12609343917996926","0","","","","","","","","",""
"","html-keyboard-response","220","598220","0.0-118.0-1.0","""event"",""trial"",""time""
""fullscreenenter"",""0"",""3825""
","
","
","""event"",""trial"",""time""
""fullscreenenter"",""0"",""3825""
","
","null","<p></p>","null","","","","","","","","","","","","","","","","","","","","","","","",""
"","do_recog","221","601003","0.0-119.0-0.0","""event"",""trial"",""time""
""fullscreenenter"",""0"",""3825""
","
","
","""event"",""trial"",""time""
""fullscreenenter"",""0"",""3825""
","
","1265","","","","","","","","56","","","","330","probe-228","","","","","1","[object Object]","75","1","0","","","",""
"","html-keyboard-response","222","602014","0.0-119.0-1.0","""event"",""trial"",""time""
""fullscreenenter"",""0"",""3825""
","
","
","""event"",""trial"",""time""
""fullscreenenter"",""0"",""3825""
","
","null","<p></p>","null","","","","","","","","","","","","","","","","","","","","","","","",""
"","do_trial","223","605272","0.0-120.0-0.0","""event"",""trial"",""time""
""fullscreenenter"",""0"",""3825""
","
","
","""event"",""trial"",""time""
""fullscreenenter"",""0"",""3825""
","
","707.1999998092651","","","","","","","","49","1,0,0","6","blank","331","null","0.7723741499520014","0.3025258086654472","0.051701715919313676","1","","","","","","","","",""
"","html-keyboard-response","224","606280","0.0-120.0-1.0","""event"",""trial"",""time""
""fullscreenenter"",""0"",""3825""
","
","
","""event"",""trial"",""time""
""fullscreenenter"",""0"",""3825""
","
","null","<p></p>","null","","","","","","","","","","","","","","","","","","","","","","","",""
"","do_trial","225","609617","0.0-121.0-0.0","""event"",""trial"",""time""
""fullscreenenter"",""0"",""3825""
","
","
","""event"",""trial"",""time""
""fullscreenenter"",""0"",""3825""
","
","781.5","","","","","","","","51","1,0,0","6","blank","332","null","0.8053121447963288","0.1803323102858369","0.17991648714777433","0","","","","","","","","",""
"","html-keyboard-response","226","610630","0.0-121.0-1.0","""event"",""trial"",""time""
""fullscreenenter"",""0"",""3825""
","
","
","""event"",""trial"",""time""
""fullscreenenter"",""0"",""3825""
","
","null","<p></p>","null","","","","","","","","","","","","","","","","","","","","","","","",""
"","do_recog","227","613447","0.0-122.0-0.0","""event"",""trial"",""time""
""fullscreenenter"",""0"",""3825""
","
","
","""event"",""trial"",""time""
""fullscreenenter"",""0"",""3825""
","
","1302.5","","","","","","","","56","","","","333","probe-223","","","","","1","[object Object]","36","0","0","","","",""
"","html-keyboard-response","228","614461","0.0-122.0-1.0","""event"",""trial"",""time""
""fullscreenenter"",""0"",""3825""
","
","
","""event"",""trial"",""time""
""fullscreenenter"",""0"",""3825""
","
","null","<p></p>","null","","","","","","","","","","","","","","","","","","","","","","","",""
"","do_trial","229","617332","0.0-123.0-0.0","""event"",""trial"",""time""
""fullscreenenter"",""0"",""3825""
","
","
","""event"",""trial"",""time""
""fullscreenenter"",""0"",""3825""
","
","312.5","","","","","","","","50","1,0,0","6","blank","334","null","0.7213506264881866","0.17749294479174665","0.11149595406357753","0","","","","","","","","",""
"","html-keyboard-response","230","618348","0.0-123.0-1.0","""event"",""trial"",""time""
""fullscreenenter"",""0"",""3825""
","
","
","""event"",""trial"",""time""
""fullscreenenter"",""0"",""3825""
","
","null","<p></p>","null","","","","","","","","","","","","","","","","","","","","","","","",""
"","do_trial","231","621515","0.0-124.0-0.0","""event"",""trial"",""time""
""fullscreenenter"",""0"",""3825""
","
","
","""event"",""trial"",""time""
""fullscreenenter"",""0"",""3825""
","
","606.3999996185303","","","","","","","","49","1,0,0","6","blank","335","null","0.8172775724102533","0.2603489900785086","0.1434191115919897","1","","","","","","","","",""
"","html-keyboard-response","232","622531","0.0-124.0-1.0","""event"",""trial"",""time""
""fullscreenenter"",""0"",""3825""
","
","
","""event"",""trial"",""time""
""fullscreenenter"",""0"",""3825""
","
","null","<p></p>","null","","","","","","","","","","","","","","","","","","","","","","","",""
"","do_recog","233","625516","0.0-125.0-0.0","""event"",""trial"",""time""
""fullscreenenter"",""0"",""3825""
","
","
","""event"",""trial"",""time""
""fullscreenenter"",""0"",""3825""
","
","1474.5","","","","","","","","56","","","","336","probe-33","","","","","1","[object Object]","32","0","0","","","",""
"","html-keyboard-response","234","626527","0.0-125.0-1.0","""event"",""trial"",""time""
""fullscreenenter"",""0"",""3825""
","
","
","""event"",""trial"",""time""
""fullscreenenter"",""0"",""3825""
","
","null","<p></p>","null","","","","","","","","","","","","","","","","","","","","","","","",""
"","do_trial","235","629689","0.0-126.0-0.0","""event"",""trial"",""time""
""fullscreenenter"",""0"",""3825""
","
","
","""event"",""trial"",""time""
""fullscreenenter"",""0"",""3825""
","
","609.1999998092651","","","","","","","","50","0,0,1","6","blank","337","null","0.6879362255109388","0.2422600899742907","0.16683402659891283","0","","","","","","","","",""
"","html-keyboard-response","236","630697","0.0-126.0-1.0","""event"",""trial"",""time""
""fullscreenenter"",""0"",""3825""
","
","
","""event"",""trial"",""time""
""fullscreenenter"",""0"",""3825""
","
","null","<p></p>","null","","","","","","","","","","","","","","","","","","","","","","","",""
"","do_recog","237","633797","0.0-127.0-0.0","""event"",""trial"",""time""
""fullscreenenter"",""0"",""3825""
","
","
","""event"",""trial"",""time""
""fullscreenenter"",""0"",""3825""
","
","1588.5999994277954","","","","","","","","53","","","","338","probe-26","","","","","1","[object Object]","198","4","1","","","",""
"","html-keyboard-response","238","634813","0.0-127.0-1.0","""event"",""trial"",""time""
""fullscreenenter"",""0"",""3825""
","
","
","""event"",""trial"",""time""
""fullscreenenter"",""0"",""3825""
","
","null","<p></p>","null","","","","","","","","","","","","","","","","","","","","","","","",""
"","do_trial","239","637832","0.0-128.0-0.0","""event"",""trial"",""time""
""fullscreenenter"",""0"",""3825""
","
","
","""event"",""trial"",""time""
""fullscreenenter"",""0"",""3825""
","
","474.30000019073486","","","","","","","","51","1,0,0","6","blank","339","null","0.7539754107159738","0.24217996798900512","0.20376382372065574","0","","","","","","","","",""
"","html-keyboard-response","240","638848","0.0-128.0-1.0","""event"",""trial"",""time""
""fullscreenenter"",""0"",""3825""
","
","
","""event"",""trial"",""time""
""fullscreenenter"",""0"",""3825""
","
","null","<p></p>","null","","","","","","","","","","","","","","","","","","","","","","","",""
"","do_trial","241","641996","0.0-129.0-0.0","""event"",""trial"",""time""
""fullscreenenter"",""0"",""3825""
","
","
","""event"",""trial"",""time""
""fullscreenenter"",""0"",""3825""
","
","591.3000001907349","","","","","","","","49","1,0,0","6","blank","340","null","0.6801983961034793","0.3337862342489907","0.14985334072410977","1","","","","","","","","",""
"","html-keyboard-response","242","642998","0.0-129.0-1.0","""event"",""trial"",""time""
""fullscreenenter"",""0"",""3825""
","
","
","""event"",""trial"",""time""
""fullscreenenter"",""0"",""3825""
","
","null","<p></p>","null","","","","","","","","","","","","","","","","","","","","","","","",""
"","do_trial","243","646031","0.0-130.0-0.0","""event"",""trial"",""time""
""fullscreenenter"",""0"",""3825""
","
","
","""event"",""trial"",""time""
""fullscreenenter"",""0"",""3825""
","
","481.69999980926514","","","","","","","","50","0,0,1","6","blank","341","null","0.48196232738054634","0.3660173877631276","0.24181170051587988","0","","","","","","","","",""
"","html-keyboard-response","244","647047","0.0-130.0-1.0","""event"",""trial"",""time""
""fullscreenenter"",""0"",""3825""
","
","
","""event"",""trial"",""time""
""fullscreenenter"",""0"",""3825""
","
","null","<p></p>","null","","","","","","","","","","","","","","","","","","","","","","","",""
"","do_recog","245","650028","0.0-131.0-0.0","""event"",""trial"",""time""
""fullscreenenter"",""0"",""3825""
","
","
","""event"",""trial"",""time""
""fullscreenenter"",""0"",""3825""
","
","1461.7000007629395","","","","","","","","56","","","","342","probe-193","","","","","1","[object Object]","118","2","0","","","",""
"","html-keyboard-response","246","651031","0.0-131.0-1.0","""event"",""trial"",""time""
""fullscreenenter"",""0"",""3825""
","
","
","""event"",""trial"",""time""
""fullscreenenter"",""0"",""3825""
","
","null","<p></p>","null","","","","","","","","","","","","","","","","","","","","","","","",""
"","do_trial","247","654258","0.0-132.0-0.0","""event"",""trial"",""time""
""fullscreenenter"",""0"",""3825""
","
","
","""event"",""trial"",""time""
""fullscreenenter"",""0"",""3825""
","
","679.3000001907349","","","","","","","","50","0,1,0","6","blank","343","null","0.5362819716684725","0.31758171875083174","0.10004337742521974","1","","","","","","","","",""
"","html-keyboard-response","248","655263","0.0-132.0-1.0","""event"",""trial"",""time""
""fullscreenenter"",""0"",""3825""
","
","
","""event"",""trial"",""time""
""fullscreenenter"",""0"",""3825""
","
","null","<p></p>","null","","","","","","","","","","","","","","","","","","","","","","","",""
"","do_trial","249","658618","0.0-133.0-0.0","""event"",""trial"",""time""
""fullscreenenter"",""0"",""3825""
","
","
","""event"",""trial"",""time""
""fullscreenenter"",""0"",""3825""
","
","808.1999998092651","","","","","","","","50","1,0,1","6","blank","344","null","0.5636495535497955","0.27299278728321696","0.21157587741849967","0","","","","","","","","",""
"","html-keyboard-response","250","659630","0.0-133.0-1.0","""event"",""trial"",""time""
""fullscreenenter"",""0"",""3825""
","
","
","""event"",""trial"",""time""
""fullscreenenter"",""0"",""3825""
","
","null","<p></p>","null","","","","","","","","","","","","","","","","","","","","","","","",""
"","do_recog","251","662580","0.0-134.0-0.0","""event"",""trial"",""time""
""fullscreenenter"",""0"",""3825""
","
","
","""event"",""trial"",""time""
""fullscreenenter"",""0"",""3825""
","
","1438.8000001907349","","","","","","","","53","","","","345","probe-93","","","","","1","[object Object]","31","0","1","","","",""
"","html-keyboard-response","252","663587","0.0-134.0-1.0","""event"",""trial"",""time""
""fullscreenenter"",""0"",""3825""
","
","
","""event"",""trial"",""time""
""fullscreenenter"",""0"",""3825""
","
","null","<p></p>","null","","","","","","","","","","","","","","","","","","","","","","","",""
"","do_trial","253","666728","0.0-135.0-0.0","""event"",""trial"",""time""
""fullscreenenter"",""0"",""3825""
","
","
","""event"",""trial"",""time""
""fullscreenenter"",""0"",""3825""
","
","596","","","","","","","","50","1,1,0","6","blank","346","null","0.38581596008324776","0.4296918248374029","0.23983303620091942","1","","","","","","","","",""
"","html-keyboard-response","254","667731","0.0-135.0-1.0","""event"",""trial"",""time""
""fullscreenenter"",""0"",""3825""
","
","
","""event"",""trial"",""time""
""fullscreenenter"",""0"",""3825""
","
","null","<p></p>","null","","","","","","","","","","","","","","","","","","","","","","","",""
"","do_trial","255","670966","0.0-136.0-0.0","""event"",""trial"",""time""
""fullscreenenter"",""0"",""3825""
","
","
","""event"",""trial"",""time""
""fullscreenenter"",""0"",""3825""
","
","691.6999998092651","","","","","","","","50","0,0,0","6","blank","347","null","0.4903311827937502","0.26900462002059816","0.10534225400394047","0","","","","","","","","",""
"","html-keyboard-response","256","671980","0.0-136.0-1.0","""event"",""trial"",""time""
""fullscreenenter"",""0"",""3825""
","
","
","""event"",""trial"",""time""
""fullscreenenter"",""0"",""3825""
","
","null","<p></p>","null","","","","","","","","","","","","","","","","","","","","","","","",""
"","do_trial","257","675248","0.0-137.0-0.0","""event"",""trial"",""time""
""fullscreenenter"",""0"",""3825""
","
","
","""event"",""trial"",""time""
""fullscreenenter"",""0"",""3825""
","
","715.7999992370605","","","","","","","","49","1,0,0","6","blank","348","null","0.6120159337033588","0.11405304588842896","0.14034588959802463","1","","","","","","","","",""
"","html-keyboard-response","258","676263","0.0-137.0-1.0","""event"",""trial"",""time""
""fullscreenenter"",""0"",""3825""
","
","
","""event"",""trial"",""time""
""fullscreenenter"",""0"",""3825""
","
","null","<p></p>","null","","","","","","","","","","","","","","","","","","","","","","","",""
"","break","259","678232","0.0-138.0-0.0","""event"",""trial"",""time""
""fullscreenenter"",""0"",""3825""
","
","
","""event"",""trial"",""time""
""fullscreenenter"",""0"",""3825""
","
","1968.0999994277954","<div class='center'><p>Time to take a quick break! You have 2 minutes to rest, but you can move on sooner if you'd like.</p><p> Press the <b>space bar</b> to continue.</p></div>","32","","","","","","","","","","","","","","","","","","","","","","","",""
"","do_trial","260","681734","0.0-138.0-1.0","""event"",""trial"",""time""
""fullscreenenter"",""0"",""3825""
","
","
","""event"",""trial"",""time""
""fullscreenenter"",""0"",""3825""
","
","950.8000001907349","","","","","","","","50","1,0,0","6","blank","349","null","0.6653828810497704","0.19497213528853188","0.08717859186427365","0","","","","","","","","",""
"","html-keyboard-response","261","682747","0.0-138.0-2.0","""event"",""trial"",""time""
""fullscreenenter"",""0"",""3825""
","
","
","""event"",""trial"",""time""
""fullscreenenter"",""0"",""3825""
","
","null","<p></p>","null","","","","","","","","","","","","","","","","","","","","","","","",""
"","do_recog","262","685713","0.0-139.0-0.0","""event"",""trial"",""time""
""fullscreenenter"",""0"",""3825""
","
","
","""event"",""trial"",""time""
""fullscreenenter"",""0"",""3825""
","
","1450.1000003814697","","","","","","","","53","","","","350","probe-44","","","","","1","[object Object]","79","1","1","","","",""
"","html-keyboard-response","263","686730","0.0-139.0-1.0","""event"",""trial"",""time""
""fullscreenenter"",""0"",""3825""
","
","
","""event"",""trial"",""time""
""fullscreenenter"",""0"",""3825""
","
","null","<p></p>","null","","","","","","","","","","","","","","","","","","","","","","","",""
"","do_trial","264","689713","0.0-140.0-0.0","""event"",""trial"",""time""
""fullscreenenter"",""0"",""3825""
","
","
","""event"",""trial"",""time""
""fullscreenenter"",""0"",""3825""
","
","435.19999980926514","","","","","","","","50","0,0,0","6","blank","351","null","0.6109368902481456","0.21109062819590294","0.06580066569470146","0","","","","","","","","",""
"","html-keyboard-response","265","690729","0.0-140.0-1.0","""event"",""trial"",""time""
""fullscreenenter"",""0"",""3825""
","
","
","""event"",""trial"",""time""
""fullscreenenter"",""0"",""3825""
","
","null","<p></p>","null","","","","","","","","","","","","","","","","","","","","","","","",""
"","do_trial","266","693866","0.0-141.0-0.0","""event"",""trial"",""time""
""fullscreenenter"",""0"",""3825""
","
","
","""event"",""trial"",""time""
""fullscreenenter"",""0"",""3825""
","
","589.8999996185303","","","","","","","","49","0,0,0","6","blank","352","null","0.5927791946743288","0.26877911807322424","0.08274974750171747","0","","","","","","","","",""
"","html-keyboard-response","267","694880","0.0-141.0-1.0","""event"",""trial"",""time""
""fullscreenenter"",""0"",""3825""
","
","
","""event"",""trial"",""time""
""fullscreenenter"",""0"",""3825""
","
","null","<p></p>","null","","","","","","","","","","","","","","","","","","","","","","","",""
"","do_trial","268","698065","0.0-142.0-0.0","""event"",""trial"",""time""
""fullscreenenter"",""0"",""3825""
","
","
","""event"",""trial"",""time""
""fullscreenenter"",""0"",""3825""
","
","631.4000005722046","","","","","","","","50","1,0,0","6","blank","353","null","0.45998117988796294","0.32541040010170125","0.08855887783558906","0","","","","","","","","",""
"","html-keyboard-response","269","699081","0.0-142.0-1.0","""event"",""trial"",""time""
""fullscreenenter"",""0"",""3825""
","
","
","""event"",""trial"",""time""
""fullscreenenter"",""0"",""3825""
","
","null","<p></p>","null","","","","","","","","","","","","","","","","","","","","","","","",""
"","do_trial","270","702455","0.0-143.0-0.0","""event"",""trial"",""time""
""fullscreenenter"",""0"",""3825""
","
","
","""event"",""trial"",""time""
""fullscreenenter"",""0"",""3825""
","
","822.3000001907349","","","","","","","","50","0,0,0","6","blank","354","null","0.3807163789103426","0.6344023467028443","0.15625006403224556","0","","","","","","","","",""
"","html-keyboard-response","271","703458","0.0-143.0-1.0","""event"",""trial"",""time""
""fullscreenenter"",""0"",""3825""
","
","
","""event"",""trial"",""time""
""fullscreenenter"",""0"",""3825""
","
","null","<p></p>","null","","","","","","","","","","","","","","","","","","","","","","","",""
"","do_recog","272","706926","0.0-144.0-0.0","""event"",""trial"",""time""
""fullscreenenter"",""0"",""3825""
","
","
","""event"",""trial"",""time""
""fullscreenenter"",""0"",""3825""
","
","1954.3000001907349","","","","","","","","53","","","","355","probe-75","","","","","1","[object Object]","191","4","1","","","",""
"","html-keyboard-response","273","707930","0.0-144.0-1.0","""event"",""trial"",""time""
""fullscreenenter"",""0"",""3825""
","
","
","""event"",""trial"",""time""
""fullscreenenter"",""0"",""3825""
","
","null","<p></p>","null","","","","","","","","","","","","","","","","","","","","","","","",""
"","do_trial","274","711360","0.0-145.0-0.0","""event"",""trial"",""time""
""fullscreenenter"",""0"",""3825""
","
","
","""event"",""trial"",""time""
""fullscreenenter"",""0"",""3825""
","
","885.5","","","","","","","","50","0,1,0","6","blank","356","null","0.24437894317028644","0.6136035854071076","0.11954977020124946","1","","","","","","","","",""
"","html-keyboard-response","275","712365","0.0-145.0-1.0","""event"",""trial"",""time""
""fullscreenenter"",""0"",""3825""
","
","
","""event"",""trial"",""time""
""fullscreenenter"",""0"",""3825""
","
","null","<p></p>","null","","","","","","","","","","","","","","","","","","","","","","","",""
"","do_recog","276","715264","0.0-146.0-0.0","""event"",""trial"",""time""
""fullscreenenter"",""0"",""3825""
","
","
","""event"",""trial"",""time""
""fullscreenenter"",""0"",""3825""
","
","1383.8000001907349","","","","","","","","53","","","","357","probe-72","","","","","1","[object Object]","113","2","1","","","",""
"","html-keyboard-response","277","716267","0.0-146.0-1.0","""event"",""trial"",""time""
""fullscreenenter"",""0"",""3825""
","
","
","""event"",""trial"",""time""
""fullscreenenter"",""0"",""3825""
","
","null","<p></p>","null","","","","","","","","","","","","","","","","","","","","","","","",""
