"success","trial_type","trial_index","time_elapsed","internal_node_id","rt","stimulus","key_press","subject_id","response","choice_outcomes","context_n","context_img_id","trial_n","probe_img_id","pR_red","pR_white","pR_black","outcome","is_valid","image_to_show","probed_trial","probed_context","correct","context_id"
"true","fullscreen","0","4665","0.0-0.0","","","","","","","","","","","","","","","","","","","",""
"","pavlovia","1","4669","0.0-1.0","","","","","","","","","","","","","","","","","","","",""
"","html-keyboard-response","2","27487","0.0-2.0","22815.800000000745","<div class='center'><p>Welcome! This is the second day of the experiment. This part will last ~30 minutes. </p><br><p>Just as a reminder, you are the head captain of a pirate ship traveling around the world to different places. </p><p>Today,you’ve arrived at the final destination of your journey!</p><p> Unfortunately, it’s very foggy out, so you won’t be able to see it in the distance like the places you visited yesterday.</p><p>You’ll still be deciding which pirates you want to rob ships. Because of the fog, however, you won't be able to see which ship your chosen pirate is robbing. </p><p><b>[Press the space bar to go over the instructions]</b></p></div>","32","61017d3331333228be3346ee","","","","","","","","","","","","","","","",""
"","html-keyboard-response","3","44369","0.0-3.0","16881","<div class='center'><p>Like yesterday,as the head captain of the ship, you have one important things to do: </p><b><p> Pick the pirate who you think will be most successful at robbing the next ship.</p></b><p>This is important in determining how much bonus money you’ll win.</p><br><p>The game will start by showing you the pirates. First pick a pirate using the <b> 1, 2, 3 </b> buttons on your keyboard. </p><p> Press <b>'1'</b> to choose red beard, <b>'2'</b> to choose white beard, and <b>'3'</b> to choose black beard</p><p> You only have 3 seconds to pick a pirate, so please make a choice quickly! If you are too slow, you’ll have to wait a bit during the time out.</p><p> Don’t feel rushed, but please do try to make a choice every time.</p><p>How good a pirate is at robbing a ship will change depending on the place they are in and how good the defenses are of the ship.</p><p><b>[Press the space bar to begin the practice game]</b></p></div>","32","","","","","","","","","","","","","","","","",""
"","html-keyboard-response","4","110794","0.0-4.0","66423.29999999981","<div class='center'><p>Unlike yesterday, sometimes you’ll be asked if you’ve seen a ship before (see the example below). You will use the 5, 6, 7, 8 buttons on your keyboard to respond. </p><p> If you definitely did not see the ship, pick the the big red thumbs down by pressing <b>5</b>.</p><p> If you don’t think you saw it but aren’t sure, then pick the small red thumbs down by pressing <b>6</b>.</p><p> If you think you might have seen it, then pick the small green thumbs up by pressing <b>7</b>.</p><p> If you definitely did see this ship before, then pick the big thumb green thumbs up by pressing <b>8</b>.</p><p> If you recall it correctly, then you’ll get a gold coin!</p><p><b>[Press the space bar to the experiment]</b></p><p><img src='run_exp/static/images/example_recog_trial.png' height='500'></p></div>","32","","","","","","","","","","","","","","","","",""
"","do_welcome","5","112305","0.0-5.0-0.0","null","","","","null","","","","","","","","","","","","","","",""
"","do_trial","6","116722","0.0-6.0-0.0","1853.6000000005588","","","","50","1,0,0","6","blank","240","null","1","0.07408816085857378","0.5638872711470845","0","","","","","",""
"","do_recog","7","121708","0.0-7.0-0.0","3477.899999999441","","","","55","","","","241","probe-94","","","","","1","[object Object]","165","4","1",""
"","do_trial","8","127022","0.0-8.0-0.0","2755.2000000001863","","","","49","1,0,0","6","blank","242","null","0.9270962550441603","0.07997582620537289","0.5923929839025187","1","","","","","",""
"","do_trial","9","131924","0.0-9.0-0.0","2345","","","","51","1,0,0","6","blank","243","null","0.8056107023174275","0.10669721465754486","0.6575807083144167","0","","","","","",""
"","do_trial","10","135570","0.0-10.0-0.0","1086.5","","","","49","1,0,0","6","blank","244","null","0.7689170748625425","0.13937962217352318","0.46275295251691206","1","","","","","",""
"","do_trial","11","139505","0.0-11.0-0.0","1376.2000000001863","","","","49","1,0,1","6","blank","245","null","0.7842290652320696","0.09650358334549351","0.3482528171915429","1","","","","","",""
"","do_trial","12","143265","0.0-12.0-0.0","1202.0999999996275","","","","51","1,0,1","6","blank","246","null","0.8600894683972602","0.08892242541902576","0.5328334050380602","1","","","","","",""
"","do_recog","13","147922","0.0-13.0-0.0","3151.7000000001863","","","","56","","","","247","probe-49","","","","","1","[object Object]","160","4","1",""
"","do_trial","14","151895","0.0-14.0-0.0","1416.0999999996275","","","","49","1,1,0","6","blank","248","null","0.8050645174952082","0.10305326759119042","0.40808829335628416","1","","","","","",""
"","do_trial","15","155279","0.0-15.0-0.0","826.6000000005588","","","","51","1,0,0","6","blank","249","null","0.7568401571706163","0.16564373732546536","0.34095739860046964","0","","","","","",""
"","do_trial","16","158354","0.0-16.0-0.0","518.6999999992549","","","","49","1,0,0","6","blank","250","null","0.7306303988300046","0.17498055826030873","0.4023281159904047","1","","","","","",""
"","do_recog","17","162109","0.0-17.0-0.0","2248.0999999996275","","","","56","","","","251","probe-127","","","","","1","[object Object]","169","4","1",""
"","do_trial","18","166486","0.0-18.0-0.0","1818.7999999998137","","","","51","1,0,0","6","blank","252","null","0.8108873853494573","0.07795227904122333","0.24095283384084987","0","","","","","",""
"","do_recog","19","171865","0.0-19.0-0.0","3872.9000000003725","","","","55","","","","253","probe-220","","","","","1","[object Object]","40","1","1",""
"","do_trial","20","175744","0.0-20.0-0.0","1321.7999999998137","","","","49","1,0,0","6","blank","254","null","0.7297009724313969","0.42707434481133383","0.19155729084907094","1","","","","","",""
"","do_trial","21","180079","0.0-21.0-0.0","1778.5","","","","51","1,1,0","6","blank","255","null","0.587386751470048","0.6221158569947497","0.2627535543619981","0","","","","","",""
"","do_recog","22","183738","0.0-22.0-0.0","2152.4000000003725","","","","54","","","","256","probe-106","","","","","1","[object Object]","86","2","0",""
"","do_trial","23","188141","0.0-23.0-0.0","1847.199999999255","","","","49","0,1,0","6","blank","257","null","0.5821300304730805","0.663523500970525","0.20511767710511788","0","","","","","",""
"","do_trial","24","191347","0.0-24.0-0.0","648.5","","","","51","1,1,0","6","blank","258","null","0.35013581653179976","0.6006133805738754","0.051662757152022856","0","","","","","",""
"","do_trial","25","194669","0.0-25.0-0.0","766.1000000005588","","","","49","0,1,1","6","blank","259","null","0.3543998790437945","0.803003015265975","0.06556516339699807","0","","","","","",""
"","do_trial","26","198185","0.0-26.0-0.0","958.4000000003725","","","","49","0,0,0","6","blank","260","null","0.22731104517246117","0.8248831021647776","0.1806209926892952","0","","","","","",""
"","do_trial","27","201410","0.0-27.0-0.0","667.7000000001863","","","","51","0,0,0","6","blank","261","null","0.370268495948054","0.8131345030054457","0.056290047537548474","0","","","","","",""
"","do_trial","28","204806","0.0-28.0-0.0","838.8999999994412","","","","50","0,0,1","6","blank","262","null","0.43093603384208984","0.7684795102233274","0.23508949491165873","0","","","","","",""
"","do_recog","29","208072","0.0-29.0-0.0","1759.7000000001863","","","","55","","","","263","probe-170","","","","","1","[object Object]","126","3","1",""
"","do_trial","30","211120","0.0-30.0-0.0","491.90000000037253","","","","49","1,1,0","6","blank","264","null","0.39814315897880703","0.77465072897446","0.14484203962720157","1","","","","","",""
"","do_recog","31","214394","0.0-31.0-0.0","1767.5","","","","55","","","","265","probe-30","","","","","1","[object Object]","49","1","1",""
"","do_trial","32","218745","0.0-32.0-0.0","1795.4000000003725","","","","51","0,1,0","6","blank","266","null","0.3111193879393983","0.8056996307341242","0.15944907744847847","0","","","","","",""
"","do_trial","33","221758","0.0-33.0-0.0","457.09999999962747","","","","49","0,0,0","6","blank","267","null","0.40034247877749934","0.8380960658140589","0.2245571739888566","0","","","","","",""
"","do_trial","34","225354","0.0-34.0-0.0","1037.2000000001863","","","","51","0,1,0","6","blank","268","null","0.3841974619594408","0.768879366574685","0.19670591037877538","0","","","","","",""
"","do_trial","35","228730","0.0-35.0-0.0","819.2999999998137","","","","51","0,1,0","6","blank","269","null","0.5193353959985684","0.6395892581909717","0.24618134545132692","0","","","","","",""
"","do_recog","36","232226","0.0-36.0-0.0","1989.699999999255","","","","54","","","","270","probe-13","","","","","1","[object Object]","87","2","0",""
"","do_trial","37","235598","0.0-37.0-0.0","816.3999999994412","","","","49","0,1,1","6","blank","271","null","0.31325879531728473","0.773859672916319","0.19752696213565954","0","","","","","",""
"","do_recog","38","238671","0.0-38.0-0.0","1566.7999999998137","","","","56","","","","272","probe-111","","","","","1","[object Object]","122","3","1",""
"","do_trial","39","241860","0.0-39.0-0.0","631","","","","51","0,1,0","6","blank","273","null","0.33355700383210507","0.816855787627256","0.07648527732094024","0","","","","","",""
"","do_recog","40","244900","0.0-40.0-0.0","1532.5","","","","56","","","","274","probe-166","","","","","1","[object Object]","164","4","1",""
"","do_trial","41","248613","0.0-41.0-0.0","1156","","","","51","0,0,0","6","blank","275","null","0.5062132171666037","0.821856252881915","0.08892083978446987","0","","","","","",""
"","do_recog","42","251869","0.0-42.0-0.0","1750.300000000745","","","","54","","","","276","probe-197","","","","","1","[object Object]","200","5","0",""
"","do_trial","43","255098","0.0-43.0-0.0","673.1000000005588","","","","49","1,1,0","6","blank","277","null","0.3947553130873546","0.6730451446381445","0.05374782654050616","1","","","","","",""
"","do_recog","44","257840","0.0-44.0-0.0","1233.9000000003725","","","","56","","","","278","probe-147","","","","","1","[object Object]","88","2","1",""
"","do_trial","45","260893","0.0-45.0-0.0","496.29999999981374","","","","51","1,1,0","6","blank","279","null","0.40614159056163135","0.7464733958367836","0.08907633731175324","0","","","","","",""
"","do_recog","46","263557","0.0-46.0-0.0","1157.4000000003725","","","","56","","","","280","probe-235","","","","","1","[object Object]","47","1","1",""
"","do_trial","47","266588","0.0-47.0-0.0","473.20000000018626","","","","49","1,1,0","6","blank","281","null","0.44450115959629516","0.7812087503472352","0.06187982364305479","1","","","","","",""
"","do_trial","48","269960","0.0-48.0-0.0","814.8999999994412","","","","49","1,0,0","6","blank","282","null","0.37753936237148206","0.5047927241008334","0.11375470313666665","1","","","","","",""
"","do_trial","49","273529","0.0-49.0-0.0","1011.5","","","","49","1,1,0","6","blank","283","null","0.4848569757356769","1","0.06929649575449086","1","","","","","",""
"","do_trial","50","276641","0.0-50.0-0.0","554.9000000003725","","","","51","1,1,1","6","blank","284","null","0.449268972377022","0.9454178218104179","0.2144872166079648","1","","","","","",""
"","do_recog","51","279802","0.0-51.0-0.0","1654.9000000003725","","","","53","","","","285","probe-252","","","","","0","[object Object]","null","null","1",""
"","do_trial","52","283045","0.0-52.0-0.0","686.3000000007451","","","","49","1,1,0","6","blank","286","null","0.4284977613028535","0.9245839645097422","0.06685853019145375","1","","","","","",""
"","do_recog","53","286122","0.0-53.0-0.0","1570.5","","","","56","","","","287","probe-168","","","","","1","[object Object]","45","1","1",""
"","do_trial","54","289472","0.0-54.0-0.0","793.7999999998137","","","","51","0,1,0","6","blank","288","null","0.4624969423133111","0.8601332168069493","0.11329492614092358","0","","","","","",""
"","do_recog","55","293079","0.0-55.0-0.0","2101","","","","55","","","","289","probe-214","","","","","1","[object Object]","43","1","1",""
"","do_trial","56","296391","0.0-56.0-0.0","754.3999999994412","","","","49","1,0,0","6","blank","290","null","0.4953744564104352","0.7144537357967934","0.14645689573753104","1","","","","","",""
"","do_trial","57","300140","0.0-57.0-0.0","1192.800000000745","","","","51","1,1,0","6","blank","291","null","0.4277027112222943","0.8212925145794832","0.18146757868692454","0","","","","","",""
"","do_trial","58","304623","0.0-58.0-0.0","1927","","","","49","0,1,0","6","blank","292","null","0.4015561678734263","0.8253125166999401","0.21700874834092088","0","","","","","",""
"","do_recog","59","307493","0.0-59.0-0.0","1363.5","","","","56","","","","293","probe-23","","","","","1","[object Object]","89","2","1",""
"","do_trial","60","310796","0.0-60.0-0.0","744.5","","","","51","1,0,0","6","blank","294","null","0.42447628685451416","0.8334293893539514","0.18410826216718787","0","","","","","",""
"","do_recog","61","313791","0.0-61.0-0.0","1488.5","","","","56","","","","295","probe-104","","","","","1","[object Object]","166","4","1",""
"","do_trial","62","317507","0.0-62.0-0.0","1160.2000000001863","","","","51","0,1,0","6","blank","296","null","0.17870875038210435","0.9057447015232738","0.2197153063876715","0","","","","","",""
"","do_trial","63","320580","0.0-63.0-0.0","517.2999999998137","","","","49","0,1,0","6","blank","297","null","0.2562370335226575","0.8355969369686345","0.20443469438072265","0","","","","","",""
"","do_recog","64","324023","0.0-64.0-0.0","1937.5","","","","55","","","","298","probe-48","","","","","1","[object Object]","167","4","1",""
"","do_trial","65","327340","0.0-65.0-0.0","760","","","","49","0,0,0","6","blank","299","null","0.23244210097401016","0.7652857276695627","0.07811565743970322","0","","","","","",""
"","do_recog","66","330625","0.0-66.0-0.0","1779.6000000005588","","","","54","","","","300","probe-123","","","","","1","[object Object]","44","1","0",""
"","do_trial","67","333619","0.0-67.0-0.0","436.29999999981374","","","","51","0,1,0","6","blank","301","null","0.17694596984652194","0.6201903148554606","0.06676080986122583","0","","","","","",""
"","do_recog","68","336578","0.0-68.0-0.0","1453.199999999255","","","","54","","","","302","probe-229","","","","","1","[object Object]","209","5","0",""
"","do_trial","69","339899","0.0-69.0-0.0","764.2000000001863","","","","49","0,0,0","6","blank","303","null","0.37135126039762545","0.5433735728306739","0.14915759008012003","0","","","","","",""
"","do_recog","70","342636","0.0-70.0-0.0","1230.0999999996275","","","","56","","","","304","probe-174","","","","","1","[object Object]","83","2","1",""
"","do_trial","71","345814","0.0-71.0-0.0","620.7000000001863","","","","51","0,0,0","6","blank","305","null","0.5564137197193979","0.6046494782438928","0.06426387030076011","0","","","","","",""
"","do_trial","72","348989","0.0-72.0-0.0","617.7000000001863","","","","49","0,1,0","6","blank","306","null","0.7275930159442081","0.4520287049877991","0.11993915645439022","0","","","","","",""
"","do_trial","73","352017","0.0-73.0-0.0","471.70000000018626","","","","51","1,1,0","6","blank","307","null","0.6289536909036244","0.3267788597128894","0.08294019578342968","0","","","","","",""
"","do_recog","74","355450","0.0-74.0-0.0","1926.699999999255","","","","54","","","","308","probe-06","","","","","1","[object Object]","128","3","0",""
"","do_trial","75","358720","0.0-75.0-0.0","714","","","","49","1,0,0","6","blank","309","null","0.7440708146497345","0.3987905302652259","0.09776252523093995","1","","","","","",""
"","do_recog","76","361753","0.0-76.0-0.0","1526.7000000001863","","","","55","","","","310","probe-179","","","","","1","[object Object]","123","3","1",""
"","do_trial","77","365572","0.0-77.0-0.0","1261.6000000005588","","","","51","0,1,0","6","blank","311","null","0.8695856275290329","0.3972106738034296","0.268690142080233","0","","","","","",""
"","do_recog","78","368838","0.0-78.0-0.0","1760.2000000001863","","","","55","","","","312","probe-19","","","","","1","[object Object]","82","2","1",""
"","do_trial","79","372242","0.0-79.0-0.0","847.7999999998137","","","","49","0,0,0","6","blank","313","null","0.8174203774749929","0.4683974185367727","0.2842648875694835","0","","","","","",""
"","do_recog","80","375135","0.0-80.0-0.0","1386.5999999996275","","","","54","","","","314","probe-258","","","","","0","[object Object]","null","null","1",""
"","do_trial","81","378643","0.0-81.0-0.0","951.5","","","","49","1,1,0","6","blank","315","null","0.8092717693807385","0.2944397286243663","0.1890772331366799","1","","","","","",""
"","do_trial","82","381965","0.0-82.0-0.0","766.0999999996275","","","","49","1,0,0","6","blank","316","null","0.8701258642976253","0.3503759876163312","0.1672533577236544","1","","","","","",""
"","do_trial","83","385408","0.0-83.0-0.0","885.7000000001863","","","","49","1,1,0","6","blank","317","null","0.7910596068889061","0.30127766587384364","0.27917826291054526","1","","","","","",""
"","do_trial","84","388391","0.0-84.0-0.0","425.40000000037253","","","","49","0,0,1","6","blank","318","null","0.7573423325388999","0.16988935978222963","0.1779684745198547","0","","","","","",""
"","do_trial","85","391851","0.0-85.0-0.0","903.3999999994412","","","","49","1,0,0","6","blank","319","null","0.8242334303767411","0.15549510858857166","0.22931824831429906","1","","","","","",""
"","do_recog","86","395086","0.0-86.0-0.0","1728.9000000003725","","","","55","","","","320","probe-56","","","","","1","[object Object]","120","3","1",""
"","do_trial","87","399155","0.0-87.0-0.0","1509.300000000745","","","","51","1,0,0","6","blank","321","null","0.8093405891095661","0.2527550314257917","0.09314968924834867","0","","","","","",""
"","do_trial","88","403155","0.0-88.0-0.0","1442.9000000003725","","","","51","1,0,0","6","blank","322","null","0.9322056164989192","0.28150993474874586","0.06460562964837427","0","","","","","",""
"","do_recog","89","406297","0.0-89.0-0.0","1635.699999999255","","","","53","","","","323","probe-188","","","","","1","[object Object]","42","1","0",""
"","do_trial","90","409486","0.0-90.0-0.0","633.3999999994412","","","","49","1,0,0","6","blank","324","null","0.8789688693794129","0.3907602643216196","0.12440289145908784","1","","","","","",""
"","do_trial","91","412539","0.0-91.0-0.0","495","","","","49","1,1,0","6","blank","325","null","0.8998593464158424","0.520187132349027","0.14686679755639281","1","","","","","",""
"","do_trial","92","415545","0.0-92.0-0.0","448.79999999981374","","","","51","1,1,0","6","blank","326","null","0.8172221000359681","0.4771403528185849","0.08594362501811517","0","","","","","",""
"","do_trial","93","418765","0.0-93.0-0.0","662.2000000001863","","","","51","0,0,0","6","blank","327","null","0.7169242630953039","0.33308644303980756","0.16329387808581325","0","","","","","",""
"","do_trial","94","421813","0.0-94.0-0.0","491.90000000037253","","","","49","1,0,0","6","blank","328","null","1","0.4853199786223656","0.13361725555774637","1","","","","","",""
"","do_trial","95","424701","0.0-95.0-0.0","328.1000000005588","","","","49","0,1,0","6","blank","329","null","0.9349062744351256","0.516073355442819","0.06902577535851454","0","","","","","",""
"","do_recog","96","427579","0.0-96.0-0.0","1371.300000000745","","","","53","","","","330","probe-247","","","","","0","[object Object]","null","null","1",""
"","do_trial","97","430588","0.0-97.0-0.0","452.40000000037253","","","","49","1,1,0","6","blank","331","null","0.9361419485639997","0.5245095532570466","0.13559175784432498","1","","","","","",""
"","do_recog","98","433762","0.0-98.0-0.0","1668.199999999255","","","","55","","","","332","probe-185","","","","","1","[object Object]","124","3","1",""
"","do_trial","99","437208","0.0-99.0-0.0","888.6999999992549","","","","51","1,1,0","6","blank","333","null","0.9023887922836022","0.45436724170761744","0.20617985813766865","0","","","","","",""
"","do_recog","100","439853","0.0-100.0-0.0","1139","","","","56","","","","334","probe-255","","","","","0","[object Object]","null","null","0",""
"","do_trial","101","443347","0.0-101.0-0.0","932.8000000007451","","","","49","0,1,0","6","blank","335","null","0.7394116166742194","0.5024562257047558","0.14809108581251962","0","","","","","",""
"","do_trial","102","446718","0.0-102.0-0.0","799","","","","49","0,1,0","6","blank","336","null","0.6868597541419622","0.5268328167778643","0.12499478209428624","0","","","","","",""
"","do_recog","103","450012","0.0-103.0-0.0","1787","","","","54","","","","337","probe-242","","","","","0","[object Object]","null","null","1",""
"","do_trial","104","453226","0.0-104.0-0.0","657.7000000001863","","","","51","1,0,0","6","blank","338","null","0.7528169425967424","0.29972857462536445","0.2164866597808744","0","","","","","",""
"","do_trial","105","456412","0.0-105.0-0.0","629.9000000003725","","","","51","1,0,0","6","blank","339","null","0.7831508166304577","0.374853020751996","0.10641084304721492","0","","","","","",""
"","do_trial","106","459329","0.0-106.0-0.0","361.5","","","","49","1,1,0","6","blank","340","null","0.7947753458572975","0.40012846234166366","0.13067789371700747","1","","","","","",""
"","do_recog","107","462187","0.0-107.0-0.0","1351","","","","54","","","","341","probe-132","","","","","1","[object Object]","121","3","0",""
"","do_trial","108","465260","0.0-108.0-0.0","515.3999999994412","","","","49","1,0,1","6","blank","342","null","0.8399969193782724","0.5013104750725313","0.17024728818152704","1","","","","","",""
"","do_recog","109","468336","0.0-109.0-0.0","1569.2000000001863","","","","55","","","","343","probe-116","","","","","1","[object Object]","201","5","1",""
"","do_trial","110","471320","0.0-110.0-0.0","427.3999999994412","","","","49","1,0,0","6","blank","344","null","0.5802067770832929","0.6881974386891931","0.2824843209889182","1","","","","","",""
"","do_recog","111","473984","0.0-111.0-0.0","1158.2999999998137","","","","56","","","","345","probe-143","","","","","1","[object Object]","80","2","1",""
"","do_trial","112","477252","0.0-112.0-0.0","711.0999999996275","","","","49","0,1,0","6","blank","346","null","0.23259357348711263","0.6675170606312512","0.30016437297739146","0","","","","","",""
"","do_recog","113","480214","0.0-113.0-0.0","1455.9000000003725","","","","54","","","","347","probe-107","","","","","1","[object Object]","129","3","0",""
"","do_trial","114","483478","0.0-114.0-0.0","707.1000000005588","","","","51","0,1,0","6","blank","348","null","0.2481270491659336","0.6372348175520202","0.37683120152130645","0","","","","","",""
"","do_trial","115","486745","0.0-115.0-0.0","711.4000000003725","","","","49","0,1,1","6","blank","349","null","0.10159872924382199","0.7559294145359121","0.2693480965872268","0","","","","","",""
"","do_trial","116","490188","0.0-116.0-0.0","884.2999999998137","","","","51","1,1,1","6","blank","350","null","0.05517334254298566","0.8781377052976029","0.3496178641483937","1","","","","","",""
"","do_trial","117","493415","0.0-117.0-0.0","669.4000000003725","","","","51","0,0,0","6","blank","351","null","0.06290048833502195","0.8814883587549258","0.31253140277136515","0","","","","","",""
"","do_recog","118","496931","0.0-118.0-0.0","2009.7999999998137","","","","54","","","","352","probe-146","","","","","1","[object Object]","48","1","0",""
"","do_trial","119","499804","0.0-119.0-0.0","316.90000000037253","","","","49","0,1,0","6","blank","353","null","0.05860885324185848","0.8630384303575632","0.36439480650036105","0","","","","","",""
"","do_trial","120","502661","0.0-120.0-0.0","300.19999999925494","","","","49","0,1,0","6","blank","354","null","0.08678142184157393","0.8714725215934683","0.23943075146984785","0","","","","","",""
"","do_trial","121","505453","0.0-121.0-0.0","235.6000000005588","","","","51","0,1,0","6","blank","355","null","0.10152372817734982","0.9462829650262542","0.2831422168945431","0","","","","","",""
"","do_trial","122","508443","0.0-122.0-0.0","434","","","","51","0,1,0","6","blank","356","null","0.07762806602965981","0.8909584411797752","0.3028217089499481","0","","","","","",""
"","do_recog","123","511095","0.0-123.0-0.0","1144.9000000003725","","","","56","","","","357","probe-03","","","","","1","[object Object]","125","3","1",""
"","do_trial","124","514387","0.0-124.0-0.0","735.8000000007451","","","","51","1,1,0","6","blank","358","null","0.20612623864870863","0.9451910524891617","0.3207343697948102","0","","","","","",""
"","do_recog","125","517172","0.0-125.0-0.0","1279","","","","56","","","","359","probe-158","","","","","1","[object Object]","81","2","1",""
"","do_trial","126","520266","0.0-126.0-0.0","536.9000000003725","","","","49","0,1,0","6","blank","360","null","0.25599387386899336","0.9063869868581134","0.4514789625903675","0","","","","","",""
"","do_recog","127","524288","0.0-127.0-0.0","2516.2000000001863","","","","55","","","","361","probe-54","","","","","1","[object Object]","127","3","1",""
"","do_trial","128","527637","0.0-128.0-0.0","792.7999999998137","","","","51","0,1,0","6","blank","362","null","0.2431982367051689","0.9188859118895705","0.3877312097631899","0","","","","","",""
"","do_recog","129","530574","0.0-129.0-0.0","1429.800000000745","","","","54","","","","363","probe-187","","","","","1","[object Object]","205","5","0",""
"","do_trial","130","533790","0.0-130.0-0.0","660.6000000005588","","","","49","0,0,1","6","blank","364","null","0.2355623161151783","0.905330687040448","0.48580596416717564","0","","","","","",""
"","do_recog","131","536333","0.0-131.0-0.0","1036.5999999996275","","","","56","","","","365","probe-26","","","","","1","[object Object]","46","1","1",""
"","do_trial","132","539758","0.0-132.0-0.0","868.9000000003725","","","","51","0,1,1","6","blank","366","null","0.058082549902696845","0.841454797942645","0.4879375464573577","1","","","","","",""
"","do_trial","133","543022","0.0-133.0-0.0","706.2999999998137","","","","51","0,1,0","6","blank","367","null","0.24299852921486456","0.9105668505720518","0.3698135504755972","0","","","","","",""
"","do_trial","134","546100","0.0-134.0-0.0","520.5999999996275","","","","49","0,1,1","6","blank","368","null","0.23025846660518645","0.9331113160317044","0.5498605007539195","0","","","","","",""
"","do_recog","135","548949","0.0-135.0-0.0","1343.3999999994412","","","","54","","","","369","probe-08","","","","","1","[object Object]","85","2","0",""
"","do_trial","136","551962","0.0-136.0-0.0","456.5","","","","49","0,1,1","6","blank","370","null","0.16968128781306813","0.811526836996984","0.3763638957351225","0","","","","","",""
"","do_recog","137","554769","0.0-137.0-0.0","1300.2999999998137","","","","53","","","","371","probe-150","","","","","1","[object Object]","204","5","0",""
"","do_trial","138","558017","0.0-138.0-0.0","691.5999999996275","","","","51","0,1,1","6","blank","372","null","0.24478424108534008","0.7964412390290587","0.3416570893705436","1","","","","","",""
"","do_recog","139","560847","0.0-139.0-0.0","1322.6000000005588","","","","55","","","","373","probe-59","","","","","1","[object Object]","206","5","1",""
"","do_trial","140","564228","0.0-140.0-0.0","823.4000000003725","","","","49","0,0,0","6","blank","374","null","0.1896303326300368","0.7679834642573649","0.26352843430593126","0","","","","","",""
"","do_recog","141","567765","0.0-141.0-0.0","2030","","","","54","","","","375","probe-17","","","","","1","[object Object]","163","4","0",""
"","do_trial","142","570830","0.0-142.0-0.0","509.09999999962747","","","","51","0,1,1","6","blank","376","null","0.13150285696195166","1","0.39257282115374653","1","","","","","",""
"","do_recog","143","574243","0.0-143.0-0.0","1906.2000000001863","","","","53","","","","377","probe-180","","","","","1","[object Object]","207","5","0",""
"","do_trial","144","577268","0.0-144.0-0.0","470","","","","49","0,1,0","6","blank","378","null","0.1154864280782634","0.8557306080452399","0.2331444103594108","0","","","","","",""
"","do_trial","145","580600","0.0-145.0-0.0","774.5","","","","51","0,1,1","6","blank","379","null","0.11520723782820978","0.7736895053370636","0.22648413980948978","1","","","","","",""
"","do_trial","146","583620","0.0-146.0-0.0","462.1000000005588","","","","51","0,1,0","6","blank","380","null","0.12348068939833397","0.8610862003028642","0.38007226454160076","0","","","","","",""
"","do_recog","147","586140","0.0-147.0-0.0","1014","","","","56","","","","381","probe-177","","","","","1","[object Object]","168","4","1",""
"","do_trial","148","589099","0.0-148.0-0.0","403.3999999994412","","","","51","0,1,0","6","blank","382","null","0.11925551620164994","0.7010457678280142","0.34725785910720747","0","","","","","",""
"","do_trial","149","592022","0.0-149.0-0.0","365.79999999981374","","","","49","1,1,0","6","blank","383","null","0.06613111886007104","0.6820583409900332","0.46368868224313875","1","","","","","",""
"","do_trial","150","594996","0.0-150.0-0.0","419","","","","49","0,0,1","6","blank","384","null","0.16664532595745493","0.6423873634845265","0.4885735629826348","0","","","","","",""
"","do_recog","151","597857","0.0-151.0-0.0","1354.5999999996275","","","","55","","","","385","probe-164","","","","","1","[object Object]","208","5","1",""
"","do_trial","152","601111","0.0-152.0-0.0","698.6000000005588","","","","51","0,1,1","6","blank","386","null","0.09645911534241008","0.6514980741591841","0.4164419003687469","1","","","","","",""
"","do_trial","153","604064","0.0-153.0-0.0","395.90000000037253","","","","49","0,1,0","6","blank","387","null","0.19090409108547113","0.7440850708503014","0.4390394350307527","0","","","","","",""
"","do_trial","154","607077","0.0-154.0-0.0","455.29999999981374","","","","51","0,1,0","6","blank","388","null","0.18436477777292917","0.704734357085009","0.37310710711075873","0","","","","","",""
"","do_trial","155","610246","0.0-155.0-0.0","613.7000000001863","","","","51","0,1,1","6","blank","389","null","0.18150958763974567","0.6840962190561978","0.5741548012406265","1","","","","","",""
"","do_trial","156","613647","0.0-156.0-0.0","843.9000000003725","","","","49","0,0,0","6","blank","390","null","0.08007189408404276","0.7069468064147977","0.6029439138182062","0","","","","","",""
"","do_recog","157","617473","0.0-157.0-0.0","2319","","","","54","","","","391","probe-225","","","","","1","[object Object]","203","5","0",""
"","do_trial","158","620771","0.0-158.0-0.0","741.3000000007451","","","","49","1,0,1","6","blank","392","null","0.14487940631092885","0.5595272501080154","0.6955421725687695","1","","","","","",""
"","do_recog","159","624242","0.0-159.0-0.0","1965.2999999998137","","","","54","","","","393","probe-207","","","","","1","[object Object]","162","4","0",""
"","do_trial","160","627740","0.0-160.0-0.0","942.2000000001863","","","","49","0,1,1","6","blank","394","null","0.13296732964382085","0.5311913980656244","0.7099950009664857","0","","","","","",""
"","do_recog","161","630754","0.0-161.0-0.0","1507.1000000005588","","","","55","","","","395","probe-114","","","","","1","[object Object]","202","5","1",""
"","do_trial","162","635333","0.0-162.0-0.0","2021","","","","51","0,1,0","6","blank","396","null","0.13676836434092665","0.5383473898731251","0.5994853040671931","0","","","","","",""
"","do_recog","163","638190","0.0-163.0-0.0","1350.0999999996275","","","","54","","","","397","probe-248","","","","","0","[object Object]","null","null","1",""
"","do_trial","164","641640","0.0-164.0-0.0","893.7999999998137","","","","49","0,0,1","6","blank","398","null","0.06141109650736154","0.4805433649945938","0.693631757124237","0","","","","","",""
"","do_trial","165","644806","0.0-165.0-0.0","609","","","","49","0,1,0","6","blank","399","null","0.18485852242476664","0.5271331851132329","0.7395931527066381","0","","","","","",""
"","do_trial","166","648004","0.0-166.0-0.0","642.3999999994412","","","","51","1,1,1","6","blank","400","null","0.235240356724486","0.5600613294851865","0.8308638287955379","1","","","","","",""
"","do_trial","167","651276","0.0-167.0-0.0","715.6999999992549","","","","51","0,0,1","6","blank","401","null","0.13654772266028803","0.4269555389804485","0.9334928307702488","1","","","","","",""
"","do_recog","168","654102","0.0-168.0-0.0","1319.2999999998137","","","","54","","","","402","probe-246","","","","","0","[object Object]","null","null","1",""
"","do_trial","169","657621","0.0-169.0-0.0","962.2000000001863","","","","49","0,1,1","6","blank","403","null","0.07062811164959125","0.42664669297162966","0.8138715258952097","0","","","","","",""
"","do_recog","170","660477","0.0-170.0-0.0","1349.2999999998137","","","","54","","","","404","probe-243","","","","","0","[object Object]","null","null","1",""
"","do_trial","171","663813","0.0-171.0-0.0","778.0999999996275","","","","51","0,1,1","6","blank","405","null","0.12667100477415993","0.39825668122523816","0.72399646322505","1","","","","","",""
"","do_recog","172","666499","0.0-172.0-0.0","1180.300000000745","","","","56","","","","406","probe-251","","","","","0","[object Object]","null","null","0",""
"","do_trial","173","669705","0.0-173.0-0.0","648.5999999996275","","","","49","1,1,1","6","blank","407","null","0.2749773402233328","0.3626398342710662","0.7121012575597284","1","","","","","",""
"","do_recog","174","672480","0.0-174.0-0.0","1269","","","","54","","","","408","probe-259","","","","","0","[object Object]","null","null","1",""
"","do_trial","175","675537","0.0-175.0-0.0","498.90000000037253","","","","49","0,0,1","6","blank","409","null","0.21439709106556312","0.3352272687999286","0.831129183547441","0","","","","","",""
"","do_trial","176","678929","0.0-176.0-0.0","835.8000000007451","","","","51","0,0,1","6","blank","410","null","0.23438515627084788","0.3722012355426533","0.8215697349553315","1","","","","","",""
"","do_trial","177","682005","0.0-177.0-0.0","518.4000000003725","","","","51","0,1,1","6","blank","411","null","0.22374744627231127","0.2923092681822312","0.9263912918036921","1","","","","","",""
"","do_trial","178","685407","0.0-178.0-0.0","846.1999999992549","","","","49","0,0,1","6","blank","412","null","0.1069933218374318","0.3954105042313219","0.8928100336355539","0","","","","","",""
"","do_trial","179","689948","0.0-179.0-0.0","1983.4000000003725","","","","51","1,0,0","6","blank","413","null","0.21858478091400155","0.4341564965967495","0.905410317102499","0","","","","","",""
"","do_recog","180","692884","0.0-180.0-0.0","1429","","","","54","","","","414","probe-257","","","","","0","[object Object]","null","null","1",""
"","do_trial","181","696153","0.0-181.0-0.0","713.2000000001863","","","","49","0,1,1","6","blank","415","null","0.05391402407637205","0.3706288866951384","0.7424539657955319","0","","","","","",""
"","do_recog","182","699968","0.0-182.0-0.0","2308.600000000559","","","","55","","","","416","probe-253","","","","","0","[object Object]","null","null","0",""
"","do_trial","183","703432","0.0-183.0-0.0","908.1999999992549","","","","49","0,0,1","6","blank","417","null","0.16146697718702058","0.43734885126580725","0.618655307449429","0","","","","","",""
"","do_trial","184","706451","0.0-184.0-0.0","460.20000000018626","","","","51","0,1,1","6","blank","418","null","0.05572299635006891","0.4572191230029759","0.8280153517825076","1","","","","","",""
"","do_recog","185","709131","0.0-185.0-0.0","1174.4000000003725","","","","54","","","","419","probe-245","","","","","0","[object Object]","null","null","1",""
"","do_pick_best_pirate","186","727734","0.0-186.0-0.0","17596.099999999627","","","","49","","","","","","","","","","","","","","",""
"","do_pick_best_pirate","187","740197","0.0-187.0-0.0","11457","","","","50","","","","","","","","","","","","","","",""
"","do_pick_best_pirate","188","757824","0.0-188.0-0.0","16622","","","","51","","","","","","","","","","","","","","",""
"","do_pick_best_pirate","189","765312","0.0-189.0-0.0","6481.799999999814","","","","50","","","","","","","","","","","","","","",""
"","do_pick_best_pirate","190","774862","0.0-190.0-0.0","8542.800000000745","","","","49","","","","","","","","","","","","","","",""
"","do_pick_best_pirate","191","786633","0.0-191.0-0.0","10764.699999999255","","","","50","","","","","","","","","","","","","","",""
"","html-keyboard-response","192","800143","0.0-192.0-0.0","13508.399999999441","<div class='center'>You are all done with both parts of the experiment! You made $15 plus $3 in bonus payment!! Thank you for participating. You will recieve your payment within 3 days<p><b>[Press the space bar to end the experiment]</b></p></div>","32","","","","","","","","","","","","","","","","",""
