success,trial_type,trial_index,time_elapsed,internal_node_id,rt,stimulus,subject_id,key_press,response,choice_outcomes,context_n,context_img_id,trial_n,probe_img_id,pR_red,pR_white,pR_black,outcome,is_valid,image_to_show,probed_trial,probed_context,correct,context_id
TRUE,fullscreen,0,5084,0.0-0.0,,,,,,,,,,,,,,,,,,,,
,pavlovia,1,5090,0.0-1.0,,,,,,,,,,,,,,,,,,,,
,html-keyboard-response,2,7121,0.0-2.0,2030.3,"<div class='center'><p>Like yesterday,as the head captain of the ship, you have one important things to do: </p><b><p> Pick the pirate who you think will be most successful at robbing the next ship.</p></b><p>This is important in determining how much bonus money you’ll win.</p><br><p>The game will start by showing you the pirates. First pick a pirate using the <b> 1, 2, 3 </b> buttons on your keyboard. </p><p> Press <b>'1'</b> to choose red beard, <b>'2'</b> to choose white beard, and <b>'3'</b> to choose black beard</p><p> You only have 3 seconds to pick a pirate, so please make a choice quickly! If you are too slow, you’ll have to wait a bit during the time out.</p><p> Don’t feel rushed, but please do try to make a choice every time.</p><p>How good a pirate is at robbing a ship will change depending on the place they are in and how good the defenses are of the ship.</p><p><b>[Press the space bar to begin the practice game]</b></p></div>",61201fff0f0fe5317fda8105,32,,,,,,,,,,,,,,,,
,html-keyboard-response,3,20364,0.0-3.0,13241.6,"<div class='center'><p>You’ve arrived at the final island of your journey! Unfortunately, it’s very foggy out, so you won’t be able to see it in the distance like the previous islands you've visited.</p><p>You’ll still be deciding which pirate you want to rob a ship like before. However, because of the fog, you also won’t be able to see the ship.</p><p>This means you do not have to remember the ships you rob on this island.</p><p><b>[Press the space bar to continue]</b></p></div>",,32,,,,,,,,,,,,,,,,
,html-keyboard-response,4,28170,0.0-4.0,7804.9,"<div class='center'><p> Sometimes you’ll be shown a ship, and you will be asked if you saw this ship on a past island.</p><p> Here is an example of what you will see.</p><p><b>[Press the space bar to continue]</b></p><p><img src='run_exp/static/images/tutorial/example_recog_trial.png' height='500'></p></div>",,32,,,,,,,,,,,,,,,,
,html-keyboard-response,5,30566,0.0-5.0,2394.5,"<div class='center'><p> You will press the 5, 6, 7, 8 buttons on your keyboard to respond.</p><p>If you are very sure saw the ship, press <b>5</b> on your keyboard.</p><p> If you think you  saw it before but are not sure, then press <b>6</b>.</p><p> If you think you have not seen it before but are not sure, then press <b>7</b>.</p><p> If you are sure you did not see the ship before, then press <b>8</b>.</p><p><b>[Press the space bar to continue]</b></p><p><img src='run_exp/static/images/tutorial/example_recog_trial.png' height='500'></p></div>",,32,,,,,,,,,,,,,,,,
,html-keyboard-response,6,34360,0.0-6.0,3793.1,"<div class='center'><p> If you remember correctly, then you’ll get a gold coin like this: </p><p><img src='run_exp/static/images/tutorial/reward_small.png' height='200'></p><p>If you do not remember correctly, then you'll see a red x like this: </p><p><img src='run_exp/static/images/tutorial/reward_no.png' height='200'></p><p>Importantly, when you are shown a ship, take the time to remind yourself which island you saw it on. This will help you in the next part of the study.</p><p><b>[Press the space bar to continue]</b></p></div>",,32,,,,,,,,,,,,,,,,
,html-keyboard-response,7,41026,0.0-7.0,6665,"<div class='center'><p>Let's go over the important points again. Your job is to: </p><p>1. Pick the pirate who is best at robbing ships and will bring you back gold coins. </p><p>2. Correctly remember whether or not you saw a ship before. If you did see the ship before, remind yourself on which island you saw the ship. </p><p><b>[Press the space bar to begin the next part of the study]</b></p></div>",,32,,,,,,,,,,,,,,,,
,do_welcome,8,42546,0.0-8.0,null,,,,null,,,,,,,,,,,,,,,
,do_trial,9,47440,0.0-9.0-0.0,2345.7,,,,49,"0,1,1",6,blank,230,null,0.15467586,0.250758089,0.692157454,0,,,,,,
,html-keyboard-response,10,48448,0.0-9.0-1.0,null,<p></p>,,null,,,,,,,,,,,,,,,,
,do_trial,11,51398,0.0-10.0-0.0,398.8999996,,,,50,"0,1,0",6,blank,231,null,0.09892387,0.217689291,0.762837776,1,,,,,,
,html-keyboard-response,12,52404,0.0-10.0-1.0,null,<p></p>,,null,,,,,,,,,,,,,,,,
,do_trial,13,55448,0.0-11.0-0.0,493.6999998,,,,49,"0,1,1",6,blank,232,null,0.057685241,0.43553737,0.643152842,0,,,,,,
,html-keyboard-response,14,56452,0.0-11.0-1.0,null,<p></p>,,null,,,,,,,,,,,,,,,,
,do_trial,15,59287,0.0-12.0-0.0,276.8000002,,,,49,"0,0,0",6,blank,233,null,0.179966634,0.567848166,0.610115945,0,,,,,,
,html-keyboard-response,16,60290,0.0-12.0-1.0,null,<p></p>,,null,,,,,,,,,,,,,,,,
,do_trial,17,63109,0.0-13.0-0.0,272,,,,50,"0,0,0",6,blank,234,null,0.050348133,0.522092825,0.639843407,0,,,,,,
,html-keyboard-response,18,64111,0.0-13.0-1.0,null,<p></p>,,null,,,,,,,,,,,,,,,,
,do_trial,19,67172,0.0-14.0-0.0,514.1000004,,,,50,"0,1,0",6,blank,235,null,0.128103734,0.467340186,0.602090149,1,,,,,,
,html-keyboard-response,20,68173,0.0-14.0-1.0,null,<p></p>,,null,,,,,,,,,,,,,,,,
,do_trial,21,71059,0.0-15.0-0.0,338.5,,,,51,"0,1,0",6,blank,236,null,0.267282441,0.375397893,0.629772464,0,,,,,,
,html-keyboard-response,22,72061,0.0-15.0-1.0,null,<p></p>,,null,,,,,,,,,,,,,,,,
,do_trial,23,75508,0.0-16.0-0.0,901,,,,51,"0,0,1",6,blank,237,null,0.11244996,0.488963653,0.542314768,1,,,,,,
,html-keyboard-response,24,76513,0.0-16.0-1.0,null,<p></p>,,null,,,,,,,,,,,,,,,,
,do_trial,25,79403,0.0-17.0-0.0,340.8000002,,,,51,"1,0,1",6,blank,238,null,0.155437724,0.359675538,0.641987985,1,,,,,,
,html-keyboard-response,26,80408,0.0-17.0-1.0,null,<p></p>,,null,,,,,,,,,,,,,,,,
,do_trial,27,83440,0.0-18.0-0.0,486.7000003,,,,51,"0,0,1",6,blank,239,null,0.241123648,0.343072776,0.601613902,1,,,,,,
,html-keyboard-response,28,84446,0.0-18.0-1.0,null,<p></p>,,null,,,,,,,,,,,,,,,,
,do_trial,29,87462,0.0-19.0-0.0,469.2999997,,,,51,"0,0,0",6,blank,240,null,0.206546573,0.230637147,0.587678985,0,,,,,,
,html-keyboard-response,30,88469,0.0-19.0-1.0,null,<p></p>,,null,,,,,,,,,,,,,,,,
,do_recog,31,94487,0.0-20.0-0.0,null,,,,null,,,,241,probe-114,,,,,1,[object Object],167,4,0,
,html-keyboard-response,32,95491,0.0-20.0-1.0,null,<p></p>,,null,,,,,,,,,,,,,,,,
,do_trial,33,99020,0.0-21.0-0.0,980.3000002,,,,50,"0,0,0",6,blank,242,null,0.114183718,0.153191682,0.638609118,0,,,,,,
,html-keyboard-response,34,100025,0.0-21.0-1.0,null,<p></p>,,null,,,,,,,,,,,,,,,,
,do_recog,35,103486,0.0-22.0-0.0,1949,,,,55,,,,243,probe-159,,,,,1,[object Object],86,2,0,
,html-keyboard-response,36,104491,0.0-22.0-1.0,null,<p></p>,,null,,,,,,,,,,,,,,,,
,do_trial,37,107685,0.0-23.0-0.0,647.1999998,,,,49,"0,0,1",6,blank,244,null,0.292729648,0.123355763,0.355529418,0,,,,,,
,html-keyboard-response,38,108688,0.0-23.0-1.0,null,<p></p>,,null,,,,,,,,,,,,,,,,
,do_trial,39,112940,0.0-24.0-0.0,1706.7,,,,50,"0,0,0",6,blank,245,null,0.427267467,0.111136341,0.239757449,0,,,,,,
,html-keyboard-response,40,113944,0.0-24.0-1.0,null,<p></p>,,null,,,,,,,,,,,,,,,,
,do_trial,41,117234,0.0-25.0-0.0,742.5999999,,,,50,"0,0,0",6,blank,246,null,0.47583659,0.098559436,0.230167443,0,,,,,,
,html-keyboard-response,42,118238,0.0-25.0-1.0,null,<p></p>,,null,,,,,,,,,,,,,,,,
,do_trial,43,121356,0.0-26.0-0.0,569.4000001,,,,51,"0,0,0",6,blank,247,null,0.506734335,0.119928163,0.098490261,0,,,,,,
,html-keyboard-response,44,122362,0.0-26.0-1.0,null,<p></p>,,null,,,,,,,,,,,,,,,,
,do_recog,45,126200,0.0-27.0-0.0,2325.8,,,,54,,,,248,probe-05,,,,,1,[object Object],80,2,1,
,html-keyboard-response,46,127205,0.0-27.0-1.0,null,<p></p>,,null,,,,,,,,,,,,,,,,
,do_trial,47,130144,0.0-28.0-0.0,391.8000002,,,,49,"1,0,1",6,blank,249,null,0.660664156,0.142171906,0.166145942,1,,,,,,
,html-keyboard-response,48,131146,0.0-28.0-1.0,null,<p></p>,,null,,,,,,,,,,,,,,,,
,do_recog,49,135094,0.0-29.0-0.0,2435.6,,,,53,,,,250,probe-139,,,,,1,[object Object],82,2,1,
,html-keyboard-response,50,136100,0.0-29.0-1.0,null,<p></p>,,null,,,,,,,,,,,,,,,,
,do_trial,51,139292,0.0-30.0-0.0,646.6999998,,,,49,"1,1,0",6,blank,251,null,0.76438113,0.161211561,0.115865453,1,,,,,,
,html-keyboard-response,52,140294,0.0-30.0-1.0,null,<p></p>,,null,,,,,,,,,,,,,,,,
,do_trial,53,143376,0.0-31.0-0.0,534.4000001,,,,49,"1,1,0",6,blank,252,null,0.630051718,0.218777603,0.173215663,1,,,,,,
,html-keyboard-response,54,144381,0.0-31.0-1.0,null,<p></p>,,null,,,,,,,,,,,,,,,,
,do_trial,55,147431,0.0-32.0-0.0,505.7000003,,,,49,"1,1,0",6,blank,253,null,0.586194155,0.14428779,0.166318081,1,,,,,,
,html-keyboard-response,56,148433,0.0-32.0-1.0,null,<p></p>,,null,,,,,,,,,,,,,,,,
,do_trial,57,151466,0.0-33.0-0.0,485.5,,,,49,"1,0,0",6,blank,254,null,0.504973453,0.061028462,0.211279937,1,,,,,,
,html-keyboard-response,58,152470,0.0-33.0-1.0,null,<p></p>,,null,,,,,,,,,,,,,,,,
,do_trial,59,155498,0.0-34.0-0.0,481.6999998,,,,49,"0,0,0",6,blank,255,null,0.586565556,0.051069717,0.140807384,0,,,,,,
,html-keyboard-response,60,156501,0.0-34.0-1.0,null,<p></p>,,null,,,,,,,,,,,,,,,,
,do_trial,61,159461,0.0-35.0-0.0,414.5,,,,49,"0,0,0",6,blank,256,null,0.576147851,0.193620692,0.194197078,0,,,,,,
,html-keyboard-response,62,160463,0.0-35.0-1.0,null,<p></p>,,null,,,,,,,,,,,,,,,,
,do_recog,63,164372,0.0-36.0-0.0,2396.2,,,,56,,,,257,probe-132,,,,,1,[object Object],85,2,0,
,html-keyboard-response,64,165377,0.0-36.0-1.0,null,<p></p>,,null,,,,,,,,,,,,,,,,
,do_trial,65,168815,0.0-37.0-0.0,891.8000002,,,,51,"1,1,0",6,blank,258,null,0.717359883,0.233514876,0.194962924,0,,,,,,
,html-keyboard-response,66,169822,0.0-37.0-1.0,null,<p></p>,,null,,,,,,,,,,,,,,,,
,do_recog,67,174256,0.0-38.0-0.0,2922.4,,,,53,,,,259,probe-169,,,,,1,[object Object],84,2,1,
,html-keyboard-response,68,175259,0.0-38.0-1.0,null,<p></p>,,null,,,,,,,,,,,,,,,,
,do_trial,69,178565,0.0-39.0-0.0,757.1999998,,,,50,"0,0,0",6,blank,260,null,0.632556829,0.141787293,0.150191949,0,,,,,,
,html-keyboard-response,70,179573,0.0-39.0-1.0,null,<p></p>,,null,,,,,,,,,,,,,,,,
,do_trial,71,182564,0.0-40.0-0.0,456.5999999,,,,51,"1,0,0",6,blank,261,null,0.710348933,0.062373141,0.149660317,0,,,,,,
,html-keyboard-response,72,183570,0.0-40.0-1.0,null,<p></p>,,null,,,,,,,,,,,,,,,,
,do_trial,73,186895,0.0-41.0-0.0,777.6000004,,,,51,"1,0,1",6,blank,262,null,0.725701845,0.143888647,0.302537385,1,,,,,,
,html-keyboard-response,74,187901,0.0-41.0-1.0,null,<p></p>,,null,,,,,,,,,,,,,,,,
,do_trial,75,190939,0.0-42.0-0.0,488.8000002,,,,51,"1,0,0",6,blank,263,null,0.600216764,0.090775264,0.3815761,0,,,,,,
,html-keyboard-response,76,191945,0.0-42.0-1.0,null,<p></p>,,null,,,,,,,,,,,,,,,,
,do_recog,77,195207,0.0-43.0-0.0,1752.9,,,,56,,,,264,probe-179,,,,,1,[object Object],122,3,0,
,html-keyboard-response,78,196212,0.0-43.0-1.0,null,<p></p>,,null,,,,,,,,,,,,,,,,
,do_trial,79,199735,0.0-44.0-0.0,974.2000003,,,,51,"1,0,1",6,blank,265,null,0.632125864,0.089777246,0.358113109,1,,,,,,
,html-keyboard-response,80,200740,0.0-44.0-1.0,null,<p></p>,,null,,,,,,,,,,,,,,,,
,do_recog,81,204294,0.0-45.0-0.0,2047.8,,,,55,,,,266,probe-200,,,,,1,[object Object],163,4,0,
,html-keyboard-response,82,205296,0.0-45.0-1.0,null,<p></p>,,null,,,,,,,,,,,,,,,,
,do_trial,83,209413,0.0-46.0-0.0,1571.5,,,,49,"1,0,0",6,blank,267,null,0.598580714,0.13804706,0.124217773,1,,,,,,
,html-keyboard-response,84,210416,0.0-46.0-1.0,null,<p></p>,,null,,,,,,,,,,,,,,,,
,do_trial,85,213495,0.0-47.0-0.0,531.2999997,,,,49,"1,1,0",6,blank,268,null,0.658958204,0.119492677,0.268198579,1,,,,,,
,html-keyboard-response,86,214497,0.0-47.0-1.0,null,<p></p>,,null,,,,,,,,,,,,,,,,
,do_trial,87,217358,0.0-48.0-0.0,312.5,,,,49,"0,0,0",6,blank,269,null,0.638065921,0.081145105,0.185694445,0,,,,,,
,html-keyboard-response,88,218362,0.0-48.0-1.0,null,<p></p>,,null,,,,,,,,,,,,,,,,
,do_trial,89,222327,0.0-49.0-0.0,1415.9,,,,50,"1,0,1",6,blank,270,null,0.658308673,0.080621925,0.246451254,0,,,,,,
,html-keyboard-response,90,223329,0.0-49.0-1.0,null,<p></p>,,null,,,,,,,,,,,,,,,,
,do_trial,91,226261,0.0-50.0-0.0,385.0999999,,,,49,"1,0,0",6,blank,271,null,0.515171445,0.077913024,0.358621677,1,,,,,,
,html-keyboard-response,92,227267,0.0-50.0-1.0,null,<p></p>,,null,,,,,,,,,,,,,,,,
,do_recog,93,230930,0.0-51.0-0.0,2154.8,,,,53,,,,272,probe-211,,,,,1,[object Object],81,2,1,
,html-keyboard-response,94,231935,0.0-51.0-1.0,null,<p></p>,,null,,,,,,,,,,,,,,,,
,do_trial,95,235616,0.0-52.0-0.0,1132.2,,,,49,"0,0,0",6,blank,273,null,0.404416797,0.13317855,0.5163318,0,,,,,,
,html-keyboard-response,96,236621,0.0-52.0-1.0,null,<p></p>,,null,,,,,,,,,,,,,,,,
,do_trial,97,239561,0.0-53.0-0.0,390.4000001,,,,50,"0,0,1",6,blank,274,null,0.388671429,0.104409247,0.418535808,0,,,,,,
,html-keyboard-response,98,240562,0.0-53.0-1.0,null,<p></p>,,null,,,,,,,,,,,,,,,,
,do_trial,99,243490,0.0-54.0-0.0,379.7000003,,,,51,"0,0,1",6,blank,275,null,0.29740769,0.050946176,0.262733707,1,,,,,,
,html-keyboard-response,100,244495,0.0-54.0-1.0,null,<p></p>,,null,,,,,,,,,,,,,,,,
,do_trial,101,247493,0.0-55.0-0.0,453.0999999,,,,51,"1,0,0",6,blank,276,null,0.429840574,0.122664428,0.293356636,0,,,,,,
,html-keyboard-response,102,248496,0.0-55.0-1.0,null,<p></p>,,null,,,,,,,,,,,,,,,,
,do_trial,103,251481,0.0-56.0-0.0,435.8000002,,,,51,"0,0,0",6,blank,277,null,0.500985825,0.135663131,0.265219836,0,,,,,,
,html-keyboard-response,104,252487,0.0-56.0-1.0,null,<p></p>,,null,,,,,,,,,,,,,,,,
,do_trial,105,255710,0.0-57.0-0.0,676.0999999,,,,51,"0,0,0",6,blank,278,null,0.491673498,0.24506449,0.229139734,0,,,,,,
,html-keyboard-response,106,256712,0.0-57.0-1.0,null,<p></p>,,null,,,,,,,,,,,,,,,,
,do_recog,107,259850,0.0-58.0-0.0,1630,,,,53,,,,279,probe-137,,,,,1,[object Object],205,5,1,
,html-keyboard-response,108,260854,0.0-58.0-1.0,null,<p></p>,,null,,,,,,,,,,,,,,,,
,do_trial,109,263797,0.0-59.0-0.0,396.5999999,,,,49,"1,0,0",6,blank,280,null,0.502731683,0.24348575,0.354117082,1,,,,,,
,html-keyboard-response,110,264801,0.0-59.0-1.0,null,<p></p>,,null,,,,,,,,,,,,,,,,
,do_trial,111,267839,0.0-60.0-0.0,490.6999998,,,,49,"0,1,0",6,blank,281,null,0.437395471,0.258786747,0.228508117,0,,,,,,
,html-keyboard-response,112,268843,0.0-60.0-1.0,null,<p></p>,,null,,,,,,,,,,,,,,,,
,do_trial,113,271700,0.0-61.0-0.0,307.0999999,,,,51,"1,0,0",6,blank,282,null,0.390611878,0.30946568,0.153444205,0,,,,,,
,html-keyboard-response,114,272704,0.0-61.0-1.0,null,<p></p>,,null,,,,,,,,,,,,,,,,
,do_trial,115,275722,0.0-62.0-0.0,473.5,,,,49,"0,0,0",6,blank,283,null,0.503155391,0.112441737,0.274081511,0,,,,,,
,html-keyboard-response,116,276725,0.0-62.0-1.0,null,<p></p>,,null,,,,,,,,,,,,,,,,
,do_trial,117,279721,0.0-63.0-0.0,451.6000004,,,,51,"0,0,0",6,blank,284,null,0.430251918,0.072365446,0.269507291,0,,,,,,
,html-keyboard-response,118,280727,0.0-63.0-1.0,null,<p></p>,,null,,,,,,,,,,,,,,,,
,do_trial,119,283756,0.0-64.0-0.0,479.9000001,,,,51,"0,0,0",6,blank,285,null,0.599941385,0.117806021,0.288531292,0,,,,,,
,html-keyboard-response,120,284759,0.0-64.0-1.0,null,<p></p>,,null,,,,,,,,,,,,,,,,
,do_trial,121,287669,0.0-65.0-0.0,366.2000003,,,,50,"1,1,0",6,blank,286,null,0.473044442,0.068964656,0.26786765,1,,,,,,
,html-keyboard-response,122,288676,0.0-65.0-1.0,null,<p></p>,,null,,,,,,,,,,,,,,,,
,do_recog,123,291904,0.0-66.0-0.0,1715.3,,,,53,,,,287,probe-230,,,,,1,[object Object],162,4,1,
,html-keyboard-response,124,292908,0.0-66.0-1.0,null,<p></p>,,null,,,,,,,,,,,,,,,,
,do_trial,125,296247,0.0-67.0-0.0,793.2999997,,,,50,"0,0,0",6,blank,288,null,0.466964037,0.07326403,0.279353598,0,,,,,,
,html-keyboard-response,126,297249,0.0-67.0-1.0,null,<p></p>,,null,,,,,,,,,,,,,,,,
,do_recog,127,300901,0.0-68.0-0.0,2142.6,,,,55,,,,289,probe-70,,,,,1,[object Object],166,4,0,
,html-keyboard-response,128,301906,0.0-68.0-1.0,null,<p></p>,,null,,,,,,,,,,,,,,,,
,do_trial,129,304866,0.0-69.0-0.0,411.3999996,,,,51,"0,0,0",6,blank,290,null,0.573782822,0.086987873,0.375954318,0,,,,,,
,html-keyboard-response,130,305872,0.0-69.0-1.0,null,<p></p>,,null,,,,,,,,,,,,,,,,
,do_trial,131,308769,0.0-70.0-0.0,347.9000001,,,,49,"1,0,0",6,blank,291,null,0.629442685,0.10634234,0.320833332,1,,,,,,
,html-keyboard-response,132,309774,0.0-70.0-1.0,null,<p></p>,,null,,,,,,,,,,,,,,,,
,do_trial,133,312975,0.0-71.0-0.0,652.3000002,,,,49,"0,1,0",6,blank,292,null,0.535602966,0.312191197,0.280802205,0,,,,,,
,html-keyboard-response,134,313981,0.0-71.0-1.0,null,<p></p>,,null,,,,,,,,,,,,,,,,
,do_trial,135,316857,0.0-72.0-0.0,328.0999999,,,,50,"0,1,1",6,blank,293,null,0.439294811,0.268573688,0.296980342,1,,,,,,
,html-keyboard-response,136,317863,0.0-72.0-1.0,null,<p></p>,,null,,,,,,,,,,,,,,,,
,do_trial,137,320743,0.0-73.0-0.0,330.9000001,,,,50,"0,0,0",6,blank,294,null,0.196215714,0.322230147,0.264656436,0,,,,,,
,html-keyboard-response,138,321748,0.0-73.0-1.0,null,<p></p>,,null,,,,,,,,,,,,,,,,
,do_recog,139,325009,0.0-74.0-0.0,1753.8,,,,53,,,,295,probe-42,,,,,1,[object Object],161,4,1,
,html-keyboard-response,140,326013,0.0-74.0-1.0,null,<p></p>,,null,,,,,,,,,,,,,,,,
,do_trial,141,328979,0.0-75.0-0.0,418,,,,51,"0,0,0",6,blank,296,null,0.209045504,0.347624561,0.115120148,0,,,,,,
,html-keyboard-response,142,329980,0.0-75.0-1.0,null,<p></p>,,null,,,,,,,,,,,,,,,,
,do_trial,143,332975,0.0-76.0-0.0,446.2000003,,,,49,"0,1,0",6,blank,297,null,0.320167046,0.428414367,0.144030153,0,,,,,,
,html-keyboard-response,144,333978,0.0-76.0-1.0,null,<p></p>,,null,,,,,,,,,,,,,,,,
,do_recog,145,337733,0.0-77.0-0.0,2248.3,,,,54,,,,298,probe-87,,,,,1,[object Object],202,5,1,
,html-keyboard-response,146,338736,0.0-77.0-1.0,null,<p></p>,,null,,,,,,,,,,,,,,,,
,do_trial,147,341692,0.0-78.0-0.0,405,,,,51,"0,1,0",6,blank,299,null,0.262686403,0.482695781,0.066423542,0,,,,,,
,html-keyboard-response,148,342694,0.0-78.0-1.0,null,<p></p>,,null,,,,,,,,,,,,,,,,
,do_trial,149,345579,0.0-79.0-0.0,343.3000002,,,,50,"1,0,0",6,blank,300,null,0.309966444,0.615242669,0.074854848,0,,,,,,
,html-keyboard-response,150,346584,0.0-79.0-1.0,null,<p></p>,,null,,,,,,,,,,,,,,,,
,do_recog,151,350306,0.0-80.0-0.0,2209.7,,,,53,,,,301,probe-126,,,,,1,[object Object],49,1,1,
,html-keyboard-response,152,351312,0.0-80.0-1.0,null,<p></p>,,null,,,,,,,,,,,,,,,,
,do_trial,153,354238,0.0-81.0-0.0,376.5999999,,,,49,"0,1,1",6,blank,302,null,0.361257364,0.661945934,0.13989259,0,,,,,,
,html-keyboard-response,154,355240,0.0-81.0-1.0,null,<p></p>,,null,,,,,,,,,,,,,,,,
,do_trial,155,358187,0.0-82.0-0.0,402.0999999,,,,50,"0,1,0",6,blank,303,null,0.358292732,0.736097065,0.157368386,1,,,,,,
,html-keyboard-response,156,359193,0.0-82.0-1.0,null,<p></p>,,null,,,,,,,,,,,,,,,,
,do_trial,157,362181,0.0-83.0-0.0,443.0999999,,,,50,"0,1,0",6,blank,304,null,0.421689987,0.749700419,0.224373082,1,,,,,,
,html-keyboard-response,158,363187,0.0-83.0-1.0,null,<p></p>,,null,,,,,,,,,,,,,,,,
,do_trial,159,366234,0.0-84.0-0.0,500.8000002,,,,50,"0,1,0",6,blank,305,null,0.337898001,0.76717548,0.16213079,1,,,,,,
,html-keyboard-response,160,367237,0.0-84.0-1.0,null,<p></p>,,null,,,,,,,,,,,,,,,,
,do_trial,161,370183,0.0-85.0-0.0,398.5999999,,,,50,"0,1,0",6,blank,306,null,0.294193378,0.680358537,0.123869753,1,,,,,,
,html-keyboard-response,162,371190,0.0-85.0-1.0,null,<p></p>,,null,,,,,,,,,,,,,,,,
,do_recog,163,374363,0.0-86.0-0.0,1664.4,,,,53,,,,307,probe-110,,,,,1,[object Object],120,3,1,
,html-keyboard-response,164,375366,0.0-86.0-1.0,null,<p></p>,,null,,,,,,,,,,,,,,,,
,do_trial,165,378284,0.0-87.0-0.0,369.6999998,,,,50,"1,1,0",6,blank,308,null,0.439232854,0.67859927,0.115974511,1,,,,,,
,html-keyboard-response,166,379288,0.0-87.0-1.0,null,<p></p>,,null,,,,,,,,,,,,,,,,
,do_trial,167,382196,0.0-88.0-0.0,360.2000003,,,,50,"0,1,0",6,blank,309,null,0.273080238,0.607830092,0.069327497,1,,,,,,
,html-keyboard-response,168,383203,0.0-88.0-1.0,null,<p></p>,,null,,,,,,,,,,,,,,,,
,do_trial,169,386112,0.0-89.0-0.0,363.5,,,,50,"1,1,0",6,blank,310,null,0.353001201,0.707773211,0.142476851,1,,,,,,
,html-keyboard-response,170,387118,0.0-89.0-1.0,null,<p></p>,,null,,,,,,,,,,,,,,,,
,do_trial,171,390317,0.0-90.0-0.0,653,,,,50,"0,1,0",6,blank,311,null,0.180301308,0.754788741,0.115569218,1,,,,,,
,html-keyboard-response,172,391323,0.0-90.0-1.0,null,<p></p>,,null,,,,,,,,,,,,,,,,
,do_recog,173,394372,0.0-91.0-0.0,1536.6,,,,53,,,,312,probe-37,,,,,1,[object Object],164,4,1,
,html-keyboard-response,174,395379,0.0-91.0-1.0,null,<p></p>,,null,,,,,,,,,,,,,,,,
,do_trial,175,398390,0.0-92.0-0.0,463,,,,50,"0,1,0",6,blank,313,null,0.159879647,0.794049864,0.09930671,1,,,,,,
,html-keyboard-response,176,399396,0.0-92.0-1.0,null,<p></p>,,null,,,,,,,,,,,,,,,,
,do_trial,177,402505,0.0-93.0-0.0,563.5,,,,50,"1,0,0",6,blank,314,null,0.357630848,0.69726372,0.062235039,0,,,,,,
,html-keyboard-response,178,403511,0.0-93.0-1.0,null,<p></p>,,null,,,,,,,,,,,,,,,,
,do_trial,179,406445,0.0-94.0-0.0,385.7000003,,,,51,"0,1,0",6,blank,315,null,0.396664526,0.671618115,0.061334759,0,,,,,,
,html-keyboard-response,180,407448,0.0-94.0-1.0,null,<p></p>,,null,,,,,,,,,,,,,,,,
,do_recog,181,411212,0.0-95.0-0.0,2252.5,,,,53,,,,316,probe-127,,,,,1,[object Object],46,1,1,
,html-keyboard-response,182,412217,0.0-95.0-1.0,null,<p></p>,,null,,,,,,,,,,,,,,,,
,do_trial,183,415503,0.0-96.0-0.0,737.5,,,,49,"1,1,0",6,blank,317,null,0.285215145,0.653995652,0.1947528,1,,,,,,
,html-keyboard-response,184,416508,0.0-96.0-1.0,null,<p></p>,,null,,,,,,,,,,,,,,,,
,do_trial,185,419477,0.0-97.0-0.0,421.3999996,,,,49,"1,1,0",6,blank,318,null,0.473804566,0.635345035,0.219367701,1,,,,,,
,html-keyboard-response,186,420484,0.0-97.0-1.0,null,<p></p>,,null,,,,,,,,,,,,,,,,
,do_trial,187,423512,0.0-98.0-0.0,479.1999998,,,,49,"0,1,1",6,blank,319,null,0.205949412,0.648554373,0.068901569,0,,,,,,
,html-keyboard-response,188,424518,0.0-98.0-1.0,null,<p></p>,,null,,,,,,,,,,,,,,,,
,do_recog,189,428092,0.0-99.0-0.0,2062.2,,,,54,,,,320,probe-150,,,,,1,[object Object],44,1,1,
,html-keyboard-response,190,429097,0.0-99.0-1.0,null,<p></p>,,null,,,,,,,,,,,,,,,,
,do_trial,191,432228,0.0-100.0-0.0,586.5,,,,50,"1,1,0",6,blank,321,null,0.346885414,0.546120004,0.070970946,1,,,,,,
,html-keyboard-response,192,433230,0.0-100.0-1.0,null,<p></p>,,null,,,,,,,,,,,,,,,,
,do_trial,193,436290,0.0-101.0-0.0,514.5,,,,51,"0,0,0",6,blank,322,null,0.258931617,0.467010137,0.2084472,0,,,,,,
,html-keyboard-response,194,437295,0.0-101.0-1.0,null,<p></p>,,null,,,,,,,,,,,,,,,,
,do_recog,195,440624,0.0-102.0-0.0,1816.6,,,,53,,,,323,probe-45,,,,,1,[object Object],207,5,1,
,html-keyboard-response,196,441629,0.0-102.0-1.0,null,<p></p>,,null,,,,,,,,,,,,,,,,
,do_trial,197,444604,0.0-103.0-0.0,426.0999999,,,,49,"1,1,0",6,blank,324,null,0.297125407,0.549929965,0.226323313,1,,,,,,
,html-keyboard-response,198,445610,0.0-103.0-1.0,null,<p></p>,,null,,,,,,,,,,,,,,,,
,do_recog,199,448893,0.0-104.0-0.0,1771,,,,53,,,,325,probe-202,,,,,1,[object Object],87,2,1,
,html-keyboard-response,200,449897,0.0-104.0-1.0,null,<p></p>,,null,,,,,,,,,,,,,,,,
,do_trial,201,453069,0.0-105.0-0.0,623.3000002,,,,49,"0,1,0",6,blank,326,null,0.216062384,0.569866413,0.222168406,0,,,,,,
,html-keyboard-response,202,454074,0.0-105.0-1.0,null,<p></p>,,null,,,,,,,,,,,,,,,,
,do_trial,203,456919,0.0-106.0-0.0,295.3999996,,,,50,"0,0,0",6,blank,327,null,0.167628412,0.597696838,0.284336131,0,,,,,,
,html-keyboard-response,204,457921,0.0-106.0-1.0,null,<p></p>,,null,,,,,,,,,,,,,,,,
,do_trial,205,460877,0.0-107.0-0.0,407.5999999,,,,51,"0,0,0",6,blank,328,null,0.086350534,0.62069567,0.21364477,0,,,,,,
,html-keyboard-response,206,461879,0.0-107.0-1.0,null,<p></p>,,null,,,,,,,,,,,,,,,,
,do_trial,207,465033,0.0-108.0-0.0,605.1999998,,,,49,"0,1,1",6,blank,329,null,0.288657095,0.591657962,0.272062369,0,,,,,,
,html-keyboard-response,208,466036,0.0-108.0-1.0,null,<p></p>,,null,,,,,,,,,,,,,,,,
,do_recog,209,469027,0.0-109.0-0.0,1480.9,,,,53,,,,330,probe-226,,,,,1,[object Object],43,1,1,
,html-keyboard-response,210,470029,0.0-109.0-1.0,null,<p></p>,,null,,,,,,,,,,,,,,,,
,do_trial,211,472944,0.0-110.0-0.0,365.4000001,,,,50,"0,0,0",6,blank,331,null,0.14918536,0.436712997,0.125354709,0,,,,,,
,html-keyboard-response,212,473947,0.0-110.0-1.0,null,<p></p>,,null,,,,,,,,,,,,,,,,
,do_trial,213,476910,0.0-111.0-0.0,413.4000001,,,,51,"0,1,0",6,blank,332,null,0.162179447,0.512842101,0.056738855,0,,,,,,
,html-keyboard-response,214,477912,0.0-111.0-1.0,null,<p></p>,,null,,,,,,,,,,,,,,,,
,do_trial,215,480948,0.0-112.0-0.0,486.2000003,,,,51,"1,0,0",6,blank,333,null,0.268838219,0.520318386,0.20791521,0,,,,,,
,html-keyboard-response,216,481954,0.0-112.0-1.0,null,<p></p>,,null,,,,,,,,,,,,,,,,
,do_trial,217,484927,0.0-113.0-0.0,425.1999998,,,,50,"0,0,0",6,blank,334,null,0.430696251,0.494134188,0.22636289,0,,,,,,
,html-keyboard-response,218,485929,0.0-113.0-1.0,null,<p></p>,,null,,,,,,,,,,,,,,,,
,do_trial,219,488798,0.0-114.0-0.0,320.2999997,,,,49,"0,0,0",6,blank,335,null,0.361690879,0.529408554,0.150486869,0,,,,,,
,html-keyboard-response,220,489800,0.0-114.0-1.0,null,<p></p>,,null,,,,,,,,,,,,,,,,
,do_trial,221,493204,0.0-115.0-0.0,855.2999997,,,,50,"0,0,0",6,blank,336,null,0.27328955,0.655499823,0.095498051,0,,,,,,
,html-keyboard-response,222,494211,0.0-115.0-1.0,null,<p></p>,,null,,,,,,,,,,,,,,,,
,do_recog,223,497828,0.0-116.0-0.0,2108.5,,,,54,,,,337,probe-57,,,,,1,[object Object],45,1,1,
,html-keyboard-response,224,498832,0.0-116.0-1.0,null,<p></p>,,null,,,,,,,,,,,,,,,,
,do_trial,225,501978,0.0-117.0-0.0,598,,,,51,"0,1,0",6,blank,338,null,0.259175592,0.69334409,0.076931133,0,,,,,,
,html-keyboard-response,226,502982,0.0-117.0-1.0,null,<p></p>,,null,,,,,,,,,,,,,,,,
,do_trial,227,505866,0.0-118.0-0.0,337.1999998,,,,51,"0,1,0",6,blank,339,null,0.257843217,0.730248937,0.095777309,0,,,,,,
,html-keyboard-response,228,506870,0.0-118.0-1.0,null,<p></p>,,null,,,,,,,,,,,,,,,,
,do_trial,229,509845,0.0-119.0-0.0,427,,,,51,"0,1,0",6,blank,340,null,0.103494277,0.669001913,0.173863599,0,,,,,,
,html-keyboard-response,230,510852,0.0-119.0-1.0,null,<p></p>,,null,,,,,,,,,,,,,,,,
,do_trial,231,513842,0.0-120.0-0.0,441.4000001,,,,49,"0,1,0",6,blank,341,null,0.06096554,0.627528858,0.196991033,0,,,,,,
,html-keyboard-response,232,514845,0.0-120.0-1.0,null,<p></p>,,null,,,,,,,,,,,,,,,,
,do_trial,233,518059,0.0-121.0-0.0,669.3000002,,,,49,"0,1,0",6,blank,342,null,0.266397317,0.677895056,0.475559506,0,,,,,,
,html-keyboard-response,234,519068,0.0-121.0-1.0,null,<p></p>,,null,,,,,,,,,,,,,,,,
,do_recog,235,522328,0.0-122.0-0.0,1748.4,,,,53,,,,343,probe-18,,,,,1,[object Object],121,3,1,
,html-keyboard-response,236,523332,0.0-122.0-1.0,null,<p></p>,,null,,,,,,,,,,,,,,,,
,do_trial,237,526452,0.0-123.0-0.0,574.2000003,,,,49,"1,0,0",6,blank,344,null,0.207542941,0.663450273,0.449971467,1,,,,,,
,html-keyboard-response,238,527457,0.0-123.0-1.0,null,<p></p>,,null,,,,,,,,,,,,,,,,
,do_recog,239,530437,0.0-124.0-0.0,1470.9,,,,53,,,,345,probe-160,,,,,1,[object Object],123,3,1,
,html-keyboard-response,240,531442,0.0-124.0-1.0,null,<p></p>,,null,,,,,,,,,,,,,,,,
,do_trial,241,534505,0.0-125.0-0.0,518,,,,49,"0,1,1",6,blank,346,null,0.162338329,0.738097532,0.481302683,0,,,,,,
,html-keyboard-response,242,535512,0.0-125.0-1.0,null,<p></p>,,null,,,,,,,,,,,,,,,,
,do_trial,243,538573,0.0-126.0-0.0,514.4000001,,,,50,"0,1,1",6,blank,347,null,0.061467193,0.52445331,0.395618125,1,,,,,,
,html-keyboard-response,244,539576,0.0-126.0-1.0,null,<p></p>,,null,,,,,,,,,,,,,,,,
,do_trial,245,543115,0.0-127.0-0.0,993.8000002,,,,50,"0,0,0",6,blank,348,null,0.099361024,0.467382693,0.62406155,0,,,,,,
,html-keyboard-response,246,544121,0.0-127.0-1.0,null,<p></p>,,null,,,,,,,,,,,,,,,,
,do_trial,247,547204,0.0-128.0-0.0,538.3999996,,,,49,"0,0,1",6,blank,349,null,0.081241476,0.423742871,0.528429634,0,,,,,,
,html-keyboard-response,248,548208,0.0-128.0-1.0,null,<p></p>,,null,,,,,,,,,,,,,,,,
,do_trial,249,551575,0.0-129.0-0.0,820,,,,50,"1,0,1",6,blank,350,null,0.077638329,0.289713706,0.636356665,0,,,,,,
,html-keyboard-response,250,552578,0.0-129.0-1.0,null,<p></p>,,null,,,,,,,,,,,,,,,,
,do_trial,251,555550,0.0-130.0-0.0,426.2000003,,,,50,"0,0,1",6,blank,351,null,0.102573363,0.325057517,0.606184381,0,,,,,,
,html-keyboard-response,252,556555,0.0-130.0-1.0,null,<p></p>,,null,,,,,,,,,,,,,,,,
,do_trial,253,559887,0.0-131.0-0.0,788.1999998,,,,50,"0,0,0",6,blank,352,null,0.096985931,0.267337528,0.604660234,0,,,,,,
,html-keyboard-response,254,560893,0.0-131.0-1.0,null,<p></p>,,null,,,,,,,,,,,,,,,,
,do_recog,255,564067,0.0-132.0-0.0,1661.6,,,,53,,,,353,probe-187,,,,,1,[object Object],125,3,1,
,html-keyboard-response,256,565071,0.0-132.0-1.0,null,<p></p>,,null,,,,,,,,,,,,,,,,
,do_trial,257,568003,0.0-133.0-0.0,382.9000001,,,,49,"0,1,0",6,blank,354,null,0.096894115,0.314137496,0.730882692,0,,,,,,
,html-keyboard-response,258,569010,0.0-133.0-1.0,null,<p></p>,,null,,,,,,,,,,,,,,,,
,do_recog,259,571956,0.0-134.0-0.0,1435.8,,,,53,,,,355,probe-238,,,,,0,[object Object],null,null,0,
,html-keyboard-response,260,572960,0.0-134.0-1.0,null,<p></p>,,null,,,,,,,,,,,,,,,,
,do_trial,261,576006,0.0-135.0-0.0,498.3000002,,,,49,"0,1,1",6,blank,356,null,0.075242298,0.3144257,0.688718821,0,,,,,,
,html-keyboard-response,262,577009,0.0-135.0-1.0,null,<p></p>,,null,,,,,,,,,,,,,,,,
,do_trial,263,580200,0.0-136.0-0.0,643.6999998,,,,49,"0,0,1",6,blank,357,null,0.148233258,0.355468599,0.716093291,0,,,,,,
,html-keyboard-response,264,581203,0.0-136.0-1.0,null,<p></p>,,null,,,,,,,,,,,,,,,,
,do_trial,265,584474,0.0-137.0-0.0,726.5,,,,51,"0,1,1",6,blank,358,null,0.128397,0.358240485,0.699184702,1,,,,,,
,html-keyboard-response,266,585479,0.0-137.0-1.0,null,<p></p>,,null,,,,,,,,,,,,,,,,
,do_trial,267,588435,0.0-138.0-0.0,406.6000004,,,,51,"0,0,0",6,blank,359,null,0.092359182,0.262474875,0.575159837,0,,,,,,
,html-keyboard-response,268,589441,0.0-138.0-1.0,null,<p></p>,,null,,,,,,,,,,,,,,,,
,do_trial,269,592470,0.0-139.0-0.0,478.9000001,,,,51,"0,0,0",6,blank,360,null,0.084956445,0.317024292,0.669676405,0,,,,,,
,html-keyboard-response,270,593476,0.0-139.0-1.0,null,<p></p>,,null,,,,,,,,,,,,,,,,
,do_recog,271,597452,0.0-140.0-0.0,2463.8,,,,55,,,,361,probe-220,,,,,1,[object Object],208,5,0,
,html-keyboard-response,272,598457,0.0-140.0-1.0,null,<p></p>,,null,,,,,,,,,,,,,,,,
,do_trial,273,601442,0.0-141.0-0.0,438.5,,,,51,"0,0,1",6,blank,362,null,0.199313041,0.326835001,0.53535841,1,,,,,,
,html-keyboard-response,274,602449,0.0-141.0-1.0,null,<p></p>,,null,,,,,,,,,,,,,,,,
,do_recog,275,605902,0.0-142.0-0.0,1945.7,,,,55,,,,363,probe-168,,,,,1,[object Object],41,1,0,
,html-keyboard-response,276,606906,0.0-142.0-1.0,null,<p></p>,,null,,,,,,,,,,,,,,,,
,do_trial,277,609874,0.0-143.0-0.0,419.2999997,,,,49,"0,0,1",6,blank,364,null,0.174533761,0.34344245,0.651907434,0,,,,,,
,html-keyboard-response,278,610879,0.0-143.0-1.0,null,<p></p>,,null,,,,,,,,,,,,,,,,
,do_recog,279,616891,0.0-144.0-0.0,null,,,,null,,,,365,probe-40,,,,,1,[object Object],89,2,0,
,html-keyboard-response,280,617895,0.0-144.0-1.0,null,<p></p>,,null,,,,,,,,,,,,,,,,
,do_trial,281,620969,0.0-145.0-0.0,526.2000003,,,,49,"0,0,0",6,blank,366,null,0.114779572,0.265609186,0.686349161,0,,,,,,
,html-keyboard-response,282,621975,0.0-145.0-1.0,null,<p></p>,,null,,,,,,,,,,,,,,,,
,do_recog,283,625058,0.0-146.0-0.0,1571,,,,53,,,,367,probe-108,,,,,1,[object Object],165,4,1,
,html-keyboard-response,284,626064,0.0-146.0-1.0,null,<p></p>,,null,,,,,,,,,,,,,,,,
,do_trial,285,629030,0.0-147.0-0.0,421.1999998,,,,50,"0,1,0",6,blank,368,null,0.238797546,0.373575394,0.5649155,1,,,,,,
,html-keyboard-response,286,630035,0.0-147.0-1.0,null,<p></p>,,null,,,,,,,,,,,,,,,,
,do_recog,287,633286,0.0-148.0-0.0,1743.7,,,,53,,,,369,probe-204,,,,,1,[object Object],48,1,1,
,html-keyboard-response,288,634292,0.0-148.0-1.0,null,<p></p>,,null,,,,,,,,,,,,,,,,
,do_trial,289,637308,0.0-149.0-0.0,469.2999997,,,,50,"0,0,1",6,blank,370,null,0.241208548,0.272062547,0.599207507,0,,,,,,
,html-keyboard-response,290,638312,0.0-149.0-1.0,null,<p></p>,,null,,,,,,,,,,,,,,,,
,do_recog,291,641750,0.0-150.0-0.0,1930.9,,,,55,,,,371,probe-184,,,,,1,[object Object],201,5,0,
,html-keyboard-response,292,642753,0.0-150.0-1.0,null,<p></p>,,null,,,,,,,,,,,,,,,,
,do_trial,293,646243,0.0-151.0-0.0,943.6999998,,,,50,"0,0,1",6,blank,372,null,0.245939772,0.20706007,0.565665868,0,,,,,,
,html-keyboard-response,294,647249,0.0-151.0-1.0,null,<p></p>,,null,,,,,,,,,,,,,,,,
,do_trial,295,650221,0.0-152.0-0.0,422.8000002,,,,51,"0,1,1",6,blank,373,null,0.07616786,0.283217187,0.557261639,1,,,,,,
,html-keyboard-response,296,651227,0.0-152.0-1.0,null,<p></p>,,null,,,,,,,,,,,,,,,,
,do_trial,297,654273,0.0-153.0-0.0,498.8000002,,,,51,"1,0,0",6,blank,374,null,0.155531222,0.38318089,0.816317899,0,,,,,,
,html-keyboard-response,298,655279,0.0-153.0-1.0,null,<p></p>,,null,,,,,,,,,,,,,,,,
,do_recog,299,658535,0.0-154.0-0.0,1744,,,,53,,,,375,probe-101,,,,,1,[object Object],83,2,1,
,html-keyboard-response,300,659540,0.0-154.0-1.0,null,<p></p>,,null,,,,,,,,,,,,,,,,
,do_trial,301,662678,0.0-155.0-0.0,592.9000001,,,,49,"0,0,1",6,blank,376,null,0.27664289,0.306298479,0.61739441,0,,,,,,
,html-keyboard-response,302,663684,0.0-155.0-1.0,null,<p></p>,,null,,,,,,,,,,,,,,,,
,do_trial,303,666674,0.0-156.0-0.0,441.1999998,,,,51,"0,0,0",6,blank,377,null,0.241944304,0.401303683,0.521105055,0,,,,,,
,html-keyboard-response,304,667679,0.0-156.0-1.0,null,<p></p>,,null,,,,,,,,,,,,,,,,
,do_trial,305,670645,0.0-157.0-0.0,417.4000001,,,,51,"0,1,1",6,blank,378,null,0.154316325,0.496742956,0.513918909,1,,,,,,
,html-keyboard-response,306,671650,0.0-157.0-1.0,null,<p></p>,,null,,,,,,,,,,,,,,,,
,do_trial,307,674709,0.0-158.0-0.0,513.6000004,,,,51,"1,0,1",6,blank,379,null,0.055994647,0.474740988,0.694023149,1,,,,,,
,html-keyboard-response,308,675711,0.0-158.0-1.0,null,<p></p>,,null,,,,,,,,,,,,,,,,
,do_recog,309,679867,0.0-159.0-0.0,2644,,,,54,,,,380,probe-144,,,,,1,[object Object],200,5,1,
,html-keyboard-response,310,680871,0.0-159.0-1.0,null,<p></p>,,null,,,,,,,,,,,,,,,,
,do_trial,311,683919,0.0-160.0-0.0,501.5,,,,51,"1,1,1",6,blank,381,null,0.133258098,0.479177626,0.659261524,1,,,,,,
,html-keyboard-response,312,684925,0.0-160.0-1.0,null,<p></p>,,null,,,,,,,,,,,,,,,,
,do_trial,313,688252,0.0-161.0-0.0,780.5999999,,,,51,"0,0,1",6,blank,382,null,0.17520614,0.396592333,0.734924637,1,,,,,,
,html-keyboard-response,314,689258,0.0-161.0-1.0,null,<p></p>,,null,,,,,,,,,,,,,,,,
,do_trial,315,692690,0.0-162.0-0.0,883.3000002,,,,51,"0,1,0",6,blank,383,null,0.274222888,0.499939089,0.632882245,0,,,,,,
,html-keyboard-response,316,693695,0.0-162.0-1.0,null,<p></p>,,null,,,,,,,,,,,,,,,,
,do_trial,317,696936,0.0-163.0-0.0,691.5999999,,,,51,"0,0,0",6,blank,384,null,0.152411826,0.452958559,0.735389789,0,,,,,,
,html-keyboard-response,318,697941,0.0-163.0-1.0,null,<p></p>,,null,,,,,,,,,,,,,,,,
,do_trial,319,701002,0.0-164.0-0.0,516.8000002,,,,49,"0,1,1",6,blank,385,null,0.203123831,0.440317938,0.543371571,0,,,,,,
,html-keyboard-response,320,702005,0.0-164.0-1.0,null,<p></p>,,null,,,,,,,,,,,,,,,,
,do_trial,321,705288,0.0-165.0-0.0,733.8000002,,,,49,"0,1,1",6,blank,386,null,0.105719118,0.304525247,0.41762034,0,,,,,,
,html-keyboard-response,322,706294,0.0-165.0-1.0,null,<p></p>,,null,,,,,,,,,,,,,,,,
,do_trial,323,709267,0.0-166.0-0.0,429,,,,49,"0,0,0",6,blank,387,null,0.189338138,0.175164588,0.465385033,0,,,,,,
,html-keyboard-response,324,710273,0.0-166.0-1.0,null,<p></p>,,null,,,,,,,,,,,,,,,,
,do_recog,325,713662,0.0-167.0-0.0,1881.2,,,,53,,,,388,probe-112,,,,,1,[object Object],40,1,1,
,html-keyboard-response,326,714665,0.0-167.0-1.0,null,<p></p>,,null,,,,,,,,,,,,,,,,
,do_trial,327,717733,0.0-168.0-0.0,521.6000004,,,,49,"1,0,1",6,blank,389,null,0.27261316,0.365407028,0.425201194,1,,,,,,
,html-keyboard-response,328,718739,0.0-168.0-1.0,null,<p></p>,,null,,,,,,,,,,,,,,,,
,do_recog,329,721748,0.0-169.0-0.0,1497.5,,,,54,,,,390,probe-209,,,,,1,[object Object],129,3,1,
,html-keyboard-response,330,722754,0.0-169.0-1.0,null,<p></p>,,null,,,,,,,,,,,,,,,,
,do_trial,331,726101,0.0-170.0-0.0,798.9000001,,,,49,"1,0,1",6,blank,391,null,0.198184302,0.274318664,0.59506303,1,,,,,,
,html-keyboard-response,332,727108,0.0-170.0-1.0,null,<p></p>,,null,,,,,,,,,,,,,,,,
,do_trial,333,730053,0.0-171.0-0.0,397.1999998,,,,49,"1,0,0",6,blank,392,null,0.256201412,0.258633133,0.550529004,1,,,,,,
,html-keyboard-response,334,731059,0.0-171.0-1.0,null,<p></p>,,null,,,,,,,,,,,,,,,,
,do_recog,335,733900,0.0-172.0-0.0,1328.6,,,,53,,,,393,probe-85,,,,,1,[object Object],47,1,1,
,html-keyboard-response,336,734902,0.0-172.0-1.0,null,<p></p>,,null,,,,,,,,,,,,,,,,
,do_trial,337,738239,0.0-173.0-0.0,792.2000003,,,,49,"1,0,0",6,blank,394,null,0.17998373,0.259666741,0.555121465,1,,,,,,
,html-keyboard-response,338,739245,0.0-173.0-1.0,null,<p></p>,,null,,,,,,,,,,,,,,,,
,do_recog,339,742333,0.0-174.0-0.0,1577.2,,,,53,,,,395,probe-192,,,,,1,[object Object],124,3,1,
,html-keyboard-response,340,743338,0.0-174.0-1.0,null,<p></p>,,null,,,,,,,,,,,,,,,,
,do_trial,341,746500,0.0-175.0-0.0,612.6000004,,,,49,"0,0,0",6,blank,396,null,0.158064091,0.347560006,0.546700923,0,,,,,,
,html-keyboard-response,342,747502,0.0-175.0-1.0,null,<p></p>,,null,,,,,,,,,,,,,,,,
,do_trial,343,750576,0.0-176.0-0.0,525.7999997,,,,49,"0,0,0",6,blank,397,null,0.13319276,0.298178612,0.687022184,0,,,,,,
,html-keyboard-response,344,751581,0.0-176.0-1.0,null,<p></p>,,null,,,,,,,,,,,,,,,,
,do_trial,345,754466,0.0-177.0-0.0,340,,,,49,"0,0,1",6,blank,398,null,0.098198863,0.261501604,0.629308145,0,,,,,,
,html-keyboard-response,346,755473,0.0-177.0-1.0,null,<p></p>,,null,,,,,,,,,,,,,,,,
,do_trial,347,758502,0.0-178.0-0.0,481.0999999,,,,50,"0,0,1",6,blank,399,null,0.115116095,0.306689084,0.665528613,0,,,,,,
,html-keyboard-response,348,759506,0.0-178.0-1.0,null,<p></p>,,null,,,,,,,,,,,,,,,,
,do_trial,349,762615,0.0-179.0-0.0,561.4000001,,,,50,"1,0,0",6,blank,400,null,0.059644071,0.214405051,0.563780968,0,,,,,,
,html-keyboard-response,350,763617,0.0-179.0-1.0,null,<p></p>,,null,,,,,,,,,,,,,,,,
,do_trial,351,766782,0.0-180.0-0.0,619.4000001,,,,49,"0,0,0",6,blank,401,null,0.053623964,0.454255584,0.508378812,0,,,,,,
,html-keyboard-response,352,767784,0.0-180.0-1.0,null,<p></p>,,null,,,,,,,,,,,,,,,,
,do_recog,353,770822,0.0-181.0-0.0,1527.8,,,,53,,,,402,probe-11,,,,,1,[object Object],126,3,1,
,html-keyboard-response,354,771826,0.0-181.0-1.0,null,<p></p>,,null,,,,,,,,,,,,,,,,
,do_trial,355,774814,0.0-182.0-0.0,439.8999996,,,,49,"0,1,1",6,blank,403,null,0.076018144,0.531821793,0.310013175,0,,,,,,
,html-keyboard-response,356,775820,0.0-182.0-1.0,null,<p></p>,,null,,,,,,,,,,,,,,,,
,do_trial,357,778786,0.0-183.0-0.0,417.5,,,,49,"0,0,1",6,blank,404,null,0.132641136,0.543199741,0.307161997,0,,,,,,
,html-keyboard-response,358,779790,0.0-183.0-1.0,null,<p></p>,,null,,,,,,,,,,,,,,,,
,do_recog,359,783154,0.0-184.0-0.0,1852.7,,,,56,,,,405,probe-60,,,,,1,[object Object],204,5,0,
,html-keyboard-response,360,784160,0.0-184.0-1.0,null,<p></p>,,null,,,,,,,,,,,,,,,,
,do_trial,361,787162,0.0-185.0-0.0,454.8000002,,,,49,"0,1,0",6,blank,406,null,0.103513487,0.531048986,0.305254128,0,,,,,,
,html-keyboard-response,362,788169,0.0-185.0-1.0,null,<p></p>,,null,,,,,,,,,,,,,,,,
,do_trial,363,791114,0.0-186.0-0.0,398.0999999,,,,49,"0,1,1",6,blank,407,null,0.099601839,0.553461382,0.287051473,0,,,,,,
,html-keyboard-response,364,792120,0.0-186.0-1.0,null,<p></p>,,null,,,,,,,,,,,,,,,,
,do_recog,365,795767,0.0-187.0-0.0,2143.1,,,,55,,,,408,probe-13,,,,,1,[object Object],88,2,0,
,html-keyboard-response,366,796770,0.0-187.0-1.0,null,<p></p>,,null,,,,,,,,,,,,,,,,
,do_trial,367,800003,0.0-188.0-0.0,690,,,,49,"1,0,0",6,blank,409,null,0.217923294,0.45715173,0.169387458,1,,,,,,
,html-keyboard-response,368,801004,0.0-188.0-1.0,null,<p></p>,,null,,,,,,,,,,,,,,,,
,do_trial,369,804244,0.0-189.0-0.0,708.4000001,,,,49,"0,0,0",6,blank,410,null,0.160008934,0.53643305,0.227818292,0,,,,,,
,html-keyboard-response,370,805246,0.0-189.0-1.0,null,<p></p>,,null,,,,,,,,,,,,,,,,
,do_trial,371,808401,0.0-190.0-0.0,620.6999998,,,,49,"0,0,1",6,blank,411,null,0.232831911,0.435810974,0.277271517,0,,,,,,
,html-keyboard-response,372,809407,0.0-190.0-1.0,null,<p></p>,,null,,,,,,,,,,,,,,,,
,do_trial,373,812356,0.0-191.0-0.0,399.8999996,,,,50,"0,1,0",6,blank,412,null,0.245516324,0.463115897,0.313015151,1,,,,,,
,html-keyboard-response,374,813362,0.0-191.0-1.0,null,<p></p>,,null,,,,,,,,,,,,,,,,
,do_trial,375,816369,0.0-192.0-0.0,460.7999997,,,,50,"0,0,0",6,blank,413,null,0.218619882,0.581901813,0.252543972,0,,,,,,
,html-keyboard-response,376,817372,0.0-192.0-1.0,null,<p></p>,,null,,,,,,,,,,,,,,,,
,do_trial,377,820678,0.0-193.0-0.0,759.4000001,,,,50,"0,1,0",6,blank,414,null,0.211878521,0.627943992,0.120711473,1,,,,,,
,html-keyboard-response,378,821683,0.0-193.0-1.0,null,<p></p>,,null,,,,,,,,,,,,,,,,
,do_trial,379,824749,0.0-194.0-0.0,522.2999997,,,,50,"0,0,0",6,blank,415,null,0.234482823,0.58944716,0.276934095,0,,,,,,
,html-keyboard-response,380,825755,0.0-194.0-1.0,null,<p></p>,,null,,,,,,,,,,,,,,,,
,do_recog,381,828972,0.0-195.0-0.0,1706.6,,,,53,,,,416,probe-188,,,,,1,[object Object],128,3,1,
,html-keyboard-response,382,829977,0.0-195.0-1.0,null,<p></p>,,null,,,,,,,,,,,,,,,,
,do_trial,383,832933,0.0-196.0-0.0,406.5999999,,,,50,"0,0,0",6,blank,417,null,0.206796343,0.574141461,0.157002707,0,,,,,,
,html-keyboard-response,384,833937,0.0-196.0-1.0,null,<p></p>,,null,,,,,,,,,,,,,,,,
,do_trial,385,837110,0.0-197.0-0.0,628.0999999,,,,50,"0,1,0",6,blank,418,null,0.309536719,0.580508984,0.098132649,1,,,,,,
,html-keyboard-response,386,838116,0.0-197.0-1.0,null,<p></p>,,null,,,,,,,,,,,,,,,,
,do_recog,387,841726,0.0-198.0-0.0,2098.5,,,,54,,,,419,probe-216,,,,,1,[object Object],168,4,1,
,html-keyboard-response,388,842730,0.0-198.0-1.0,null,<p></p>,,null,,,,,,,,,,,,,,,,
,do_trial,389,845644,0.0-199.0-0.0,363.0999999,,,,50,"0,1,0",6,blank,420,null,0.300369568,0.607667892,0.06350654,1,,,,,,
,html-keyboard-response,390,846645,0.0-199.0-1.0,null,<p></p>,,null,,,,,,,,,,,,,,,,
,do_trial,391,850101,0.0-200.0-0.0,909.7999997,,,,50,"1,1,0",6,blank,421,null,0.299204957,0.60085625,0.058666095,1,,,,,,
,html-keyboard-response,392,851105,0.0-200.0-1.0,null,<p></p>,,null,,,,,,,,,,,,,,,,
,do_trial,393,854073,0.0-201.0-0.0,418.5,,,,50,"0,1,1",6,blank,422,null,0.315815016,0.653608058,0.217306801,1,,,,,,
,html-keyboard-response,394,855079,0.0-201.0-1.0,null,<p></p>,,null,,,,,,,,,,,,,,,,
,do_recog,395,858851,0.0-202.0-0.0,2261.9,,,,54,,,,423,probe-32,,,,,1,[object Object],209,5,1,
,html-keyboard-response,396,859857,0.0-202.0-1.0,null,<p></p>,,null,,,,,,,,,,,,,,,,
,do_trial,397,862894,0.0-203.0-0.0,487.4000001,,,,50,"0,1,0",6,blank,424,null,0.305824526,0.701359652,0.07778141,1,,,,,,
,html-keyboard-response,398,863896,0.0-203.0-1.0,null,<p></p>,,null,,,,,,,,,,,,,,,,
,do_trial,399,867156,0.0-204.0-0.0,714.0999999,,,,50,"0,0,0",6,blank,425,null,0.388764139,0.600131323,0.088748261,0,,,,,,
,html-keyboard-response,400,868162,0.0-204.0-1.0,null,<p></p>,,null,,,,,,,,,,,,,,,,
,do_trial,401,871361,0.0-205.0-0.0,649.6999998,,,,50,"0,0,0",6,blank,426,null,0.316549573,0.554710853,0.087239074,0,,,,,,
,html-keyboard-response,402,872364,0.0-205.0-1.0,null,<p></p>,,null,,,,,,,,,,,,,,,,
,do_trial,403,875343,0.0-206.0-0.0,430.2999997,,,,51,"0,0,0",6,blank,427,null,0.142613727,0.534173891,0.229897128,0,,,,,,
,html-keyboard-response,404,876348,0.0-206.0-1.0,null,<p></p>,,null,,,,,,,,,,,,,,,,
,do_trial,405,879788,0.0-207.0-0.0,895.6999998,,,,51,"0,0,0",6,blank,428,null,0.265923816,0.664453947,0.17374794,0,,,,,,
,html-keyboard-response,406,880794,0.0-207.0-1.0,null,<p></p>,,null,,,,,,,,,,,,,,,,
,do_trial,407,883800,0.0-208.0-0.0,456.8000002,,,,51,"0,1,0",6,blank,429,null,0.183085414,0.517678414,0.162250457,0,,,,,,
,html-keyboard-response,408,884807,0.0-208.0-1.0,null,<p></p>,,null,,,,,,,,,,,,,,,,
,do_recog,409,887760,0.0-209.0-0.0,1441.6,,,,53,,,,430,probe-78,,,,,1,[object Object],206,5,1,
,html-keyboard-response,410,888764,0.0-209.0-1.0,null,<p></p>,,null,,,,,,,,,,,,,,,,
,do_trial,411,891714,0.0-210.0-0.0,404.7000003,,,,49,"0,1,0",6,blank,431,null,0.196489912,0.455133594,0.097998694,0,,,,,,
,html-keyboard-response,412,892720,0.0-210.0-1.0,null,<p></p>,,null,,,,,,,,,,,,,,,,
,do_trial,413,895822,0.0-211.0-0.0,557.0999999,,,,49,"1,1,0",6,blank,432,null,0.318625653,0.608392795,0.099300058,1,,,,,,
,html-keyboard-response,414,896823,0.0-211.0-1.0,null,<p></p>,,null,,,,,,,,,,,,,,,,
,do_trial,415,899731,0.0-212.0-0.0,368,,,,49,"1,1,0",6,blank,433,null,0.228010204,0.720941832,0.085715261,1,,,,,,
,html-keyboard-response,416,900737,0.0-212.0-1.0,null,<p></p>,,null,,,,,,,,,,,,,,,,
,do_trial,417,903854,0.0-213.0-0.0,567.9000001,,,,49,"0,1,0",6,blank,434,null,0.179979296,0.698781309,0.151476835,0,,,,,,
,html-keyboard-response,418,904860,0.0-213.0-1.0,null,<p></p>,,null,,,,,,,,,,,,,,,,
,do_trial,419,907992,0.0-214.0-0.0,582.5999999,,,,49,"0,0,0",6,blank,435,null,0.181707641,0.773660258,0.18416438,0,,,,,,
,html-keyboard-response,420,908995,0.0-214.0-1.0,null,<p></p>,,null,,,,,,,,,,,,,,,,
,do_trial,421,912245,0.0-215.0-0.0,705,,,,49,"0,1,0",6,blank,436,null,0.304097181,0.765436409,0.215818401,0,,,,,,
,html-keyboard-response,422,913251,0.0-215.0-1.0,null,<p></p>,,null,,,,,,,,,,,,,,,,
,do_recog,423,916436,0.0-216.0-0.0,1673.5,,,,53,,,,437,probe-117,,,,,1,[object Object],203,5,1,
,html-keyboard-response,424,917441,0.0-216.0-1.0,null,<p></p>,,null,,,,,,,,,,,,,,,,
,do_trial,425,920480,0.0-217.0-0.0,494,,,,49,"0,1,0",6,blank,438,null,0.421641331,0.775409563,0.099720296,0,,,,,,
,html-keyboard-response,426,921487,0.0-217.0-1.0,null,<p></p>,,null,,,,,,,,,,,,,,,,
,do_recog,427,924515,0.0-218.0-0.0,1518.7,,,,53,,,,439,probe-22,,,,,1,[object Object],42,1,1,
,html-keyboard-response,428,925517,0.0-218.0-1.0,null,<p></p>,,null,,,,,,,,,,,,,,,,
,do_trial,429,928517,0.0-219.0-0.0,455.5,,,,49,"0,1,0",6,blank,440,null,0.27111489,0.682808016,0.193417204,0,,,,,,
,html-keyboard-response,430,929522,0.0-219.0-1.0,null,<p></p>,,null,,,,,,,,,,,,,,,,
,do_trial,431,932618,0.0-220.0-0.0,546.9000001,,,,50,"1,1,0",6,blank,441,null,0.313537467,0.528796458,0.303541233,1,,,,,,
,html-keyboard-response,432,933620,0.0-220.0-1.0,null,<p></p>,,null,,,,,,,,,,,,,,,,
,do_trial,433,937245,0.0-221.0-0.0,1078.6,,,,50,"1,1,0",6,blank,442,null,0.513404765,0.464602822,0.211113556,1,,,,,,
,html-keyboard-response,434,938251,0.0-221.0-1.0,null,<p></p>,,null,,,,,,,,,,,,,,,,
,do_recog,435,941578,0.0-222.0-0.0,1813.7,,,,54,,,,443,probe-113,,,,,1,[object Object],160,4,1,
,html-keyboard-response,436,942583,0.0-222.0-1.0,null,<p></p>,,null,,,,,,,,,,,,,,,,
,do_trial,437,945650,0.0-223.0-0.0,520.5999999,,,,50,"1,0,0",6,blank,444,null,0.417716695,0.395393926,0.087681796,0,,,,,,
,html-keyboard-response,438,946656,0.0-223.0-1.0,null,<p></p>,,null,,,,,,,,,,,,,,,,
,do_recog,439,949934,0.0-224.0-0.0,1766,,,,53,,,,445,probe-41,,,,,1,[object Object],169,4,1,
,html-keyboard-response,440,950941,0.0-224.0-1.0,null,<p></p>,,null,,,,,,,,,,,,,,,,
,do_trial,441,953952,0.0-225.0-0.0,464.6999998,,,,50,"1,0,0",6,blank,446,null,0.314133864,0.61203694,0.103069162,0,,,,,,
,html-keyboard-response,442,954956,0.0-225.0-1.0,null,<p></p>,,null,,,,,,,,,,,,,,,,
,do_recog,443,958141,0.0-226.0-0.0,1672.9,,,,54,,,,447,probe-239,,,,,0,[object Object],null,null,0,
,html-keyboard-response,444,959144,0.0-226.0-1.0,null,<p></p>,,null,,,,,,,,,,,,,,,,
,do_trial,445,962154,0.0-227.0-0.0,460.3000002,,,,51,"1,0,0",6,blank,448,null,0.357123587,0.657216493,0.056860563,0,,,,,,
,html-keyboard-response,446,963157,0.0-227.0-1.0,null,<p></p>,,null,,,,,,,,,,,,,,,,
,do_recog,447,966647,0.0-228.0-0.0,1980.1,,,,55,,,,449,probe-241,,,,,0,[object Object],null,null,1,
,html-keyboard-response,448,967650,0.0-228.0-1.0,null,<p></p>,,null,,,,,,,,,,,,,,,,
,do_trial,449,970655,0.0-229.0-0.0,455.9000001,,,,49,"0,0,0",6,blank,450,null,0.40182332,0.634564751,0.095324453,0,,,,,,
,html-keyboard-response,450,971661,0.0-229.0-1.0,null,<p></p>,,null,,,,,,,,,,,,,,,,
,do_trial,451,974973,0.0-230.0-0.0,763.0999999,,,,49,"0,1,0",6,blank,451,null,0.359363423,0.65508577,0.174921621,0,,,,,,
,html-keyboard-response,452,975979,0.0-230.0-1.0,null,<p></p>,,null,,,,,,,,,,,,,,,,
,do_recog,453,980007,0.0-231.0-0.0,2518.2,,,,54,,,,452,probe-242,,,,,0,[object Object],null,null,0,
,html-keyboard-response,454,981011,0.0-231.0-1.0,null,<p></p>,,null,,,,,,,,,,,,,,,,
,do_trial,455,985132,0.0-232.0-0.0,1573.7,,,,50,"1,1,0",6,blank,453,null,0.292271549,0.708874935,0.106443781,1,,,,,,
,html-keyboard-response,456,986136,0.0-232.0-1.0,null,<p></p>,,null,,,,,,,,,,,,,,,,
,do_trial,457,989507,0.0-233.0-0.0,827,,,,49,"0,1,0",6,blank,454,null,0.312577252,0.750486766,0.061822364,0,,,,,,
,html-keyboard-response,458,990510,0.0-233.0-1.0,null,<p></p>,,null,,,,,,,,,,,,,,,,
,do_trial,459,994035,0.0-234.0-0.0,975.8999996,,,,51,"0,0,0",6,blank,455,null,0.273718796,0.462117152,0.323502251,0,,,,,,
,html-keyboard-response,460,995040,0.0-234.0-1.0,null,<p></p>,,null,,,,,,,,,,,,,,,,
,do_trial,461,998385,0.0-235.0-0.0,799.4000001,,,,51,"1,0,1",6,blank,456,null,0.3355118,0.26190742,0.3992886,1,,,,,,
,html-keyboard-response,462,999392,0.0-235.0-1.0,null,<p></p>,,null,,,,,,,,,,,,,,,,
,do_trial,463,1002377,0.0-236.0-0.0,439.0999999,,,,49,"1,0,1",6,blank,457,null,0.183363258,0.137126412,0.511641566,1,,,,,,
,html-keyboard-response,464,1003383,0.0-236.0-1.0,null,<p></p>,,null,,,,,,,,,,,,,,,,
,do_recog,465,1007111,0.0-237.0-0.0,2219.4,,,,54,,,,458,probe-254,,,,,0,[object Object],null,null,0,
,html-keyboard-response,466,1008117,0.0-237.0-1.0,null,<p></p>,,null,,,,,,,,,,,,,,,,
,do_trial,467,1011154,0.0-238.0-0.0,488.2000003,,,,49,"0,0,0",6,blank,459,null,0.240817755,0.067771315,0.528072901,0,,,,,,
,html-keyboard-response,468,1012157,0.0-238.0-1.0,null,<p></p>,,null,,,,,,,,,,,,,,,,
,do_recog,469,1015917,0.0-239.0-0.0,2252.9,,,,55,,,,460,probe-253,,,,,0,[object Object],null,null,1,
,html-keyboard-response,470,1016921,0.0-239.0-1.0,null,<p></p>,,null,,,,,,,,,,,,,,,,
,do_trial,471,1019944,0.0-240.0-0.0,473.3999996,,,,51,"0,1,1",6,blank,461,null,0.150366859,0.206932159,0.578820376,1,,,,,,
,html-keyboard-response,472,1020950,0.0-240.0-1.0,null,<p></p>,,null,,,,,,,,,,,,,,,,
,do_trial,473,1024057,0.0-241.0-0.0,562.2000003,,,,51,"0,0,0",6,blank,462,null,0.309500984,0.204364901,0.662480361,0,,,,,,
,html-keyboard-response,474,1025063,0.0-241.0-1.0,null,<p></p>,,null,,,,,,,,,,,,,,,,
,do_trial,475,1028020,0.0-242.0-0.0,409.7999997,,,,51,"1,1,1",6,blank,463,null,0.232059116,0.196017658,0.595509262,1,,,,,,
,html-keyboard-response,476,1029027,0.0-242.0-1.0,null,<p></p>,,null,,,,,,,,,,,,,,,,
,do_trial,477,1032030,0.0-243.0-0.0,456.0999999,,,,51,"0,0,1",6,blank,464,null,0.238960576,0.175164035,0.609502602,1,,,,,,
,html-keyboard-response,478,1033036,0.0-243.0-1.0,null,<p></p>,,null,,,,,,,,,,,,,,,,
,do_recog,479,1036623,0.0-244.0-0.0,2076.6,,,,54,,,,465,probe-234,,,,,0,[object Object],null,null,0,
,html-keyboard-response,480,1037627,0.0-244.0-1.0,null,<p></p>,,null,,,,,,,,,,,,,,,,
,do_trial,481,1041078,0.0-245.0-0.0,902.2999997,,,,51,"0,0,0",6,blank,466,null,0.315070625,0.11337188,0.772801937,0,,,,,,
,html-keyboard-response,482,1042085,0.0-245.0-1.0,null,<p></p>,,null,,,,,,,,,,,,,,,,
,do_recog,483,1045421,0.0-246.0-0.0,1826.6,,,,55,,,,467,probe-249,,,,,0,[object Object],null,null,1,
,html-keyboard-response,484,1046426,0.0-246.0-1.0,null,<p></p>,,null,,,,,,,,,,,,,,,,
,do_trial,485,1049470,0.0-247.0-0.0,494.5999999,,,,51,"1,0,1",6,blank,468,null,0.213495072,0.236130225,0.719857363,1,,,,,,
,html-keyboard-response,486,1050474,0.0-247.0-1.0,null,<p></p>,,null,,,,,,,,,,,,,,,,
,do_trial,487,1054832,0.0-248.0-0.0,1814,,,,51,"0,1,1",6,blank,469,null,0.090637234,0.253969375,0.728662483,1,,,,,,
,html-keyboard-response,488,1055839,0.0-248.0-1.0,null,<p></p>,,null,,,,,,,,,,,,,,,,
,do_trial,489,1059114,0.0-249.0-0.0,726.4000001,,,,51,"0,0,1",6,blank,470,null,0.086305195,0.358050702,0.742079841,1,,,,,,
,html-keyboard-response,490,1060116,0.0-249.0-1.0,null,<p></p>,,null,,,,,,,,,,,,,,,,
,do_trial,491,1063275,0.0-250.0-0.0,613.4000001,,,,51,"0,0,1",6,blank,471,null,0.089731877,0.156043285,0.648526834,1,,,,,,
,html-keyboard-response,492,1064281,0.0-250.0-1.0,null,<p></p>,,null,,,,,,,,,,,,,,,,
,do_trial,493,1067340,0.0-251.0-0.0,514,,,,51,"0,1,1",6,blank,472,null,0.118066098,0.145189747,0.623951908,1,,,,,,
,html-keyboard-response,494,1068346,0.0-251.0-1.0,null,<p></p>,,null,,,,,,,,,,,,,,,,
,do_recog,495,1071550,0.0-252.0-0.0,1692.7,,,,54,,,,473,probe-246,,,,,0,[object Object],null,null,0,
,html-keyboard-response,496,1072555,0.0-252.0-1.0,null,<p></p>,,null,,,,,,,,,,,,,,,,
,do_trial,497,1075487,0.0-253.0-0.0,383.4000001,,,,51,"0,0,0",6,blank,474,null,0.183840501,0.166662997,0.6207278,0,,,,,,
,html-keyboard-response,498,1076494,0.0-253.0-1.0,null,<p></p>,,null,,,,,,,,,,,,,,,,
,do_trial,499,1079534,0.0-254.0-0.0,495,,,,51,"0,0,0",6,blank,475,null,0.224261931,0.206794991,0.466436845,0,,,,,,
,html-keyboard-response,500,1080536,0.0-254.0-1.0,null,<p></p>,,null,,,,,,,,,,,,,,,,
,do_recog,501,1084284,0.0-255.0-0.0,2237.9,,,,55,,,,476,probe-231,,,,,0,[object Object],null,null,1,
,html-keyboard-response,502,1085288,0.0-255.0-1.0,null,<p></p>,,null,,,,,,,,,,,,,,,,
,do_trial,503,1088284,0.0-256.0-0.0,449.5,,,,51,"0,0,0",6,blank,477,null,0.055373991,0.301571758,0.311882377,0,,,,,,
,html-keyboard-response,504,1089291,0.0-256.0-1.0,null,<p></p>,,null,,,,,,,,,,,,,,,,
,do_trial,505,1092218,0.0-257.0-0.0,381.9000001,,,,49,"0,0,0",6,blank,478,null,0.233015147,0.354033622,0.462539481,0,,,,,,
,html-keyboard-response,506,1093219,0.0-257.0-1.0,null,<p></p>,,null,,,,,,,,,,,,,,,,
,do_recog,507,1096545,0.0-258.0-0.0,1813.9,,,,55,,,,479,probe-236,,,,,0,[object Object],null,null,1,
,html-keyboard-response,508,1097550,0.0-258.0-1.0,null,<p></p>,,null,,,,,,,,,,,,,,,,
,do_pick_best_pirate,509,1101823,0.0-259.0-0.0,3261,,,,49,,,,,,,,,,,,,,,
,do_pick_best_pirate,510,1104987,0.0-260.0-0.0,2151.9,,,,50,,,,,,,,,,,,,,,
,do_pick_best_pirate,511,1107651,0.0-261.0-0.0,1655.9,,,,49,,,,,,,,,,,,,,,
,do_pick_best_pirate,512,1109677,0.0-262.0-0.0,1017.7,,,,51,,,,,,,,,,,,,,,
,do_pick_best_pirate,513,1112299,0.0-263.0-0.0,1610.9,,,,50,,,,,,,,,,,,,,,
,do_pick_best_pirate,514,1115582,0.0-264.0-0.0,2272.7,,,,51,,,,,,,,,,,,,,,
,html-keyboard-response,515,1122321,0.0-265.0-0.0,6737.2,<p>You are all done with the experiment!</p><p> You made $15 plus $2 in bonus payment!</p><p>Thank you for participating. You will recieve your payment within 3 days.<p><b>[Press the space bar to end the experiment]</b></p></div>,,32,,,,,,,,,,,,,,,,