success,trial_type,trial_index,time_elapsed,internal_node_id,rt,stimulus,subject_id,key_press,response,choice_outcomes,context_n,context_img_id,trial_n,probe_img_id,pR_red,pR_white,pR_black,outcome,is_valid,image_to_show,probed_trial,probed_context,correct,context_id
TRUE,fullscreen,0,5362,0.0-0.0,,,,,,,,,,,,,,,,,,,,
,pavlovia,1,5367,0.0-1.0,,,,,,,,,,,,,,,,,,,,
,html-keyboard-response,2,8482,0.0-2.0,3114.2,"<div class='center'><p>Like yesterday,as the head captain of the ship, you have one important things to do: </p><b><p> Pick the pirate who you think will be most successful at robbing the next ship.</p></b><p>This is important in determining how much bonus money you’ll win.</p><br><p>The game will start by showing you the pirates. First pick a pirate using the <b> 1, 2, 3 </b> buttons on your keyboard. </p><p> Press <b>'1'</b> to choose red beard, <b>'2'</b> to choose white beard, and <b>'3'</b> to choose black beard</p><p> You only have 3 seconds to pick a pirate, so please make a choice quickly! If you are too slow, you’ll have to wait a bit during the time out.</p><p> Don’t feel rushed, but please do try to make a choice every time.</p><p>How good a pirate is at robbing a ship will change depending on the place they are in and how good the defenses are of the ship.</p><p><b>[Press the space bar to begin the practice game]</b></p></div>",6108ac1e801e23ad2a25e7f0,32,,,,,,,,,,,,,,,,
,html-keyboard-response,3,13972,0.0-3.0,5489.1,"<div class='center'><p>You’ve arrived at the final island of your journey! Unfortunately, it’s very foggy out, so you won’t be able to see it in the distance like the previous islands you've visited.</p><p>You’ll still be deciding which pirate you want to rob a ship like before. However, because of the fog, you also won’t be able to see the ship.</p><p>This means you do not have to remember the ships you rob on this island.</p><p><b>[Press the space bar to continue]</b></p></div>",,32,,,,,,,,,,,,,,,,
,html-keyboard-response,4,19430,0.0-4.0,5457.1,"<div class='center'><p> Sometimes you’ll be shown a ship, and you will be asked if you saw this ship on a past island.</p><p> Here is an example of what you will see.</p><p><b>[Press the space bar to continue]</b></p><p><img src='run_exp/static/images/tutorial/example_recog_trial.png' height='500'></p></div>",,32,,,,,,,,,,,,,,,,
,html-keyboard-response,5,21770,0.0-5.0,2338.5,"<div class='center'><p> You will press the 5, 6, 7, 8 buttons on your keyboard to respond.</p><p>If you are very sure saw the ship, press <b>5</b> on your keyboard.</p><p> If you think you  saw it before but are not sure, then press <b>6</b>.</p><p> If you think you have not seen it before but are not sure, then press <b>7</b>.</p><p> If you are sure you did not see the ship before, then press <b>8</b>.</p><p><b>[Press the space bar to continue]</b></p><p><img src='run_exp/static/images/tutorial/example_recog_trial.png' height='500'></p></div>",,32,,,,,,,,,,,,,,,,
,html-keyboard-response,6,23898,0.0-6.0,2126.8,"<div class='center'><p> If you remember correctly, then you’ll get a gold coin like this: </p><p><img src='run_exp/static/images/tutorial/reward_small.png' height='200'></p><p>If you do not remember correctly, then you'll see a red x like this: </p><p><img src='run_exp/static/images/tutorial/reward_no.png' height='200'></p><p>Importantly, when you are shown a ship, take the time to remind yourself which island you saw it on. This will help you in the next part of the study.</p><p><b>[Press the space bar to continue]</b></p></div>",,32,,,,,,,,,,,,,,,,
,html-keyboard-response,7,26238,0.0-7.0,2339.4,"<div class='center'><p>Let's go over the important points again. Your job is to: </p><p>1. Pick the pirate who is best at robbing ships and will bring you back gold coins. </p><p>2. Correctly remember whether or not you saw a ship before. If you did see the ship before, remind yourself on which island you saw the ship. </p><p><b>[Press the space bar to begin the next part of the study]</b></p></div>",,32,,,,,,,,,,,,,,,,
,do_welcome,8,27752,0.0-8.0,null,,,,null,,,,,,,,,,,,,,,
,do_trial,9,32571,0.0-9.0-0.0,2270.3,,,,50,"0,1,0",6,blank,230,null,0.35601532,0.525613502,0.148582105,1,,,,,,
,html-keyboard-response,10,33575,0.0-9.0-1.0,null,<p></p>,,null,,,,,,,,,,,,,,,,
,do_trial,11,39620,0.0-10.0-0.0,null,,,,null,"0,1,0",6,blank,231,null,0.358162804,0.505843698,0.264909905,,,,,,,
,html-keyboard-response,12,40622,0.0-10.0-1.0,null,<p></p>,,null,,,,,,,,,,,,,,,,
,do_trial,13,43414,0.0-11.0-0.0,251.6,,,,50,"1,1,1",6,blank,232,null,0.426697799,0.59413872,0.172474436,1,,,,,,
,html-keyboard-response,14,44419,0.0-11.0-1.0,null,<p></p>,,null,,,,,,,,,,,,,,,,
,do_trial,15,47085,0.0-12.0-0.0,124.3,,,,50,"0,1,0",6,blank,233,null,0.349380903,0.613526823,0.244132867,1,,,,,,
,html-keyboard-response,16,48088,0.0-12.0-1.0,null,<p></p>,,null,,,,,,,,,,,,,,,,
,do_trial,17,50712,0.0-13.0-0.0,80.89999998,,,,50,"1,1,0",6,blank,234,null,0.37925331,0.591407309,0.073219002,1,,,,,,
,html-keyboard-response,18,51716,0.0-13.0-1.0,null,<p></p>,,null,,,,,,,,,,,,,,,,
,do_trial,19,54931,0.0-14.0-0.0,672,,,,50,"0,1,0",6,blank,235,null,0.241757576,0.598072612,0.200127739,1,,,,,,
,html-keyboard-response,20,55936,0.0-14.0-1.0,null,<p></p>,,null,,,,,,,,,,,,,,,,
,do_trial,21,59106,0.0-15.0-0.0,627.8,,,,50,"0,0,0",6,blank,236,null,0.176206371,0.582568204,0.31025258,0,,,,,,
,html-keyboard-response,22,60110,0.0-15.0-1.0,null,<p></p>,,null,,,,,,,,,,,,,,,,
,do_trial,23,62937,0.0-16.0-0.0,283.6,,,,50,"0,1,1",6,blank,237,null,0.23172747,0.698297783,0.236638791,1,,,,,,
,html-keyboard-response,24,63940,0.0-16.0-1.0,null,<p></p>,,null,,,,,,,,,,,,,,,,
,do_trial,25,66755,0.0-17.0-0.0,273.2,,,,50,"0,1,0",6,blank,238,null,0.11755108,0.654931784,0.184451251,1,,,,,,
,html-keyboard-response,26,67759,0.0-17.0-1.0,null,<p></p>,,null,,,,,,,,,,,,,,,,
,do_trial,27,70878,0.0-18.0-0.0,578.3,,,,50,"0,1,1",6,blank,239,null,0.284566886,0.744143893,0.244067768,1,,,,,,
,html-keyboard-response,28,71882,0.0-18.0-1.0,null,<p></p>,,null,,,,,,,,,,,,,,,,
,do_trial,29,75626,0.0-19.0-0.0,1203.4,,,,50,"1,1,0",6,blank,240,null,0.303634987,0.854764059,0.132863262,1,,,,,,
,html-keyboard-response,30,76631,0.0-19.0-1.0,null,<p></p>,,null,,,,,,,,,,,,,,,,
,do_recog,31,82640,0.0-20.0-0.0,null,,,,null,,,,241,probe-19,,,,,1,[object Object],83,2,0,
,html-keyboard-response,32,83644,0.0-20.0-1.0,null,<p></p>,,null,,,,,,,,,,,,,,,,
,do_trial,33,87272,0.0-21.0-0.0,1084.2,,,,50,"1,0,0",6,blank,242,null,0.24801306,0.838017695,0.15172367,0,,,,,,
,html-keyboard-response,34,88276,0.0-21.0-1.0,null,<p></p>,,null,,,,,,,,,,,,,,,,
,do_recog,35,91533,0.0-22.0-0.0,1746.2,,,,55,,,,243,probe-168,,,,,1,[object Object],204,5,0,
,html-keyboard-response,36,92537,0.0-22.0-1.0,null,<p></p>,,null,,,,,,,,,,,,,,,,
,do_trial,37,95678,0.0-23.0-0.0,598,,,,50,"0,1,1",6,blank,244,null,0.24879608,0.596422851,0.246869269,1,,,,,,
,html-keyboard-response,38,96683,0.0-23.0-1.0,null,<p></p>,,null,,,,,,,,,,,,,,,,
,do_recog,39,100282,0.0-24.0-0.0,2089.3,,,,54,,,,245,probe-228,,,,,1,[object Object],205,5,1,
,html-keyboard-response,40,101286,0.0-24.0-1.0,null,<p></p>,,null,,,,,,,,,,,,,,,,
,do_trial,41,104467,0.0-25.0-0.0,639.4,,,,50,"1,0,1",6,blank,246,null,0.218651686,0.432354047,0.455156239,0,,,,,,
,html-keyboard-response,42,105471,0.0-25.0-1.0,null,<p></p>,,null,,,,,,,,,,,,,,,,
,do_trial,43,108884,0.0-26.0-0.0,873.4,,,,50,"0,0,1",6,blank,247,null,0.214235995,0.381482706,0.413496286,0,,,,,,
,html-keyboard-response,44,109889,0.0-26.0-1.0,null,<p></p>,,null,,,,,,,,,,,,,,,,
,do_recog,45,112966,0.0-27.0-0.0,1567.2,,,,53,,,,248,probe-12,,,,,1,[object Object],128,3,1,
,html-keyboard-response,46,113970,0.0-27.0-1.0,null,<p></p>,,null,,,,,,,,,,,,,,,,
,do_trial,47,117226,0.0-28.0-0.0,715.9,,,,50,"0,1,0",6,blank,249,null,0.169951393,0.254102539,0.503387566,1,,,,,,
,html-keyboard-response,48,118231,0.0-28.0-1.0,null,<p></p>,,null,,,,,,,,,,,,,,,,
,do_trial,49,121368,0.0-29.0-0.0,596.5,,,,50,"0,1,0",6,blank,250,null,0.10045871,0.244059091,0.528960169,1,,,,,,
,html-keyboard-response,50,122370,0.0-29.0-1.0,null,<p></p>,,null,,,,,,,,,,,,,,,,
,do_trial,51,125499,0.0-30.0-0.0,586,,,,50,"0,0,1",6,blank,251,null,0.278003345,0.270588897,0.510074585,0,,,,,,
,html-keyboard-response,52,126503,0.0-30.0-1.0,null,<p></p>,,null,,,,,,,,,,,,,,,,
,do_trial,53,129539,0.0-31.0-0.0,493.2,,,,50,"1,1,0",6,blank,252,null,0.231156725,0.334864591,0.662787749,1,,,,,,
,html-keyboard-response,54,130543,0.0-31.0-1.0,null,<p></p>,,null,,,,,,,,,,,,,,,,
,do_trial,55,133568,0.0-32.0-0.0,481.7,,,,50,"0,1,1",6,blank,253,null,0.132255839,0.305796329,0.621822352,1,,,,,,
,html-keyboard-response,56,134572,0.0-32.0-1.0,null,<p></p>,,null,,,,,,,,,,,,,,,,
,do_recog,57,137568,0.0-33.0-0.0,1488.8,,,,53,,,,254,probe-128,,,,,1,[object Object],89,2,1,
,html-keyboard-response,58,138572,0.0-33.0-1.0,null,<p></p>,,null,,,,,,,,,,,,,,,,
,do_trial,59,142432,0.0-34.0-0.0,1319.4,,,,50,"0,0,1",6,blank,255,null,0.081804722,0.255926043,0.58829801,0,,,,,,
,html-keyboard-response,60,143436,0.0-34.0-1.0,null,<p></p>,,null,,,,,,,,,,,,,,,,
,do_recog,61,146171,0.0-35.0-0.0,1224.4,,,,55,,,,256,probe-222,,,,,1,[object Object],168,4,0,
,html-keyboard-response,62,147175,0.0-35.0-1.0,null,<p></p>,,null,,,,,,,,,,,,,,,,
,do_trial,63,150240,0.0-36.0-0.0,523,,,,50,"0,1,1",6,blank,257,null,0.113721689,0.321644916,0.603381657,1,,,,,,
,html-keyboard-response,64,151244,0.0-36.0-1.0,null,<p></p>,,null,,,,,,,,,,,,,,,,
,do_trial,65,154321,0.0-37.0-0.0,537.8,,,,50,"0,0,0",6,blank,258,null,0.105096141,0.227874822,0.52651254,0,,,,,,
,html-keyboard-response,66,155325,0.0-37.0-1.0,null,<p></p>,,null,,,,,,,,,,,,,,,,
,do_recog,67,158153,0.0-38.0-0.0,1321.5,,,,53,,,,259,probe-35,,,,,1,[object Object],44,1,1,
,html-keyboard-response,68,159157,0.0-38.0-1.0,null,<p></p>,,null,,,,,,,,,,,,,,,,
,do_trial,69,162321,0.0-39.0-0.0,625.2,,,,50,"0,1,0",6,blank,260,null,0.104008623,0.222111152,0.541341157,1,,,,,,
,html-keyboard-response,70,163325,0.0-39.0-1.0,null,<p></p>,,null,,,,,,,,,,,,,,,,
,do_recog,71,166465,0.0-40.0-0.0,1634.3,,,,53,,,,261,probe-193,,,,,1,[object Object],86,2,1,
,html-keyboard-response,72,167470,0.0-40.0-1.0,null,<p></p>,,null,,,,,,,,,,,,,,,,
,do_trial,73,170584,0.0-41.0-0.0,571.4,,,,50,"0,1,1",6,blank,262,null,0.059673231,0.273394309,0.522528936,1,,,,,,
,html-keyboard-response,74,171589,0.0-41.0-1.0,null,<p></p>,,null,,,,,,,,,,,,,,,,
,do_trial,75,174471,0.0-42.0-0.0,343.5,,,,50,"0,1,1",6,blank,263,null,0.232729385,0.222565619,0.446791837,1,,,,,,
,html-keyboard-response,76,175474,0.0-42.0-1.0,null,<p></p>,,null,,,,,,,,,,,,,,,,
,do_trial,77,178598,0.0-43.0-0.0,584.5,,,,50,"0,1,1",6,blank,264,null,0.079510369,0.334860797,0.530513883,1,,,,,,
,html-keyboard-response,78,179602,0.0-43.0-1.0,null,<p></p>,,null,,,,,,,,,,,,,,,,
,do_trial,79,182528,0.0-44.0-0.0,383.3,,,,50,"0,0,1",6,blank,265,null,0.214117723,0.328778529,0.503475237,0,,,,,,
,html-keyboard-response,80,183532,0.0-44.0-1.0,null,<p></p>,,null,,,,,,,,,,,,,,,,
,do_trial,81,186539,0.0-45.0-0.0,467.4,,,,50,"0,0,0",6,blank,266,null,0.170314903,0.23125013,0.430815388,0,,,,,,
,html-keyboard-response,82,187544,0.0-45.0-1.0,null,<p></p>,,null,,,,,,,,,,,,,,,,
,do_recog,83,190272,0.0-46.0-0.0,1222.3,,,,55,,,,267,probe-166,,,,,1,[object Object],80,2,0,
,html-keyboard-response,84,191278,0.0-46.0-1.0,null,<p></p>,,null,,,,,,,,,,,,,,,,
,do_trial,85,194394,0.0-47.0-0.0,576.3,,,,50,"0,1,1",6,blank,268,null,0.106004148,0.268812319,0.484329352,1,,,,,,
,html-keyboard-response,86,195398,0.0-47.0-1.0,null,<p></p>,,null,,,,,,,,,,,,,,,,
,do_recog,87,198000,0.0-48.0-0.0,1094.7,,,,53,,,,269,probe-71,,,,,1,[object Object],127,3,1,
,html-keyboard-response,88,199004,0.0-48.0-1.0,null,<p></p>,,null,,,,,,,,,,,,,,,,
,do_trial,89,202184,0.0-49.0-0.0,636.7,,,,50,"0,0,1",6,blank,270,null,0.145034512,0.208015822,0.601604136,0,,,,,,
,html-keyboard-response,90,203188,0.0-49.0-1.0,null,<p></p>,,null,,,,,,,,,,,,,,,,
,do_recog,91,205784,0.0-50.0-0.0,1087.8,,,,53,,,,271,probe-66,,,,,1,[object Object],49,1,1,
,html-keyboard-response,92,206788,0.0-50.0-1.0,null,<p></p>,,null,,,,,,,,,,,,,,,,
,do_trial,93,209818,0.0-51.0-0.0,486.8,,,,50,"0,0,1",6,blank,272,null,0.079012646,0.345568735,0.663779655,0,,,,,,
,html-keyboard-response,94,210822,0.0-51.0-1.0,null,<p></p>,,null,,,,,,,,,,,,,,,,
,do_trial,95,213905,0.0-52.0-0.0,540.9,,,,50,"0,0,0",6,blank,273,null,0.187206182,0.421824381,0.586524356,0,,,,,,
,html-keyboard-response,96,214909,0.0-52.0-1.0,null,<p></p>,,null,,,,,,,,,,,,,,,,
,do_trial,97,217806,0.0-53.0-0.0,357.5,,,,50,"0,0,1",6,blank,274,null,0.091188498,0.217537454,0.542544482,0,,,,,,
,html-keyboard-response,98,218810,0.0-53.0-1.0,null,<p></p>,,null,,,,,,,,,,,,,,,,
,do_recog,99,221562,0.0-54.0-0.0,1242.7,,,,53,,,,275,probe-108,,,,,1,[object Object],47,1,1,
,html-keyboard-response,100,222566,0.0-54.0-1.0,null,<p></p>,,null,,,,,,,,,,,,,,,,
,do_trial,101,225823,0.0-55.0-0.0,714.5,,,,50,"1,0,1",6,blank,276,null,0.094830233,0.258353748,0.647053745,0,,,,,,
,html-keyboard-response,102,226826,0.0-55.0-1.0,null,<p></p>,,null,,,,,,,,,,,,,,,,
,do_trial,103,229770,0.0-56.0-0.0,402.8,,,,50,"0,1,0",6,blank,277,null,0.10568098,0.210158452,0.715650953,1,,,,,,
,html-keyboard-response,104,230774,0.0-56.0-1.0,null,<p></p>,,null,,,,,,,,,,,,,,,,
,do_recog,105,233358,0.0-57.0-0.0,1078,,,,53,,,,278,probe-54,,,,,1,[object Object],123,3,1,
,html-keyboard-response,106,234362,0.0-57.0-1.0,null,<p></p>,,null,,,,,,,,,,,,,,,,
,do_trial,107,237368,0.0-58.0-0.0,463.5,,,,50,"0,1,1",6,blank,279,null,0.193058685,0.342551173,0.713202927,1,,,,,,
,html-keyboard-response,108,238373,0.0-58.0-1.0,null,<p></p>,,null,,,,,,,,,,,,,,,,
,do_trial,109,241533,0.0-59.0-0.0,618.8,,,,50,"0,0,0",6,blank,280,null,0.122050968,0.258114282,0.566785215,0,,,,,,
,html-keyboard-response,110,242536,0.0-59.0-1.0,null,<p></p>,,null,,,,,,,,,,,,,,,,
,do_trial,111,245949,0.0-60.0-0.0,873.1,,,,50,"1,0,1",6,blank,281,null,0.194441555,0.154074579,0.516801981,0,,,,,,
,html-keyboard-response,112,246953,0.0-60.0-1.0,null,<p></p>,,null,,,,,,,,,,,,,,,,
,do_trial,113,249966,0.0-61.0-0.0,469.3,,,,50,"0,0,0",6,blank,282,null,0.121765788,0.200028041,0.377930492,0,,,,,,
,html-keyboard-response,114,250970,0.0-61.0-1.0,null,<p></p>,,null,,,,,,,,,,,,,,,,
,do_trial,115,254022,0.0-62.0-0.0,512.7,,,,50,"0,0,1",6,blank,283,null,0.137742478,0.189880711,0.522939194,0,,,,,,
,html-keyboard-response,116,255028,0.0-62.0-1.0,null,<p></p>,,null,,,,,,,,,,,,,,,,
,do_recog,117,257559,0.0-63.0-0.0,1022.3,,,,55,,,,284,probe-15,,,,,1,[object Object],166,4,0,
,html-keyboard-response,118,258561,0.0-63.0-1.0,null,<p></p>,,null,,,,,,,,,,,,,,,,
,do_trial,119,261640,0.0-64.0-0.0,538.4,,,,50,"0,0,0",6,blank,285,null,0.166922539,0.225529562,0.598865254,0,,,,,,
,html-keyboard-response,120,262644,0.0-64.0-1.0,null,<p></p>,,null,,,,,,,,,,,,,,,,
,do_trial,121,265837,0.0-65.0-0.0,652.5,,,,50,"0,0,0",6,blank,286,null,0.167141146,0.40410021,0.68259078,0,,,,,,
,html-keyboard-response,122,266841,0.0-65.0-1.0,null,<p></p>,,null,,,,,,,,,,,,,,,,
,do_trial,123,269988,0.0-66.0-0.0,607,,,,50,"0,0,0",6,blank,287,null,0.108239628,0.346710268,0.579930383,0,,,,,,
,html-keyboard-response,124,270992,0.0-66.0-1.0,null,<p></p>,,null,,,,,,,,,,,,,,,,
,do_trial,125,274165,0.0-67.0-0.0,631.9,,,,50,"0,1,1",6,blank,288,null,0.143166592,0.389764788,0.605472083,1,,,,,,
,html-keyboard-response,126,275166,0.0-67.0-1.0,null,<p></p>,,null,,,,,,,,,,,,,,,,
,do_recog,127,277487,0.0-68.0-0.0,811.2,,,,54,,,,289,probe-184,,,,,1,[object Object],161,4,1,
,html-keyboard-response,128,278492,0.0-68.0-1.0,null,<p></p>,,null,,,,,,,,,,,,,,,,
,do_trial,129,281853,0.0-69.0-0.0,817.2,,,,50,"1,1,1",6,blank,290,null,0.282527128,0.357448366,0.59363046,1,,,,,,
,html-keyboard-response,130,282858,0.0-69.0-1.0,null,<p></p>,,null,,,,,,,,,,,,,,,,
,do_trial,131,285924,0.0-70.0-0.0,527.3,,,,50,"0,0,0",6,blank,291,null,0.093595348,0.297756923,0.6530354,0,,,,,,
,html-keyboard-response,132,286927,0.0-70.0-1.0,null,<p></p>,,null,,,,,,,,,,,,,,,,
,do_trial,133,290004,0.0-71.0-0.0,535.1,,,,50,"0,0,1",6,blank,292,null,0.27470756,0.272615957,0.510227673,0,,,,,,
,html-keyboard-response,134,291008,0.0-71.0-1.0,null,<p></p>,,null,,,,,,,,,,,,,,,,
,do_recog,135,293440,0.0-72.0-0.0,926.3,,,,53,,,,293,probe-175,,,,,1,[object Object],124,3,1,
,html-keyboard-response,136,294444,0.0-72.0-1.0,null,<p></p>,,null,,,,,,,,,,,,,,,,
,do_trial,137,297475,0.0-73.0-0.0,488.8,,,,50,"1,1,1",6,blank,294,null,0.321847006,0.357525528,0.499039716,1,,,,,,
,html-keyboard-response,138,298479,0.0-73.0-1.0,null,<p></p>,,null,,,,,,,,,,,,,,,,
,do_recog,139,300801,0.0-74.0-0.0,815.8,,,,53,,,,295,probe-105,,,,,1,[object Object],88,2,1,
,html-keyboard-response,140,301806,0.0-74.0-1.0,null,<p></p>,,null,,,,,,,,,,,,,,,,
,do_trial,141,304847,0.0-75.0-0.0,499.3,,,,50,"0,0,0",6,blank,296,null,0.160000109,0.231047815,0.417865983,0,,,,,,
,html-keyboard-response,142,305851,0.0-75.0-1.0,null,<p></p>,,null,,,,,,,,,,,,,,,,
,do_recog,143,308319,0.0-76.0-0.0,959.1,,,,53,,,,297,probe-132,,,,,1,[object Object],82,2,1,
,html-keyboard-response,144,309323,0.0-76.0-1.0,null,<p></p>,,null,,,,,,,,,,,,,,,,
,do_trial,145,312365,0.0-77.0-0.0,503,,,,50,"0,0,0",6,blank,298,null,0.054795119,0.2496376,0.49333412,0,,,,,,
,html-keyboard-response,146,313370,0.0-77.0-1.0,null,<p></p>,,null,,,,,,,,,,,,,,,,
,do_recog,147,316298,0.0-78.0-0.0,1415.6,,,,53,,,,299,probe-158,,,,,1,[object Object],169,4,1,
,html-keyboard-response,148,317299,0.0-78.0-1.0,null,<p></p>,,null,,,,,,,,,,,,,,,,
,do_trial,149,320382,0.0-79.0-0.0,545.1,,,,50,"0,0,1",6,blank,300,null,0.099803256,0.111014226,0.493907644,0,,,,,,
,html-keyboard-response,150,321386,0.0-79.0-1.0,null,<p></p>,,null,,,,,,,,,,,,,,,,
,do_recog,151,323674,0.0-80.0-0.0,777.1,,,,53,,,,301,probe-163,,,,,1,[object Object],43,1,1,
,html-keyboard-response,152,324678,0.0-80.0-1.0,null,<p></p>,,null,,,,,,,,,,,,,,,,
,do_trial,153,327783,0.0-81.0-0.0,563.3,,,,50,"0,0,1",6,blank,302,null,0.128599331,0.364254312,0.293234988,0,,,,,,
,html-keyboard-response,154,328789,0.0-81.0-1.0,null,<p></p>,,null,,,,,,,,,,,,,,,,
,do_trial,155,331928,0.0-82.0-0.0,600.4,,,,50,"0,0,0",6,blank,303,null,0.322544571,0.376310296,0.124282158,0,,,,,,
,html-keyboard-response,156,332933,0.0-82.0-1.0,null,<p></p>,,null,,,,,,,,,,,,,,,,
,do_recog,157,335179,0.0-83.0-0.0,738,,,,53,,,,304,probe-68,,,,,1,[object Object],126,3,1,
,html-keyboard-response,158,336185,0.0-83.0-1.0,null,<p></p>,,null,,,,,,,,,,,,,,,,
,do_trial,159,339341,0.0-84.0-0.0,615.1,,,,50,"0,0,0",6,blank,305,null,0.315694957,0.456730029,0.078840535,0,,,,,,
,html-keyboard-response,160,340346,0.0-84.0-1.0,null,<p></p>,,null,,,,,,,,,,,,,,,,
,do_trial,161,343446,0.0-85.0-0.0,559.7,,,,50,"0,1,0",6,blank,306,null,0.285800684,0.509606777,0.085723646,1,,,,,,
,html-keyboard-response,162,344450,0.0-85.0-1.0,null,<p></p>,,null,,,,,,,,,,,,,,,,
,do_trial,163,347445,0.0-86.0-0.0,453.8,,,,50,"0,1,0",6,blank,307,null,0.205140097,0.63816965,0.144348889,1,,,,,,
,html-keyboard-response,164,348450,0.0-86.0-1.0,null,<p></p>,,null,,,,,,,,,,,,,,,,
,do_trial,165,351439,0.0-87.0-0.0,447.6,,,,50,"1,0,1",6,blank,308,null,0.198777452,0.735046961,0.088315117,0,,,,,,
,html-keyboard-response,166,352443,0.0-87.0-1.0,null,<p></p>,,null,,,,,,,,,,,,,,,,
,do_recog,167,354690,0.0-88.0-0.0,740.2,,,,53,,,,309,probe-191,,,,,1,[object Object],208,5,1,
,html-keyboard-response,168,355694,0.0-88.0-1.0,null,<p></p>,,null,,,,,,,,,,,,,,,,
,do_trial,169,358579,0.0-89.0-0.0,344.9,,,,50,"0,1,0",6,blank,310,null,0.23177534,0.758926413,0.094691066,1,,,,,,
,html-keyboard-response,170,359584,0.0-89.0-1.0,null,<p></p>,,null,,,,,,,,,,,,,,,,
,do_trial,171,362521,0.0-90.0-0.0,394.5,,,,50,"0,1,0",6,blank,311,null,0.330930388,0.653716437,0.228303815,1,,,,,,
,html-keyboard-response,172,363525,0.0-90.0-1.0,null,<p></p>,,null,,,,,,,,,,,,,,,,
,do_trial,173,366509,0.0-91.0-0.0,444,,,,50,"0,1,1",6,blank,312,null,0.319858081,0.630094587,0.271428932,1,,,,,,
,html-keyboard-response,174,367514,0.0-91.0-1.0,null,<p></p>,,null,,,,,,,,,,,,,,,,
,do_recog,175,369743,0.0-92.0-0.0,721.6,,,,53,,,,313,probe-143,,,,,1,[object Object],165,4,1,
,html-keyboard-response,176,370747,0.0-92.0-1.0,null,<p></p>,,null,,,,,,,,,,,,,,,,
,do_trial,177,373824,0.0-93.0-0.0,533.6,,,,50,"0,1,0",6,blank,314,null,0.341567132,0.631150433,0.285709686,1,,,,,,
,html-keyboard-response,178,374828,0.0-93.0-1.0,null,<p></p>,,null,,,,,,,,,,,,,,,,
,do_trial,179,377847,0.0-94.0-0.0,475.8,,,,50,"1,0,0",6,blank,315,null,0.540545627,0.628752002,0.105340092,0,,,,,,
,html-keyboard-response,180,378851,0.0-94.0-1.0,null,<p></p>,,null,,,,,,,,,,,,,,,,
,do_trial,181,381922,0.0-95.0-0.0,530.1,,,,50,"0,1,0",6,blank,316,null,0.398757097,0.523956662,0.105364845,1,,,,,,
,html-keyboard-response,182,382926,0.0-95.0-1.0,null,<p></p>,,null,,,,,,,,,,,,,,,,
,do_trial,183,385858,0.0-96.0-0.0,388.2,,,,50,"1,1,0",6,blank,317,null,0.461509787,0.627189432,0.061220719,1,,,,,,
,html-keyboard-response,184,386862,0.0-96.0-1.0,null,<p></p>,,null,,,,,,,,,,,,,,,,
,do_recog,185,389126,0.0-97.0-0.0,758.4,,,,53,,,,318,probe-162,,,,,1,[object Object],203,5,1,
,html-keyboard-response,186,390130,0.0-97.0-1.0,null,<p></p>,,null,,,,,,,,,,,,,,,,
,do_trial,187,393207,0.0-98.0-0.0,538,,,,50,"0,1,0",6,blank,319,null,0.243703297,0.640445197,0.141749354,1,,,,,,
,html-keyboard-response,188,394211,0.0-98.0-1.0,null,<p></p>,,null,,,,,,,,,,,,,,,,
,do_trial,189,397216,0.0-99.0-0.0,463.4,,,,50,"0,0,0",6,blank,320,null,0.33666108,0.687094788,0.093357627,0,,,,,,
,html-keyboard-response,190,398220,0.0-99.0-1.0,null,<p></p>,,null,,,,,,,,,,,,,,,,
,do_trial,191,401150,0.0-100.0-0.0,388.3,,,,50,"0,1,0",6,blank,321,null,0.279819759,0.603549566,0.151281028,1,,,,,,
,html-keyboard-response,192,402155,0.0-100.0-1.0,null,<p></p>,,null,,,,,,,,,,,,,,,,
,do_trial,193,405025,0.0-101.0-0.0,325.1,,,,50,"1,1,0",6,blank,322,null,0.3360363,0.513946775,0.13987731,1,,,,,,
,html-keyboard-response,194,406030,0.0-101.0-1.0,null,<p></p>,,null,,,,,,,,,,,,,,,,
,do_recog,195,408574,0.0-102.0-0.0,1032.1,,,,55,,,,323,probe-30,,,,,1,[object Object],164,4,0,
,html-keyboard-response,196,409579,0.0-102.0-1.0,null,<p></p>,,null,,,,,,,,,,,,,,,,
,do_trial,197,412314,0.0-103.0-0.0,195.2,,,,50,"0,1,1",6,blank,324,null,0.275570214,0.46967271,0.085703791,1,,,,,,
,html-keyboard-response,198,413319,0.0-103.0-1.0,null,<p></p>,,null,,,,,,,,,,,,,,,,
,do_trial,199,416409,0.0-104.0-0.0,549.1,,,,50,"1,1,1",6,blank,325,null,0.274136443,0.500427781,0.137606031,1,,,,,,
,html-keyboard-response,200,417413,0.0-104.0-1.0,null,<p></p>,,null,,,,,,,,,,,,,,,,
,do_trial,201,420508,0.0-105.0-0.0,555.8,,,,50,"0,0,0",6,blank,326,null,0.327208929,0.523891932,0.087644385,0,,,,,,
,html-keyboard-response,202,421513,0.0-105.0-1.0,null,<p></p>,,null,,,,,,,,,,,,,,,,
,do_trial,203,424468,0.0-106.0-0.0,416,,,,50,"0,1,0",6,blank,327,null,0.381485548,0.450713913,0.126950687,1,,,,,,
,html-keyboard-response,204,425473,0.0-106.0-1.0,null,<p></p>,,null,,,,,,,,,,,,,,,,
,do_trial,205,428480,0.0-107.0-0.0,465.7,,,,50,"0,1,1",6,blank,328,null,0.356651125,0.62689785,0.165340999,1,,,,,,
,html-keyboard-response,206,429485,0.0-107.0-1.0,null,<p></p>,,null,,,,,,,,,,,,,,,,
,do_trial,207,432574,0.0-108.0-0.0,549.9,,,,50,"0,0,0",6,blank,329,null,0.375208078,0.716951836,0.112195755,0,,,,,,
,html-keyboard-response,208,433578,0.0-108.0-1.0,null,<p></p>,,null,,,,,,,,,,,,,,,,
,do_recog,209,435831,0.0-109.0-0.0,744.3,,,,53,,,,330,probe-52,,,,,1,[object Object],45,1,1,
,html-keyboard-response,210,436834,0.0-109.0-1.0,null,<p></p>,,null,,,,,,,,,,,,,,,,
,do_trial,211,440359,0.0-110.0-0.0,985.9,,,,50,"0,1,0",6,blank,331,null,0.299177392,0.713466411,0.221998617,1,,,,,,
,html-keyboard-response,212,441363,0.0-110.0-1.0,null,<p></p>,,null,,,,,,,,,,,,,,,,
,do_recog,213,443639,0.0-111.0-0.0,764.9,,,,53,,,,332,probe-204,,,,,1,[object Object],201,5,1,
,html-keyboard-response,214,444643,0.0-111.0-1.0,null,<p></p>,,null,,,,,,,,,,,,,,,,
,do_trial,215,447598,0.0-112.0-0.0,416.4,,,,50,"1,1,0",6,blank,333,null,0.368528305,0.498551233,0.077817136,1,,,,,,
,html-keyboard-response,216,448605,0.0-112.0-1.0,null,<p></p>,,null,,,,,,,,,,,,,,,,
,do_trial,217,451790,0.0-113.0-0.0,644.1,,,,50,"0,1,0",6,blank,334,null,0.297960842,0.601722715,0.095702917,1,,,,,,
,html-keyboard-response,218,452794,0.0-113.0-1.0,null,<p></p>,,null,,,,,,,,,,,,,,,,
,do_recog,219,454803,0.0-114.0-0.0,500.5,,,,53,,,,335,probe-133,,,,,1,[object Object],167,4,1,
,html-keyboard-response,220,455807,0.0-114.0-1.0,null,<p></p>,,null,,,,,,,,,,,,,,,,
,do_trial,221,458791,0.0-115.0-0.0,445.5,,,,50,"0,1,0",6,blank,336,null,0.209192054,0.709410349,0.08074552,1,,,,,,
,html-keyboard-response,222,459796,0.0-115.0-1.0,null,<p></p>,,null,,,,,,,,,,,,,,,,
,do_trial,223,463209,0.0-116.0-0.0,871.1,,,,50,"0,1,0",6,blank,337,null,0.239131625,0.560204592,0.077451362,1,,,,,,
,html-keyboard-response,224,464213,0.0-116.0-1.0,null,<p></p>,,null,,,,,,,,,,,,,,,,
,do_trial,225,467225,0.0-117.0-0.0,473.4,,,,50,"1,0,0",6,blank,338,null,0.313786826,0.581013911,0.101069107,0,,,,,,
,html-keyboard-response,226,468230,0.0-117.0-1.0,null,<p></p>,,null,,,,,,,,,,,,,,,,
,do_trial,227,471185,0.0-118.0-0.0,416,,,,50,"1,1,0",6,blank,339,null,0.311768023,0.506805817,0.258372431,1,,,,,,
,html-keyboard-response,228,472189,0.0-118.0-1.0,null,<p></p>,,null,,,,,,,,,,,,,,,,
,do_recog,229,474566,0.0-119.0-0.0,868.7,,,,53,,,,340,probe-122,,,,,1,[object Object],46,1,1,
,html-keyboard-response,230,475568,0.0-119.0-1.0,null,<p></p>,,null,,,,,,,,,,,,,,,,
,do_trial,231,478680,0.0-120.0-0.0,572.1,,,,50,"0,0,0",6,blank,341,null,0.312310851,0.657017689,0.201323373,0,,,,,,
,html-keyboard-response,232,479684,0.0-120.0-1.0,null,<p></p>,,null,,,,,,,,,,,,,,,,
,do_trial,233,482813,0.0-121.0-0.0,587.2,,,,50,"1,1,0",6,blank,342,null,0.43264944,0.644443717,0.211443611,1,,,,,,
,html-keyboard-response,234,483817,0.0-121.0-1.0,null,<p></p>,,null,,,,,,,,,,,,,,,,
,do_trial,235,487004,0.0-122.0-0.0,645.6,,,,50,"0,1,1",6,blank,343,null,0.206260707,0.625079122,0.318003086,1,,,,,,
,html-keyboard-response,236,488008,0.0-122.0-1.0,null,<p></p>,,null,,,,,,,,,,,,,,,,
,do_trial,237,491051,0.0-123.0-0.0,503.2,,,,50,"0,0,0",6,blank,344,null,0.299395408,0.645047365,0.240684241,0,,,,,,
,html-keyboard-response,238,492055,0.0-123.0-1.0,null,<p></p>,,null,,,,,,,,,,,,,,,,
,do_trial,239,495073,0.0-124.0-0.0,474.3,,,,50,"0,1,0",6,blank,345,null,0.250018778,0.687781893,0.181919561,1,,,,,,
,html-keyboard-response,240,496077,0.0-124.0-1.0,null,<p></p>,,null,,,,,,,,,,,,,,,,
,do_trial,241,499162,0.0-125.0-0.0,546.6,,,,50,"0,0,0",6,blank,346,null,0.355010272,0.616270512,0.1251842,0,,,,,,
,html-keyboard-response,242,500165,0.0-125.0-1.0,null,<p></p>,,null,,,,,,,,,,,,,,,,
,do_recog,243,502353,0.0-126.0-0.0,680.8,,,,53,,,,347,probe-53,,,,,1,[object Object],129,3,1,
,html-keyboard-response,244,503359,0.0-126.0-1.0,null,<p></p>,,null,,,,,,,,,,,,,,,,
,do_trial,245,506420,0.0-127.0-0.0,520.3,,,,50,"0,0,1",6,blank,348,null,0.286630433,0.622456758,0.24512941,0,,,,,,
,html-keyboard-response,246,507421,0.0-127.0-1.0,null,<p></p>,,null,,,,,,,,,,,,,,,,
,do_trial,247,510660,0.0-128.0-0.0,698,,,,50,"1,1,1",6,blank,349,null,0.30248011,0.549269385,0.186095618,1,,,,,,
,html-keyboard-response,248,511664,0.0-128.0-1.0,null,<p></p>,,null,,,,,,,,,,,,,,,,
,do_recog,249,514288,0.0-129.0-0.0,1113.5,,,,53,,,,350,probe-21,,,,,1,[object Object],48,1,1,
,html-keyboard-response,250,515293,0.0-129.0-1.0,null,<p></p>,,null,,,,,,,,,,,,,,,,
,do_trial,251,518486,0.0-130.0-0.0,650.3,,,,50,"1,1,0",6,blank,351,null,0.469512838,0.576445188,0.259947233,1,,,,,,
,html-keyboard-response,252,519490,0.0-130.0-1.0,null,<p></p>,,null,,,,,,,,,,,,,,,,
,do_trial,253,522579,0.0-131.0-0.0,546.7,,,,50,"0,1,0",6,blank,352,null,0.428095297,0.523855769,0.269075356,1,,,,,,
,html-keyboard-response,254,523583,0.0-131.0-1.0,null,<p></p>,,null,,,,,,,,,,,,,,,,
,do_trial,255,526508,0.0-132.0-0.0,383.9,,,,50,"0,0,0",6,blank,353,null,0.302545225,0.478822784,0.33740571,0,,,,,,
,html-keyboard-response,256,527513,0.0-132.0-1.0,null,<p></p>,,null,,,,,,,,,,,,,,,,
,do_trial,257,530804,0.0-133.0-0.0,749,,,,50,"1,1,0",6,blank,354,null,0.263482619,0.403918894,0.413367761,1,,,,,,
,html-keyboard-response,258,531808,0.0-133.0-1.0,null,<p></p>,,null,,,,,,,,,,,,,,,,
,do_trial,259,534816,0.0-134.0-0.0,463.6,,,,50,"0,0,1",6,blank,355,null,0.138324394,0.291864329,0.539505326,0,,,,,,
,html-keyboard-response,260,535820,0.0-134.0-1.0,null,<p></p>,,null,,,,,,,,,,,,,,,,
,do_recog,261,537974,0.0-135.0-0.0,647.9,,,,53,,,,356,probe-05,,,,,1,[object Object],81,2,1,
,html-keyboard-response,262,538976,0.0-135.0-1.0,null,<p></p>,,null,,,,,,,,,,,,,,,,
,do_trial,263,542164,0.0-136.0-0.0,649.3,,,,50,"0,1,0",6,blank,357,null,0.214097779,0.178287413,0.700896359,1,,,,,,
,html-keyboard-response,264,543169,0.0-136.0-1.0,null,<p></p>,,null,,,,,,,,,,,,,,,,
,do_trial,265,546571,0.0-137.0-0.0,860.3,,,,50,"1,0,1",6,blank,358,null,0.231727719,0.267646591,0.687387859,0,,,,,,
,html-keyboard-response,266,547577,0.0-137.0-1.0,null,<p></p>,,null,,,,,,,,,,,,,,,,
,do_trial,267,550675,0.0-138.0-0.0,555.2,,,,50,"0,1,0",6,blank,359,null,0.201165085,0.32514032,0.561429631,1,,,,,,
,html-keyboard-response,268,551679,0.0-138.0-1.0,null,<p></p>,,null,,,,,,,,,,,,,,,,
,do_trial,269,554797,0.0-139.0-0.0,577.4,,,,50,"0,0,0",6,blank,360,null,0.245077379,0.32782983,0.590100667,0,,,,,,
,html-keyboard-response,270,555801,0.0-139.0-1.0,null,<p></p>,,null,,,,,,,,,,,,,,,,
,do_trial,271,558845,0.0-140.0-0.0,505,,,,50,"0,1,1",6,blank,361,null,0.178269086,0.423802324,0.623887781,1,,,,,,
,html-keyboard-response,272,559847,0.0-140.0-1.0,null,<p></p>,,null,,,,,,,,,,,,,,,,
,do_trial,273,562796,0.0-141.0-0.0,407.6,,,,50,"0,0,0",6,blank,362,null,0.130256934,0.196858904,0.714541349,0,,,,,,
,html-keyboard-response,274,563800,0.0-141.0-1.0,null,<p></p>,,null,,,,,,,,,,,,,,,,
,do_recog,275,566082,0.0-142.0-0.0,775.7,,,,53,,,,363,probe-84,,,,,1,[object Object],41,1,1,
,html-keyboard-response,276,567086,0.0-142.0-1.0,null,<p></p>,,null,,,,,,,,,,,,,,,,
,do_trial,277,570024,0.0-143.0-0.0,394.7,,,,50,"0,0,0",6,blank,364,null,0.169904229,0.22692264,0.589014253,0,,,,,,
,html-keyboard-response,278,571027,0.0-143.0-1.0,null,<p></p>,,null,,,,,,,,,,,,,,,,
,do_trial,279,574035,0.0-144.0-0.0,466.5,,,,50,"0,0,0",6,blank,365,null,0.143700621,0.213324306,0.642930853,0,,,,,,
,html-keyboard-response,280,575039,0.0-144.0-1.0,null,<p></p>,,null,,,,,,,,,,,,,,,,
,do_trial,281,578000,0.0-145.0-0.0,421.2,,,,50,"0,0,1",6,blank,366,null,0.080231734,0.313045911,0.676163409,0,,,,,,
,html-keyboard-response,282,579004,0.0-145.0-1.0,null,<p></p>,,null,,,,,,,,,,,,,,,,
,do_trial,283,581953,0.0-146.0-0.0,409.8,,,,50,"0,1,0",6,blank,367,null,0.123527823,0.389988957,0.488426726,1,,,,,,
,html-keyboard-response,284,582955,0.0-146.0-1.0,null,<p></p>,,null,,,,,,,,,,,,,,,,
,do_trial,285,585883,0.0-147.0-0.0,388.1,,,,50,"0,0,1",6,blank,368,null,0.117842376,0.216208456,0.555281488,0,,,,,,
,html-keyboard-response,286,586888,0.0-147.0-1.0,null,<p></p>,,null,,,,,,,,,,,,,,,,
,do_trial,287,589849,0.0-148.0-0.0,420.4,,,,50,"0,0,0",6,blank,369,null,0.118206369,0.434241626,0.540722351,0,,,,,,
,html-keyboard-response,288,590855,0.0-148.0-1.0,null,<p></p>,,null,,,,,,,,,,,,,,,,
,do_recog,289,593012,0.0-149.0-0.0,648.7,,,,53,,,,370,probe-01,,,,,1,[object Object],40,1,1,
,html-keyboard-response,290,594016,0.0-149.0-1.0,null,<p></p>,,null,,,,,,,,,,,,,,,,
,do_trial,291,597093,0.0-150.0-0.0,536.7,,,,50,"0,0,0",6,blank,371,null,0.206967996,0.464977575,0.524655754,0,,,,,,
,html-keyboard-response,292,598097,0.0-150.0-1.0,null,<p></p>,,null,,,,,,,,,,,,,,,,
,do_recog,293,600460,0.0-151.0-0.0,854.3,,,,53,,,,372,probe-185,,,,,1,[object Object],120,3,1,
,html-keyboard-response,294,601464,0.0-151.0-1.0,null,<p></p>,,null,,,,,,,,,,,,,,,,
,do_trial,295,604628,0.0-152.0-0.0,622.7,,,,50,"0,0,0",6,blank,373,null,0.19659996,0.39439672,0.516346778,0,,,,,,
,html-keyboard-response,296,605633,0.0-152.0-1.0,null,<p></p>,,null,,,,,,,,,,,,,,,,
,do_trial,297,608622,0.0-153.0-0.0,447,,,,50,"0,1,0",6,blank,374,null,0.227744216,0.337325522,0.538638307,1,,,,,,
,html-keyboard-response,298,609627,0.0-153.0-1.0,null,<p></p>,,null,,,,,,,,,,,,,,,,
,do_trial,299,613452,0.0-154.0-0.0,1286.3,,,,50,"0,0,0",6,blank,375,null,0.297084363,0.247318369,0.504290583,0,,,,,,
,html-keyboard-response,300,614456,0.0-154.0-1.0,null,<p></p>,,null,,,,,,,,,,,,,,,,
,do_trial,301,617411,0.0-155.0-0.0,417.3,,,,50,"0,0,0",6,blank,376,null,0.087087949,0.283041369,0.422340054,0,,,,,,
,html-keyboard-response,302,618415,0.0-155.0-1.0,null,<p></p>,,null,,,,,,,,,,,,,,,,
,do_trial,303,621074,0.0-156.0-0.0,117.7,,,,50,"0,1,1",6,blank,377,null,0.080116563,0.374453993,0.476258517,1,,,,,,
,html-keyboard-response,304,622079,0.0-156.0-1.0,null,<p></p>,,null,,,,,,,,,,,,,,,,
,do_trial,305,624772,0.0-157.0-0.0,149.7,,,,50,"0,1,0",6,blank,378,null,0.103755011,0.429731997,0.449235646,1,,,,,,
,html-keyboard-response,306,625776,0.0-157.0-1.0,null,<p></p>,,null,,,,,,,,,,,,,,,,
,do_recog,307,628145,0.0-158.0-0.0,859.3,,,,53,,,,379,probe-230,,,,,1,[object Object],160,4,1,
,html-keyboard-response,308,629149,0.0-158.0-1.0,null,<p></p>,,null,,,,,,,,,,,,,,,,
,do_trial,309,632203,0.0-159.0-0.0,514.6,,,,50,"0,1,1",6,blank,380,null,0.078809035,0.32617227,0.567486362,1,,,,,,
,html-keyboard-response,310,633207,0.0-159.0-1.0,null,<p></p>,,null,,,,,,,,,,,,,,,,
,do_recog,311,635558,0.0-160.0-0.0,842.3,,,,53,,,,381,probe-167,,,,,1,[object Object],207,5,1,
,html-keyboard-response,312,636562,0.0-160.0-1.0,null,<p></p>,,null,,,,,,,,,,,,,,,,
,do_trial,313,639900,0.0-161.0-0.0,798.5,,,,50,"0,0,0",6,blank,382,null,0.081687015,0.365598776,0.564526391,0,,,,,,
,html-keyboard-response,314,640905,0.0-161.0-1.0,null,<p></p>,,null,,,,,,,,,,,,,,,,
,do_trial,315,643865,0.0-162.0-0.0,421.3,,,,50,"0,1,0",6,blank,383,null,0.087015885,0.27461677,0.511953611,1,,,,,,
,html-keyboard-response,316,644870,0.0-162.0-1.0,null,<p></p>,,null,,,,,,,,,,,,,,,,
,do_trial,317,647982,0.0-163.0-0.0,572.7,,,,50,"0,0,0",6,blank,384,null,0.128353864,0.185784891,0.471783229,0,,,,,,
,html-keyboard-response,318,648985,0.0-163.0-1.0,null,<p></p>,,null,,,,,,,,,,,,,,,,
,do_trial,319,652132,0.0-164.0-0.0,607.3,,,,50,"0,0,0",6,blank,385,null,0.103699731,0.211628261,0.566401965,0,,,,,,
,html-keyboard-response,320,653136,0.0-164.0-1.0,null,<p></p>,,null,,,,,,,,,,,,,,,,
,do_trial,321,656079,0.0-165.0-0.0,404.7,,,,50,"0,1,0",6,blank,386,null,0.146500012,0.296685329,0.664815685,1,,,,,,
,html-keyboard-response,322,657084,0.0-165.0-1.0,null,<p></p>,,null,,,,,,,,,,,,,,,,
,do_recog,323,659284,0.0-166.0-0.0,692.4,,,,53,,,,387,probe-177,,,,,1,[object Object],163,4,1,
,html-keyboard-response,324,660288,0.0-166.0-1.0,null,<p></p>,,null,,,,,,,,,,,,,,,,
,do_trial,325,663417,0.0-167.0-0.0,589.9,,,,50,"0,1,0",6,blank,388,null,0.050758028,0.241774988,0.673836692,1,,,,,,
,html-keyboard-response,326,664421,0.0-167.0-1.0,null,<p></p>,,null,,,,,,,,,,,,,,,,
,do_trial,327,667475,0.0-168.0-0.0,514,,,,50,"0,0,0",6,blank,389,null,0.064369745,0.33281307,0.612709345,0,,,,,,
,html-keyboard-response,328,668478,0.0-168.0-1.0,null,<p></p>,,null,,,,,,,,,,,,,,,,
,do_trial,329,671523,0.0-169.0-0.0,505.1,,,,50,"1,1,0",6,blank,390,null,0.107481275,0.374390154,0.528396687,1,,,,,,
,html-keyboard-response,330,672525,0.0-169.0-1.0,null,<p></p>,,null,,,,,,,,,,,,,,,,
,do_recog,331,674719,0.0-170.0-0.0,686.4,,,,53,,,,391,probe-127,,,,,1,[object Object],125,3,1,
,html-keyboard-response,332,675724,0.0-170.0-1.0,null,<p></p>,,null,,,,,,,,,,,,,,,,
,do_trial,333,678812,0.0-171.0-0.0,549.5,,,,50,"1,1,0",6,blank,392,null,0.120396375,0.388551131,0.688771556,1,,,,,,
,html-keyboard-response,334,679817,0.0-171.0-1.0,null,<p></p>,,null,,,,,,,,,,,,,,,,
,do_trial,335,683015,0.0-172.0-0.0,659.2,,,,50,"0,0,1",6,blank,393,null,0.148472923,0.446410786,0.543436517,0,,,,,,
,html-keyboard-response,336,684020,0.0-172.0-1.0,null,<p></p>,,null,,,,,,,,,,,,,,,,
,do_trial,337,687166,0.0-173.0-0.0,604.5,,,,50,"1,0,0",6,blank,394,null,0.144016066,0.450581849,0.637016318,0,,,,,,
,html-keyboard-response,338,688172,0.0-173.0-1.0,null,<p></p>,,null,,,,,,,,,,,,,,,,
,do_trial,339,691090,0.0-174.0-0.0,376.4,,,,50,"1,0,1",6,blank,395,null,0.173736025,0.46148495,0.745685284,0,,,,,,
,html-keyboard-response,340,692094,0.0-174.0-1.0,null,<p></p>,,null,,,,,,,,,,,,,,,,
,do_trial,341,695125,0.0-175.0-0.0,487.9,,,,50,"0,1,1",6,blank,396,null,0.146887299,0.462969302,0.840163032,1,,,,,,
,html-keyboard-response,342,696129,0.0-175.0-1.0,null,<p></p>,,null,,,,,,,,,,,,,,,,
,do_recog,343,698225,0.0-176.0-0.0,590.2,,,,53,,,,397,probe-41,,,,,1,[object Object],122,3,1,
,html-keyboard-response,344,699229,0.0-176.0-1.0,null,<p></p>,,null,,,,,,,,,,,,,,,,
,do_trial,345,702137,0.0-177.0-0.0,367.2,,,,50,"0,0,1",6,blank,398,null,0.097148994,0.598538573,0.612294515,0,,,,,,
,html-keyboard-response,346,703142,0.0-177.0-1.0,null,<p></p>,,null,,,,,,,,,,,,,,,,
,do_trial,347,706750,0.0-178.0-0.0,1065.9,,,,50,"0,1,0",6,blank,399,null,0.056120863,0.375897605,0.405439042,1,,,,,,
,html-keyboard-response,348,707755,0.0-178.0-1.0,null,<p></p>,,null,,,,,,,,,,,,,,,,
,do_trial,349,710711,0.0-179.0-0.0,418.2,,,,50,"0,0,0",6,blank,400,null,0.066723688,0.291308637,0.365198759,0,,,,,,
,html-keyboard-response,350,711716,0.0-179.0-1.0,null,<p></p>,,null,,,,,,,,,,,,,,,,
,do_trial,351,714682,0.0-180.0-0.0,424,,,,50,"0,0,0",6,blank,401,null,0.218792341,0.259208889,0.245881228,0,,,,,,
,html-keyboard-response,352,715687,0.0-180.0-1.0,null,<p></p>,,null,,,,,,,,,,,,,,,,
,do_recog,353,718371,0.0-181.0-0.0,1174.9,,,,53,,,,402,probe-51,,,,,1,[object Object],42,1,1,
,html-keyboard-response,354,719373,0.0-181.0-1.0,null,<p></p>,,null,,,,,,,,,,,,,,,,
,do_trial,355,722630,0.0-182.0-0.0,715.7,,,,50,"0,1,1",6,blank,403,null,0.207535709,0.448642201,0.184949174,1,,,,,,
,html-keyboard-response,356,723634,0.0-182.0-1.0,null,<p></p>,,null,,,,,,,,,,,,,,,,
,do_recog,357,725939,0.0-183.0-0.0,794.5,,,,53,,,,404,probe-155,,,,,1,[object Object],84,2,1,
,html-keyboard-response,358,726943,0.0-183.0-1.0,null,<p></p>,,null,,,,,,,,,,,,,,,,
,do_trial,359,730072,0.0-184.0-0.0,588,,,,50,"0,1,0",6,blank,405,null,0.293248297,0.565081115,0.092489854,1,,,,,,
,html-keyboard-response,360,731076,0.0-184.0-1.0,null,<p></p>,,null,,,,,,,,,,,,,,,,
,do_trial,361,734118,0.0-185.0-0.0,502.3,,,,50,"0,0,0",6,blank,406,null,0.350531542,0.597347137,0.059172575,0,,,,,,
,html-keyboard-response,362,735122,0.0-185.0-1.0,null,<p></p>,,null,,,,,,,,,,,,,,,,
,do_recog,363,737421,0.0-186.0-0.0,792.1,,,,53,,,,407,probe-104,,,,,1,[object Object],87,2,1,
,html-keyboard-response,364,738425,0.0-186.0-1.0,null,<p></p>,,null,,,,,,,,,,,,,,,,
,do_trial,365,741514,0.0-187.0-0.0,547.9,,,,50,"0,0,0",6,blank,408,null,0.324540183,0.490033421,0.078837352,0,,,,,,
,html-keyboard-response,366,742518,0.0-187.0-1.0,null,<p></p>,,null,,,,,,,,,,,,,,,,
,do_trial,367,745513,0.0-188.0-0.0,453.6,,,,50,"0,1,0",6,blank,409,null,0.339973575,0.642787537,0.089057676,1,,,,,,
,html-keyboard-response,368,746518,0.0-188.0-1.0,null,<p></p>,,null,,,,,,,,,,,,,,,,
,do_trial,369,749589,0.0-189.0-0.0,531.9,,,,50,"0,0,0",6,blank,410,null,0.393857993,0.671573505,0.167366298,0,,,,,,
,html-keyboard-response,370,750593,0.0-189.0-1.0,null,<p></p>,,null,,,,,,,,,,,,,,,,
,do_trial,371,753716,0.0-190.0-0.0,582.2,,,,50,"0,1,0",6,blank,411,null,0.284974965,0.627297736,0.062300661,1,,,,,,
,html-keyboard-response,372,754720,0.0-190.0-1.0,null,<p></p>,,null,,,,,,,,,,,,,,,,
,do_trial,373,757704,0.0-191.0-0.0,443.7,,,,50,"0,1,0",6,blank,412,null,0.352816269,0.649205694,0.115122566,1,,,,,,
,html-keyboard-response,374,758708,0.0-191.0-1.0,null,<p></p>,,null,,,,,,,,,,,,,,,,
,do_recog,375,760992,0.0-192.0-0.0,772.8,,,,53,,,,413,probe-171,,,,,1,[object Object],209,5,1,
,html-keyboard-response,376,761994,0.0-192.0-1.0,null,<p></p>,,null,,,,,,,,,,,,,,,,
,do_trial,377,765106,0.0-193.0-0.0,567.9,,,,50,"0,1,0",6,blank,414,null,0.099493719,0.667934348,0.149885867,1,,,,,,
,html-keyboard-response,378,766110,0.0-193.0-1.0,null,<p></p>,,null,,,,,,,,,,,,,,,,
,do_recog,379,768386,0.0-194.0-0.0,769.2,,,,53,,,,415,probe-98,,,,,1,[object Object],200,5,1,
,html-keyboard-response,380,769390,0.0-194.0-1.0,null,<p></p>,,null,,,,,,,,,,,,,,,,
,do_trial,381,772574,0.0-195.0-0.0,642.8,,,,50,"0,1,1",6,blank,416,null,0.072146919,0.604204707,0.174655374,1,,,,,,
,html-keyboard-response,382,773576,0.0-195.0-1.0,null,<p></p>,,null,,,,,,,,,,,,,,,,
,do_recog,383,775756,0.0-196.0-0.0,670.9,,,,53,,,,417,probe-45,,,,,1,[object Object],85,2,1,
,html-keyboard-response,384,776763,0.0-196.0-1.0,null,<p></p>,,null,,,,,,,,,,,,,,,,
,do_trial,385,779679,0.0-197.0-0.0,373.7,,,,50,"0,0,1",6,blank,418,null,0.209022171,0.61415225,0.22799963,0,,,,,,
,html-keyboard-response,386,780685,0.0-197.0-1.0,null,<p></p>,,null,,,,,,,,,,,,,,,,
,do_recog,387,782736,0.0-198.0-0.0,543.6,,,,53,,,,419,probe-142,,,,,1,[object Object],202,5,1,
,html-keyboard-response,388,783740,0.0-198.0-1.0,null,<p></p>,,null,,,,,,,,,,,,,,,,
,do_trial,389,786904,0.0-199.0-0.0,621.1,,,,50,"0,0,0",6,blank,420,null,0.23617662,0.597683475,0.220528156,0,,,,,,
,html-keyboard-response,390,787908,0.0-199.0-1.0,null,<p></p>,,null,,,,,,,,,,,,,,,,
,do_trial,391,791206,0.0-200.0-0.0,758,,,,50,"0,1,0",6,blank,421,null,0.453846972,0.677161397,0.180903706,1,,,,,,
,html-keyboard-response,392,792210,0.0-200.0-1.0,null,<p></p>,,null,,,,,,,,,,,,,,,,
,do_trial,393,795147,0.0-201.0-0.0,399.2,,,,50,"0,0,0",6,blank,422,null,0.404385412,0.556953703,0.138026268,0,,,,,,
,html-keyboard-response,394,796152,0.0-201.0-1.0,null,<p></p>,,null,,,,,,,,,,,,,,,,
,do_trial,395,799147,0.0-202.0-0.0,452.9,,,,50,"0,0,1",6,blank,423,null,0.159830258,0.432535011,0.279350952,0,,,,,,
,html-keyboard-response,396,800151,0.0-202.0-1.0,null,<p></p>,,null,,,,,,,,,,,,,,,,
,do_recog,397,802291,0.0-203.0-0.0,631.2,,,,53,,,,424,probe-121,,,,,1,[object Object],121,3,1,
,html-keyboard-response,398,803296,0.0-203.0-1.0,null,<p></p>,,null,,,,,,,,,,,,,,,,
,do_trial,399,806412,0.0-204.0-0.0,576.1,,,,50,"0,0,0",6,blank,425,null,0.257039055,0.563872873,0.227988789,0,,,,,,
,html-keyboard-response,400,807414,0.0-204.0-1.0,null,<p></p>,,null,,,,,,,,,,,,,,,,
,do_trial,401,810334,0.0-205.0-0.0,376.7,,,,50,"1,0,0",6,blank,426,null,0.207731565,0.616340188,0.194917949,0,,,,,,
,html-keyboard-response,402,811338,0.0-205.0-1.0,null,<p></p>,,null,,,,,,,,,,,,,,,,
,do_recog,403,813590,0.0-206.0-0.0,742.6,,,,53,,,,427,probe-99,,,,,1,[object Object],162,4,1,
,html-keyboard-response,404,814595,0.0-206.0-1.0,null,<p></p>,,null,,,,,,,,,,,,,,,,
,do_trial,405,817653,0.0-207.0-0.0,517.2,,,,50,"0,1,0",6,blank,428,null,0.367131269,0.700617004,0.12865038,1,,,,,,
,html-keyboard-response,406,818658,0.0-207.0-1.0,null,<p></p>,,null,,,,,,,,,,,,,,,,
,do_trial,407,821711,0.0-208.0-0.0,512.9,,,,50,"0,1,0",6,blank,429,null,0.329116646,0.683746507,0.122609235,1,,,,,,
,html-keyboard-response,408,822715,0.0-208.0-1.0,null,<p></p>,,null,,,,,,,,,,,,,,,,
,do_trial,409,825741,0.0-209.0-0.0,483.4,,,,50,"0,1,0",6,blank,430,null,0.358651985,0.658389041,0.054611607,1,,,,,,
,html-keyboard-response,410,826742,0.0-209.0-1.0,null,<p></p>,,null,,,,,,,,,,,,,,,,
,do_trial,411,829984,0.0-210.0-0.0,698.4,,,,50,"0,1,0",6,blank,431,null,0.349077348,0.702360672,0.119819777,1,,,,,,
,html-keyboard-response,412,830988,0.0-210.0-1.0,null,<p></p>,,null,,,,,,,,,,,,,,,,
,do_trial,413,834050,0.0-211.0-0.0,520.3,,,,50,"0,1,0",6,blank,432,null,0.415832292,0.663388169,0.078820066,1,,,,,,
,html-keyboard-response,414,835052,0.0-211.0-1.0,null,<p></p>,,null,,,,,,,,,,,,,,,,
,do_trial,415,838007,0.0-212.0-0.0,416,,,,50,"0,0,0",6,blank,433,null,0.212922155,0.636498617,0.098636945,0,,,,,,
,html-keyboard-response,416,839011,0.0-212.0-1.0,null,<p></p>,,null,,,,,,,,,,,,,,,,
,do_recog,417,841177,0.0-213.0-0.0,659.6,,,,53,,,,434,probe-205,,,,,1,[object Object],206,5,1,
,html-keyboard-response,418,842181,0.0-213.0-1.0,null,<p></p>,,null,,,,,,,,,,,,,,,,
,do_trial,419,845228,0.0-214.0-0.0,508.9,,,,50,"0,0,0",6,blank,435,null,0.315323783,0.559583311,0.141092805,0,,,,,,
,html-keyboard-response,420,846233,0.0-214.0-1.0,null,<p></p>,,null,,,,,,,,,,,,,,,,
,do_trial,421,849242,0.0-215.0-0.0,469.4,,,,50,"1,1,1",6,blank,436,null,0.225957453,0.597709751,0.144304213,1,,,,,,
,html-keyboard-response,422,850244,0.0-215.0-1.0,null,<p></p>,,null,,,,,,,,,,,,,,,,
,do_trial,423,853234,0.0-216.0-0.0,446.3,,,,50,"0,1,0",6,blank,437,null,0.242140148,0.737711324,0.15616412,1,,,,,,
,html-keyboard-response,424,854238,0.0-216.0-1.0,null,<p></p>,,null,,,,,,,,,,,,,,,,
,do_trial,425,857477,0.0-217.0-0.0,699.8,,,,50,"0,0,0",6,blank,438,null,0.407709214,0.600400918,0.131499889,0,,,,,,
,html-keyboard-response,426,858482,0.0-217.0-1.0,null,<p></p>,,null,,,,,,,,,,,,,,,,
,do_recog,427,860937,0.0-218.0-0.0,948.1,,,,53,,,,439,probe-253,,,,,0,[object Object],null,null,0,
,html-keyboard-response,428,861942,0.0-218.0-1.0,null,<p></p>,,null,,,,,,,,,,,,,,,,
,do_trial,429,865070,0.0-219.0-0.0,588,,,,50,"0,1,0",6,blank,440,null,0.289136789,0.654810431,0.134732297,1,,,,,,
,html-keyboard-response,430,866075,0.0-219.0-1.0,null,<p></p>,,null,,,,,,,,,,,,,,,,
,do_trial,431,869384,0.0-220.0-0.0,767.2,,,,50,"0,1,0",6,blank,441,null,0.119685582,0.690073559,0.075150149,1,,,,,,
,html-keyboard-response,432,870386,0.0-220.0-1.0,null,<p></p>,,null,,,,,,,,,,,,,,,,
,do_trial,433,873517,0.0-221.0-0.0,588.4,,,,50,"0,1,0",6,blank,442,null,0.174984832,0.63221167,0.075719234,1,,,,,,
,html-keyboard-response,434,874521,0.0-221.0-1.0,null,<p></p>,,null,,,,,,,,,,,,,,,,
,do_recog,435,876733,0.0-222.0-0.0,706.4,,,,53,,,,443,probe-243,,,,,0,[object Object],null,null,0,
,html-keyboard-response,436,877737,0.0-222.0-1.0,null,<p></p>,,null,,,,,,,,,,,,,,,,
,do_trial,437,880843,0.0-223.0-0.0,564.4,,,,50,"0,0,0",6,blank,444,null,0.169468318,0.634769423,0.145275864,0,,,,,,
,html-keyboard-response,438,881848,0.0-223.0-1.0,null,<p></p>,,null,,,,,,,,,,,,,,,,
,do_trial,439,884860,0.0-224.0-0.0,474.2,,,,50,"0,1,0",6,blank,445,null,0.21593248,0.526247551,0.15802927,1,,,,,,
,html-keyboard-response,440,885864,0.0-224.0-1.0,null,<p></p>,,null,,,,,,,,,,,,,,,,
,do_trial,441,889011,0.0-225.0-0.0,606.9,,,,50,"0,0,0",6,blank,446,null,0.126736159,0.65406682,0.248864656,0,,,,,,
,html-keyboard-response,442,890015,0.0-225.0-1.0,null,<p></p>,,null,,,,,,,,,,,,,,,,
,do_trial,443,893173,0.0-226.0-0.0,614.9,,,,50,"0,1,1",6,blank,447,null,0.412010147,0.629290729,0.246599038,1,,,,,,
,html-keyboard-response,444,894178,0.0-226.0-1.0,null,<p></p>,,null,,,,,,,,,,,,,,,,
,do_trial,445,897144,0.0-227.0-0.0,427.4,,,,50,"0,1,0",6,blank,448,null,0.34977839,0.722335208,0.194177733,1,,,,,,
,html-keyboard-response,446,898148,0.0-227.0-1.0,null,<p></p>,,null,,,,,,,,,,,,,,,,
,do_trial,447,901086,0.0-228.0-0.0,396.4,,,,50,"0,1,0",6,blank,449,null,0.36508432,0.622059502,0.244475081,1,,,,,,
,html-keyboard-response,448,902090,0.0-228.0-1.0,null,<p></p>,,null,,,,,,,,,,,,,,,,
,do_trial,449,905091,0.0-229.0-0.0,459.4,,,,50,"0,0,0",6,blank,450,null,0.317867586,0.51759162,0.14485936,0,,,,,,
,html-keyboard-response,450,906095,0.0-229.0-1.0,null,<p></p>,,null,,,,,,,,,,,,,,,,
,do_recog,451,908789,0.0-230.0-0.0,1184.2,,,,53,,,,451,probe-241,,,,,0,[object Object],null,null,0,
,html-keyboard-response,452,909793,0.0-230.0-1.0,null,<p></p>,,null,,,,,,,,,,,,,,,,
,do_trial,453,912847,0.0-231.0-0.0,515.4,,,,50,"1,1,0",6,blank,452,null,0.245672251,0.641015729,0.132983918,1,,,,,,
,html-keyboard-response,454,913851,0.0-231.0-1.0,null,<p></p>,,null,,,,,,,,,,,,,,,,
,do_trial,455,916881,0.0-232.0-0.0,489.2,,,,50,"0,1,0",6,blank,453,null,0.129687337,0.586710144,0.172978991,1,,,,,,
,html-keyboard-response,456,917886,0.0-232.0-1.0,null,<p></p>,,null,,,,,,,,,,,,,,,,
,do_trial,457,921003,0.0-233.0-0.0,574.3,,,,50,"0,1,0",6,blank,454,null,0.077425865,0.610851119,0.252689551,1,,,,,,
,html-keyboard-response,458,922007,0.0-233.0-1.0,null,<p></p>,,null,,,,,,,,,,,,,,,,
,do_trial,459,924660,0.0-234.0-0.0,112.3,,,,50,"0,1,0",6,blank,455,null,0.102977049,0.468037644,0.351384049,1,,,,,,
,html-keyboard-response,460,925665,0.0-234.0-1.0,null,<p></p>,,null,,,,,,,,,,,,,,,,
,do_trial,461,928683,0.0-235.0-0.0,476,,,,50,"0,1,0",6,blank,456,null,0.337909789,0.302887746,0.432192432,1,,,,,,
,html-keyboard-response,462,929688,0.0-235.0-1.0,null,<p></p>,,null,,,,,,,,,,,,,,,,
,do_recog,463,932282,0.0-236.0-0.0,1086.1,,,,53,,,,457,probe-248,,,,,0,[object Object],null,null,0,
,html-keyboard-response,464,933287,0.0-236.0-1.0,null,<p></p>,,null,,,,,,,,,,,,,,,,
,do_trial,465,936213,0.0-237.0-0.0,383.5,,,,50,"0,0,1",6,blank,458,null,0.312341779,0.063619966,0.504935055,0,,,,,,
,html-keyboard-response,466,937217,0.0-237.0-1.0,null,<p></p>,,null,,,,,,,,,,,,,,,,
,do_recog,467,939382,0.0-238.0-0.0,659.7,,,,56,,,,459,probe-238,,,,,0,[object Object],null,null,1,
,html-keyboard-response,468,940386,0.0-238.0-1.0,null,<p></p>,,null,,,,,,,,,,,,,,,,
,do_trial,469,943503,0.0-239.0-0.0,576.7,,,,50,"0,0,0",6,blank,460,null,0.259976798,0.148233191,0.430028872,0,,,,,,
,html-keyboard-response,470,944508,0.0-239.0-1.0,null,<p></p>,,null,,,,,,,,,,,,,,,,
,do_recog,471,947509,0.0-240.0-0.0,1492.9,,,,56,,,,461,probe-233,,,,,0,[object Object],null,null,1,
,html-keyboard-response,472,948514,0.0-240.0-1.0,null,<p></p>,,null,,,,,,,,,,,,,,,,
,do_trial,473,951676,0.0-241.0-0.0,620.8,,,,50,"1,1,0",6,blank,462,null,0.262237939,0.121131302,0.51031769,1,,,,,,
,html-keyboard-response,474,952681,0.0-241.0-1.0,null,<p></p>,,null,,,,,,,,,,,,,,,,
,do_trial,475,955753,0.0-242.0-0.0,529.1,,,,50,"0,0,1",6,blank,463,null,0.217101077,0.142276019,0.487909185,0,,,,,,
,html-keyboard-response,476,956757,0.0-242.0-1.0,null,<p></p>,,null,,,,,,,,,,,,,,,,
,do_trial,477,959903,0.0-243.0-0.0,607,,,,50,"1,0,0",6,blank,464,null,0.351278905,0.09726454,0.513981674,0,,,,,,
,html-keyboard-response,478,960908,0.0-243.0-1.0,null,<p></p>,,null,,,,,,,,,,,,,,,,
,do_trial,479,963874,0.0-244.0-0.0,427.4,,,,50,"0,0,0",6,blank,465,null,0.416927775,0.207134021,0.50135259,0,,,,,,
,html-keyboard-response,480,964878,0.0-244.0-1.0,null,<p></p>,,null,,,,,,,,,,,,,,,,
,do_trial,481,968065,0.0-245.0-0.0,645,,,,50,"0,0,0",6,blank,466,null,0.302396037,0.22100902,0.693026129,0,,,,,,
,html-keyboard-response,482,969070,0.0-245.0-1.0,null,<p></p>,,null,,,,,,,,,,,,,,,,
,do_recog,483,971183,0.0-246.0-0.0,606.5,,,,56,,,,467,probe-249,,,,,0,[object Object],null,null,1,
,html-keyboard-response,484,972187,0.0-246.0-1.0,null,<p></p>,,null,,,,,,,,,,,,,,,,
,do_trial,485,975113,0.0-247.0-0.0,381.9,,,,50,"0,0,1",6,blank,468,null,0.398444158,0.194257753,0.504146593,0,,,,,,
,html-keyboard-response,486,976117,0.0-247.0-1.0,null,<p></p>,,null,,,,,,,,,,,,,,,,
,do_trial,487,979338,0.0-248.0-0.0,682.9,,,,50,"0,0,1",6,blank,469,null,0.365043553,0.168712845,0.540489467,0,,,,,,
,html-keyboard-response,488,980343,0.0-248.0-1.0,null,<p></p>,,null,,,,,,,,,,,,,,,,
,do_trial,489,983327,0.0-249.0-0.0,443.6,,,,50,"0,1,1",6,blank,470,null,0.297930969,0.241062621,0.623549368,1,,,,,,
,html-keyboard-response,490,984332,0.0-249.0-1.0,null,<p></p>,,null,,,,,,,,,,,,,,,,
,do_trial,491,987420,0.0-250.0-0.0,547.3,,,,50,"1,0,0",6,blank,471,null,0.316691395,0.292711941,0.478133591,0,,,,,,
,html-keyboard-response,492,988424,0.0-250.0-1.0,null,<p></p>,,null,,,,,,,,,,,,,,,,
,do_recog,493,990723,0.0-251.0-0.0,789.5,,,,56,,,,472,probe-237,,,,,0,[object Object],null,null,1,
,html-keyboard-response,494,991727,0.0-251.0-1.0,null,<p></p>,,null,,,,,,,,,,,,,,,,
,do_trial,495,994885,0.0-252.0-0.0,619.8,,,,50,"0,0,1",6,blank,473,null,0.341329777,0.386208159,0.553215133,0,,,,,,
,html-keyboard-response,496,995889,0.0-252.0-1.0,null,<p></p>,,null,,,,,,,,,,,,,,,,
,do_trial,497,998862,0.0-253.0-0.0,433,,,,50,"1,0,0",6,blank,474,null,0.418852391,0.189305482,0.438050271,0,,,,,,
,html-keyboard-response,498,999866,0.0-253.0-1.0,null,<p></p>,,null,,,,,,,,,,,,,,,,
,do_trial,499,1002803,0.0-254.0-0.0,395.1,,,,50,"0,0,0",6,blank,475,null,0.2936366,0.101147148,0.458302672,0,,,,,,
,html-keyboard-response,500,1003808,0.0-254.0-1.0,null,<p></p>,,null,,,,,,,,,,,,,,,,
,do_trial,501,1007058,0.0-255.0-0.0,711.1,,,,50,"0,0,0",6,blank,476,null,0.239669874,0.068464486,0.455896175,0,,,,,,
,html-keyboard-response,502,1008063,0.0-255.0-1.0,null,<p></p>,,null,,,,,,,,,,,,,,,,
,do_recog,503,1010408,0.0-256.0-0.0,835.9,,,,56,,,,477,probe-245,,,,,0,[object Object],null,null,1,
,html-keyboard-response,504,1011412,0.0-256.0-1.0,null,<p></p>,,null,,,,,,,,,,,,,,,,
,do_trial,505,1014402,0.0-257.0-0.0,451.8,,,,50,"1,0,1",6,blank,478,null,0.411301882,0.106148528,0.571965826,0,,,,,,
,html-keyboard-response,506,1015406,0.0-257.0-1.0,null,<p></p>,,null,,,,,,,,,,,,,,,,
,do_recog,507,1017543,0.0-258.0-0.0,631.3,,,,56,,,,479,probe-255,,,,,0,[object Object],null,null,1,
,html-keyboard-response,508,1018549,0.0-258.0-1.0,null,<p></p>,,null,,,,,,,,,,,,,,,,
,do_pick_best_pirate,509,1020196,0.0-259.0-0.0,636.3,,,,50,,,,,,,,,,,,,,,
,do_pick_best_pirate,510,1022578,0.0-260.0-0.0,1374,,,,50,,,,,,,,,,,,,,,
,do_pick_best_pirate,511,1024253,0.0-261.0-0.0,669.6,,,,50,,,,,,,,,,,,,,,
,do_pick_best_pirate,512,1025989,0.0-262.0-0.0,730.5,,,,50,,,,,,,,,,,,,,,
,do_pick_best_pirate,513,1027673,0.0-263.0-0.0,675.3,,,,50,,,,,,,,,,,,,,,
,do_pick_best_pirate,514,1029274,0.0-264.0-0.0,593.2,,,,50,,,,,,,,,,,,,,,
,html-keyboard-response,515,1033746,0.0-265.0-0.0,4470,<p>You are all done with the experiment!</p><p> You made $15 plus $3 in bonus payment!</p><p>Thank you for participating. You will recieve your payment within 3 days.<p><b>[Press the space bar to end the experiment]</b></p></div>,,32,,,,,,,,,,,,,,,,