"success","trial_type","trial_index","time_elapsed","internal_node_id","interactions","blur_events","focus_events","fullscreenenter_events","fullscreenexit_events","rt","stimulus","key_press","subject_id","participant_id","age","gender","prompt","response","choice_outcomes","context_n","context_img_id","trial_n","probe_img_id","pR_red","pR_white","pR_black","outcome","is_valid","image_to_show","probed_trial","probed_context","correct","probe","probed_trial_n","probed_context_n","context_im"
"true","fullscreen","0","4861","0.0-0.0","""event"",""trial"",""time""
""fullscreenenter"",""0"",""3869""
","
","
","""event"",""trial"",""time""
""fullscreenenter"",""0"",""3869""
","
","","","","","","","","","","","","","","","","","","","","","","","","","","",""
"","pavlovia","1","4866","0.0-1.0","""event"",""trial"",""time""
""fullscreenenter"",""0"",""3869""
","
","
","""event"",""trial"",""time""
""fullscreenenter"",""0"",""3869""
","
","","","","","","","","","","","","","","","","","","","","","","","","","","",""
"","welc_back","2","14661","0.0-2.0","""event"",""trial"",""time""
""fullscreenenter"",""0"",""3869""
","
","
","""event"",""trial"",""time""
""fullscreenenter"",""0"",""3869""
","
","null","run_exp/static/audio/clip_29_welcome_back.m4a","null","528","875","25","Male","<div class='center'><p>Welcome to day 2!</p><p> Yesterday, you were the head captain of a pirate ship. You asked your fellow pirates to rob other ships of their gold across six different islands.</p></div>","","","","","","","","","","","","","","","","","","",""
"","html-keyboard-response","3","16015","0.0-3.0","""event"",""trial"",""time""
""fullscreenenter"",""0"",""3869""
","
","
","""event"",""trial"",""time""
""fullscreenenter"",""0"",""3869""
","
","1352.7999999970198","<div class='center'><p>Welcome to day 2!</p><p> Yesterday, you were the head captain of a pirate ship. You asked your fellow pirates to rob other ships of their gold across six different islands.</p><p><b>[Press the space bar to continue]</b></p></div>","32","","","","","","","","","","","","","","","","","","","","","","","",""
"","day_1_summary_goal","4","33213","0.0-4.0","""event"",""trial"",""time""
""fullscreenenter"",""0"",""3869""
","
","
","""event"",""trial"",""time""
""fullscreenenter"",""0"",""3869""
","
","null","run_exp/static/audio/clip_30_goal_of_game.m4a","null","","","","","<div class='center'><p>Today, like yesterday, you get to pick which pirate you want to rob the next ship.</p><p>If the pirate is successful in robbing a ship, you get gold coins that look like this: </p><p><img src='run_exp/static/images/tutorial/reward.png' height='150'></p><p> If they were not successful in robbing the ship, then you will get no gold coins and you'll see a big red x like this: </p><p><img src='run_exp/static/images/tutorial/reward_no.png' height='150'></p></div>","","","","","","","","","","","","","","","","","","",""
"","html-keyboard-response","5","33907","0.0-5.0","""event"",""trial"",""time""
""fullscreenenter"",""0"",""3869""
","
","
","""event"",""trial"",""time""
""fullscreenenter"",""0"",""3869""
","
","693.6000000089407","<div class='center'><p>Today, like yesterday, you get to pick which pirate you want to rob the next ship.</p><p>If the pirate is successful in robbing a ship, you get gold coins that look like this: </p><p><img src='run_exp/static/images/tutorial/reward.png' height='150'></p><p> If they were not successful in robbing the ship, then you will get no gold coins and you'll see a big red x like this: </p><p><img src='run_exp/static/images/tutorial/reward_no.png' height='150'></p><p><b>[Press the space bar to continue]</b></p></div>","32","","","","","","","","","","","","","","","","","","","","","","","",""
"","day_1_summary_pick","6","48608","0.0-6.0","""event"",""trial"",""time""
""fullscreenenter"",""0"",""3869""
","
","
","""event"",""trial"",""time""
""fullscreenenter"",""0"",""3869""
","
","null","run_exp/static/audio/clip_31_how_to_pick_a_pirate.m4a","null","","","","","<div class='center'><p>Also, just like yesterday, you will use the 1,2,3 keys on your keyboard to pick a pirate. Press '1' to choose red beard, '2' to choose white beard, and '3' to choose black beard . You only have 3 seconds to pick a pirate, so please make a choice quickly!</p></div>","","","","","","","","","","","","","","","","","","",""
"","html-keyboard-response","7","50456","0.0-7.0","""event"",""trial"",""time""
""fullscreenenter"",""0"",""3869""
","
","
","""event"",""trial"",""time""
""fullscreenenter"",""0"",""3869""
","
","1847.3999999910593","<div class='center'><p>Also, just like yesterday, you will use the 1,2,3 keys on your keyboard to pick a pirate. Press '1' to choose red beard, '2' to choose white beard, and '3' to choose black beard . You only have 3 seconds to pick a pirate, so please make a choice quickly!</p><p><b>[Press the space bar to continue]</b></p></div>","32","","","","","","","","","","","","","","","","","","","","","","","",""
"","test_phase_begin","8","80837","0.0-8.0","""event"",""trial"",""time""
""fullscreenenter"",""0"",""3869""
","
","
","""event"",""trial"",""time""
""fullscreenenter"",""0"",""3869""
","
","null","run_exp/static/audio/clip_32_final_place.m4a","null","","","","","<div class='center'><p>You’ve arrived at the final island of your journey! Unfortunately, it’s very foggy out, so you won’t be able to see it in the distance like the other islands you've visited.</p><p>You’ll still be deciding which pirate you want to rob a ship like before. However, because of the fog, you also won’t be able to see the ship.</p><p>This means you do not have to remember the ships you rob on this island.</p><p>Unlike yesterday, you won't be visiting multiple islands today. You will stay on this island for the entire game. This game will last ~30 minutes.</p></div>","","","","","","","","","","","","","","","","","","",""
"","html-keyboard-response","9","81499","0.0-9.0","""event"",""trial"",""time""
""fullscreenenter"",""0"",""3869""
","
","
","""event"",""trial"",""time""
""fullscreenenter"",""0"",""3869""
","
","661.2000000029802","<div class='center'><p>You’ve arrived at the final island of your journey! Unfortunately, it’s very foggy out, so you won’t be able to see it in the distance like the other islands you've visited.</p><p>You’ll still be deciding which pirate you want to rob a ship like before. However, because of the fog, you also won’t be able to see the ship.</p><p>This means you do not have to remember the ships you rob on this island.</p><p>Unlike yesterday, you won't be visiting multiple islands today. You will stay on this island for the entire game. This game will last ~30 minutes.</p><p><b>[Press the space bar to continue]</b></p></div>","32","","","","","","","","","","","","","","","","","","","","","","","",""
"","explain_probe_1","10","89196","0.0-10.0","""event"",""trial"",""time""
""fullscreenenter"",""0"",""3869""
","
","
","""event"",""trial"",""time""
""fullscreenenter"",""0"",""3869""
","
","null","run_exp/static/audio/clip_33_recognition_1.m4a","null","","","","","<div class='center'><p> Sometimes you’ll be shown a ship, and you will be asked if you saw this ship on a past island.</p><p> Here is an example of what you will see.</p><p><img src='run_exp/static/images/tutorial/example_recog_trial.png' height='500'></p></div>","","","","","","","","","","","","","","","","","","",""
"","html-keyboard-response","11","95203","0.0-11.0","""event"",""trial"",""time""
""fullscreenenter"",""0"",""3869""
","
","
","""event"",""trial"",""time""
""fullscreenenter"",""0"",""3869""
","
","6006.100000008941","<div class='center'><p> Sometimes you’ll be shown a ship, and you will be asked if you saw this ship on a past island.</p><p> Here is an example of what you will see.</p><p><img src='run_exp/static/images/tutorial/example_recog_trial.png' height='500'></p><p><b>[Press the space bar to continue]</b></p></div>","32","","","","","","","","","","","","","","","","","","","","","","","",""
"","explain_probe_2","12","116921","0.0-12.0","""event"",""trial"",""time""
""fullscreenenter"",""0"",""3869""
","
","
","""event"",""trial"",""time""
""fullscreenenter"",""0"",""3869""
","
","null","run_exp/static/audio/clip_34_recognition_2.m4a","null","","","","","<div class='center'><p> You will press the 5, 6, 7, 8 keys on your keyboard to respond.</p><p>If you are sure you saw the ship, press <b>5</b> on your keyboard.</p><p> If you think you saw it before but aren't sure, then press <b>6</b>.</p><p> If you think you have <b>not</b> seen it before but aren't sure, then press <b>7</b>.</p><p> If you are sure you did <b>not</b> see the ship before, then press <b>8</b>.</p><p><img src='run_exp/static/images/tutorial/example_recog_trial.png' height='500'></p></div>","","","","","","","","","","","","","","","","","","",""
"","html-keyboard-response","13","117431","0.0-13.0","""event"",""trial"",""time""
""fullscreenenter"",""0"",""3869""
","
","
","""event"",""trial"",""time""
""fullscreenenter"",""0"",""3869""
","
","509","<div class='center'><p> You will press the 5, 6, 7, 8 keys on your keyboard to respond.</p><p>If you are sure you saw the ship, press <b>5</b> on your keyboard.</p><p> If you think you saw it before but aren't sure, then press <b>6</b>.</p><p> If you think you have <b>not</b> seen it before but aren't sure, then press <b>7</b>.</p><p> If you are sure you did <b>not</b> see the ship before, then press <b>8</b>.</p><p><img src='run_exp/static/images/tutorial/example_recog_trial.png' height='500'></p><p><b>[Press the space bar to continue]</b></p></div>","32","","","","","","","","","","","","","","","","","","","","","","","",""
"","explain_outcome","14","134638","0.0-14.0","""event"",""trial"",""time""
""fullscreenenter"",""0"",""3869""
","
","
","""event"",""trial"",""time""
""fullscreenenter"",""0"",""3869""
","
","null","run_exp/static/audio/clip_35_recognition_3.m4a","null","","","","","<div class='center'><p> If you remember correctly, then you’ll get a gold coin like this: </p><p><img src='run_exp/static/images/tutorial/reward_small.png' height='200'></p><p>If you do not remember correctly, then you'll see a red x like this: </p><p><img src='run_exp/static/images/tutorial/reward_no.png' height='200'></p><p>Importantly, when you are shown a ship, take the time to remind yourself which island you saw it on. This will help you in the next part of the study.</p></div>","","","","","","","","","","","","","","","","","","",""
"","html-keyboard-response","15","134925","0.0-15.0","""event"",""trial"",""time""
""fullscreenenter"",""0"",""3869""
","
","
","""event"",""trial"",""time""
""fullscreenenter"",""0"",""3869""
","
","285.5","<div class='center'><p> If you remember correctly, then you’ll get a gold coin like this: </p><p><img src='run_exp/static/images/tutorial/reward_small.png' height='200'></p><p>If you do not remember correctly, then you'll see a red x like this: </p><p><img src='run_exp/static/images/tutorial/reward_no.png' height='200'></p><p>Importantly, when you are shown a ship, take the time to remind yourself which island you saw it on. This will help you in the next part of the study.</p><p><b>[Press the space bar to continue]</b></p></div>","32","","","","","","","","","","","","","","","","","","","","","","","",""
"","begin_test_phase","16","150729","0.0-16.0","""event"",""trial"",""time""
""fullscreenenter"",""0"",""3869""
","
","
","""event"",""trial"",""time""
""fullscreenenter"",""0"",""3869""
","
","null","run_exp/static/audio/clip_36_begin_final.m4a","null","","","","","<div class='center'><p>Let's go over the important points again. Your job is to: </p><p>1. Pick the pirate who is best at robbing ships and will bring you back gold coins. </p><p>2. Correctly remember whether or not you saw a ship before. If you did see the ship before, remind yourself on which island you saw it. </p></div>","","","","","","","","","","","","","","","","","","",""
"","html-keyboard-response","17","151810","0.0-17.0","""event"",""trial"",""time""
""fullscreenenter"",""0"",""3869""
","
","
","""event"",""trial"",""time""
""fullscreenenter"",""0"",""3869""
","
","1027.7999999970198","<div class='center'><p>Let's go over the important points again. Your job is to: </p><p>1. Pick the pirate who is best at robbing ships and will bring you back gold coins. </p><p>2. Correctly remember whether or not you saw a ship before. If you did see the ship before, remind yourself on which island you saw it. </p><p><b>[Press the space bar to continue]</b></p></div>","32","","","","","","","","","","","","","","","","","","","","","","","",""
"","do_welcome","18","155818","0.0-18.0","""event"",""trial"",""time""
""fullscreenenter"",""0"",""3869""
","
","
","""event"",""trial"",""time""
""fullscreenenter"",""0"",""3869""
","
","null","","","","","","","","null","","","","","","","","","","","","","","","","","",""
"","do_trial","19","160446","0.0-19.0-0.0","""event"",""trial"",""time""
""fullscreenenter"",""0"",""3869""
","
","
","""event"",""trial"",""time""
""fullscreenenter"",""0"",""3869""
","
","2087.0999999940395","","","","","","","","51","0,0,0","6","blank","230","null","0.2726820051087743","0.46322732802435773","0.45762738671257597","0","","","","","","","","",""
"","html-keyboard-response","20","161452","0.0-19.0-1.0","""event"",""trial"",""time""
""fullscreenenter"",""0"",""3869""
","
","
","""event"",""trial"",""time""
""fullscreenenter"",""0"",""3869""
","
","null","<p></p>","null","","","","","","","","","","","","","","","","","","","","","","","",""
"","do_trial","21","164328","0.0-20.0-0.0","""event"",""trial"",""time""
""fullscreenenter"",""0"",""3869""
","
","
","""event"",""trial"",""time""
""fullscreenenter"",""0"",""3869""
","
","330.90000000596046","","","","","","","","51","0,0,0","6","blank","231","null","0.17745595190643026","0.33789356122278874","0.46533378409608345","0","","","","","","","","",""
"","html-keyboard-response","22","165331","0.0-20.0-1.0","""event"",""trial"",""time""
""fullscreenenter"",""0"",""3869""
","
","
","""event"",""trial"",""time""
""fullscreenenter"",""0"",""3869""
","
","null","<p></p>","null","","","","","","","","","","","","","","","","","","","","","","","",""
"","do_trial","23","168179","0.0-21.0-0.0","""event"",""trial"",""time""
""fullscreenenter"",""0"",""3869""
","
","
","""event"",""trial"",""time""
""fullscreenenter"",""0"",""3869""
","
","304.59999999403954","","","","","","","","50","0,0,0","6","blank","232","null","0.17429254784723808","0.31875742679209373","0.5217149995734022","0","","","","","","","","",""
"","html-keyboard-response","24","169183","0.0-21.0-1.0","""event"",""trial"",""time""
""fullscreenenter"",""0"",""3869""
","
","
","""event"",""trial"",""time""
""fullscreenenter"",""0"",""3869""
","
","null","<p></p>","null","","","","","","","","","","","","","","","","","","","","","","","",""
"","do_trial","25","172033","0.0-22.0-0.0","""event"",""trial"",""time""
""fullscreenenter"",""0"",""3869""
","
","
","""event"",""trial"",""time""
""fullscreenenter"",""0"",""3869""
","
","312.09999999403954","","","","","","","","50","0,0,0","6","blank","233","null","0.2100140962713124","0.38929528646179096","0.5545961889974913","0","","","","","","","","",""
"","html-keyboard-response","26","173035","0.0-22.0-1.0","""event"",""trial"",""time""
""fullscreenenter"",""0"",""3869""
","
","
","""event"",""trial"",""time""
""fullscreenenter"",""0"",""3869""
","
","null","<p></p>","null","","","","","","","","","","","","","","","","","","","","","","","",""
"","do_trial","27","175955","0.0-23.0-0.0","""event"",""trial"",""time""
""fullscreenenter"",""0"",""3869""
","
","
","""event"",""trial"",""time""
""fullscreenenter"",""0"",""3869""
","
","379.5","","","","","","","","49","0,0,0","6","blank","234","null","0.12424174855881376","0.25056009118834377","0.45199938659727523","0","","","","","","","","",""
"","html-keyboard-response","28","176959","0.0-23.0-1.0","""event"",""trial"",""time""
""fullscreenenter"",""0"",""3869""
","
","
","""event"",""trial"",""time""
""fullscreenenter"",""0"",""3869""
","
","null","<p></p>","null","","","","","","","","","","","","","","","","","","","","","","","",""
"","do_trial","29","179808","0.0-24.0-0.0","""event"",""trial"",""time""
""fullscreenenter"",""0"",""3869""
","
","
","""event"",""trial"",""time""
""fullscreenenter"",""0"",""3869""
","
","301.59999999403954","","","","","","","","49","0,0,0","6","blank","235","null","0.08130639327268799","0.2574100497642168","0.6487587214226558","0","","","","","","","","",""
"","html-keyboard-response","30","180812","0.0-24.0-1.0","""event"",""trial"",""time""
""fullscreenenter"",""0"",""3869""
","
","
","""event"",""trial"",""time""
""fullscreenenter"",""0"",""3869""
","
","null","<p></p>","null","","","","","","","","","","","","","","","","","","","","","","","",""
"","do_trial","31","184278","0.0-25.0-0.0","""event"",""trial"",""time""
""fullscreenenter"",""0"",""3869""
","
","
","""event"",""trial"",""time""
""fullscreenenter"",""0"",""3869""
","
","927.2000000029802","","","","","","","","51","0,0,0","6","blank","236","null","0.25601797911270924","0.12437567363095557","0.6543615794656019","0","","","","","","","","",""
"","html-keyboard-response","32","185281","0.0-25.0-1.0","""event"",""trial"",""time""
""fullscreenenter"",""0"",""3869""
","
","
","""event"",""trial"",""time""
""fullscreenenter"",""0"",""3869""
","
","null","<p></p>","null","","","","","","","","","","","","","","","","","","","","","","","",""
"","do_trial","33","187877","0.0-26.0-0.0","""event"",""trial"",""time""
""fullscreenenter"",""0"",""3869""
","
","
","""event"",""trial"",""time""
""fullscreenenter"",""0"",""3869""
","
","46.5","","","","","","","","51","0,1,1","6","blank","237","null","0.2510798315914957","0.18322366909946725","0.5183506291075252","1","","","","","","","","",""
"","html-keyboard-response","34","188880","0.0-26.0-1.0","""event"",""trial"",""time""
""fullscreenenter"",""0"",""3869""
","
","
","""event"",""trial"",""time""
""fullscreenenter"",""0"",""3869""
","
","null","<p></p>","null","","","","","","","","","","","","","","","","","","","","","","","",""
"","do_trial","35","191729","0.0-27.0-0.0","""event"",""trial"",""time""
""fullscreenenter"",""0"",""3869""
","
","
","""event"",""trial"",""time""
""fullscreenenter"",""0"",""3869""
","
","299.90000000596046","","","","","","","","50","0,1,0","6","blank","238","null","0.3649854394671304","0.19737233477313393","0.5582722117887889","1","","","","","","","","",""
"","html-keyboard-response","36","192733","0.0-27.0-1.0","""event"",""trial"",""time""
""fullscreenenter"",""0"",""3869""
","
","
","""event"",""trial"",""time""
""fullscreenenter"",""0"",""3869""
","
","null","<p></p>","null","","","","","","","","","","","","","","","","","","","","","","","",""
"","do_trial","37","195598","0.0-28.0-0.0","""event"",""trial"",""time""
""fullscreenenter"",""0"",""3869""
","
","
","""event"",""trial"",""time""
""fullscreenenter"",""0"",""3869""
","
","323.79999999701977","","","","","","","","50","0,0,0","6","blank","239","null","0.294710108095566","0.20707323042713835","0.4167085887209595","0","","","","","","","","",""
"","html-keyboard-response","38","196601","0.0-28.0-1.0","""event"",""trial"",""time""
""fullscreenenter"",""0"",""3869""
","
","
","""event"",""trial"",""time""
""fullscreenenter"",""0"",""3869""
","
","null","<p></p>","null","","","","","","","","","","","","","","","","","","","","","","","",""
"","do_trial","39","199421","0.0-29.0-0.0","""event"",""trial"",""time""
""fullscreenenter"",""0"",""3869""
","
","
","""event"",""trial"",""time""
""fullscreenenter"",""0"",""3869""
","
","277.3999999910593","","","","","","","","49","0,0,1","6","blank","240","null","0.3310024222766652","0.06970062994788752","0.32126899885937527","0","","","","","","","","",""
"","html-keyboard-response","40","200424","0.0-29.0-1.0","""event"",""trial"",""time""
""fullscreenenter"",""0"",""3869""
","
","
","""event"",""trial"",""time""
""fullscreenenter"",""0"",""3869""
","
","null","<p></p>","null","","","","","","","","","","","","","","","","","","","","","","","",""
"","do_recog","41","206438","0.0-30.0-0.0","""event"",""trial"",""time""
""fullscreenenter"",""0"",""3869""
","
","
","""event"",""trial"",""time""
""fullscreenenter"",""0"",""3869""
","
","null","","","","","","","","null","","","","241","probe-169","","","","","1","[object Object]","193","4","0","","","",""
"","html-keyboard-response","42","207442","0.0-30.0-1.0","""event"",""trial"",""time""
""fullscreenenter"",""0"",""3869""
","
","
","""event"",""trial"",""time""
""fullscreenenter"",""0"",""3869""
","
","null","<p></p>","null","","","","","","","","","","","","","","","","","","","","","","","",""
"","do_trial","43","211393","0.0-31.0-0.0","""event"",""trial"",""time""
""fullscreenenter"",""0"",""3869""
","
","
","""event"",""trial"",""time""
""fullscreenenter"",""0"",""3869""
","
","1406.3999999910593","","","","","","","","51","0,0,0","6","blank","242","null","0.2687318143186629","0.05971377076698886","0.3088980895258688","0","","","","","","","","",""
"","html-keyboard-response","44","212397","0.0-31.0-1.0","""event"",""trial"",""time""
""fullscreenenter"",""0"",""3869""
","
","
","""event"",""trial"",""time""
""fullscreenenter"",""0"",""3869""
","
","null","<p></p>","null","","","","","","","","","","","","","","","","","","","","","","","",""
"","do_trial","45","215511","0.0-32.0-0.0","""event"",""trial"",""time""
""fullscreenenter"",""0"",""3869""
","
","
","""event"",""trial"",""time""
""fullscreenenter"",""0"",""3869""
","
","572.7999999970198","","","","","","","","51","0,0,1","6","blank","243","null","0.2675954764969916","0.14772162131214406","0.20981386475165203","1","","","","","","","","",""
"","html-keyboard-response","46","216514","0.0-32.0-1.0","""event"",""trial"",""time""
""fullscreenenter"",""0"",""3869""
","
","
","""event"",""trial"",""time""
""fullscreenenter"",""0"",""3869""
","
","null","<p></p>","null","","","","","","","","","","","","","","","","","","","","","","","",""
"","do_recog","47","219878","0.0-33.0-0.0","""event"",""trial"",""time""
""fullscreenenter"",""0"",""3869""
","
","
","""event"",""trial"",""time""
""fullscreenenter"",""0"",""3869""
","
","1858.4000000059605","","","","","","","","55","","","","244","probe-06","","","","","1","[object Object]","190","4","0","","","",""
"","html-keyboard-response","48","220881","0.0-33.0-1.0","""event"",""trial"",""time""
""fullscreenenter"",""0"",""3869""
","
","
","""event"",""trial"",""time""
""fullscreenenter"",""0"",""3869""
","
","null","<p></p>","null","","","","","","","","","","","","","","","","","","","","","","","",""
"","do_trial","49","224429","0.0-34.0-0.0","""event"",""trial"",""time""
""fullscreenenter"",""0"",""3869""
","
","
","""event"",""trial"",""time""
""fullscreenenter"",""0"",""3869""
","
","1005.7999999970198","","","","","","","","51","0,1,0","6","blank","245","null","0.2892974868051808","0.12580449139350766","0.33956693806338095","0","","","","","","","","",""
"","html-keyboard-response","50","225433","0.0-34.0-1.0","""event"",""trial"",""time""
""fullscreenenter"",""0"",""3869""
","
","
","""event"",""trial"",""time""
""fullscreenenter"",""0"",""3869""
","
","null","<p></p>","null","","","","","","","","","","","","","","","","","","","","","","","",""
"","do_recog","51","229167","0.0-35.0-0.0","""event"",""trial"",""time""
""fullscreenenter"",""0"",""3869""
","
","
","""event"",""trial"",""time""
""fullscreenenter"",""0"",""3869""
","
","2227","","","","","","","","56","","","","246","probe-100","","","","","1","[object Object]","37","0","0","","","",""
"","html-keyboard-response","52","230169","0.0-35.0-1.0","""event"",""trial"",""time""
""fullscreenenter"",""0"",""3869""
","
","
","""event"",""trial"",""time""
""fullscreenenter"",""0"",""3869""
","
","null","<p></p>","null","","","","","","","","","","","","","","","","","","","","","","","",""
"","do_trial","53","233858","0.0-36.0-0.0","""event"",""trial"",""time""
""fullscreenenter"",""0"",""3869""
","
","
","""event"",""trial"",""time""
""fullscreenenter"",""0"",""3869""
","
","1145.8999999910593","","","","","","","","50","0,0,0","6","blank","247","null","0.490914435706828","0.08363244697015841","0.37104314970798763","0","","","","","","","","",""
"","html-keyboard-response","54","234860","0.0-36.0-1.0","""event"",""trial"",""time""
""fullscreenenter"",""0"",""3869""
","
","
","""event"",""trial"",""time""
""fullscreenenter"",""0"",""3869""
","
","null","<p></p>","null","","","","","","","","","","","","","","","","","","","","","","","",""
"","do_trial","55","237923","0.0-37.0-0.0","""event"",""trial"",""time""
""fullscreenenter"",""0"",""3869""
","
","
","""event"",""trial"",""time""
""fullscreenenter"",""0"",""3869""
","
","505.59999999403954","","","","","","","","50","1,1,1","6","blank","248","null","0.5636252064672326","0.19077246325829691","0.3442004889671887","1","","","","","","","","",""
"","html-keyboard-response","56","238926","0.0-37.0-1.0","""event"",""trial"",""time""
""fullscreenenter"",""0"",""3869""
","
","
","""event"",""trial"",""time""
""fullscreenenter"",""0"",""3869""
","
","null","<p></p>","null","","","","","","","","","","","","","","","","","","","","","","","",""
"","do_trial","57","241848","0.0-38.0-0.0","""event"",""trial"",""time""
""fullscreenenter"",""0"",""3869""
","
","
","""event"",""trial"",""time""
""fullscreenenter"",""0"",""3869""
","
","378.59999999403954","","","","","","","","50","0,0,1","6","blank","249","null","0.5097883107144731","0.10704166061918152","0.406210087810749","0","","","","","","","","",""
"","html-keyboard-response","58","242852","0.0-38.0-1.0","""event"",""trial"",""time""
""fullscreenenter"",""0"",""3869""
","
","
","""event"",""trial"",""time""
""fullscreenenter"",""0"",""3869""
","
","null","<p></p>","null","","","","","","","","","","","","","","","","","","","","","","","",""
"","do_recog","59","245976","0.0-39.0-0.0","""event"",""trial"",""time""
""fullscreenenter"",""0"",""3869""
","
","
","""event"",""trial"",""time""
""fullscreenenter"",""0"",""3869""
","
","1615.7999999970198","","","","","","","","55","","","","250","probe-129","","","","","1","[object Object]","197","4","0","","","",""
"","html-keyboard-response","60","246979","0.0-39.0-1.0","""event"",""trial"",""time""
""fullscreenenter"",""0"",""3869""
","
","
","""event"",""trial"",""time""
""fullscreenenter"",""0"",""3869""
","
","null","<p></p>","null","","","","","","","","","","","","","","","","","","","","","","","",""
"","do_trial","61","250339","0.0-40.0-0.0","""event"",""trial"",""time""
""fullscreenenter"",""0"",""3869""
","
","
","""event"",""trial"",""time""
""fullscreenenter"",""0"",""3869""
","
","811","","","","","","","","50","1,1,1","6","blank","251","null","0.6149409828908461","0.15810638265121812","0.442251166231185","1","","","","","","","","",""
"","html-keyboard-response","62","251343","0.0-40.0-1.0","""event"",""trial"",""time""
""fullscreenenter"",""0"",""3869""
","
","
","""event"",""trial"",""time""
""fullscreenenter"",""0"",""3869""
","
","null","<p></p>","null","","","","","","","","","","","","","","","","","","","","","","","",""
"","do_recog","63","254788","0.0-41.0-0.0","""event"",""trial"",""time""
""fullscreenenter"",""0"",""3869""
","
","
","""event"",""trial"",""time""
""fullscreenenter"",""0"",""3869""
","
","1936","","","","","","","","54","","","","252","probe-96","","","","","1","[object Object]","39","0","1","","","",""
"","html-keyboard-response","64","255791","0.0-41.0-1.0","""event"",""trial"",""time""
""fullscreenenter"",""0"",""3869""
","
","
","""event"",""trial"",""time""
""fullscreenenter"",""0"",""3869""
","
","null","<p></p>","null","","","","","","","","","","","","","","","","","","","","","","","",""
"","do_trial","65","259378","0.0-42.0-0.0","""event"",""trial"",""time""
""fullscreenenter"",""0"",""3869""
","
","
","""event"",""trial"",""time""
""fullscreenenter"",""0"",""3869""
","
","1041.7000000029802","","","","","","","","50","1,0,1","6","blank","253","null","0.7086403047099122","0.08821188427737096","0.40147517118608833","0","","","","","","","","",""
"","html-keyboard-response","66","260381","0.0-42.0-1.0","""event"",""trial"",""time""
""fullscreenenter"",""0"",""3869""
","
","
","""event"",""trial"",""time""
""fullscreenenter"",""0"",""3869""
","
","null","<p></p>","null","","","","","","","","","","","","","","","","","","","","","","","",""
"","do_trial","67","263307","0.0-43.0-0.0","""event"",""trial"",""time""
""fullscreenenter"",""0"",""3869""
","
","
","""event"",""trial"",""time""
""fullscreenenter"",""0"",""3869""
","
","383.09999999403954","","","","","","","","51","0,0,0","6","blank","254","null","0.681455796677981","0.0639304595657558","0.3611829102694475","0","","","","","","","","",""
"","html-keyboard-response","68","264310","0.0-43.0-1.0","""event"",""trial"",""time""
""fullscreenenter"",""0"",""3869""
","
","
","""event"",""trial"",""time""
""fullscreenenter"",""0"",""3869""
","
","null","<p></p>","null","","","","","","","","","","","","","","","","","","","","","","","",""
"","do_trial","69","267303","0.0-44.0-0.0","""event"",""trial"",""time""
""fullscreenenter"",""0"",""3869""
","
","
","""event"",""trial"",""time""
""fullscreenenter"",""0"",""3869""
","
","449.30000001192093","","","","","","","","51","1,0,1","6","blank","255","null","0.7133725452541313","0.13348809446432358","0.40995108871349906","1","","","","","","","","",""
"","html-keyboard-response","70","268306","0.0-44.0-1.0","""event"",""trial"",""time""
""fullscreenenter"",""0"",""3869""
","
","
","""event"",""trial"",""time""
""fullscreenenter"",""0"",""3869""
","
","null","<p></p>","null","","","","","","","","","","","","","","","","","","","","","","","",""
"","do_trial","71","271374","0.0-45.0-0.0","""event"",""trial"",""time""
""fullscreenenter"",""0"",""3869""
","
","
","""event"",""trial"",""time""
""fullscreenenter"",""0"",""3869""
","
","528.9000000059605","","","","","","","","51","1,0,1","6","blank","256","null","0.6706728585463705","0.09949641506237664","0.34841204403022136","1","","","","","","","","",""
"","html-keyboard-response","72","272378","0.0-45.0-1.0","""event"",""trial"",""time""
""fullscreenenter"",""0"",""3869""
","
","
","""event"",""trial"",""time""
""fullscreenenter"",""0"",""3869""
","
","null","<p></p>","null","","","","","","","","","","","","","","","","","","","","","","","",""
"","do_trial","73","275426","0.0-46.0-0.0","""event"",""trial"",""time""
""fullscreenenter"",""0"",""3869""
","
","
","""event"",""trial"",""time""
""fullscreenenter"",""0"",""3869""
","
","496.5","","","","","","","","51","0,0,0","6","blank","257","null","0.6706049577690254","0.05045491957345078","0.2627889940406328","0","","","","","","","","",""
"","html-keyboard-response","74","276429","0.0-46.0-1.0","""event"",""trial"",""time""
""fullscreenenter"",""0"",""3869""
","
","
","""event"",""trial"",""time""
""fullscreenenter"",""0"",""3869""
","
","null","<p></p>","null","","","","","","","","","","","","","","","","","","","","","","","",""
"","do_trial","75","279482","0.0-47.0-0.0","""event"",""trial"",""time""
""fullscreenenter"",""0"",""3869""
","
","
","""event"",""trial"",""time""
""fullscreenenter"",""0"",""3869""
","
","513","","","","","","","","51","0,1,0","6","blank","258","null","0.6695902179333227","0.056239202771470306","0.20842956529135606","0","","","","","","","","",""
"","html-keyboard-response","76","280485","0.0-47.0-1.0","""event"",""trial"",""time""
""fullscreenenter"",""0"",""3869""
","
","
","""event"",""trial"",""time""
""fullscreenenter"",""0"",""3869""
","
","null","<p></p>","null","","","","","","","","","","","","","","","","","","","","","","","",""
"","do_recog","77","283478","0.0-48.0-0.0","""event"",""trial"",""time""
""fullscreenenter"",""0"",""3869""
","
","
","""event"",""trial"",""time""
""fullscreenenter"",""0"",""3869""
","
","1484.5999999940395","","","","","","","","55","","","","259","probe-65","","","","","1","[object Object]","71","1","0","","","",""
"","html-keyboard-response","78","284481","0.0-48.0-1.0","""event"",""trial"",""time""
""fullscreenenter"",""0"",""3869""
","
","
","""event"",""trial"",""time""
""fullscreenenter"",""0"",""3869""
","
","null","<p></p>","null","","","","","","","","","","","","","","","","","","","","","","","",""
"","do_trial","79","288023","0.0-49.0-0.0","""event"",""trial"",""time""
""fullscreenenter"",""0"",""3869""
","
","
","""event"",""trial"",""time""
""fullscreenenter"",""0"",""3869""
","
","1001.2000000029802","","","","","","","","50","1,0,0","6","blank","260","null","0.5938691847555783","0.19258290906196607","0.22243761212428242","0","","","","","","","","",""
"","html-keyboard-response","80","289027","0.0-49.0-1.0","""event"",""trial"",""time""
""fullscreenenter"",""0"",""3869""
","
","
","""event"",""trial"",""time""
""fullscreenenter"",""0"",""3869""
","
","null","<p></p>","null","","","","","","","","","","","","","","","","","","","","","","","",""
"","do_trial","81","291982","0.0-50.0-0.0","""event"",""trial"",""time""
""fullscreenenter"",""0"",""3869""
","
","
","""event"",""trial"",""time""
""fullscreenenter"",""0"",""3869""
","
","414.20000000298023","","","","","","","","50","1,1,0","6","blank","261","null","0.7099779515833811","0.3108794053110162","0.22675090180708743","1","","","","","","","","",""
"","html-keyboard-response","82","292987","0.0-50.0-1.0","""event"",""trial"",""time""
""fullscreenenter"",""0"",""3869""
","
","
","""event"",""trial"",""time""
""fullscreenenter"",""0"",""3869""
","
","null","<p></p>","null","","","","","","","","","","","","","","","","","","","","","","","",""
"","do_trial","83","295967","0.0-51.0-0.0","""event"",""trial"",""time""
""fullscreenenter"",""0"",""3869""
","
","
","""event"",""trial"",""time""
""fullscreenenter"",""0"",""3869""
","
","438.8999999910593","","","","","","","","50","1,1,0","6","blank","262","null","0.9309757185694858","0.22456321346216876","0.28008228646834005","1","","","","","","","","",""
"","html-keyboard-response","84","296971","0.0-51.0-1.0","""event"",""trial"",""time""
""fullscreenenter"",""0"",""3869""
","
","
","""event"",""trial"",""time""
""fullscreenenter"",""0"",""3869""
","
","null","<p></p>","null","","","","","","","","","","","","","","","","","","","","","","","",""
"","do_recog","85","299781","0.0-52.0-0.0","""event"",""trial"",""time""
""fullscreenenter"",""0"",""3869""
","
","
","""event"",""trial"",""time""
""fullscreenenter"",""0"",""3869""
","
","1302.2000000029802","","","","","","","","55","","","","263","probe-80","","","","","1","[object Object]","156","3","0","","","",""
"","html-keyboard-response","86","300783","0.0-52.0-1.0","""event"",""trial"",""time""
""fullscreenenter"",""0"",""3869""
","
","
","""event"",""trial"",""time""
""fullscreenenter"",""0"",""3869""
","
","null","<p></p>","null","","","","","","","","","","","","","","","","","","","","","","","",""
"","do_trial","87","304208","0.0-53.0-0.0","""event"",""trial"",""time""
""fullscreenenter"",""0"",""3869""
","
","
","""event"",""trial"",""time""
""fullscreenenter"",""0"",""3869""
","
","883.9000000059605","","","","","","","","50","1,1,0","6","blank","264","null","0.7851583697223786","0.1742766416320123","0.3147620882356382","1","","","","","","","","",""
"","html-keyboard-response","88","305212","0.0-53.0-1.0","""event"",""trial"",""time""
""fullscreenenter"",""0"",""3869""
","
","
","""event"",""trial"",""time""
""fullscreenenter"",""0"",""3869""
","
","null","<p></p>","null","","","","","","","","","","","","","","","","","","","","","","","",""
"","do_recog","89","307948","0.0-54.0-0.0","""event"",""trial"",""time""
""fullscreenenter"",""0"",""3869""
","
","
","""event"",""trial"",""time""
""fullscreenenter"",""0"",""3869""
","
","1229.7000000029802","","","","","","","","55","","","","265","probe-174","","","","","1","[object Object]","195","4","0","","","",""
"","html-keyboard-response","90","308951","0.0-54.0-1.0","""event"",""trial"",""time""
""fullscreenenter"",""0"",""3869""
","
","
","""event"",""trial"",""time""
""fullscreenenter"",""0"",""3869""
","
","null","<p></p>","null","","","","","","","","","","","","","","","","","","","","","","","",""
"","do_trial","91","312313","0.0-55.0-0.0","""event"",""trial"",""time""
""fullscreenenter"",""0"",""3869""
","
","
","""event"",""trial"",""time""
""fullscreenenter"",""0"",""3869""
","
","821.4000000059605","","","","","","","","50","0,0,0","6","blank","266","null","0.6124383472653671","0.2679893431427953","0.292263119106957","0","","","","","","","","",""
"","html-keyboard-response","92","313317","0.0-55.0-1.0","""event"",""trial"",""time""
""fullscreenenter"",""0"",""3869""
","
","
","""event"",""trial"",""time""
""fullscreenenter"",""0"",""3869""
","
","null","<p></p>","null","","","","","","","","","","","","","","","","","","","","","","","",""
"","do_trial","93","317109","0.0-56.0-0.0","""event"",""trial"",""time""
""fullscreenenter"",""0"",""3869""
","
","
","""event"",""trial"",""time""
""fullscreenenter"",""0"",""3869""
","
","1243.199999988079","","","","","","","","50","0,0,1","6","blank","267","null","0.6091485878116776","0.2997147622271432","0.4502146691991278","0","","","","","","","","",""
"","html-keyboard-response","94","318113","0.0-56.0-1.0","""event"",""trial"",""time""
""fullscreenenter"",""0"",""3869""
","
","
","""event"",""trial"",""time""
""fullscreenenter"",""0"",""3869""
","
","null","<p></p>","null","","","","","","","","","","","","","","","","","","","","","","","",""
"","do_recog","95","321178","0.0-57.0-0.0","""event"",""trial"",""time""
""fullscreenenter"",""0"",""3869""
","
","
","""event"",""trial"",""time""
""fullscreenenter"",""0"",""3869""
","
","1555","","","","","","","","54","","","","268","probe-91","","","","","1","[object Object]","118","2","1","","","",""
"","html-keyboard-response","96","322183","0.0-57.0-1.0","""event"",""trial"",""time""
""fullscreenenter"",""0"",""3869""
","
","
","""event"",""trial"",""time""
""fullscreenenter"",""0"",""3869""
","
","null","<p></p>","null","","","","","","","","","","","","","","","","","","","","","","","",""
"","break","97","324286","0.0-58.0-0.0","""event"",""trial"",""time""
""fullscreenenter"",""0"",""3869""
","
","
","""event"",""trial"",""time""
""fullscreenenter"",""0"",""3869""
","
","2101.5999999940395","<div class='center'><p>Time to take a quick break! You have 2 minutes to rest, but you can move on sooner if you'd like.</p><p> Press the <b>space bar</b> to continue.</p></div>","32","","","","","","","","","","","","","","","","","","","","","","","",""
"","do_trial","98","329074","0.0-58.0-1.0","""event"",""trial"",""time""
""fullscreenenter"",""0"",""3869""
","
","
","""event"",""trial"",""time""
""fullscreenenter"",""0"",""3869""
","
","2245.7000000029802","","","","","","","","51","0,0,0","6","blank","269","null","0.6882427199028437","0.33974345235573106","0.42327036066693274","0","","","","","","","","",""
"","html-keyboard-response","99","330079","0.0-58.0-2.0","""event"",""trial"",""time""
""fullscreenenter"",""0"",""3869""
","
","
","""event"",""trial"",""time""
""fullscreenenter"",""0"",""3869""
","
","null","<p></p>","null","","","","","","","","","","","","","","","","","","","","","","","",""
"","do_recog","100","333088","0.0-59.0-0.0","""event"",""trial"",""time""
""fullscreenenter"",""0"",""3869""
","
","
","""event"",""trial"",""time""
""fullscreenenter"",""0"",""3869""
","
","1500","","","","","","","","55","","","","270","probe-54","","","","","1","[object Object]","70","1","0","","","",""
"","html-keyboard-response","101","334091","0.0-59.0-1.0","""event"",""trial"",""time""
""fullscreenenter"",""0"",""3869""
","
","
","""event"",""trial"",""time""
""fullscreenenter"",""0"",""3869""
","
","null","<p></p>","null","","","","","","","","","","","","","","","","","","","","","","","",""
"","do_trial","102","337214","0.0-60.0-0.0","""event"",""trial"",""time""
""fullscreenenter"",""0"",""3869""
","
","
","""event"",""trial"",""time""
""fullscreenenter"",""0"",""3869""
","
","575.2000000029802","","","","","","","","51","1,0,0","6","blank","271","null","0.6545547428171191","0.3057182824539111","0.30882934034187715","0","","","","","","","","",""
"","html-keyboard-response","103","338216","0.0-60.0-1.0","""event"",""trial"",""time""
""fullscreenenter"",""0"",""3869""
","
","
","""event"",""trial"",""time""
""fullscreenenter"",""0"",""3869""
","
","null","<p></p>","null","","","","","","","","","","","","","","","","","","","","","","","",""
"","do_recog","104","340858","0.0-61.0-0.0","""event"",""trial"",""time""
""fullscreenenter"",""0"",""3869""
","
","
","""event"",""trial"",""time""
""fullscreenenter"",""0"",""3869""
","
","1134.5999999940395","","","","","","","","55","","","","272","probe-244","","","","","0","[object Object]","null","null","1","","","",""
"","html-keyboard-response","105","341861","0.0-61.0-1.0","""event"",""trial"",""time""
""fullscreenenter"",""0"",""3869""
","
","
","""event"",""trial"",""time""
""fullscreenenter"",""0"",""3869""
","
","null","<p></p>","null","","","","","","","","","","","","","","","","","","","","","","","",""
"","do_trial","106","345089","0.0-62.0-0.0","""event"",""trial"",""time""
""fullscreenenter"",""0"",""3869""
","
","
","""event"",""trial"",""time""
""fullscreenenter"",""0"",""3869""
","
","683","","","","","","","","51","0,0,0","6","blank","273","null","0.6704445879694697","0.2640545923328735","0.38234542929727455","0","","","","","","","","",""
"","html-keyboard-response","107","346093","0.0-62.0-1.0","""event"",""trial"",""time""
""fullscreenenter"",""0"",""3869""
","
","
","""event"",""trial"",""time""
""fullscreenenter"",""0"",""3869""
","
","null","<p></p>","null","","","","","","","","","","","","","","","","","","","","","","","",""
"","do_recog","108","348817","0.0-63.0-0.0","""event"",""trial"",""time""
""fullscreenenter"",""0"",""3869""
","
","
","""event"",""trial"",""time""
""fullscreenenter"",""0"",""3869""
","
","1217.7999999970198","","","","","","","","54","","","","274","probe-127","","","","","1","[object Object]","116","2","1","","","",""
"","html-keyboard-response","109","349820","0.0-63.0-1.0","""event"",""trial"",""time""
""fullscreenenter"",""0"",""3869""
","
","
","""event"",""trial"",""time""
""fullscreenenter"",""0"",""3869""
","
","null","<p></p>","null","","","","","","","","","","","","","","","","","","","","","","","",""
"","do_trial","110","353044","0.0-64.0-0.0","""event"",""trial"",""time""
""fullscreenenter"",""0"",""3869""
","
","
","""event"",""trial"",""time""
""fullscreenenter"",""0"",""3869""
","
","673.5999999940395","","","","","","","","49","0,0,1","6","blank","275","null","0.747641206897022","0.12264482095039746","0.29213740827066587","0","","","","","","","","",""
"","html-keyboard-response","111","354047","0.0-64.0-1.0","""event"",""trial"",""time""
""fullscreenenter"",""0"",""3869""
","
","
","""event"",""trial"",""time""
""fullscreenenter"",""0"",""3869""
","
","null","<p></p>","null","","","","","","","","","","","","","","","","","","","","","","","",""
"","do_trial","112","357111","0.0-65.0-0.0","""event"",""trial"",""time""
""fullscreenenter"",""0"",""3869""
","
","
","""event"",""trial"",""time""
""fullscreenenter"",""0"",""3869""
","
","522.5","","","","","","","","49","1,1,0","6","blank","276","null","0.8155620442367756","0.0804561507203424","0.304803765254327","1","","","","","","","","",""
"","html-keyboard-response","113","358114","0.0-65.0-1.0","""event"",""trial"",""time""
""fullscreenenter"",""0"",""3869""
","
","
","""event"",""trial"",""time""
""fullscreenenter"",""0"",""3869""
","
","null","<p></p>","null","","","","","","","","","","","","","","","","","","","","","","","",""
"","do_trial","114","361101","0.0-66.0-0.0","""event"",""trial"",""time""
""fullscreenenter"",""0"",""3869""
","
","
","""event"",""trial"",""time""
""fullscreenenter"",""0"",""3869""
","
","441","","","","","","","","49","0,0,0","6","blank","277","null","0.7296400858026678","0.07224283634642578","0.32081266184212665","0","","","","","","","","",""
"","html-keyboard-response","115","362105","0.0-66.0-1.0","""event"",""trial"",""time""
""fullscreenenter"",""0"",""3869""
","
","
","""event"",""trial"",""time""
""fullscreenenter"",""0"",""3869""
","
","null","<p></p>","null","","","","","","","","","","","","","","","","","","","","","","","",""
"","do_trial","116","365117","0.0-67.0-0.0","""event"",""trial"",""time""
""fullscreenenter"",""0"",""3869""
","
","
","""event"",""trial"",""time""
""fullscreenenter"",""0"",""3869""
","
","460.20000000298023","","","","","","","","49","1,0,0","6","blank","278","null","0.5468998188159996","0.0603765678856489","0.35827854456457503","1","","","","","","","","",""
"","html-keyboard-response","117","366123","0.0-67.0-1.0","""event"",""trial"",""time""
""fullscreenenter"",""0"",""3869""
","
","
","""event"",""trial"",""time""
""fullscreenenter"",""0"",""3869""
","
","null","<p></p>","null","","","","","","","","","","","","","","","","","","","","","","","",""
"","do_recog","118","369152","0.0-68.0-0.0","""event"",""trial"",""time""
""fullscreenenter"",""0"",""3869""
","
","
","""event"",""trial"",""time""
""fullscreenenter"",""0"",""3869""
","
","1522.0999999940395","","","","","","","","54","","","","279","probe-77","","","","","1","[object Object]","35","0","1","","","",""
"","html-keyboard-response","119","370155","0.0-68.0-1.0","""event"",""trial"",""time""
""fullscreenenter"",""0"",""3869""
","
","
","""event"",""trial"",""time""
""fullscreenenter"",""0"",""3869""
","
","null","<p></p>","null","","","","","","","","","","","","","","","","","","","","","","","",""
"","do_trial","120","373376","0.0-69.0-0.0","""event"",""trial"",""time""
""fullscreenenter"",""0"",""3869""
","
","
","""event"",""trial"",""time""
""fullscreenenter"",""0"",""3869""
","
","675.3999999910593","","","","","","","","49","1,0,1","6","blank","280","null","0.5279018930234373","0.05178189053333949","0.45126269422940224","1","","","","","","","","",""
"","html-keyboard-response","121","374381","0.0-69.0-1.0","""event"",""trial"",""time""
""fullscreenenter"",""0"",""3869""
","
","
","""event"",""trial"",""time""
""fullscreenenter"",""0"",""3869""
","
","null","<p></p>","null","","","","","","","","","","","","","","","","","","","","","","","",""
"","do_trial","122","377417","0.0-70.0-0.0","""event"",""trial"",""time""
""fullscreenenter"",""0"",""3869""
","
","
","""event"",""trial"",""time""
""fullscreenenter"",""0"",""3869""
","
","494","","","","","","","","49","0,0,0","6","blank","281","null","0.5041998245524103","0.15390485475499416","0.3224282563575253","0","","","","","","","","",""
"","html-keyboard-response","123","378421","0.0-70.0-1.0","""event"",""trial"",""time""
""fullscreenenter"",""0"",""3869""
","
","
","""event"",""trial"",""time""
""fullscreenenter"",""0"",""3869""
","
","null","<p></p>","null","","","","","","","","","","","","","","","","","","","","","","","",""
"","do_trial","124","381365","0.0-71.0-0.0","""event"",""trial"",""time""
""fullscreenenter"",""0"",""3869""
","
","
","""event"",""trial"",""time""
""fullscreenenter"",""0"",""3869""
","
","400.59999999403954","","","","","","","","49","1,0,0","6","blank","282","null","0.4948727852415932","0.16492966730000155","0.3374093376630071","1","","","","","","","","",""
"","html-keyboard-response","125","382368","0.0-71.0-1.0","""event"",""trial"",""time""
""fullscreenenter"",""0"",""3869""
","
","
","""event"",""trial"",""time""
""fullscreenenter"",""0"",""3869""
","
","null","<p></p>","null","","","","","","","","","","","","","","","","","","","","","","","",""
"","do_trial","126","385335","0.0-72.0-0.0","""event"",""trial"",""time""
""fullscreenenter"",""0"",""3869""
","
","
","""event"",""trial"",""time""
""fullscreenenter"",""0"",""3869""
","
","419.40000000596046","","","","","","","","49","1,0,0","6","blank","283","null","0.5999333958500102","0.1563255169839379","0.31156396098104244","1","","","","","","","","",""
"","html-keyboard-response","127","386338","0.0-72.0-1.0","""event"",""trial"",""time""
""fullscreenenter"",""0"",""3869""
","
","
","""event"",""trial"",""time""
""fullscreenenter"",""0"",""3869""
","
","null","<p></p>","null","","","","","","","","","","","","","","","","","","","","","","","",""
"","do_trial","128","389366","0.0-73.0-0.0","""event"",""trial"",""time""
""fullscreenenter"",""0"",""3869""
","
","
","""event"",""trial"",""time""
""fullscreenenter"",""0"",""3869""
","
","489.40000000596046","","","","","","","","49","1,0,0","6","blank","284","null","0.5611332458463655","0.06435535847830526","0.282663097409582","1","","","","","","","","",""
"","html-keyboard-response","129","390369","0.0-73.0-1.0","""event"",""trial"",""time""
""fullscreenenter"",""0"",""3869""
","
","
","""event"",""trial"",""time""
""fullscreenenter"",""0"",""3869""
","
","null","<p></p>","null","","","","","","","","","","","","","","","","","","","","","","","",""
"","do_recog","130","393627","0.0-74.0-0.0","""event"",""trial"",""time""
""fullscreenenter"",""0"",""3869""
","
","
","""event"",""trial"",""time""
""fullscreenenter"",""0"",""3869""
","
","1749.300000011921","","","","","","","","53","","","","285","probe-230","","","","","1","[object Object]","32","0","1","","","",""
"","html-keyboard-response","131","394630","0.0-74.0-1.0","""event"",""trial"",""time""
""fullscreenenter"",""0"",""3869""
","
","
","""event"",""trial"",""time""
""fullscreenenter"",""0"",""3869""
","
","null","<p></p>","null","","","","","","","","","","","","","","","","","","","","","","","",""
"","do_trial","132","397894","0.0-75.0-0.0","""event"",""trial"",""time""
""fullscreenenter"",""0"",""3869""
","
","
","""event"",""trial"",""time""
""fullscreenenter"",""0"",""3869""
","
","702.3000000119209","","","","","","","","49","1,0,1","6","blank","286","null","0.63572269755876","0.08777312430836652","0.32910999415562714","1","","","","","","","","",""
"","html-keyboard-response","133","398898","0.0-75.0-1.0","""event"",""trial"",""time""
""fullscreenenter"",""0"",""3869""
","
","
","""event"",""trial"",""time""
""fullscreenenter"",""0"",""3869""
","
","null","<p></p>","null","","","","","","","","","","","","","","","","","","","","","","","",""
"","do_recog","134","401903","0.0-76.0-0.0","""event"",""trial"",""time""
""fullscreenenter"",""0"",""3869""
","
","
","""event"",""trial"",""time""
""fullscreenenter"",""0"",""3869""
","
","1501.2000000029802","","","","","","","","53","","","","287","probe-08","","","","","1","[object Object]","36","0","1","","","",""
"","html-keyboard-response","135","402906","0.0-76.0-1.0","""event"",""trial"",""time""
""fullscreenenter"",""0"",""3869""
","
","
","""event"",""trial"",""time""
""fullscreenenter"",""0"",""3869""
","
","null","<p></p>","null","","","","","","","","","","","","","","","","","","","","","","","",""
"","do_trial","136","406023","0.0-77.0-0.0","""event"",""trial"",""time""
""fullscreenenter"",""0"",""3869""
","
","
","""event"",""trial"",""time""
""fullscreenenter"",""0"",""3869""
","
","576.9000000059605","","","","","","","","49","0,0,0","6","blank","288","null","0.5710825522458216","0.05267753341791253","0.1740139357315418","0","","","","","","","","",""
"","html-keyboard-response","137","407027","0.0-77.0-1.0","""event"",""trial"",""time""
""fullscreenenter"",""0"",""3869""
","
","
","""event"",""trial"",""time""
""fullscreenenter"",""0"",""3869""
","
","null","<p></p>","null","","","","","","","","","","","","","","","","","","","","","","","",""
"","do_recog","138","409849","0.0-78.0-0.0","""event"",""trial"",""time""
""fullscreenenter"",""0"",""3869""
","
","
","""event"",""trial"",""time""
""fullscreenenter"",""0"",""3869""
","
","1313.7999999970198","","","","","","","","53","","","","289","probe-246","","","","","0","[object Object]","null","null","0","","","",""
"","html-keyboard-response","139","410854","0.0-78.0-1.0","""event"",""trial"",""time""
""fullscreenenter"",""0"",""3869""
","
","
","""event"",""trial"",""time""
""fullscreenenter"",""0"",""3869""
","
","null","<p></p>","null","","","","","","","","","","","","","","","","","","","","","","","",""
"","do_trial","140","414221","0.0-79.0-0.0","""event"",""trial"",""time""
""fullscreenenter"",""0"",""3869""
","
","
","""event"",""trial"",""time""
""fullscreenenter"",""0"",""3869""
","
","826.1000000089407","","","","","","","","49","1,0,1","6","blank","290","null","0.6199949349398096","0.07714295062163734","0.21912046535449667","1","","","","","","","","",""
"","html-keyboard-response","141","415225","0.0-79.0-1.0","""event"",""trial"",""time""
""fullscreenenter"",""0"",""3869""
","
","
","""event"",""trial"",""time""
""fullscreenenter"",""0"",""3869""
","
","null","<p></p>","null","","","","","","","","","","","","","","","","","","","","","","","",""
"","do_recog","142","417972","0.0-80.0-0.0","""event"",""trial"",""time""
""fullscreenenter"",""0"",""3869""
","
","
","""event"",""trial"",""time""
""fullscreenenter"",""0"",""3869""
","
","1238.1000000089407","","","","","","","","53","","","","291","probe-45","","","","","1","[object Object]","152","3","1","","","",""
"","html-keyboard-response","143","418975","0.0-80.0-1.0","""event"",""trial"",""time""
""fullscreenenter"",""0"",""3869""
","
","
","""event"",""trial"",""time""
""fullscreenenter"",""0"",""3869""
","
","null","<p></p>","null","","","","","","","","","","","","","","","","","","","","","","","",""
"","do_trial","144","422211","0.0-81.0-0.0","""event"",""trial"",""time""
""fullscreenenter"",""0"",""3869""
","
","
","""event"",""trial"",""time""
""fullscreenenter"",""0"",""3869""
","
","694.7999999970198","","","","","","","","49","0,0,0","6","blank","292","null","0.6962456943097778","0.1783754251652438","0.19162832753346962","0","","","","","","","","",""
"","html-keyboard-response","145","423215","0.0-81.0-1.0","""event"",""trial"",""time""
""fullscreenenter"",""0"",""3869""
","
","
","""event"",""trial"",""time""
""fullscreenenter"",""0"",""3869""
","
","null","<p></p>","null","","","","","","","","","","","","","","","","","","","","","","","",""
"","do_trial","146","426258","0.0-82.0-0.0","""event"",""trial"",""time""
""fullscreenenter"",""0"",""3869""
","
","
","""event"",""trial"",""time""
""fullscreenenter"",""0"",""3869""
","
","499.5","","","","","","","","49","0,0,0","6","blank","293","null","0.5058941959970699","0.2417714374266253","0.11907787049112666","0","","","","","","","","",""
"","html-keyboard-response","147","427264","0.0-82.0-1.0","""event"",""trial"",""time""
""fullscreenenter"",""0"",""3869""
","
","
","""event"",""trial"",""time""
""fullscreenenter"",""0"",""3869""
","
","null","<p></p>","null","","","","","","","","","","","","","","","","","","","","","","","",""
"","do_trial","148","430353","0.0-83.0-0.0","""event"",""trial"",""time""
""fullscreenenter"",""0"",""3869""
","
","
","""event"",""trial"",""time""
""fullscreenenter"",""0"",""3869""
","
","535.5","","","","","","","","51","0,0,0","6","blank","294","null","0.5917346304167265","0.31016060578870774","0.1557852851443968","0","","","","","","","","",""
"","html-keyboard-response","149","431358","0.0-83.0-1.0","""event"",""trial"",""time""
""fullscreenenter"",""0"",""3869""
","
","
","""event"",""trial"",""time""
""fullscreenenter"",""0"",""3869""
","
","null","<p></p>","null","","","","","","","","","","","","","","","","","","","","","","","",""
"","do_recog","150","434269","0.0-84.0-0.0","""event"",""trial"",""time""
""fullscreenenter"",""0"",""3869""
","
","
","""event"",""trial"",""time""
""fullscreenenter"",""0"",""3869""
","
","1404.7000000029802","","","","","","","","53","","","","295","probe-200","","","","","1","[object Object]","75","1","1","","","",""
"","html-keyboard-response","151","435272","0.0-84.0-1.0","""event"",""trial"",""time""
""fullscreenenter"",""0"",""3869""
","
","
","""event"",""trial"",""time""
""fullscreenenter"",""0"",""3869""
","
","null","<p></p>","null","","","","","","","","","","","","","","","","","","","","","","","",""
"","do_trial","152","439578","0.0-85.0-0.0","""event"",""trial"",""time""
""fullscreenenter"",""0"",""3869""
","
","
","""event"",""trial"",""time""
""fullscreenenter"",""0"",""3869""
","
","1765.2999999970198","","","","","","","","51","0,0,0","6","blank","296","null","0.48115350258405626","0.14878622033243075","0.3587343010643722","0","","","","","","","","",""
"","html-keyboard-response","153","440582","0.0-85.0-1.0","""event"",""trial"",""time""
""fullscreenenter"",""0"",""3869""
","
","
","""event"",""trial"",""time""
""fullscreenenter"",""0"",""3869""
","
","null","<p></p>","null","","","","","","","","","","","","","","","","","","","","","","","",""
"","do_recog","154","443507","0.0-86.0-0.0","""event"",""trial"",""time""
""fullscreenenter"",""0"",""3869""
","
","
","""event"",""trial"",""time""
""fullscreenenter"",""0"",""3869""
","
","1416.3999999910593","","","","","","","","53","","","","297","probe-241","","","","","0","[object Object]","null","null","0","","","",""
"","html-keyboard-response","155","444511","0.0-86.0-1.0","""event"",""trial"",""time""
""fullscreenenter"",""0"",""3869""
","
","
","""event"",""trial"",""time""
""fullscreenenter"",""0"",""3869""
","
","null","<p></p>","null","","","","","","","","","","","","","","","","","","","","","","","",""
"","do_trial","156","448429","0.0-87.0-0.0","""event"",""trial"",""time""
""fullscreenenter"",""0"",""3869""
","
","
","""event"",""trial"",""time""
""fullscreenenter"",""0"",""3869""
","
","1374.7999999970198","","","","","","","","51","0,0,1","6","blank","298","null","0.5607737788647256","0.13077542805330117","0.18327559395399648","1","","","","","","","","",""
"","html-keyboard-response","157","449432","0.0-87.0-1.0","""event"",""trial"",""time""
""fullscreenenter"",""0"",""3869""
","
","
","""event"",""trial"",""time""
""fullscreenenter"",""0"",""3869""
","
","null","<p></p>","null","","","","","","","","","","","","","","","","","","","","","","","",""
"","do_trial","158","452555","0.0-88.0-0.0","""event"",""trial"",""time""
""fullscreenenter"",""0"",""3869""
","
","
","""event"",""trial"",""time""
""fullscreenenter"",""0"",""3869""
","
","574.9000000059605","","","","","","","","51","1,0,0","6","blank","299","null","0.5270301303607752","0.05203964969795248","0.21862773890050463","0","","","","","","","","",""
"","html-keyboard-response","159","453558","0.0-88.0-1.0","""event"",""trial"",""time""
""fullscreenenter"",""0"",""3869""
","
","
","""event"",""trial"",""time""
""fullscreenenter"",""0"",""3869""
","
","null","<p></p>","null","","","","","","","","","","","","","","","","","","","","","","","",""
"","do_trial","160","456819","0.0-89.0-0.0","""event"",""trial"",""time""
""fullscreenenter"",""0"",""3869""
","
","
","""event"",""trial"",""time""
""fullscreenenter"",""0"",""3869""
","
","718.2999999970198","","","","","","","","51","1,0,1","6","blank","300","null","0.44875038902115805","0.08712981567483588","0.19718320908033404","1","","","","","","","","",""
"","html-keyboard-response","161","457823","0.0-89.0-1.0","""event"",""trial"",""time""
""fullscreenenter"",""0"",""3869""
","
","
","""event"",""trial"",""time""
""fullscreenenter"",""0"",""3869""
","
","null","<p></p>","null","","","","","","","","","","","","","","","","","","","","","","","",""
"","do_recog","162","460879","0.0-90.0-0.0","""event"",""trial"",""time""
""fullscreenenter"",""0"",""3869""
","
","
","""event"",""trial"",""time""
""fullscreenenter"",""0"",""3869""
","
","1551.2999999970198","","","","","","","","54","","","","301","probe-76","","","","","1","[object Object]","153","3","1","","","",""
"","html-keyboard-response","163","461883","0.0-90.0-1.0","""event"",""trial"",""time""
""fullscreenenter"",""0"",""3869""
","
","
","""event"",""trial"",""time""
""fullscreenenter"",""0"",""3869""
","
","null","<p></p>","null","","","","","","","","","","","","","","","","","","","","","","","",""
"","do_trial","164","465325","0.0-91.0-0.0","""event"",""trial"",""time""
""fullscreenenter"",""0"",""3869""
","
","
","""event"",""trial"",""time""
""fullscreenenter"",""0"",""3869""
","
","902.0999999940395","","","","","","","","51","1,0,0","6","blank","302","null","0.25582072054054417","0.1865568197615152","0.2521267426232026","0","","","","","","","","",""
"","html-keyboard-response","165","466329","0.0-91.0-1.0","""event"",""trial"",""time""
""fullscreenenter"",""0"",""3869""
","
","
","""event"",""trial"",""time""
""fullscreenenter"",""0"",""3869""
","
","null","<p></p>","null","","","","","","","","","","","","","","","","","","","","","","","",""
"","do_trial","166","469452","0.0-92.0-0.0","""event"",""trial"",""time""
""fullscreenenter"",""0"",""3869""
","
","
","""event"",""trial"",""time""
""fullscreenenter"",""0"",""3869""
","
","577.7999999970198","","","","","","","","51","0,0,0","6","blank","303","null","0.06535578781749225","0.2604240389865922","0.4321397527233706","0","","","","","","","","",""
"","html-keyboard-response","167","470456","0.0-92.0-1.0","""event"",""trial"",""time""
""fullscreenenter"",""0"",""3869""
","
","
","""event"",""trial"",""time""
""fullscreenenter"",""0"",""3869""
","
","null","<p></p>","null","","","","","","","","","","","","","","","","","","","","","","","",""
"","do_trial","168","473503","0.0-93.0-0.0","""event"",""trial"",""time""
""fullscreenenter"",""0"",""3869""
","
","
","""event"",""trial"",""time""
""fullscreenenter"",""0"",""3869""
","
","507.70000000298023","","","","","","","","50","0,0,0","6","blank","304","null","0.1105339429507963","0.188715287430607","0.5909175339384939","0","","","","","","","","",""
"","html-keyboard-response","169","474507","0.0-93.0-1.0","""event"",""trial"",""time""
""fullscreenenter"",""0"",""3869""
","
","
","""event"",""trial"",""time""
""fullscreenenter"",""0"",""3869""
","
","null","<p></p>","null","","","","","","","","","","","","","","","","","","","","","","","",""
"","do_trial","170","477553","0.0-94.0-0.0","""event"",""trial"",""time""
""fullscreenenter"",""0"",""3869""
","
","
","""event"",""trial"",""time""
""fullscreenenter"",""0"",""3869""
","
","497.80000001192093","","","","","","","","50","0,0,1","6","blank","305","null","0.07068005757355317","0.33988070477822346","0.5077288572233768","0","","","","","","","","",""
"","html-keyboard-response","171","478556","0.0-94.0-1.0","""event"",""trial"",""time""
""fullscreenenter"",""0"",""3869""
","
","
","""event"",""trial"",""time""
""fullscreenenter"",""0"",""3869""
","
","null","<p></p>","null","","","","","","","","","","","","","","","","","","","","","","","",""
"","do_trial","172","481528","0.0-95.0-0.0","""event"",""trial"",""time""
""fullscreenenter"",""0"",""3869""
","
","
","""event"",""trial"",""time""
""fullscreenenter"",""0"",""3869""
","
","432.20000000298023","","","","","","","","49","0,1,1","6","blank","306","null","0.13068803317650557","0.4046346348354793","0.5397945978919855","0","","","","","","","","",""
"","html-keyboard-response","173","482533","0.0-95.0-1.0","""event"",""trial"",""time""
""fullscreenenter"",""0"",""3869""
","
","
","""event"",""trial"",""time""
""fullscreenenter"",""0"",""3869""
","
","null","<p></p>","null","","","","","","","","","","","","","","","","","","","","","","","",""
"","do_recog","174","485227","0.0-96.0-0.0","""event"",""trial"",""time""
""fullscreenenter"",""0"",""3869""
","
","
","""event"",""trial"",""time""
""fullscreenenter"",""0"",""3869""
","
","1182.6000000089407","","","","","","","","53","","","","307","probe-161","","","","","1","[object Object]","114","2","1","","","",""
"","html-keyboard-response","175","486229","0.0-96.0-1.0","""event"",""trial"",""time""
""fullscreenenter"",""0"",""3869""
","
","
","""event"",""trial"",""time""
""fullscreenenter"",""0"",""3869""
","
","null","<p></p>","null","","","","","","","","","","","","","","","","","","","","","","","",""
"","do_trial","176","489316","0.0-97.0-0.0","""event"",""trial"",""time""
""fullscreenenter"",""0"",""3869""
","
","
","""event"",""trial"",""time""
""fullscreenenter"",""0"",""3869""
","
","546.5","","","","","","","","49","0,0,0","6","blank","308","null","0.10685760381457289","0.2882844091359012","0.5907071482627357","0","","","","","","","","",""
"","html-keyboard-response","177","490319","0.0-97.0-1.0","""event"",""trial"",""time""
""fullscreenenter"",""0"",""3869""
","
","
","""event"",""trial"",""time""
""fullscreenenter"",""0"",""3869""
","
","null","<p></p>","null","","","","","","","","","","","","","","","","","","","","","","","",""
"","break","178","491906","0.0-98.0-0.0","""event"",""trial"",""time""
""fullscreenenter"",""0"",""3869""
","
","
","""event"",""trial"",""time""
""fullscreenenter"",""0"",""3869""
","
","1585.7000000029802","<div class='center'><p>Time to take a quick break! You have 2 minutes to rest, but you can move on sooner if you'd like.</p><p> Press the <b>space bar</b> to continue.</p></div>","32","","","","","","","","","","","","","","","","","","","","","","","",""
"","do_trial","179","495978","0.0-98.0-1.0","""event"",""trial"",""time""
""fullscreenenter"",""0"",""3869""
","
","
","""event"",""trial"",""time""
""fullscreenenter"",""0"",""3869""
","
","1530","","","","","","","","49","0,1,1","6","blank","309","null","0.08684658574120466","0.24462037172553466","0.6303876062363788","0","","","","","","","","",""
"","html-keyboard-response","180","496981","0.0-98.0-2.0","""event"",""trial"",""time""
""fullscreenenter"",""0"",""3869""
","
","
","""event"",""trial"",""time""
""fullscreenenter"",""0"",""3869""
","
","null","<p></p>","null","","","","","","","","","","","","","","","","","","","","","","","",""
"","do_trial","181","499936","0.0-99.0-0.0","""event"",""trial"",""time""
""fullscreenenter"",""0"",""3869""
","
","
","""event"",""trial"",""time""
""fullscreenenter"",""0"",""3869""
","
","415.19999998807907","","","","","","","","50","0,0,0","6","blank","310","null","0.18934361180705786","0.1973994883762707","0.614583599769005","0","","","","","","","","",""
"","html-keyboard-response","182","500941","0.0-99.0-1.0","""event"",""trial"",""time""
""fullscreenenter"",""0"",""3869""
","
","
","""event"",""trial"",""time""
""fullscreenenter"",""0"",""3869""
","
","null","<p></p>","null","","","","","","","","","","","","","","","","","","","","","","","",""
"","do_trial","183","503781","0.0-100.0-0.0","""event"",""trial"",""time""
""fullscreenenter"",""0"",""3869""
","
","
","""event"",""trial"",""time""
""fullscreenenter"",""0"",""3869""
","
","297.09999999403954","","","","","","","","51","0,1,1","6","blank","311","null","0.18524021552044137","0.2264598844887435","0.6346483475849445","1","","","","","","","","",""
"","html-keyboard-response","184","504784","0.0-100.0-1.0","""event"",""trial"",""time""
""fullscreenenter"",""0"",""3869""
","
","
","""event"",""trial"",""time""
""fullscreenenter"",""0"",""3869""
","
","null","<p></p>","null","","","","","","","","","","","","","","","","","","","","","","","",""
"","do_trial","185","507691","0.0-101.0-0.0","""event"",""trial"",""time""
""fullscreenenter"",""0"",""3869""
","
","
","""event"",""trial"",""time""
""fullscreenenter"",""0"",""3869""
","
","365.09999999403954","","","","","","","","51","0,0,0","6","blank","312","null","0.20031987740987547","0.30745835355719114","0.6729253817969513","0","","","","","","","","",""
"","html-keyboard-response","186","508696","0.0-101.0-1.0","""event"",""trial"",""time""
""fullscreenenter"",""0"",""3869""
","
","
","""event"",""trial"",""time""
""fullscreenenter"",""0"",""3869""
","
","null","<p></p>","null","","","","","","","","","","","","","","","","","","","","","","","",""
"","do_trial","187","511561","0.0-102.0-0.0","""event"",""trial"",""time""
""fullscreenenter"",""0"",""3869""
","
","
","""event"",""trial"",""time""
""fullscreenenter"",""0"",""3869""
","
","319.8999999910593","","","","","","","","51","0,0,1","6","blank","313","null","0.13414147686573777","0.2538072586245101","0.5795274747401756","1","","","","","","","","",""
"","html-keyboard-response","188","512564","0.0-102.0-1.0","""event"",""trial"",""time""
""fullscreenenter"",""0"",""3869""
","
","
","""event"",""trial"",""time""
""fullscreenenter"",""0"",""3869""
","
","null","<p></p>","null","","","","","","","","","","","","","","","","","","","","","","","",""
"","do_trial","189","515687","0.0-103.0-0.0","""event"",""trial"",""time""
""fullscreenenter"",""0"",""3869""
","
","
","""event"",""trial"",""time""
""fullscreenenter"",""0"",""3869""
","
","578.6999999880791","","","","","","","","51","0,0,1","6","blank","314","null","0.07484986407664124","0.43514845754602066","0.5573032326573649","1","","","","","","","","",""
"","html-keyboard-response","190","516691","0.0-103.0-1.0","""event"",""trial"",""time""
""fullscreenenter"",""0"",""3869""
","
","
","""event"",""trial"",""time""
""fullscreenenter"",""0"",""3869""
","
","null","<p></p>","null","","","","","","","","","","","","","","","","","","","","","","","",""
"","do_recog","191","519452","0.0-104.0-0.0","""event"",""trial"",""time""
""fullscreenenter"",""0"",""3869""
","
","
","""event"",""trial"",""time""
""fullscreenenter"",""0"",""3869""
","
","1256.8999999910593","","","","","","","","53","","","","315","probe-21","","","","","1","[object Object]","192","4","1","","","",""
"","html-keyboard-response","192","520455","0.0-104.0-1.0","""event"",""trial"",""time""
""fullscreenenter"",""0"",""3869""
","
","
","""event"",""trial"",""time""
""fullscreenenter"",""0"",""3869""
","
","null","<p></p>","null","","","","","","","","","","","","","","","","","","","","","","","",""
"","do_trial","193","523576","0.0-105.0-0.0","""event"",""trial"",""time""
""fullscreenenter"",""0"",""3869""
","
","
","""event"",""trial"",""time""
""fullscreenenter"",""0"",""3869""
","
","576.9000000059605","","","","","","","","51","0,0,1","6","blank","316","null","0.10608064237603002","0.28557374845949846","0.5716102391604188","1","","","","","","","","",""
"","html-keyboard-response","194","524580","0.0-105.0-1.0","""event"",""trial"",""time""
""fullscreenenter"",""0"",""3869""
","
","
","""event"",""trial"",""time""
""fullscreenenter"",""0"",""3869""
","
","null","<p></p>","null","","","","","","","","","","","","","","","","","","","","","","","",""
"","do_trial","195","527622","0.0-106.0-0.0","""event"",""trial"",""time""
""fullscreenenter"",""0"",""3869""
","
","
","""event"",""trial"",""time""
""fullscreenenter"",""0"",""3869""
","
","504.8999999910593","","","","","","","","51","0,0,1","6","blank","317","null","0.13251789277878553","0.24821692248249327","0.6519095584472534","1","","","","","","","","",""
"","html-keyboard-response","196","528625","0.0-106.0-1.0","""event"",""trial"",""time""
""fullscreenenter"",""0"",""3869""
","
","
","""event"",""trial"",""time""
""fullscreenenter"",""0"",""3869""
","
","null","<p></p>","null","","","","","","","","","","","","","","","","","","","","","","","",""
"","do_recog","197","531493","0.0-107.0-0.0","""event"",""trial"",""time""
""fullscreenenter"",""0"",""3869""
","
","
","""event"",""trial"",""time""
""fullscreenenter"",""0"",""3869""
","
","1359","","","","","","","","55","","","","318","probe-55","","","","","1","[object Object]","196","4","0","","","",""
"","html-keyboard-response","198","532496","0.0-107.0-1.0","""event"",""trial"",""time""
""fullscreenenter"",""0"",""3869""
","
","
","""event"",""trial"",""time""
""fullscreenenter"",""0"",""3869""
","
","null","<p></p>","null","","","","","","","","","","","","","","","","","","","","","","","",""
"","do_trial","199","535525","0.0-108.0-0.0","""event"",""trial"",""time""
""fullscreenenter"",""0"",""3869""
","
","
","""event"",""trial"",""time""
""fullscreenenter"",""0"",""3869""
","
","488","","","","","","","","51","0,0,1","6","blank","319","null","0.23147382473172493","0.23180896476707358","0.7562009378775233","1","","","","","","","","",""
"","html-keyboard-response","200","536528","0.0-108.0-1.0","""event"",""trial"",""time""
""fullscreenenter"",""0"",""3869""
","
","
","""event"",""trial"",""time""
""fullscreenenter"",""0"",""3869""
","
","null","<p></p>","null","","","","","","","","","","","","","","","","","","","","","","","",""
"","do_trial","201","539572","0.0-109.0-0.0","""event"",""trial"",""time""
""fullscreenenter"",""0"",""3869""
","
","
","""event"",""trial"",""time""
""fullscreenenter"",""0"",""3869""
","
","502.40000000596046","","","","","","","","51","0,0,1","6","blank","320","null","0.21068763997969417","0.25782570233695856","0.7447444711714092","1","","","","","","","","",""
"","html-keyboard-response","202","540576","0.0-109.0-1.0","""event"",""trial"",""time""
""fullscreenenter"",""0"",""3869""
","
","
","""event"",""trial"",""time""
""fullscreenenter"",""0"",""3869""
","
","null","<p></p>","null","","","","","","","","","","","","","","","","","","","","","","","",""
"","do_trial","203","543637","0.0-110.0-0.0","""event"",""trial"",""time""
""fullscreenenter"",""0"",""3869""
","
","
","""event"",""trial"",""time""
""fullscreenenter"",""0"",""3869""
","
","514.2999999970198","","","","","","","","51","0,0,0","6","blank","321","null","0.23437580334050012","0.24731854425268018","0.6892056395860131","0","","","","","","","","",""
"","html-keyboard-response","204","544644","0.0-110.0-1.0","""event"",""trial"",""time""
""fullscreenenter"",""0"",""3869""
","
","
","""event"",""trial"",""time""
""fullscreenenter"",""0"",""3869""
","
","null","<p></p>","null","","","","","","","","","","","","","","","","","","","","","","","",""
"","do_trial","205","547567","0.0-111.0-0.0","""event"",""trial"",""time""
""fullscreenenter"",""0"",""3869""
","
","
","""event"",""trial"",""time""
""fullscreenenter"",""0"",""3869""
","
","320","","","","","","","","51","0,1,1","6","blank","322","null","0.1975184941235568","0.353500622910038","0.6689970359944327","1","","","","","","","","",""
"","html-keyboard-response","206","548570","0.0-111.0-1.0","""event"",""trial"",""time""
""fullscreenenter"",""0"",""3869""
","
","
","""event"",""trial"",""time""
""fullscreenenter"",""0"",""3869""
","
","null","<p></p>","null","","","","","","","","","","","","","","","","","","","","","","","",""
"","do_trial","207","551918","0.0-112.0-0.0","""event"",""trial"",""time""
""fullscreenenter"",""0"",""3869""
","
","
","""event"",""trial"",""time""
""fullscreenenter"",""0"",""3869""
","
","804.9000000059605","","","","","","","","51","1,1,1","6","blank","323","null","0.3070390782041884","0.30483120468403524","0.5360597782804707","1","","","","","","","","",""
"","html-keyboard-response","208","552922","0.0-112.0-1.0","""event"",""trial"",""time""
""fullscreenenter"",""0"",""3869""
","
","
","""event"",""trial"",""time""
""fullscreenenter"",""0"",""3869""
","
","null","<p></p>","null","","","","","","","","","","","","","","","","","","","","","","","",""
"","do_trial","209","556271","0.0-113.0-0.0","""event"",""trial"",""time""
""fullscreenenter"",""0"",""3869""
","
","
","""event"",""trial"",""time""
""fullscreenenter"",""0"",""3869""
","
","810.5","","","","","","","","51","1,1,1","6","blank","324","null","0.14201052840332573","0.24260613885683222","0.6172347278550157","1","","","","","","","","",""
"","html-keyboard-response","210","557274","0.0-113.0-1.0","""event"",""trial"",""time""
""fullscreenenter"",""0"",""3869""
","
","
","""event"",""trial"",""time""
""fullscreenenter"",""0"",""3869""
","
","null","<p></p>","null","","","","","","","","","","","","","","","","","","","","","","","",""
"","do_recog","211","560033","0.0-114.0-0.0","""event"",""trial"",""time""
""fullscreenenter"",""0"",""3869""
","
","
","""event"",""trial"",""time""
""fullscreenenter"",""0"",""3869""
","
","1250.3999999910593","","","","","","","","53","","","","325","probe-120","","","","","1","[object Object]","30","0","1","","","",""
"","html-keyboard-response","212","561037","0.0-114.0-1.0","""event"",""trial"",""time""
""fullscreenenter"",""0"",""3869""
","
","
","""event"",""trial"",""time""
""fullscreenenter"",""0"",""3869""
","
","null","<p></p>","null","","","","","","","","","","","","","","","","","","","","","","","",""
"","do_trial","213","564434","0.0-115.0-0.0","""event"",""trial"",""time""
""fullscreenenter"",""0"",""3869""
","
","
","""event"",""trial"",""time""
""fullscreenenter"",""0"",""3869""
","
","854.2000000029802","","","","","","","","51","1,1,1","6","blank","326","null","0.18446316154092962","0.23620674405222525","0.6792822116041286","1","","","","","","","","",""
"","html-keyboard-response","214","565438","0.0-115.0-1.0","""event"",""trial"",""time""
""fullscreenenter"",""0"",""3869""
","
","
","""event"",""trial"",""time""
""fullscreenenter"",""0"",""3869""
","
","null","<p></p>","null","","","","","","","","","","","","","","","","","","","","","","","",""
"","do_trial","215","568564","0.0-116.0-0.0","""event"",""trial"",""time""
""fullscreenenter"",""0"",""3869""
","
","
","""event"",""trial"",""time""
""fullscreenenter"",""0"",""3869""
","
","582.2999999970198","","","","","","","","51","0,0,0","6","blank","327","null","0.08128021639329423","0.3029526459933812","0.5263976719390727","0","","","","","","","","",""
"","html-keyboard-response","216","569567","0.0-116.0-1.0","""event"",""trial"",""time""
""fullscreenenter"",""0"",""3869""
","
","
","""event"",""trial"",""time""
""fullscreenenter"",""0"",""3869""
","
","null","<p></p>","null","","","","","","","","","","","","","","","","","","","","","","","",""
"","do_trial","217","572442","0.0-117.0-0.0","""event"",""trial"",""time""
""fullscreenenter"",""0"",""3869""
","
","
","""event"",""trial"",""time""
""fullscreenenter"",""0"",""3869""
","
","335.29999999701977","","","","","","","","51","0,0,1","6","blank","328","null","0.06338563474222884","0.37593851100044623","0.5797770832910458","1","","","","","","","","",""
"","html-keyboard-response","218","573446","0.0-117.0-1.0","""event"",""trial"",""time""
""fullscreenenter"",""0"",""3869""
","
","
","""event"",""trial"",""time""
""fullscreenenter"",""0"",""3869""
","
","null","<p></p>","null","","","","","","","","","","","","","","","","","","","","","","","",""
"","do_trial","219","576493","0.0-118.0-0.0","""event"",""trial"",""time""
""fullscreenenter"",""0"",""3869""
","
","
","""event"",""trial"",""time""
""fullscreenenter"",""0"",""3869""
","
","499","","","","","","","","51","0,0,0","6","blank","329","null","0.09346408985084768","0.2628692031199889","0.43182085964302913","0","","","","","","","","",""
"","html-keyboard-response","220","577496","0.0-118.0-1.0","""event"",""trial"",""time""
""fullscreenenter"",""0"",""3869""
","
","
","""event"",""trial"",""time""
""fullscreenenter"",""0"",""3869""
","
","null","<p></p>","null","","","","","","","","","","","","","","","","","","","","","","","",""
"","do_trial","221","580628","0.0-119.0-0.0","""event"",""trial"",""time""
""fullscreenenter"",""0"",""3869""
","
","
","""event"",""trial"",""time""
""fullscreenenter"",""0"",""3869""
","
","590.3999999910593","","","","","","","","51","0,0,0","6","blank","330","null","0.06341042610839155","0.30900896416483903","0.4427716102405022","0","","","","","","","","",""
"","html-keyboard-response","222","581633","0.0-119.0-1.0","""event"",""trial"",""time""
""fullscreenenter"",""0"",""3869""
","
","
","""event"",""trial"",""time""
""fullscreenenter"",""0"",""3869""
","
","null","<p></p>","null","","","","","","","","","","","","","","","","","","","","","","","",""
"","do_trial","223","584927","0.0-120.0-0.0","""event"",""trial"",""time""
""fullscreenenter"",""0"",""3869""
","
","
","""event"",""trial"",""time""
""fullscreenenter"",""0"",""3869""
","
","750.4000000059605","","","","","","","","49","0,0,1","6","blank","331","null","0.06701432259868452","0.3947036553360013","0.6044219937473304","0","","","","","","","","",""
"","html-keyboard-response","224","585930","0.0-120.0-1.0","""event"",""trial"",""time""
""fullscreenenter"",""0"",""3869""
","
","
","""event"",""trial"",""time""
""fullscreenenter"",""0"",""3869""
","
","null","<p></p>","null","","","","","","","","","","","","","","","","","","","","","","","",""
"","do_recog","225","588638","0.0-121.0-0.0","""event"",""trial"",""time""
""fullscreenenter"",""0"",""3869""
","
","
","""event"",""trial"",""time""
""fullscreenenter"",""0"",""3869""
","
","1198.9000000059605","","","","","","","","53","","","","332","probe-33","","","","","1","[object Object]","155","3","1","","","",""
"","html-keyboard-response","226","589642","0.0-121.0-1.0","""event"",""trial"",""time""
""fullscreenenter"",""0"",""3869""
","
","
","""event"",""trial"",""time""
""fullscreenenter"",""0"",""3869""
","
","null","<p></p>","null","","","","","","","","","","","","","","","","","","","","","","","",""
"","do_trial","227","592758","0.0-122.0-0.0","""event"",""trial"",""time""
""fullscreenenter"",""0"",""3869""
","
","
","""event"",""trial"",""time""
""fullscreenenter"",""0"",""3869""
","
","571.5999999940395","","","","","","","","49","0,0,0","6","blank","333","null","0.0867383393178354","0.4054491831155498","0.4467092186441812","0","","","","","","","","",""
"","html-keyboard-response","228","593762","0.0-122.0-1.0","""event"",""trial"",""time""
""fullscreenenter"",""0"",""3869""
","
","
","""event"",""trial"",""time""
""fullscreenenter"",""0"",""3869""
","
","null","<p></p>","null","","","","","","","","","","","","","","","","","","","","","","","",""
"","do_recog","229","596648","0.0-123.0-0.0","""event"",""trial"",""time""
""fullscreenenter"",""0"",""3869""
","
","
","""event"",""trial"",""time""
""fullscreenenter"",""0"",""3869""
","
","1379.5999999940395","","","","","","","","53","","","","334","probe-199","","","","","1","[object Object]","74","1","1","","","",""
"","html-keyboard-response","230","597651","0.0-123.0-1.0","""event"",""trial"",""time""
""fullscreenenter"",""0"",""3869""
","
","
","""event"",""trial"",""time""
""fullscreenenter"",""0"",""3869""
","
","null","<p></p>","null","","","","","","","","","","","","","","","","","","","","","","","",""
"","do_trial","231","601192","0.0-124.0-0.0","""event"",""trial"",""time""
""fullscreenenter"",""0"",""3869""
","
","
","""event"",""trial"",""time""
""fullscreenenter"",""0"",""3869""
","
","994","","","","","","","","50","0,1,0","6","blank","335","null","0.13754764689528418","0.34363303503852216","0.4157709250780999","1","","","","","","","","",""
"","html-keyboard-response","232","602195","0.0-124.0-1.0","""event"",""trial"",""time""
""fullscreenenter"",""0"",""3869""
","
","
","""event"",""trial"",""time""
""fullscreenenter"",""0"",""3869""
","
","null","<p></p>","null","","","","","","","","","","","","","","","","","","","","","","","",""
"","do_recog","233","605458","0.0-125.0-0.0","""event"",""trial"",""time""
""fullscreenenter"",""0"",""3869""
","
","
","""event"",""trial"",""time""
""fullscreenenter"",""0"",""3869""
","
","1756.2000000029802","","","","","","","","55","","","","336","probe-233","","","","","0","[object Object]","null","null","1","","","",""
"","html-keyboard-response","234","606464","0.0-125.0-1.0","""event"",""trial"",""time""
""fullscreenenter"",""0"",""3869""
","
","
","""event"",""trial"",""time""
""fullscreenenter"",""0"",""3869""
","
","null","<p></p>","null","","","","","","","","","","","","","","","","","","","","","","","",""
"","do_trial","235","609524","0.0-126.0-0.0","""event"",""trial"",""time""
""fullscreenenter"",""0"",""3869""
","
","
","""event"",""trial"",""time""
""fullscreenenter"",""0"",""3869""
","
","520.6999999880791","","","","","","","","50","0,0,1","6","blank","337","null","0.06400482247521597","0.24064704463438674","0.44974403213309927","0","","","","","","","","",""
"","html-keyboard-response","236","610527","0.0-126.0-1.0","""event"",""trial"",""time""
""fullscreenenter"",""0"",""3869""
","
","
","""event"",""trial"",""time""
""fullscreenenter"",""0"",""3869""
","
","null","<p></p>","null","","","","","","","","","","","","","","","","","","","","","","","",""
"","do_trial","237","613378","0.0-127.0-0.0","""event"",""trial"",""time""
""fullscreenenter"",""0"",""3869""
","
","
","""event"",""trial"",""time""
""fullscreenenter"",""0"",""3869""
","
","307.69999998807907","","","","","","","","50","0,1,1","6","blank","338","null","0.09399589670874088","0.3144538756750333","0.43528979656786154","1","","","","","","","","",""
"","html-keyboard-response","238","614381","0.0-127.0-1.0","""event"",""trial"",""time""
""fullscreenenter"",""0"",""3869""
","
","
","""event"",""trial"",""time""
""fullscreenenter"",""0"",""3869""
","
","null","<p></p>","null","","","","","","","","","","","","","","","","","","","","","","","",""
"","do_recog","239","617003","0.0-128.0-0.0","""event"",""trial"",""time""
""fullscreenenter"",""0"",""3869""
","
","
","""event"",""trial"",""time""
""fullscreenenter"",""0"",""3869""
","
","1117.0999999940395","","","","","","","","53","","","","339","probe-162","","","","","1","[object Object]","38","0","1","","","",""
"","html-keyboard-response","240","618007","0.0-128.0-1.0","""event"",""trial"",""time""
""fullscreenenter"",""0"",""3869""
","
","
","""event"",""trial"",""time""
""fullscreenenter"",""0"",""3869""
","
","null","<p></p>","null","","","","","","","","","","","","","","","","","","","","","","","",""
"","do_trial","241","620947","0.0-129.0-0.0","""event"",""trial"",""time""
""fullscreenenter"",""0"",""3869""
","
","
","""event"",""trial"",""time""
""fullscreenenter"",""0"",""3869""
","
","399.5","","","","","","","","50","0,1,1","6","blank","340","null","0.09286110068591592","0.36662070127539664","0.5328495362287358","1","","","","","","","","",""
"","html-keyboard-response","242","621950","0.0-129.0-1.0","""event"",""trial"",""time""
""fullscreenenter"",""0"",""3869""
","
","
","""event"",""trial"",""time""
""fullscreenenter"",""0"",""3869""
","
","null","<p></p>","null","","","","","","","","","","","","","","","","","","","","","","","",""
"","do_trial","243","624979","0.0-130.0-0.0","""event"",""trial"",""time""
""fullscreenenter"",""0"",""3869""
","
","
","""event"",""trial"",""time""
""fullscreenenter"",""0"",""3869""
","
","486.09999999403954","","","","","","","","50","0,1,0","6","blank","341","null","0.14110723353613655","0.41446362641726964","0.5315277603037754","1","","","","","","","","",""
"","html-keyboard-response","244","625983","0.0-130.0-1.0","""event"",""trial"",""time""
""fullscreenenter"",""0"",""3869""
","
","
","""event"",""trial"",""time""
""fullscreenenter"",""0"",""3869""
","
","null","<p></p>","null","","","","","","","","","","","","","","","","","","","","","","","",""
"","do_trial","245","629018","0.0-131.0-0.0","""event"",""trial"",""time""
""fullscreenenter"",""0"",""3869""
","
","
","""event"",""trial"",""time""
""fullscreenenter"",""0"",""3869""
","
","485.59999999403954","","","","","","","","50","0,1,1","6","blank","342","null","0.18341502728973397","0.43071278136425634","0.6298046949809849","1","","","","","","","","",""
"","html-keyboard-response","246","630022","0.0-131.0-1.0","""event"",""trial"",""time""
""fullscreenenter"",""0"",""3869""
","
","
","""event"",""trial"",""time""
""fullscreenenter"",""0"",""3869""
","
","null","<p></p>","null","","","","","","","","","","","","","","","","","","","","","","","",""
"","do_trial","247","632948","0.0-132.0-0.0","""event"",""trial"",""time""
""fullscreenenter"",""0"",""3869""
","
","
","""event"",""trial"",""time""
""fullscreenenter"",""0"",""3869""
","
","382.6000000089407","","","","","","","","50","0,1,0","6","blank","343","null","0.20580769014890726","0.48972846709619466","0.585487523749244","1","","","","","","","","",""
"","html-keyboard-response","248","633951","0.0-132.0-1.0","""event"",""trial"",""time""
""fullscreenenter"",""0"",""3869""
","
","
","""event"",""trial"",""time""
""fullscreenenter"",""0"",""3869""
","
","null","<p></p>","null","","","","","","","","","","","","","","","","","","","","","","","",""
"","do_recog","249","636608","0.0-133.0-0.0","""event"",""trial"",""time""
""fullscreenenter"",""0"",""3869""
","
","
","""event"",""trial"",""time""
""fullscreenenter"",""0"",""3869""
","
","1147.3999999910593","","","","","","","","53","","","","344","probe-209","","","","","1","[object Object]","191","4","1","","","",""
"","html-keyboard-response","250","637611","0.0-133.0-1.0","""event"",""trial"",""time""
""fullscreenenter"",""0"",""3869""
","
","
","""event"",""trial"",""time""
""fullscreenenter"",""0"",""3869""
","
","null","<p></p>","null","","","","","","","","","","","","","","","","","","","","","","","",""
"","do_trial","251","640570","0.0-134.0-0.0","""event"",""trial"",""time""
""fullscreenenter"",""0"",""3869""
","
","
","""event"",""trial"",""time""
""fullscreenenter"",""0"",""3869""
","
","415.70000000298023","","","","","","","","50","0,1,1","6","blank","345","null","0.1720787728559755","0.41178415496429055","0.5998384438845744","1","","","","","","","","",""
"","html-keyboard-response","252","641574","0.0-134.0-1.0","""event"",""trial"",""time""
""fullscreenenter"",""0"",""3869""
","
","
","""event"",""trial"",""time""
""fullscreenenter"",""0"",""3869""
","
","null","<p></p>","null","","","","","","","","","","","","","","","","","","","","","","","",""
"","do_trial","253","644706","0.0-135.0-0.0","""event"",""trial"",""time""
""fullscreenenter"",""0"",""3869""
","
","
","""event"",""trial"",""time""
""fullscreenenter"",""0"",""3869""
","
","589.8999999910593","","","","","","","","50","0,0,1","6","blank","346","null","0.155402274294211","0.3188723382667429","0.47843256245786586","0","","","","","","","","",""
"","html-keyboard-response","254","645710","0.0-135.0-1.0","""event"",""trial"",""time""
""fullscreenenter"",""0"",""3869""
","
","
","""event"",""trial"",""time""
""fullscreenenter"",""0"",""3869""
","
","null","<p></p>","null","","","","","","","","","","","","","","","","","","","","","","","",""
"","do_trial","255","648642","0.0-136.0-0.0","""event"",""trial"",""time""
""fullscreenenter"",""0"",""3869""
","
","
","""event"",""trial"",""time""
""fullscreenenter"",""0"",""3869""
","
","392.79999999701977","","","","","","","","50","0,0,1","6","blank","347","null","0.0644128714893064","0.328181778250252","0.576574942557762","0","","","","","","","","",""
"","html-keyboard-response","256","649647","0.0-136.0-1.0","""event"",""trial"",""time""
""fullscreenenter"",""0"",""3869""
","
","
","""event"",""trial"",""time""
""fullscreenenter"",""0"",""3869""
","
","null","<p></p>","null","","","","","","","","","","","","","","","","","","","","","","","",""
"","do_trial","257","652477","0.0-137.0-0.0","""event"",""trial"",""time""
""fullscreenenter"",""0"",""3869""
","
","
","""event"",""trial"",""time""
""fullscreenenter"",""0"",""3869""
","
","290.5","","","","","","","","50","0,1,1","6","blank","348","null","0.07292273894688367","0.2487795464672138","0.45512490217489926","1","","","","","","","","",""
"","html-keyboard-response","258","653481","0.0-137.0-1.0","""event"",""trial"",""time""
""fullscreenenter"",""0"",""3869""
","
","
","""event"",""trial"",""time""
""fullscreenenter"",""0"",""3869""
","
","null","<p></p>","null","","","","","","","","","","","","","","","","","","","","","","","",""
"","break","259","671167","0.0-138.0-0.0","""event"",""trial"",""time""
""fullscreenenter"",""0"",""3869""
","
","
","""event"",""trial"",""time""
""fullscreenenter"",""0"",""3869""
","
","17685.79999999702","<div class='center'><p>Time to take a quick break! You have 2 minutes to rest, but you can move on sooner if you'd like.</p><p> Press the <b>space bar</b> to continue.</p></div>","32","","","","","","","","","","","","","","","","","","","","","","","",""
"","do_trial","260","674829","0.0-138.0-1.0","""event"",""trial"",""time""
""fullscreenenter"",""0"",""3869""
","
","
","""event"",""trial"",""time""
""fullscreenenter"",""0"",""3869""
","
","1122","","","","","","","","50","0,0,1","6","blank","349","null","0.1267315451659902","0.28534265399511555","0.3433911832604746","0","","","","","","","","",""
"","html-keyboard-response","261","675833","0.0-138.0-2.0","""event"",""trial"",""time""
""fullscreenenter"",""0"",""3869""
","
","
","""event"",""trial"",""time""
""fullscreenenter"",""0"",""3869""
","
","null","<p></p>","null","","","","","","","","","","","","","","","","","","","","","","","",""
"","do_trial","262","678727","0.0-139.0-0.0","""event"",""trial"",""time""
""fullscreenenter"",""0"",""3869""
","
","
","""event"",""trial"",""time""
""fullscreenenter"",""0"",""3869""
","
","343.90000000596046","","","","","","","","50","0,0,0","6","blank","350","null","0.11309030381294954","0.45883893616169275","0.3494490225209349","0","","","","","","","","",""
"","html-keyboard-response","263","679731","0.0-139.0-1.0","""event"",""trial"",""time""
""fullscreenenter"",""0"",""3869""
","
","
","""event"",""trial"",""time""
""fullscreenenter"",""0"",""3869""
","
","null","<p></p>","null","","","","","","","","","","","","","","","","","","","","","","","",""
"","do_recog","264","682687","0.0-140.0-0.0","""event"",""trial"",""time""
""fullscreenenter"",""0"",""3869""
","
","
","""event"",""trial"",""time""
""fullscreenenter"",""0"",""3869""
","
","1445.699999988079","","","","","","","","53","","","","351","probe-44","","","","","1","[object Object]","111","2","1","","","",""
"","html-keyboard-response","265","683690","0.0-140.0-1.0","""event"",""trial"",""time""
""fullscreenenter"",""0"",""3869""
","
","
","""event"",""trial"",""time""
""fullscreenenter"",""0"",""3869""
","
","null","<p></p>","null","","","","","","","","","","","","","","","","","","","","","","","",""
"","do_trial","266","686647","0.0-141.0-0.0","""event"",""trial"",""time""
""fullscreenenter"",""0"",""3869""
","
","
","""event"",""trial"",""time""
""fullscreenenter"",""0"",""3869""
","
","413","","","","","","","","51","1,0,0","6","blank","352","null","0.13551944691622567","0.22710960849037054","0.3155151386374057","0","","","","","","","","",""
"","html-keyboard-response","267","687650","0.0-141.0-1.0","""event"",""trial"",""time""
""fullscreenenter"",""0"",""3869""
","
","
","""event"",""trial"",""time""
""fullscreenenter"",""0"",""3869""
","
","null","<p></p>","null","","","","","","","","","","","","","","","","","","","","","","","",""
"","do_recog","268","689922","0.0-142.0-0.0","""event"",""trial"",""time""
""fullscreenenter"",""0"",""3869""
","
","
","""event"",""trial"",""time""
""fullscreenenter"",""0"",""3869""
","
","767.3999999910593","","","","","","","","56","","","","353","probe-94","","","","","1","[object Object]","113","2","0","","","",""
"","html-keyboard-response","269","690925","0.0-142.0-1.0","""event"",""trial"",""time""
""fullscreenenter"",""0"",""3869""
","
","
","""event"",""trial"",""time""
""fullscreenenter"",""0"",""3869""
","
","null","<p></p>","null","","","","","","","","","","","","","","","","","","","","","","","",""
"","do_trial","270","694156","0.0-143.0-0.0","""event"",""trial"",""time""
""fullscreenenter"",""0"",""3869""
","
","
","""event"",""trial"",""time""
""fullscreenenter"",""0"",""3869""
","
","691.2000000029802","","","","","","","","51","0,0,0","6","blank","354","null","0.26951192374016764","0.2620724559279138","0.22954020650793375","0","","","","","","","","",""
"","html-keyboard-response","271","695159","0.0-143.0-1.0","""event"",""trial"",""time""
""fullscreenenter"",""0"",""3869""
","
","
","""event"",""trial"",""time""
""fullscreenenter"",""0"",""3869""
","
","null","<p></p>","null","","","","","","","","","","","","","","","","","","","","","","","",""
"","do_trial","272","698098","0.0-144.0-0.0","""event"",""trial"",""time""
""fullscreenenter"",""0"",""3869""
","
","
","""event"",""trial"",""time""
""fullscreenenter"",""0"",""3869""
","
","399.5","","","","","","","","51","1,0,0","6","blank","355","null","0.41169436290348776","0.11855351578827149","0.25131720176822747","0","","","","","","","","",""
"","html-keyboard-response","273","699101","0.0-144.0-1.0","""event"",""trial"",""time""
""fullscreenenter"",""0"",""3869""
","
","
","""event"",""trial"",""time""
""fullscreenenter"",""0"",""3869""
","
","null","<p></p>","null","","","","","","","","","","","","","","","","","","","","","","","",""
"","do_trial","274","702051","0.0-145.0-0.0","""event"",""trial"",""time""
""fullscreenenter"",""0"",""3869""
","
","
","""event"",""trial"",""time""
""fullscreenenter"",""0"",""3869""
","
","398.8999999910593","","","","","","","","49","0,0,0","6","blank","356","null","0.4781079593160953","0.15644998574489957","0.34423307547367643","0","","","","","","","","",""
"","html-keyboard-response","275","703055","0.0-145.0-1.0","""event"",""trial"",""time""
""fullscreenenter"",""0"",""3869""
","
","
","""event"",""trial"",""time""
""fullscreenenter"",""0"",""3869""
","
","null","<p></p>","null","","","","","","","","","","","","","","","","","","","","","","","",""
"","do_trial","276","705957","0.0-146.0-0.0","""event"",""trial"",""time""
""fullscreenenter"",""0"",""3869""
","
","
","""event"",""trial"",""time""
""fullscreenenter"",""0"",""3869""
","
","361.59999999403954","","","","","","","","49","1,0,1","6","blank","357","null","0.41813113605511604","0.1395739124206189","0.3894201922342697","1","","","","","","","","",""
"","html-keyboard-response","277","706961","0.0-146.0-1.0","""event"",""trial"",""time""
""fullscreenenter"",""0"",""3869""
","
","
","""event"",""trial"",""time""
""fullscreenenter"",""0"",""3869""
","
