success,trial_type,trial_index,time_elapsed,internal_node_id,rt,stimulus,subject_id,key_press,response,choice_outcomes,context_n,context_img_id,trial_n,probe_img_id,pR_red,pR_white,pR_black,outcome,is_valid,image_to_show,probed_trial,probed_context,correct,context_id
TRUE,fullscreen,0,6764,0.0-0.0,,,,,,,,,,,,,,,,,,,,
,pavlovia,1,6769,0.0-1.0,,,,,,,,,,,,,,,,,,,,
,html-keyboard-response,2,38337,0.0-2.0,31566.2,"<div class='center'><p>Like yesterday,as the head captain of the ship, you have one important things to do: </p><b><p> Pick the pirate who you think will be most successful at robbing the next ship.</p></b><p>This is important in determining how much bonus money you’ll win.</p><br><p>The game will start by showing you the pirates. First pick a pirate using the <b> 1, 2, 3 </b> buttons on your keyboard. </p><p> Press <b>'1'</b> to choose red beard, <b>'2'</b> to choose white beard, and <b>'3'</b> to choose black beard</p><p> You only have 3 seconds to pick a pirate, so please make a choice quickly! If you are too slow, you’ll have to wait a bit during the time out.</p><p> Don’t feel rushed, but please do try to make a choice every time.</p><p>How good a pirate is at robbing a ship will change depending on the place they are in and how good the defenses are of the ship.</p><p><b>[Press the space bar to begin the practice game]</b></p></div>",60fd6b02340bf3233276eba9,32,,,,,,,,,,,,,,,,
,html-keyboard-response,3,47526,0.0-3.0,9187.9,"<div class='center'><p>You’ve arrived at the final island of your journey! Unfortunately, it’s very foggy out, so you won’t be able to see it in the distance like the previous islands you've visited.</p><p>You’ll still be deciding which pirate you want to rob a ship like before. However, because of the fog, you also won’t be able to see the ship.</p><p>This means you do not have to remember the ships you rob on this island.</p><p><b>[Press the space bar to continue]</b></p></div>",,32,,,,,,,,,,,,,,,,
,html-keyboard-response,4,57164,0.0-4.0,9637.5,"<div class='center'><p> Sometimes you’ll be shown a ship, and you will be asked if you saw this ship on a past island.</p><p> Here is an example of what you will see.</p><p><b>[Press the space bar to continue]</b></p><p><img src='run_exp/static/images/tutorial/example_recog_trial.png' height='500'></p></div>",,32,,,,,,,,,,,,,,,,
,html-keyboard-response,5,59657,0.0-5.0,2492.3,"<div class='center'><p> You will press the 5, 6, 7, 8 buttons on your keyboard to respond.</p><p>If you are very sure saw the ship, press <b>5</b> on your keyboard.</p><p> If you think you  saw it before but are not sure, then press <b>6</b>.</p><p> If you think you have not seen it before but are not sure, then press <b>7</b>.</p><p> If you are sure you did not see the ship before, then press <b>8</b>.</p><p><b>[Press the space bar to continue]</b></p><p><img src='run_exp/static/images/tutorial/example_recog_trial.png' height='500'></p></div>",,32,,,,,,,,,,,,,,,,
,html-keyboard-response,6,62461,0.0-6.0,2802.1,"<div class='center'><p> If you remember correctly, then you’ll get a gold coin like this: </p><p><img src='run_exp/static/images/tutorial/reward_small.png' height='200'></p><p>If you do not remember correctly, then you'll see a red x like this: </p><p><img src='run_exp/static/images/tutorial/reward_no.png' height='200'></p><p>Importantly, when you are shown a ship, take the time to remind yourself which island you saw it on. This will help you in the next part of the study.</p><p><b>[Press the space bar to continue]</b></p></div>",,32,,,,,,,,,,,,,,,,
,html-keyboard-response,7,69312,0.0-7.0,6850.4,"<div class='center'><p>Let's go over the important points again. Your job is to: </p><p>1. Pick the pirate who is best at robbing ships and will bring you back gold coins. </p><p>2. Correctly remember whether or not you saw a ship before. If you did see the ship before, remind yourself on which island you saw the ship. </p><p><b>[Press the space bar to begin the next part of the study]</b></p></div>",,32,,,,,,,,,,,,,,,,
,do_welcome,8,70826,0.0-8.0,null,,,,null,,,,,,,,,,,,,,,
,do_trial,9,75456,0.0-9.0-0.0,2084,,,,51,"1,0,0",6,blank,230,null,0.612293043,0.094440006,0.294484642,0,,,,,,
,html-keyboard-response,10,76461,0.0-9.0-1.0,null,<p></p>,,null,,,,,,,,,,,,,,,,
,do_trial,11,79731,0.0-10.0-0.0,729.5,,,,49,"0,0,1",6,blank,231,null,0.532477796,0.100375083,0.155797124,0,,,,,,
,html-keyboard-response,12,80734,0.0-10.0-1.0,null,<p></p>,,null,,,,,,,,,,,,,,,,
,do_trial,13,83580,0.0-11.0-0.0,303.1,,,,50,"1,0,0",6,blank,232,null,0.547639928,0.126702441,0.066336063,0,,,,,,
,html-keyboard-response,14,84581,0.0-11.0-1.0,null,<p></p>,,null,,,,,,,,,,,,,,,,
,do_trial,15,87546,0.0-12.0-0.0,423.2,,,,49,"1,0,0",6,blank,233,null,0.50027711,0.11580915,0.05816518,1,,,,,,
,html-keyboard-response,16,88548,0.0-12.0-1.0,null,<p></p>,,null,,,,,,,,,,,,,,,,
,do_trial,17,91700,0.0-13.0-0.0,610.5,,,,49,"1,0,0",6,blank,234,null,0.475771215,0.258830969,0.076051156,1,,,,,,
,html-keyboard-response,18,92701,0.0-13.0-1.0,null,<p></p>,,null,,,,,,,,,,,,,,,,
,do_trial,19,95514,0.0-14.0-0.0,270.1,,,,49,"1,0,0",6,blank,235,null,0.483951217,0.206848425,0.120105052,1,,,,,,
,html-keyboard-response,20,96517,0.0-14.0-1.0,null,<p></p>,,null,,,,,,,,,,,,,,,,
,do_trial,21,99337,0.0-15.0-0.0,276.9,,,,49,"1,0,1",6,blank,236,null,0.437029646,0.165662113,0.175581447,1,,,,,,
,html-keyboard-response,22,100339,0.0-15.0-1.0,null,<p></p>,,null,,,,,,,,,,,,,,,,
,do_trial,23,103241,0.0-16.0-0.0,364.3,,,,49,"0,0,1",6,blank,237,null,0.452433064,0.070489311,0.205126934,0,,,,,,
,html-keyboard-response,24,104244,0.0-16.0-1.0,null,<p></p>,,null,,,,,,,,,,,,,,,,
,do_trial,25,107255,0.0-17.0-0.0,467.5,,,,49,"1,0,1",6,blank,238,null,0.52435039,0.087324454,0.323209362,1,,,,,,
,html-keyboard-response,26,108259,0.0-17.0-1.0,null,<p></p>,,null,,,,,,,,,,,,,,,,
,do_trial,27,110874,0.0-18.0-0.0,72.70000002,,,,49,"1,0,0",6,blank,239,null,0.596625468,0.167201013,0.140633015,1,,,,,,
,html-keyboard-response,28,111878,0.0-18.0-1.0,null,<p></p>,,null,,,,,,,,,,,,,,,,
,do_trial,29,114730,0.0-19.0-0.0,312.1,,,,49,"0,0,0",6,blank,240,null,0.556616406,0.190246798,0.183572644,0,,,,,,
,html-keyboard-response,30,115735,0.0-19.0-1.0,null,<p></p>,,null,,,,,,,,,,,,,,,,
,do_trial,31,118380,0.0-20.0-0.0,101.9,,,,49,"0,0,0",6,blank,241,null,0.495293027,0.099018481,0.165422148,0,,,,,,
,html-keyboard-response,32,119384,0.0-20.0-1.0,null,<p></p>,,null,,,,,,,,,,,,,,,,
,do_recog,33,125394,0.0-21.0-0.0,null,,,,null,,,,242,probe-83,,,,,1,[object Object],203,5,0,
,html-keyboard-response,34,126398,0.0-21.0-1.0,null,<p></p>,,null,,,,,,,,,,,,,,,,
,do_trial,35,130072,0.0-22.0-0.0,1131,,,,51,"1,0,0",6,blank,243,null,0.520457515,0.328011337,0.18572064,0,,,,,,
,html-keyboard-response,36,131076,0.0-22.0-1.0,null,<p></p>,,null,,,,,,,,,,,,,,,,
,do_trial,37,134097,0.0-23.0-0.0,479.9,,,,49,"0,1,0",6,blank,244,null,0.556565478,0.523021685,0.096679188,0,,,,,,
,html-keyboard-response,38,135102,0.0-23.0-1.0,null,<p></p>,,null,,,,,,,,,,,,,,,,
,do_trial,39,138105,0.0-24.0-0.0,465.5,,,,49,"0,1,0",6,blank,245,null,0.441812231,0.560590836,0.228689194,0,,,,,,
,html-keyboard-response,40,139110,0.0-24.0-1.0,null,<p></p>,,null,,,,,,,,,,,,,,,,
,do_recog,41,142041,0.0-25.0-0.0,1419.3,,,,55,,,,246,probe-95,,,,,1,[object Object],43,1,0,
,html-keyboard-response,42,143044,0.0-25.0-1.0,null,<p></p>,,null,,,,,,,,,,,,,,,,
,do_trial,43,146188,0.0-26.0-0.0,602.6,,,,51,"1,0,0",6,blank,247,null,0.403707335,0.544607417,0.228135806,0,,,,,,
,html-keyboard-response,44,147192,0.0-26.0-1.0,null,<p></p>,,null,,,,,,,,,,,,,,,,
,do_trial,45,150065,0.0-27.0-0.0,332.8,,,,51,"1,1,0",6,blank,248,null,0.5197441,0.578168691,0.142550024,0,,,,,,
,html-keyboard-response,46,151066,0.0-27.0-1.0,null,<p></p>,,null,,,,,,,,,,,,,,,,
,do_recog,47,154976,0.0-28.0-0.0,2402,,,,54,,,,249,probe-185,,,,,1,[object Object],42,1,1,
,html-keyboard-response,48,155982,0.0-28.0-1.0,null,<p></p>,,null,,,,,,,,,,,,,,,,
,do_trial,49,160318,0.0-29.0-0.0,1795.7,,,,49,"1,1,0",6,blank,250,null,0.574541162,0.642215704,0.096341512,1,,,,,,
,html-keyboard-response,50,161322,0.0-29.0-1.0,null,<p></p>,,null,,,,,,,,,,,,,,,,
,do_recog,51,164784,0.0-30.0-0.0,1955.3,,,,56,,,,251,probe-102,,,,,1,[object Object],169,4,0,
,html-keyboard-response,52,165786,0.0-30.0-1.0,null,<p></p>,,null,,,,,,,,,,,,,,,,
,do_trial,53,169220,0.0-31.0-0.0,890.5,,,,49,"0,0,0",6,blank,252,null,0.497968563,0.668420291,0.079491651,0,,,,,,
,html-keyboard-response,54,170224,0.0-31.0-1.0,null,<p></p>,,null,,,,,,,,,,,,,,,,
,do_recog,55,174048,0.0-32.0-0.0,2313.7,,,,54,,,,253,probe-206,,,,,1,[object Object],41,1,1,
,html-keyboard-response,56,175051,0.0-32.0-1.0,null,<p></p>,,null,,,,,,,,,,,,,,,,
,do_trial,57,178049,0.0-33.0-0.0,455,,,,49,"1,0,0",6,blank,254,null,0.378909756,0.618470801,0.132749856,1,,,,,,
,html-keyboard-response,58,179050,0.0-33.0-1.0,null,<p></p>,,null,,,,,,,,,,,,,,,,
,do_trial,59,182069,0.0-34.0-0.0,477.9,,,,49,"0,1,0",6,blank,255,null,0.331766259,0.649610636,0.061614838,0,,,,,,
,html-keyboard-response,60,183075,0.0-34.0-1.0,null,<p></p>,,null,,,,,,,,,,,,,,,,
,do_recog,61,186350,0.0-35.0-0.0,1766.3,,,,55,,,,256,probe-89,,,,,1,[object Object],84,2,0,
,html-keyboard-response,62,187352,0.0-35.0-1.0,null,<p></p>,,null,,,,,,,,,,,,,,,,
,do_trial,63,190400,0.0-36.0-0.0,510.1,,,,49,"0,0,1",6,blank,257,null,0.31157214,0.61770093,0.124830777,0,,,,,,
,html-keyboard-response,64,191405,0.0-36.0-1.0,null,<p></p>,,null,,,,,,,,,,,,,,,,
,do_trial,65,194296,0.0-37.0-0.0,350.7,,,,51,"1,1,0",6,blank,258,null,0.349134715,0.633614449,0.083809099,0,,,,,,
,html-keyboard-response,66,195300,0.0-37.0-1.0,null,<p></p>,,null,,,,,,,,,,,,,,,,
,do_trial,67,198275,0.0-38.0-0.0,435.2,,,,50,"1,0,0",6,blank,259,null,0.388952991,0.511349502,0.142822076,0,,,,,,
,html-keyboard-response,68,199279,0.0-38.0-1.0,null,<p></p>,,null,,,,,,,,,,,,,,,,
,do_trial,69,202303,0.0-39.0-0.0,483,,,,50,"1,1,0",6,blank,260,null,0.606868802,0.530137884,0.224013924,1,,,,,,
,html-keyboard-response,70,203308,0.0-39.0-1.0,null,<p></p>,,null,,,,,,,,,,,,,,,,
,do_trial,71,206270,0.0-40.0-0.0,418.6,,,,50,"1,1,0",6,blank,261,null,0.513326833,0.672472957,0.228253012,1,,,,,,
,html-keyboard-response,72,207274,0.0-40.0-1.0,null,<p></p>,,null,,,,,,,,,,,,,,,,
,do_recog,73,210163,0.0-41.0-0.0,1378.7,,,,55,,,,262,probe-125,,,,,1,[object Object],166,4,0,
,html-keyboard-response,74,211165,0.0-41.0-1.0,null,<p></p>,,null,,,,,,,,,,,,,,,,
,do_trial,75,215185,0.0-42.0-0.0,1474.3,,,,50,"1,0,0",6,blank,263,null,0.36057322,0.578711407,0.133981001,0,,,,,,
,html-keyboard-response,76,216191,0.0-42.0-1.0,null,<p></p>,,null,,,,,,,,,,,,,,,,
,do_recog,77,219350,0.0-43.0-0.0,1648.4,,,,55,,,,264,probe-219,,,,,1,[object Object],120,3,0,
,html-keyboard-response,78,220351,0.0-43.0-1.0,null,<p></p>,,null,,,,,,,,,,,,,,,,
,do_trial,79,223581,0.0-44.0-0.0,685.8,,,,50,"0,1,1",6,blank,265,null,0.315415419,0.500717068,0.184962257,1,,,,,,
,html-keyboard-response,80,224584,0.0-44.0-1.0,null,<p></p>,,null,,,,,,,,,,,,,,,,
,do_recog,81,227647,0.0-45.0-0.0,1554.4,,,,56,,,,266,probe-228,,,,,1,[object Object],206,5,0,
,html-keyboard-response,82,228652,0.0-45.0-1.0,null,<p></p>,,null,,,,,,,,,,,,,,,,
,do_trial,83,231530,0.0-46.0-0.0,335.4,,,,50,"0,0,0",6,blank,267,null,0.274255689,0.617671835,0.219453226,0,,,,,,
,html-keyboard-response,84,232531,0.0-46.0-1.0,null,<p></p>,,null,,,,,,,,,,,,,,,,
,do_trial,85,236036,0.0-47.0-0.0,965.1,,,,49,"0,0,0",6,blank,268,null,0.223417527,0.688970179,0.082715727,0,,,,,,
,html-keyboard-response,86,237040,0.0-47.0-1.0,null,<p></p>,,null,,,,,,,,,,,,,,,,
,do_trial,87,240051,0.0-48.0-0.0,470.7,,,,51,"1,1,0",6,blank,269,null,0.305718949,0.574516251,0.103419636,0,,,,,,
,html-keyboard-response,88,241055,0.0-48.0-1.0,null,<p></p>,,null,,,,,,,,,,,,,,,,
,do_trial,89,244072,0.0-49.0-0.0,477.7,,,,51,"1,0,0",6,blank,270,null,0.346498666,0.597041224,0.163032777,0,,,,,,
,html-keyboard-response,90,245076,0.0-49.0-1.0,null,<p></p>,,null,,,,,,,,,,,,,,,,
,do_trial,91,248267,0.0-50.0-0.0,647.8,,,,50,"1,1,1",6,blank,271,null,0.198093338,0.676755632,0.226578009,1,,,,,,
,html-keyboard-response,92,249271,0.0-50.0-1.0,null,<p></p>,,null,,,,,,,,,,,,,,,,
,do_trial,93,252293,0.0-51.0-0.0,480.7,,,,50,"0,0,0",6,blank,272,null,0.192006608,0.546684393,0.348781421,0,,,,,,
,html-keyboard-response,94,253297,0.0-51.0-1.0,null,<p></p>,,null,,,,,,,,,,,,,,,,
,do_trial,95,256347,0.0-52.0-0.0,510.1,,,,50,"0,1,0",6,blank,273,null,0.29077821,0.60757414,0.325897157,1,,,,,,
,html-keyboard-response,96,257351,0.0-52.0-1.0,null,<p></p>,,null,,,,,,,,,,,,,,,,
,do_recog,97,260319,0.0-53.0-0.0,1461.6,,,,53,,,,274,probe-155,,,,,1,[object Object],46,1,1,
,html-keyboard-response,98,261321,0.0-53.0-1.0,null,<p></p>,,null,,,,,,,,,,,,,,,,
,do_trial,99,264532,0.0-54.0-0.0,671.5,,,,50,"1,1,0",6,blank,275,null,0.258131368,0.703427148,0.147524398,1,,,,,,
,html-keyboard-response,100,265534,0.0-54.0-1.0,null,<p></p>,,null,,,,,,,,,,,,,,,,
,do_trial,101,268581,0.0-55.0-0.0,500.5,,,,50,"0,1,0",6,blank,276,null,0.197209192,0.563883876,0.181286702,1,,,,,,
,html-keyboard-response,102,269585,0.0-55.0-1.0,null,<p></p>,,null,,,,,,,,,,,,,,,,
,do_trial,103,272544,0.0-56.0-0.0,415,,,,50,"0,0,0",6,blank,277,null,0.226710535,0.600722891,0.140880566,0,,,,,,
,html-keyboard-response,104,273545,0.0-56.0-1.0,null,<p></p>,,null,,,,,,,,,,,,,,,,
,do_trial,105,276545,0.0-57.0-0.0,457.2,,,,50,"0,1,1",6,blank,278,null,0.274293034,0.577261282,0.162436849,1,,,,,,
,html-keyboard-response,106,277551,0.0-57.0-1.0,null,<p></p>,,null,,,,,,,,,,,,,,,,
,do_recog,107,280481,0.0-58.0-0.0,1419.2,,,,53,,,,279,probe-195,,,,,1,[object Object],207,5,1,
,html-keyboard-response,108,281486,0.0-58.0-1.0,null,<p></p>,,null,,,,,,,,,,,,,,,,
,do_trial,109,284406,0.0-59.0-0.0,376.6,,,,50,"1,1,1",6,blank,280,null,0.226916675,0.532864149,0.129639896,1,,,,,,
,html-keyboard-response,110,285410,0.0-59.0-1.0,null,<p></p>,,null,,,,,,,,,,,,,,,,
,do_recog,111,288441,0.0-60.0-0.0,1521,,,,56,,,,281,probe-193,,,,,1,[object Object],161,4,0,
,html-keyboard-response,112,289442,0.0-60.0-1.0,null,<p></p>,,null,,,,,,,,,,,,,,,,
,do_trial,113,292561,0.0-61.0-0.0,577.9,,,,50,"0,0,0",6,blank,282,null,0.239509626,0.655942328,0.067400668,0,,,,,,
,html-keyboard-response,114,293567,0.0-61.0-1.0,null,<p></p>,,null,,,,,,,,,,,,,,,,
,do_recog,115,296977,0.0-62.0-0.0,1899.4,,,,54,,,,283,probe-151,,,,,1,[object Object],45,1,1,
,html-keyboard-response,116,297983,0.0-62.0-1.0,null,<p></p>,,null,,,,,,,,,,,,,,,,
,do_trial,117,300818,0.0-63.0-0.0,294.7,,,,50,"0,0,1",6,blank,284,null,0.087196319,0.619195998,0.105821733,0,,,,,,
,html-keyboard-response,118,301822,0.0-63.0-1.0,null,<p></p>,,null,,,,,,,,,,,,,,,,
,do_trial,119,304428,0.0-64.0-0.0,67,,,,51,"0,1,0",6,blank,285,null,0.274292067,0.605028538,0.057311069,0,,,,,,
,html-keyboard-response,120,305432,0.0-64.0-1.0,null,<p></p>,,null,,,,,,,,,,,,,,,,
,do_trial,121,308366,0.0-65.0-0.0,392.2,,,,51,"0,1,0",6,blank,286,null,0.307260309,0.656244489,0.0979243,0,,,,,,
,html-keyboard-response,122,309370,0.0-65.0-1.0,null,<p></p>,,null,,,,,,,,,,,,,,,,
,do_recog,123,312393,0.0-66.0-0.0,1514.4,,,,53,,,,287,probe-166,,,,,1,[object Object],121,3,1,
,html-keyboard-response,124,313396,0.0-66.0-1.0,null,<p></p>,,null,,,,,,,,,,,,,,,,
,do_trial,125,316319,0.0-67.0-0.0,382.3,,,,49,"0,0,0",6,blank,288,null,0.275408367,0.721952228,0.201184966,0,,,,,,
,html-keyboard-response,126,317321,0.0-67.0-1.0,null,<p></p>,,null,,,,,,,,,,,,,,,,
,do_recog,127,319952,0.0-68.0-0.0,1121,,,,53,,,,289,probe-121,,,,,1,[object Object],205,5,1,
,html-keyboard-response,128,320958,0.0-68.0-1.0,null,<p></p>,,null,,,,,,,,,,,,,,,,
,do_trial,129,323996,0.0-69.0-0.0,494.6,,,,50,"1,1,0",6,blank,290,null,0.214922377,0.817229141,0.155544783,1,,,,,,
,html-keyboard-response,130,325002,0.0-69.0-1.0,null,<p></p>,,null,,,,,,,,,,,,,,,,
,do_trial,131,327803,0.0-70.0-0.0,259.4,,,,50,"0,1,1",6,blank,291,null,0.224990802,0.733675054,0.249994526,1,,,,,,
,html-keyboard-response,132,328807,0.0-70.0-1.0,null,<p></p>,,null,,,,,,,,,,,,,,,,
,do_trial,133,331816,0.0-71.0-0.0,466.9,,,,50,"0,1,1",6,blank,292,null,0.340662251,0.65738833,0.22562229,1,,,,,,
,html-keyboard-response,134,332819,0.0-71.0-1.0,null,<p></p>,,null,,,,,,,,,,,,,,,,
,do_trial,135,335774,0.0-72.0-0.0,416.7,,,,50,"0,1,1",6,blank,293,null,0.373478084,0.689816713,0.265232138,1,,,,,,
,html-keyboard-response,136,336780,0.0-72.0-1.0,null,<p></p>,,null,,,,,,,,,,,,,,,,
,do_trial,137,339709,0.0-73.0-0.0,385.6,,,,50,"0,1,0",6,blank,294,null,0.396910239,0.622035772,0.185122222,1,,,,,,
,html-keyboard-response,138,340715,0.0-73.0-1.0,null,<p></p>,,null,,,,,,,,,,,,,,,,
,do_trial,139,343690,0.0-74.0-0.0,432.5,,,,50,"1,1,0",6,blank,295,null,0.481367368,0.562892067,0.090540283,1,,,,,,
,html-keyboard-response,140,344695,0.0-74.0-1.0,null,<p></p>,,null,,,,,,,,,,,,,,,,
,do_recog,141,347144,0.0-75.0-0.0,939.9,,,,53,,,,296,probe-101,,,,,1,[object Object],123,3,1,
,html-keyboard-response,142,348147,0.0-75.0-1.0,null,<p></p>,,null,,,,,,,,,,,,,,,,
,do_trial,143,351289,0.0-76.0-0.0,599.9,,,,50,"0,0,0",6,blank,297,null,0.462989175,0.485806088,0.115435903,0,,,,,,
,html-keyboard-response,144,352293,0.0-76.0-1.0,null,<p></p>,,null,,,,,,,,,,,,,,,,
,do_recog,145,355697,0.0-77.0-0.0,1893.1,,,,53,,,,298,probe-90,,,,,1,[object Object],49,1,1,
,html-keyboard-response,146,356701,0.0-77.0-1.0,null,<p></p>,,null,,,,,,,,,,,,,,,,
,do_trial,147,359767,0.0-78.0-0.0,527,,,,50,"0,0,0",6,blank,299,null,0.401430035,0.369297867,0.189144842,0,,,,,,
,html-keyboard-response,148,360771,0.0-78.0-1.0,null,<p></p>,,null,,,,,,,,,,,,,,,,
,do_trial,149,363678,0.0-79.0-0.0,363.8,,,,50,"1,1,0",6,blank,300,null,0.450002944,0.284481359,0.117395164,1,,,,,,
,html-keyboard-response,150,364680,0.0-79.0-1.0,null,<p></p>,,null,,,,,,,,,,,,,,,,
,do_trial,151,367790,0.0-80.0-0.0,570.9,,,,50,"0,0,0",6,blank,301,null,0.401487883,0.178693314,0.094826139,0,,,,,,
,html-keyboard-response,152,368794,0.0-80.0-1.0,null,<p></p>,,null,,,,,,,,,,,,,,,,
,do_recog,153,371564,0.0-81.0-0.0,1260.8,,,,53,,,,302,probe-13,,,,,1,[object Object],209,5,1,
,html-keyboard-response,154,372568,0.0-81.0-1.0,null,<p></p>,,null,,,,,,,,,,,,,,,,
,do_trial,155,375594,0.0-82.0-0.0,487.4,,,,50,"1,0,0",6,blank,303,null,0.470456786,0.132285945,0.066335247,0,,,,,,
,html-keyboard-response,156,376599,0.0-82.0-1.0,null,<p></p>,,null,,,,,,,,,,,,,,,,
,do_recog,157,380149,0.0-83.0-0.0,2038.7,,,,53,,,,304,probe-54,,,,,1,[object Object],164,4,1,
,html-keyboard-response,158,381154,0.0-83.0-1.0,null,<p></p>,,null,,,,,,,,,,,,,,,,
,do_trial,159,384184,0.0-84.0-0.0,488.9,,,,50,"1,0,0",6,blank,305,null,0.578782442,0.217184601,0.174610531,0,,,,,,
,html-keyboard-response,160,385187,0.0-84.0-1.0,null,<p></p>,,null,,,,,,,,,,,,,,,,
,do_recog,161,387856,0.0-85.0-0.0,1157.7,,,,53,,,,306,probe-53,,,,,1,[object Object],83,2,1,
,html-keyboard-response,162,388857,0.0-85.0-1.0,null,<p></p>,,null,,,,,,,,,,,,,,,,
,do_trial,163,391876,0.0-86.0-0.0,480.6,,,,49,"1,1,0",6,blank,307,null,0.568467813,0.22260734,0.185831032,1,,,,,,
,html-keyboard-response,164,392880,0.0-86.0-1.0,null,<p></p>,,null,,,,,,,,,,,,,,,,
,do_trial,165,395882,0.0-87.0-0.0,462,,,,49,"0,0,0",6,blank,308,null,0.563226094,0.20320909,0.217550412,0,,,,,,
,html-keyboard-response,166,396886,0.0-87.0-1.0,null,<p></p>,,null,,,,,,,,,,,,,,,,
,do_trial,167,399952,0.0-88.0-0.0,525.1,,,,49,"1,0,0",6,blank,309,null,0.581101579,0.180271284,0.306982386,1,,,,,,
,html-keyboard-response,168,400956,0.0-88.0-1.0,null,<p></p>,,null,,,,,,,,,,,,,,,,
,do_recog,169,403317,0.0-89.0-0.0,852.4,,,,53,,,,310,probe-14,,,,,1,[object Object],201,5,1,
,html-keyboard-response,170,404321,0.0-89.0-1.0,null,<p></p>,,null,,,,,,,,,,,,,,,,
,do_trial,171,408532,0.0-90.0-0.0,1667.3,,,,49,"0,1,0",6,blank,311,null,0.668886692,0.23487029,0.248486629,0,,,,,,
,html-keyboard-response,172,409536,0.0-90.0-1.0,null,<p></p>,,null,,,,,,,,,,,,,,,,
,do_trial,173,412581,0.0-91.0-0.0,506,,,,49,"0,0,1",6,blank,312,null,0.71153097,0.221851607,0.096470327,0,,,,,,
,html-keyboard-response,174,413586,0.0-91.0-1.0,null,<p></p>,,null,,,,,,,,,,,,,,,,
,do_trial,175,416535,0.0-92.0-0.0,405,,,,51,"1,0,0",6,blank,313,null,0.708929864,0.07879904,0.083453208,0,,,,,,
,html-keyboard-response,176,417539,0.0-92.0-1.0,null,<p></p>,,null,,,,,,,,,,,,,,,,
,do_recog,177,420077,0.0-93.0-0.0,1031.3,,,,53,,,,314,probe-43,,,,,1,[object Object],80,2,1,
,html-keyboard-response,178,421083,0.0-93.0-1.0,null,<p></p>,,null,,,,,,,,,,,,,,,,
,do_trial,179,424410,0.0-94.0-0.0,783.7,,,,50,"0,0,0",6,blank,315,null,0.651127176,0.084275063,0.143069961,0,,,,,,
,html-keyboard-response,180,425414,0.0-94.0-1.0,null,<p></p>,,null,,,,,,,,,,,,,,,,
,do_trial,181,428459,0.0-95.0-0.0,505.5,,,,51,"1,0,0",6,blank,316,null,0.60279325,0.143845991,0.139957023,0,,,,,,
,html-keyboard-response,182,429460,0.0-95.0-1.0,null,<p></p>,,null,,,,,,,,,,,,,,,,
,do_trial,183,432282,0.0-96.0-0.0,279.1,,,,49,"0,0,0",6,blank,317,null,0.63719164,0.142512681,0.215812669,0,,,,,,
,html-keyboard-response,184,433286,0.0-96.0-1.0,null,<p></p>,,null,,,,,,,,,,,,,,,,
,do_trial,185,436281,0.0-97.0-0.0,452.2,,,,49,"0,0,1",6,blank,318,null,0.646856958,0.115839667,0.241185113,0,,,,,,
,html-keyboard-response,186,437285,0.0-97.0-1.0,null,<p></p>,,null,,,,,,,,,,,,,,,,
,do_recog,187,440034,0.0-98.0-0.0,1238.3,,,,53,,,,319,probe-170,,,,,1,[object Object],208,5,1,
,html-keyboard-response,188,441041,0.0-98.0-1.0,null,<p></p>,,null,,,,,,,,,,,,,,,,
,do_trial,189,444137,0.0-99.0-0.0,554.8,,,,49,"1,0,0",6,blank,320,null,0.713854751,0.109053186,0.086591713,1,,,,,,
,html-keyboard-response,190,445141,0.0-99.0-1.0,null,<p></p>,,null,,,,,,,,,,,,,,,,
,do_trial,191,448114,0.0-100.0-0.0,431.8,,,,49,"1,0,0",6,blank,321,null,0.830624693,0.12072988,0.139032439,1,,,,,,
,html-keyboard-response,192,449119,0.0-100.0-1.0,null,<p></p>,,null,,,,,,,,,,,,,,,,
,do_trial,193,452079,0.0-101.0-0.0,420.8,,,,49,"1,0,0",6,blank,322,null,0.847167179,0.107444452,0.178040261,1,,,,,,
,html-keyboard-response,194,453086,0.0-101.0-1.0,null,<p></p>,,null,,,,,,,,,,,,,,,,
,do_trial,195,456064,0.0-102.0-0.0,437,,,,49,"1,0,0",6,blank,323,null,0.769005144,0.062086236,0.093871923,1,,,,,,
,html-keyboard-response,196,457068,0.0-102.0-1.0,null,<p></p>,,null,,,,,,,,,,,,,,,,
,do_trial,197,459692,0.0-103.0-0.0,80.20000002,,,,49,"0,0,0",6,blank,324,null,0.721636206,0.052569229,0.126992879,0,,,,,,
,html-keyboard-response,198,460694,0.0-103.0-1.0,null,<p></p>,,null,,,,,,,,,,,,,,,,
,do_trial,199,463747,0.0-104.0-0.0,512.6,,,,49,"1,1,0",6,blank,325,null,0.751041325,0.166296723,0.203117139,1,,,,,,
,html-keyboard-response,200,464749,0.0-104.0-1.0,null,<p></p>,,null,,,,,,,,,,,,,,,,
,do_recog,201,467031,0.0-105.0-0.0,773.5,,,,53,,,,326,probe-33,,,,,1,[object Object],124,3,1,
,html-keyboard-response,202,468033,0.0-105.0-1.0,null,<p></p>,,null,,,,,,,,,,,,,,,,
,do_trial,203,471111,0.0-106.0-0.0,536.7,,,,49,"1,0,0",6,blank,327,null,0.607246156,0.258515119,0.119275154,1,,,,,,
,html-keyboard-response,204,472115,0.0-106.0-1.0,null,<p></p>,,null,,,,,,,,,,,,,,,,
,do_recog,205,474745,0.0-107.0-0.0,1125.2,,,,53,,,,328,probe-30,,,,,1,[object Object],162,4,1,
,html-keyboard-response,206,475748,0.0-107.0-1.0,null,<p></p>,,null,,,,,,,,,,,,,,,,
,do_trial,207,479349,0.0-108.0-0.0,1059.3,,,,49,"1,1,0",6,blank,329,null,0.658583612,0.290556387,0.287623074,1,,,,,,
,html-keyboard-response,208,480352,0.0-108.0-1.0,null,<p></p>,,null,,,,,,,,,,,,,,,,
,do_recog,209,483065,0.0-109.0-0.0,1203.6,,,,53,,,,330,probe-223,,,,,1,[object Object],44,1,1,
,html-keyboard-response,210,484069,0.0-109.0-1.0,null,<p></p>,,null,,,,,,,,,,,,,,,,
,do_trial,211,487666,0.0-110.0-0.0,1053.9,,,,49,"0,0,0",6,blank,331,null,0.55673977,0.305180446,0.227471724,0,,,,,,
,html-keyboard-response,212,488669,0.0-110.0-1.0,null,<p></p>,,null,,,,,,,,,,,,,,,,
,do_trial,213,492248,0.0-111.0-0.0,1037.2,,,,49,"0,1,0",6,blank,332,null,0.527013554,0.414203553,0.05606506,0,,,,,,
,html-keyboard-response,214,493252,0.0-111.0-1.0,null,<p></p>,,null,,,,,,,,,,,,,,,,
,do_trial,215,496764,0.0-112.0-0.0,970.7,,,,49,"0,0,0",6,blank,333,null,0.55764588,0.383482741,0.08983053,0,,,,,,
,html-keyboard-response,216,497769,0.0-112.0-1.0,null,<p></p>,,null,,,,,,,,,,,,,,,,
,do_trial,217,501051,0.0-113.0-0.0,743.6,,,,50,"1,0,0",6,blank,334,null,0.547574854,0.282492477,0.170090553,0,,,,,,
,html-keyboard-response,218,502054,0.0-113.0-1.0,null,<p></p>,,null,,,,,,,,,,,,,,,,
,do_trial,219,505707,0.0-114.0-0.0,1116,,,,50,"1,1,0",6,blank,335,null,0.56415737,0.130548795,0.107385919,1,,,,,,
,html-keyboard-response,220,506709,0.0-114.0-1.0,null,<p></p>,,null,,,,,,,,,,,,,,,,
,do_trial,221,509797,0.0-115.0-0.0,545.8,,,,50,"1,0,0",6,blank,336,null,0.595806588,0.09614359,0.177024729,0,,,,,,
,html-keyboard-response,222,510798,0.0-115.0-1.0,null,<p></p>,,null,,,,,,,,,,,,,,,,
,do_trial,223,514232,0.0-116.0-0.0,888.2,,,,50,"0,0,0",6,blank,337,null,0.625551143,0.265414603,0.103087921,0,,,,,,
,html-keyboard-response,224,515234,0.0-116.0-1.0,null,<p></p>,,null,,,,,,,,,,,,,,,,
,do_recog,225,518112,0.0-117.0-0.0,1372.1,,,,53,,,,338,probe-23,,,,,1,[object Object],202,5,1,
,html-keyboard-response,226,519118,0.0-117.0-1.0,null,<p></p>,,null,,,,,,,,,,,,,,,,
,do_trial,227,522097,0.0-118.0-0.0,439.4,,,,51,"1,1,0",6,blank,339,null,0.636402706,0.336608924,0.098377671,0,,,,,,
,html-keyboard-response,228,523101,0.0-118.0-1.0,null,<p></p>,,null,,,,,,,,,,,,,,,,
,do_trial,229,526191,0.0-119.0-0.0,549.8,,,,51,"1,0,0",6,blank,340,null,0.52121326,0.224480847,0.146406674,0,,,,,,
,html-keyboard-response,230,527195,0.0-119.0-1.0,null,<p></p>,,null,,,,,,,,,,,,,,,,
,do_trial,231,530215,0.0-120.0-0.0,481.7,,,,49,"1,1,1",6,blank,341,null,0.361904559,0.185144871,0.277135483,1,,,,,,
,html-keyboard-response,232,531221,0.0-120.0-1.0,null,<p></p>,,null,,,,,,,,,,,,,,,,
,do_recog,233,533568,0.0-121.0-0.0,838.2,,,,53,,,,342,probe-91,,,,,1,[object Object],85,2,1,
,html-keyboard-response,234,534574,0.0-121.0-1.0,null,<p></p>,,null,,,,,,,,,,,,,,,,
,do_trial,235,537515,0.0-122.0-0.0,397.6,,,,49,"0,1,1",6,blank,343,null,0.486246036,0.30655495,0.286994942,0,,,,,,
,html-keyboard-response,236,538519,0.0-122.0-1.0,null,<p></p>,,null,,,,,,,,,,,,,,,,
,do_trial,237,541593,0.0-123.0-0.0,534.5,,,,49,"0,1,0",6,blank,344,null,0.458778572,0.300141551,0.167017591,0,,,,,,
,html-keyboard-response,238,542595,0.0-123.0-1.0,null,<p></p>,,null,,,,,,,,,,,,,,,,
,do_trial,239,545578,0.0-124.0-0.0,440.3,,,,49,"0,1,0",6,blank,345,null,0.489612892,0.229204932,0.165799523,0,,,,,,
,html-keyboard-response,240,546582,0.0-124.0-1.0,null,<p></p>,,null,,,,,,,,,,,,,,,,
,do_trial,241,549595,0.0-125.0-0.0,473.1,,,,50,"0,0,0",6,blank,346,null,0.486275007,0.293156906,0.057866922,0,,,,,,
,html-keyboard-response,242,550599,0.0-125.0-1.0,null,<p></p>,,null,,,,,,,,,,,,,,,,
,do_trial,243,553810,0.0-126.0-0.0,669.5,,,,50,"0,0,0",6,blank,347,null,0.648166264,0.26604838,0.197658806,0,,,,,,
,html-keyboard-response,244,554813,0.0-126.0-1.0,null,<p></p>,,null,,,,,,,,,,,,,,,,
,do_recog,245,557415,0.0-127.0-0.0,1093.4,,,,53,,,,348,probe-28,,,,,1,[object Object],87,2,1,
,html-keyboard-response,246,558420,0.0-127.0-1.0,null,<p></p>,,null,,,,,,,,,,,,,,,,
,do_trial,247,561568,0.0-128.0-0.0,605,,,,49,"1,0,0",6,blank,349,null,0.801290631,0.408402139,0.326454509,1,,,,,,
,html-keyboard-response,248,562572,0.0-128.0-1.0,null,<p></p>,,null,,,,,,,,,,,,,,,,
,do_trial,249,565546,0.0-129.0-0.0,434.2,,,,49,"1,1,0",6,blank,350,null,0.852777264,0.379904559,0.451648637,1,,,,,,
,html-keyboard-response,250,566549,0.0-129.0-1.0,null,<p></p>,,null,,,,,,,,,,,,,,,,
,do_trial,251,570422,0.0-130.0-0.0,1330.8,,,,49,"1,1,1",6,blank,351,null,0.348282304,0.431271131,0.437209746,1,,,,,,
,html-keyboard-response,252,571428,0.0-130.0-1.0,null,<p></p>,,null,,,,,,,,,,,,,,,,
,do_trial,253,575036,0.0-131.0-0.0,1065.1,,,,49,"1,0,0",6,blank,352,null,0.137738515,0.344242541,0.629043795,1,,,,,,
,html-keyboard-response,254,576042,0.0-131.0-1.0,null,<p></p>,,null,,,,,,,,,,,,,,,,
,do_recog,255,578605,0.0-132.0-0.0,1052.2,,,,53,,,,353,probe-86,,,,,1,[object Object],47,1,1,
,html-keyboard-response,256,579608,0.0-132.0-1.0,null,<p></p>,,null,,,,,,,,,,,,,,,,
,do_trial,257,583017,0.0-133.0-0.0,869,,,,49,"1,0,1",6,blank,354,null,0.106808385,0.298255254,0.788719265,1,,,,,,
,html-keyboard-response,258,584021,0.0-133.0-1.0,null,<p></p>,,null,,,,,,,,,,,,,,,,
,do_trial,259,586905,0.0-134.0-0.0,340.7,,,,49,"0,1,0",6,blank,355,null,0.157781363,0.269316005,0.691219035,0,,,,,,
,html-keyboard-response,260,587909,0.0-134.0-1.0,null,<p></p>,,null,,,,,,,,,,,,,,,,
,do_trial,261,590928,0.0-135.0-0.0,480.1,,,,49,"0,0,1",6,blank,356,null,0.061233699,0.145470538,0.629085742,0,,,,,,
,html-keyboard-response,262,591931,0.0-135.0-1.0,null,<p></p>,,null,,,,,,,,,,,,,,,,
,do_trial,263,594818,0.0-136.0-0.0,346.8,,,,49,"0,1,1",6,blank,357,null,0.129831711,0.243583153,0.787367845,0,,,,,,
,html-keyboard-response,264,595822,0.0-136.0-1.0,null,<p></p>,,null,,,,,,,,,,,,,,,,
,do_trial,265,598811,0.0-137.0-0.0,448.1,,,,50,"0,1,1",6,blank,358,null,0.13413247,0.197635843,0.792033917,1,,,,,,
,html-keyboard-response,266,599815,0.0-137.0-1.0,null,<p></p>,,null,,,,,,,,,,,,,,,,
,do_trial,267,602764,0.0-138.0-0.0,406.9,,,,50,"0,1,0",6,blank,359,null,0.328967409,0.436697752,0.704565958,1,,,,,,
,html-keyboard-response,268,603767,0.0-138.0-1.0,null,<p></p>,,null,,,,,,,,,,,,,,,,
,do_recog,269,606466,0.0-139.0-0.0,1193.2,,,,53,,,,360,probe-84,,,,,1,[object Object],127,3,1,
,html-keyboard-response,270,607470,0.0-139.0-1.0,null,<p></p>,,null,,,,,,,,,,,,,,,,
,do_trial,271,610435,0.0-140.0-0.0,422.6,,,,49,"0,0,1",6,blank,361,null,0.302080538,0.398395494,0.512100805,0,,,,,,
,html-keyboard-response,272,611439,0.0-140.0-1.0,null,<p></p>,,null,,,,,,,,,,,,,,,,
,do_recog,273,613944,0.0-141.0-0.0,997.8,,,,53,,,,362,probe-87,,,,,1,[object Object],82,2,1,
,html-keyboard-response,274,614947,0.0-141.0-1.0,null,<p></p>,,null,,,,,,,,,,,,,,,,
,do_trial,275,618314,0.0-142.0-0.0,826.6,,,,50,"1,1,0",6,blank,363,null,0.292828209,0.343190602,0.527432161,1,,,,,,
,html-keyboard-response,276,619317,0.0-142.0-1.0,null,<p></p>,,null,,,,,,,,,,,,,,,,
,do_trial,277,622727,0.0-143.0-0.0,863.6,,,,50,"1,0,1",6,blank,364,null,0.276674624,0.368937898,0.649486418,0,,,,,,
,html-keyboard-response,278,623733,0.0-143.0-1.0,null,<p></p>,,null,,,,,,,,,,,,,,,,
,do_trial,279,626634,0.0-144.0-0.0,363.1,,,,49,"0,0,0",6,blank,365,null,0.226631618,0.324319082,0.612878352,0,,,,,,
,html-keyboard-response,280,627638,0.0-144.0-1.0,null,<p></p>,,null,,,,,,,,,,,,,,,,
,do_trial,281,631015,0.0-145.0-0.0,836.1,,,,49,"0,1,1",6,blank,366,null,0.20782458,0.355724164,0.547883017,0,,,,,,
,html-keyboard-response,282,632019,0.0-145.0-1.0,null,<p></p>,,null,,,,,,,,,,,,,,,,
,do_trial,283,635596,0.0-146.0-0.0,1034.7,,,,49,"0,1,1",6,blank,367,null,0.14159556,0.427518164,0.611163611,0,,,,,,
,html-keyboard-response,284,636598,0.0-146.0-1.0,null,<p></p>,,null,,,,,,,,,,,,,,,,
,do_trial,285,639755,0.0-147.0-0.0,614.2,,,,50,"0,0,0",6,blank,368,null,0.165068973,0.301584879,0.551091748,0,,,,,,
,html-keyboard-response,286,640757,0.0-147.0-1.0,null,<p></p>,,null,,,,,,,,,,,,,,,,
,do_recog,287,643945,0.0-148.0-0.0,1678.8,,,,53,,,,369,probe-29,,,,,1,[object Object],48,1,1,
,html-keyboard-response,288,644950,0.0-148.0-1.0,null,<p></p>,,null,,,,,,,,,,,,,,,,
,do_trial,289,648902,0.0-149.0-0.0,1412,,,,50,"0,0,0",6,blank,370,null,0.09731809,0.138307665,0.529361966,0,,,,,,
,html-keyboard-response,290,649906,0.0-149.0-1.0,null,<p></p>,,null,,,,,,,,,,,,,,,,
,do_recog,291,652779,0.0-150.0-0.0,1365.2,,,,53,,,,371,probe-39,,,,,1,[object Object],125,3,1,
,html-keyboard-response,292,653783,0.0-150.0-1.0,null,<p></p>,,null,,,,,,,,,,,,,,,,
,do_trial,293,657586,0.0-151.0-0.0,1262.3,,,,49,"0,0,1",6,blank,372,null,0.13818432,0.130489622,0.598822705,0,,,,,,
,html-keyboard-response,294,658590,0.0-151.0-1.0,null,<p></p>,,null,,,,,,,,,,,,,,,,
,do_recog,295,661288,0.0-152.0-0.0,1189.6,,,,53,,,,373,probe-107,,,,,1,[object Object],163,4,1,
,html-keyboard-response,296,662292,0.0-152.0-1.0,null,<p></p>,,null,,,,,,,,,,,,,,,,
,do_trial,297,666530,0.0-153.0-0.0,1695.7,,,,49,"0,0,1",6,blank,374,null,0.06059648,0.240785955,0.537882771,0,,,,,,
,html-keyboard-response,298,667534,0.0-153.0-1.0,null,<p></p>,,null,,,,,,,,,,,,,,,,
,do_trial,299,670751,0.0-154.0-0.0,675.8,,,,50,"0,0,1",6,blank,375,null,0.10852823,0.364000263,0.751580082,0,,,,,,
,html-keyboard-response,300,671755,0.0-154.0-1.0,null,<p></p>,,null,,,,,,,,,,,,,,,,
,do_trial,301,675264,0.0-155.0-0.0,967.5,,,,51,"0,0,1",6,blank,376,null,0.059830265,0.270425696,0.698527031,1,,,,,,
,html-keyboard-response,302,676270,0.0-155.0-1.0,null,<p></p>,,null,,,,,,,,,,,,,,,,
,do_trial,303,679744,0.0-156.0-0.0,933.2,,,,51,"0,0,1",6,blank,377,null,0.158308513,0.334968732,0.603876381,1,,,,,,
,html-keyboard-response,304,680748,0.0-156.0-1.0,null,<p></p>,,null,,,,,,,,,,,,,,,,
,do_recog,305,683593,0.0-157.0-0.0,1335.1,,,,53,,,,378,probe-57,,,,,1,[object Object],126,3,1,
,html-keyboard-response,306,684597,0.0-157.0-1.0,null,<p></p>,,null,,,,,,,,,,,,,,,,
,do_trial,307,688425,0.0-158.0-0.0,1290.1,,,,51,"0,0,0",6,blank,379,null,0.077876149,0.31454681,0.718613925,0,,,,,,
,html-keyboard-response,308,689429,0.0-158.0-1.0,null,<p></p>,,null,,,,,,,,,,,,,,,,
,do_recog,309,692204,0.0-159.0-0.0,1263.9,,,,53,,,,380,probe-108,,,,,1,[object Object],168,4,1,
,html-keyboard-response,310,693208,0.0-159.0-1.0,null,<p></p>,,null,,,,,,,,,,,,,,,,
,do_trial,311,696775,0.0-160.0-0.0,1028.3,,,,51,"0,0,0",6,blank,381,null,0.158417989,0.235481831,0.593866937,0,,,,,,
,html-keyboard-response,312,697779,0.0-160.0-1.0,null,<p></p>,,null,,,,,,,,,,,,,,,,
,do_recog,313,700659,0.0-161.0-0.0,1372.9,,,,53,,,,382,probe-40,,,,,1,[object Object],167,4,1,
,html-keyboard-response,314,701662,0.0-161.0-1.0,null,<p></p>,,null,,,,,,,,,,,,,,,,
,do_trial,315,705701,0.0-162.0-0.0,1497.2,,,,51,"0,0,0",6,blank,383,null,0.291008206,0.24243665,0.595245134,0,,,,,,
,html-keyboard-response,316,706704,0.0-162.0-1.0,null,<p></p>,,null,,,,,,,,,,,,,,,,
,do_trial,317,709890,0.0-163.0-0.0,642.8,,,,49,"0,0,1",6,blank,384,null,0.252643301,0.145279407,0.532638225,0,,,,,,
,html-keyboard-response,318,710891,0.0-163.0-1.0,null,<p></p>,,null,,,,,,,,,,,,,,,,
,do_trial,319,713892,0.0-164.0-0.0,459.7,,,,49,"1,1,0",6,blank,385,null,0.220586669,0.170407382,0.49289171,1,,,,,,
,html-keyboard-response,320,714896,0.0-164.0-1.0,null,<p></p>,,null,,,,,,,,,,,,,,,,
,do_recog,321,717700,0.0-165.0-0.0,1293.4,,,,53,,,,386,probe-216,,,,,1,[object Object],122,3,1,
,html-keyboard-response,322,718706,0.0-165.0-1.0,null,<p></p>,,null,,,,,,,,,,,,,,,,
,do_trial,323,722127,0.0-166.0-0.0,880.5,,,,49,"0,0,0",6,blank,387,null,0.177049237,0.178592123,0.340515328,0,,,,,,
,html-keyboard-response,324,723132,0.0-166.0-1.0,null,<p></p>,,null,,,,,,,,,,,,,,,,
,do_recog,325,725529,0.0-167.0-0.0,886.8,,,,53,,,,388,probe-03,,,,,1,[object Object],160,4,1,
,html-keyboard-response,326,726532,0.0-167.0-1.0,null,<p></p>,,null,,,,,,,,,,,,,,,,
,do_trial,327,730872,0.0-168.0-0.0,1798.8,,,,50,"0,0,0",6,blank,389,null,0.172116251,0.20079407,0.434488396,0,,,,,,
,html-keyboard-response,328,731879,0.0-168.0-1.0,null,<p></p>,,null,,,,,,,,,,,,,,,,
,do_recog,329,734281,0.0-169.0-0.0,891.7,,,,53,,,,390,probe-129,,,,,1,[object Object],40,1,1,
,html-keyboard-response,330,735285,0.0-169.0-1.0,null,<p></p>,,null,,,,,,,,,,,,,,,,
,do_trial,331,738580,0.0-170.0-0.0,755.8,,,,49,"0,1,0",6,blank,391,null,0.109983665,0.317690429,0.484752247,0,,,,,,
,html-keyboard-response,332,739584,0.0-170.0-1.0,null,<p></p>,,null,,,,,,,,,,,,,,,,
,do_trial,333,742707,0.0-171.0-0.0,579.8,,,,49,"1,0,1",6,blank,392,null,0.299995869,0.372527945,0.532573799,1,,,,,,
,html-keyboard-response,334,743713,0.0-171.0-1.0,null,<p></p>,,null,,,,,,,,,,,,,,,,
,do_trial,335,746756,0.0-172.0-0.0,499.8,,,,49,"0,0,1",6,blank,393,null,0.319209261,0.25199091,0.609744455,0,,,,,,
,html-keyboard-response,336,747759,0.0-172.0-1.0,null,<p></p>,,null,,,,,,,,,,,,,,,,
,do_trial,337,751082,0.0-173.0-0.0,779.9,,,,49,"0,0,1",6,blank,394,null,0.213093419,0.363869518,0.580013639,0,,,,,,
,html-keyboard-response,338,752086,0.0-173.0-1.0,null,<p></p>,,null,,,,,,,,,,,,,,,,
,do_trial,339,754982,0.0-174.0-0.0,352.3,,,,50,"0,0,0",6,blank,395,null,0.095038501,0.257331115,0.544907437,0,,,,,,
,html-keyboard-response,340,755988,0.0-174.0-1.0,null,<p></p>,,null,,,,,,,,,,,,,,,,
,do_trial,341,759001,0.0-175.0-0.0,471.1,,,,51,"0,0,0",6,blank,396,null,0.066562396,0.312509264,0.606875391,0,,,,,,
,html-keyboard-response,342,760007,0.0-175.0-1.0,null,<p></p>,,null,,,,,,,,,,,,,,,,
,do_trial,343,762975,0.0-176.0-0.0,423.4,,,,51,"1,0,0",6,blank,397,null,0.171199137,0.189690952,0.553700643,0,,,,,,
,html-keyboard-response,344,763979,0.0-176.0-1.0,null,<p></p>,,null,,,,,,,,,,,,,,,,
,do_recog,345,766496,0.0-177.0-0.0,1006.3,,,,53,,,,398,probe-173,,,,,1,[object Object],200,5,1,
,html-keyboard-response,346,767498,0.0-177.0-1.0,null,<p></p>,,null,,,,,,,,,,,,,,,,
,do_trial,347,770504,0.0-178.0-0.0,467.5,,,,50,"0,0,0",6,blank,399,null,0.190913339,0.277253413,0.532944837,0,,,,,,
,html-keyboard-response,348,771508,0.0-178.0-1.0,null,<p></p>,,null,,,,,,,,,,,,,,,,
,do_trial,349,774418,0.0-179.0-0.0,366.4,,,,50,"0,0,1",6,blank,400,null,0.090792868,0.115211401,0.631576219,0,,,,,,
,html-keyboard-response,350,775421,0.0-179.0-1.0,null,<p></p>,,null,,,,,,,,,,,,,,,,
,do_recog,351,777707,0.0-180.0-0.0,778.9,,,,53,,,,401,probe-46,,,,,1,[object Object],88,2,1,
,html-keyboard-response,352,778710,0.0-180.0-1.0,null,<p></p>,,null,,,,,,,,,,,,,,,,
,do_trial,353,781741,0.0-181.0-0.0,485.6,,,,49,"0,0,0",6,blank,402,null,0.212653575,0.239979239,0.677071148,0,,,,,,
,html-keyboard-response,354,782744,0.0-181.0-1.0,null,<p></p>,,null,,,,,,,,,,,,,,,,
,do_trial,355,785766,0.0-182.0-0.0,483.1,,,,49,"0,0,1",6,blank,403,null,0.214841462,0.298142947,0.699967877,0,,,,,,
,html-keyboard-response,356,786770,0.0-182.0-1.0,null,<p></p>,,null,,,,,,,,,,,,,,,,
,do_recog,357,789234,0.0-183.0-0.0,954.1,,,,53,,,,404,probe-220,,,,,1,[object Object],81,2,1,
,html-keyboard-response,358,790238,0.0-183.0-1.0,null,<p></p>,,null,,,,,,,,,,,,,,,,
,do_trial,359,793212,0.0-184.0-0.0,432.8,,,,51,"0,0,1",6,blank,405,null,0.292166093,0.10636576,0.622534012,1,,,,,,
,html-keyboard-response,360,794214,0.0-184.0-1.0,null,<p></p>,,null,,,,,,,,,,,,,,,,
,do_trial,361,797266,0.0-185.0-0.0,509.2,,,,51,"1,0,0",6,blank,406,null,0.313176712,0.280036643,0.18351075,0,,,,,,
,html-keyboard-response,362,798267,0.0-185.0-1.0,null,<p></p>,,null,,,,,,,,,,,,,,,,
,do_trial,363,801195,0.0-186.0-0.0,385.3,,,,51,"1,0,0",6,blank,407,null,0.415672987,0.222882778,0.056280632,0,,,,,,
,html-keyboard-response,364,802198,0.0-186.0-1.0,null,<p></p>,,null,,,,,,,,,,,,,,,,
,do_trial,365,805248,0.0-187.0-0.0,511.6,,,,50,"0,1,0",6,blank,408,null,0.554731123,0.124026985,0.103950607,1,,,,,,
,html-keyboard-response,366,806252,0.0-187.0-1.0,null,<p></p>,,null,,,,,,,,,,,,,,,,
,do_trial,367,809308,0.0-188.0-0.0,514.6,,,,50,"0,0,0",6,blank,409,null,0.596364836,0.328890854,0.127345707,0,,,,,,
,html-keyboard-response,368,810312,0.0-188.0-1.0,null,<p></p>,,null,,,,,,,,,,,,,,,,
,do_trial,369,813533,0.0-189.0-0.0,678.2,,,,49,"1,1,0",6,blank,410,null,0.510025903,0.469044842,0.068148207,1,,,,,,
,html-keyboard-response,370,814538,0.0-189.0-1.0,null,<p></p>,,null,,,,,,,,,,,,,,,,
,do_recog,371,817381,0.0-190.0-0.0,1335.1,,,,53,,,,411,probe-137,,,,,1,[object Object],89,2,1,
,html-keyboard-response,372,818386,0.0-190.0-1.0,null,<p></p>,,null,,,,,,,,,,,,,,,,
,do_trial,373,822109,0.0-191.0-0.0,1183.8,,,,49,"0,1,1",6,blank,412,null,0.635854495,0.537443085,0.149434888,0,,,,,,
,html-keyboard-response,374,823113,0.0-191.0-1.0,null,<p></p>,,null,,,,,,,,,,,,,,,,
,do_trial,375,825983,0.0-192.0-0.0,326.7,,,,49,"1,1,0",6,blank,413,null,0.743973062,0.494597132,0.096142549,1,,,,,,
,html-keyboard-response,376,826985,0.0-192.0-1.0,null,<p></p>,,null,,,,,,,,,,,,,,,,
,do_trial,377,829876,0.0-193.0-0.0,350.7,,,,49,"1,1,0",6,blank,414,null,0.695002442,0.379806345,0.093323282,1,,,,,,
,html-keyboard-response,378,830882,0.0-193.0-1.0,null,<p></p>,,null,,,,,,,,,,,,,,,,
,do_trial,379,833977,0.0-194.0-0.0,556.6,,,,49,"1,1,0",6,blank,415,null,0.724776937,0.462968467,0.072564342,1,,,,,,
,html-keyboard-response,380,834980,0.0-194.0-1.0,null,<p></p>,,null,,,,,,,,,,,,,,,,
,do_trial,381,837877,0.0-195.0-0.0,357.2,,,,49,"1,1,0",6,blank,416,null,0.704933105,0.43067098,0.074403821,1,,,,,,
,html-keyboard-response,382,838881,0.0-195.0-1.0,null,<p></p>,,null,,,,,,,,,,,,,,,,
,do_recog,383,841322,0.0-196.0-0.0,934.7,,,,53,,,,417,probe-154,,,,,1,[object Object],128,3,1,
,html-keyboard-response,384,842325,0.0-196.0-1.0,null,<p></p>,,null,,,,,,,,,,,,,,,,
,do_trial,385,845177,0.0-197.0-0.0,312.1,,,,49,"1,0,0",6,blank,418,null,0.576661871,0.250431521,0.134872507,1,,,,,,
,html-keyboard-response,386,846182,0.0-197.0-1.0,null,<p></p>,,null,,,,,,,,,,,,,,,,
,do_recog,387,848561,0.0-198.0-0.0,873.4,,,,53,,,,419,probe-150,,,,,1,[object Object],165,4,1,
,html-keyboard-response,388,849567,0.0-198.0-1.0,null,<p></p>,,null,,,,,,,,,,,,,,,,
,do_trial,389,852584,0.0-199.0-0.0,478.3,,,,49,"0,0,0",6,blank,420,null,0.493805478,0.061348615,0.144519027,0,,,,,,
,html-keyboard-response,390,853590,0.0-199.0-1.0,null,<p></p>,,null,,,,,,,,,,,,,,,,
,do_trial,391,856863,0.0-200.0-0.0,730.7,,,,49,"0,0,1",6,blank,421,null,0.625143492,0.191484221,0.24917163,0,,,,,,
,html-keyboard-response,392,857867,0.0-200.0-1.0,null,<p></p>,,null,,,,,,,,,,,,,,,,
,do_trial,393,860884,0.0-201.0-0.0,475.3,,,,50,"1,0,0",6,blank,422,null,0.695148123,0.200676289,0.205871287,0,,,,,,
,html-keyboard-response,394,861886,0.0-201.0-1.0,null,<p></p>,,null,,,,,,,,,,,,,,,,
,do_recog,395,864133,0.0-202.0-0.0,740.1,,,,53,,,,423,probe-169,,,,,1,[object Object],204,5,1,
,html-keyboard-response,396,865138,0.0-202.0-1.0,null,<p></p>,,null,,,,,,,,,,,,,,,,
,do_trial,397,868187,0.0-203.0-0.0,510.9,,,,50,"1,1,0",6,blank,424,null,0.559528287,0.238128803,0.253452063,1,,,,,,
,html-keyboard-response,398,869189,0.0-203.0-1.0,null,<p></p>,,null,,,,,,,,,,,,,,,,
,do_trial,399,872231,0.0-204.0-0.0,503.7,,,,50,"1,0,1",6,blank,425,null,0.534486859,0.309642426,0.256162421,0,,,,,,
,html-keyboard-response,400,873235,0.0-204.0-1.0,null,<p></p>,,null,,,,,,,,,,,,,,,,
,do_trial,401,876270,0.0-205.0-0.0,496,,,,51,"1,1,0",6,blank,426,null,0.620063034,0.356724822,0.180162203,0,,,,,,
,html-keyboard-response,402,877276,0.0-205.0-1.0,null,<p></p>,,null,,,,,,,,,,,,,,,,
,do_trial,403,880301,0.0-206.0-0.0,485.5,,,,49,"1,0,0",6,blank,427,null,0.553651315,0.359845274,0.139767883,1,,,,,,
,html-keyboard-response,404,881306,0.0-206.0-1.0,null,<p></p>,,null,,,,,,,,,,,,,,,,
,do_trial,405,884442,0.0-207.0-0.0,593.8,,,,49,"1,1,1",6,blank,428,null,0.480272574,0.363838775,0.079086648,1,,,,,,
,html-keyboard-response,406,885443,0.0-207.0-1.0,null,<p></p>,,null,,,,,,,,,,,,,,,,
,do_trial,407,888521,0.0-208.0-0.0,537.2,,,,49,"0,0,0",6,blank,429,null,0.521269896,0.363307585,0.140055927,0,,,,,,
,html-keyboard-response,408,889525,0.0-208.0-1.0,null,<p></p>,,null,,,,,,,,,,,,,,,,
,do_recog,409,891997,0.0-209.0-0.0,960.9,,,,53,,,,430,probe-111,,,,,1,[object Object],129,3,1,
,html-keyboard-response,410,893000,0.0-209.0-1.0,null,<p></p>,,null,,,,,,,,,,,,,,,,
,do_trial,411,896226,0.0-210.0-0.0,683.8,,,,51,"0,0,0",6,blank,431,null,0.489983383,0.345994808,0.181964607,0,,,,,,
,html-keyboard-response,412,897230,0.0-210.0-1.0,null,<p></p>,,null,,,,,,,,,,,,,,,,
,do_trial,413,901449,0.0-211.0-0.0,1677.4,,,,51,"1,0,0",6,blank,432,null,0.714375382,0.256697246,0.14174636,0,,,,,,
,html-keyboard-response,414,902452,0.0-211.0-1.0,null,<p></p>,,null,,,,,,,,,,,,,,,,
,do_trial,415,906078,0.0-212.0-0.0,1082.6,,,,51,"1,0,0",6,blank,433,null,0.725175008,0.140806279,0.066409805,0,,,,,,
,html-keyboard-response,416,907082,0.0-212.0-1.0,null,<p></p>,,null,,,,,,,,,,,,,,,,
,do_trial,417,910300,0.0-213.0-0.0,675.3,,,,51,"1,0,0",6,blank,434,null,0.656849057,0.097007064,0.146403466,0,,,,,,
,html-keyboard-response,418,911303,0.0-213.0-1.0,null,<p></p>,,null,,,,,,,,,,,,,,,,
,do_trial,419,914367,0.0-214.0-0.0,523.7,,,,50,"1,0,0",6,blank,435,null,0.661325272,0.273976374,0.123863552,0,,,,,,
,html-keyboard-response,420,915373,0.0-214.0-1.0,null,<p></p>,,null,,,,,,,,,,,,,,,,
,do_recog,421,918250,0.0-215.0-0.0,1366,,,,53,,,,436,probe-200,,,,,1,[object Object],86,2,1,
,html-keyboard-response,422,919252,0.0-215.0-1.0,null,<p></p>,,null,,,,,,,,,,,,,,,,
,do_trial,423,922899,0.0-216.0-0.0,1105.3,,,,49,"0,1,0",6,blank,437,null,0.713557018,0.312978569,0.115335371,0,,,,,,
,html-keyboard-response,424,923901,0.0-216.0-1.0,null,<p></p>,,null,,,,,,,,,,,,,,,,
,do_recog,425,927245,0.0-217.0-0.0,1832.5,,,,53,,,,438,probe-233,,,,,0,[object Object],null,null,0,
,html-keyboard-response,426,928249,0.0-217.0-1.0,null,<p></p>,,null,,,,,,,,,,,,,,,,
,do_trial,427,931291,0.0-218.0-0.0,498.4,,,,50,"0,1,0",6,blank,439,null,0.649112332,0.338247758,0.175971303,1,,,,,,
,html-keyboard-response,428,932296,0.0-218.0-1.0,null,<p></p>,,null,,,,,,,,,,,,,,,,
,do_trial,429,935298,0.0-219.0-0.0,458.5,,,,50,"0,0,0",6,blank,440,null,0.640381745,0.212204436,0.313534897,0,,,,,,
,html-keyboard-response,430,936302,0.0-219.0-1.0,null,<p></p>,,null,,,,,,,,,,,,,,,,
,do_trial,431,939448,0.0-220.0-0.0,606.7,,,,51,"1,0,0",6,blank,441,null,0.533606501,0.296495959,0.249775791,0,,,,,,
,html-keyboard-response,432,940450,0.0-220.0-1.0,null,<p></p>,,null,,,,,,,,,,,,,,,,
,do_trial,433,944930,0.0-221.0-0.0,1935.7,,,,51,"0,0,0",6,blank,442,null,0.6136426,0.216480073,0.086890672,0,,,,,,
,html-keyboard-response,434,945934,0.0-221.0-1.0,null,<p></p>,,null,,,,,,,,,,,,,,,,
,do_trial,435,949232,0.0-222.0-0.0,759,,,,51,"0,0,0",6,blank,443,null,0.513532318,0.293052341,0.07395083,0,,,,,,
,html-keyboard-response,436,950233,0.0-222.0-1.0,null,<p></p>,,null,,,,,,,,,,,,,,,,
,do_recog,437,953436,0.0-223.0-0.0,1691.6,,,,53,,,,444,probe-235,,,,,0,[object Object],null,null,0,
,html-keyboard-response,438,954439,0.0-223.0-1.0,null,<p></p>,,null,,,,,,,,,,,,,,,,
,do_trial,439,957756,0.0-224.0-0.0,779.6,,,,49,"0,0,0",6,blank,445,null,0.528224833,0.36687866,0.1307592,0,,,,,,
,html-keyboard-response,440,958760,0.0-224.0-1.0,null,<p></p>,,null,,,,,,,,,,,,,,,,
,do_recog,441,962676,0.0-225.0-0.0,2406.3,,,,54,,,,446,probe-246,,,,,0,[object Object],null,null,0,
,html-keyboard-response,442,963680,0.0-225.0-1.0,null,<p></p>,,null,,,,,,,,,,,,,,,,
,do_trial,443,967375,0.0-226.0-0.0,1155,,,,51,"1,1,0",6,blank,447,null,0.525504143,0.538285816,0.105800161,0,,,,,,
,html-keyboard-response,444,968378,0.0-226.0-1.0,null,<p></p>,,null,,,,,,,,,,,,,,,,
,do_trial,445,971811,0.0-227.0-0.0,889,,,,50,"0,0,0",6,blank,448,null,0.505309405,0.429027374,0.115858709,0,,,,,,
,html-keyboard-response,446,972816,0.0-227.0-1.0,null,<p></p>,,null,,,,,,,,,,,,,,,,
,do_trial,447,976215,0.0-228.0-0.0,857.8,,,,49,"0,0,0",6,blank,449,null,0.536398569,0.532008139,0.217302474,0,,,,,,
,html-keyboard-response,448,977221,0.0-228.0-1.0,null,<p></p>,,null,,,,,,,,,,,,,,,,
,do_trial,449,980363,0.0-229.0-0.0,601.5,,,,49,"0,1,0",6,blank,450,null,0.557868975,0.576490705,0.193162595,0,,,,,,
,html-keyboard-response,450,981365,0.0-229.0-1.0,null,<p></p>,,null,,,,,,,,,,,,,,,,
,do_trial,451,984564,0.0-230.0-0.0,657.6,,,,51,"1,0,0",6,blank,451,null,0.505449199,0.329099543,0.198163607,0,,,,,,
,html-keyboard-response,452,985568,0.0-230.0-1.0,null,<p></p>,,null,,,,,,,,,,,,,,,,
,do_recog,453,988046,0.0-231.0-0.0,966.8,,,,56,,,,452,probe-248,,,,,0,[object Object],null,null,1,
,html-keyboard-response,454,989048,0.0-231.0-1.0,null,<p></p>,,null,,,,,,,,,,,,,,,,
,do_trial,455,992118,0.0-232.0-0.0,526.7,,,,50,"1,0,0",6,blank,453,null,0.454171133,0.28668962,0.06263364,0,,,,,,
,html-keyboard-response,456,993122,0.0-232.0-1.0,null,<p></p>,,null,,,,,,,,,,,,,,,,
,do_trial,457,996867,0.0-233.0-0.0,1203.3,,,,50,"0,0,0",6,blank,454,null,0.418479002,0.261100988,0.103772081,0,,,,,,
,html-keyboard-response,458,997872,0.0-233.0-1.0,null,<p></p>,,null,,,,,,,,,,,,,,,,
,do_trial,459,1000994,0.0-234.0-0.0,578.3,,,,51,"1,0,0",6,blank,455,null,0.578248315,0.24862632,0.082326456,0,,,,,,
,html-keyboard-response,460,1001999,0.0-234.0-1.0,null,<p></p>,,null,,,,,,,,,,,,,,,,
,do_trial,461,1004976,0.0-235.0-0.0,433.7,,,,49,"1,0,1",6,blank,456,null,0.349178356,0.342048693,0.170095534,1,,,,,,
,html-keyboard-response,462,1005980,0.0-235.0-1.0,null,<p></p>,,null,,,,,,,,,,,,,,,,
,do_trial,463,1008960,0.0-236.0-0.0,440.6,,,,49,"0,0,0",6,blank,457,null,0.237461237,0.456362707,0.199664515,0,,,,,,
,html-keyboard-response,464,1009964,0.0-236.0-1.0,null,<p></p>,,null,,,,,,,,,,,,,,,,
,do_recog,465,1012117,0.0-237.0-0.0,642.5,,,,56,,,,458,probe-242,,,,,0,[object Object],null,null,1,
,html-keyboard-response,466,1013122,0.0-237.0-1.0,null,<p></p>,,null,,,,,,,,,,,,,,,,
,do_trial,467,1016147,0.0-238.0-0.0,481.6,,,,49,"0,0,0",6,blank,459,null,0.251659947,0.372133173,0.257310251,0,,,,,,
,html-keyboard-response,468,1017154,0.0-238.0-1.0,null,<p></p>,,null,,,,,,,,,,,,,,,,
,do_trial,469,1020200,0.0-239.0-0.0,507.6,,,,50,"0,0,1",6,blank,460,null,0.099858824,0.715707775,0.184491717,0,,,,,,
,html-keyboard-response,470,1021204,0.0-239.0-1.0,null,<p></p>,,null,,,,,,,,,,,,,,,,
,do_trial,471,1024297,0.0-240.0-0.0,551.9,,,,50,"0,1,0",6,blank,461,null,0.055652974,0.645980762,0.172926703,1,,,,,,
,html-keyboard-response,472,1025301,0.0-240.0-1.0,null,<p></p>,,null,,,,,,,,,,,,,,,,
,do_trial,473,1028381,0.0-241.0-0.0,541.3,,,,50,"0,0,0",6,blank,462,null,0.096542062,0.566078211,0.147824391,0,,,,,,
,html-keyboard-response,474,1029383,0.0-241.0-1.0,null,<p></p>,,null,,,,,,,,,,,,,,,,
,do_trial,475,1032547,0.0-242.0-0.0,623.4,,,,50,"0,0,0",6,blank,463,null,0.176573755,0.557774445,0.266367942,0,,,,,,
,html-keyboard-response,476,1033552,0.0-242.0-1.0,null,<p></p>,,null,,,,,,,,,,,,,,,,
,do_recog,477,1036159,0.0-243.0-0.0,1098.5,,,,56,,,,464,probe-251,,,,,0,[object Object],null,null,1,
,html-keyboard-response,478,1037163,0.0-243.0-1.0,null,<p></p>,,null,,,,,,,,,,,,,,,,
,do_trial,479,1040355,0.0-244.0-0.0,652.9,,,,51,"0,0,0",6,blank,465,null,0.119350965,0.612736297,0.316953424,0,,,,,,
,html-keyboard-response,480,1041358,0.0-244.0-1.0,null,<p></p>,,null,,,,,,,,,,,,,,,,
,do_trial,481,1044715,0.0-245.0-0.0,813.7,,,,51,"0,0,1",6,blank,466,null,0.108044768,0.495368307,0.325863344,1,,,,,,
,html-keyboard-response,482,1045717,0.0-245.0-1.0,null,<p></p>,,null,,,,,,,,,,,,,,,,
,do_trial,483,1048831,0.0-246.0-0.0,575.7,,,,51,"0,1,0",6,blank,467,null,0.081056903,0.534794223,0.328617008,0,,,,,,
,html-keyboard-response,484,1049834,0.0-246.0-1.0,null,<p></p>,,null,,,,,,,,,,,,,,,,
,do_trial,485,1052984,0.0-247.0-0.0,606.7,,,,51,"1,0,0",6,blank,468,null,0.174461358,0.49202385,0.257901742,0,,,,,,
,html-keyboard-response,486,1053989,0.0-247.0-1.0,null,<p></p>,,null,,,,,,,,,,,,,,,,
,do_trial,487,1056978,0.0-248.0-0.0,448.1,,,,49,"0,1,0",6,blank,469,null,0.13748172,0.484868597,0.344155596,0,,,,,,
,html-keyboard-response,488,1057979,0.0-248.0-1.0,null,<p></p>,,null,,,,,,,,,,,,,,,,
,do_recog,489,1060590,0.0-249.0-0.0,1103.9,,,,56,,,,470,probe-243,,,,,0,[object Object],null,null,1,
,html-keyboard-response,490,1061596,0.0-249.0-1.0,null,<p></p>,,null,,,,,,,,,,,,,,,,
,do_trial,491,1064679,0.0-250.0-0.0,544.4,,,,49,"0,1,0",6,blank,471,null,0.146180282,0.399353035,0.283840842,0,,,,,,
,html-keyboard-response,492,1065682,0.0-250.0-1.0,null,<p></p>,,null,,,,,,,,,,,,,,,,
,do_trial,493,1068733,0.0-251.0-0.0,511.4,,,,49,"0,1,1",6,blank,472,null,0.206877324,0.595413493,0.234181235,0,,,,,,
,html-keyboard-response,494,1069737,0.0-251.0-1.0,null,<p></p>,,null,,,,,,,,,,,,,,,,
,do_recog,495,1072082,0.0-252.0-0.0,834.6,,,,56,,,,473,probe-234,,,,,0,[object Object],null,null,1,
,html-keyboard-response,496,1073086,0.0-252.0-1.0,null,<p></p>,,null,,,,,,,,,,,,,,,,
,do_trial,497,1076236,0.0-253.0-0.0,609.5,,,,49,"0,0,0",6,blank,474,null,0.096547348,0.617020524,0.136647221,0,,,,,,
,html-keyboard-response,498,1077237,0.0-253.0-1.0,null,<p></p>,,null,,,,,,,,,,,,,,,,
,do_recog,499,1079534,0.0-254.0-0.0,790.5,,,,56,,,,475,probe-238,,,,,0,[object Object],null,null,1,
,html-keyboard-response,500,1080540,0.0-254.0-1.0,null,<p></p>,,null,,,,,,,,,,,,,,,,
,do_trial,501,1083587,0.0-255.0-0.0,507.8,,,,50,"1,0,1",6,blank,476,null,0.21447295,0.583532958,0.220997233,0,,,,,,
,html-keyboard-response,502,1084591,0.0-255.0-1.0,null,<p></p>,,null,,,,,,,,,,,,,,,,
,do_trial,503,1087575,0.0-256.0-0.0,441.1,,,,50,"0,1,0",6,blank,477,null,0.157760343,0.698672532,0.258189449,1,,,,,,
,html-keyboard-response,504,1088576,0.0-256.0-1.0,null,<p></p>,,null,,,,,,,,,,,,,,,,
,do_trial,505,1091537,0.0-257.0-0.0,420.2,,,,50,"0,1,0",6,blank,478,null,0.173225882,0.690703025,0.309051791,1,,,,,,
,html-keyboard-response,506,1092541,0.0-257.0-1.0,null,<p></p>,,null,,,,,,,,,,,,,,,,
,do_recog,507,1094884,0.0-258.0-0.0,831.7,,,,56,,,,479,probe-245,,,,,0,[object Object],null,null,1,
,html-keyboard-response,508,1095885,0.0-258.0-1.0,null,<p></p>,,null,,,,,,,,,,,,,,,,
,do_pick_best_pirate,509,1100360,0.0-259.0-0.0,3468.9,,,,49,,,,,,,,,,,,,,,
,do_pick_best_pirate,510,1104225,0.0-260.0-0.0,2855.4,,,,49,,,,,,,,,,,,,,,
,do_pick_best_pirate,511,1106890,0.0-261.0-0.0,1656.9,,,,51,,,,,,,,,,,,,,,
,do_pick_best_pirate,512,1111888,0.0-262.0-0.0,3989.4,,,,51,,,,,,,,,,,,,,,
,do_pick_best_pirate,513,1115619,0.0-263.0-0.0,2721.3,,,,50,,,,,,,,,,,,,,,
,do_pick_best_pirate,514,1118678,0.0-264.0-0.0,2051,,,,51,,,,,,,,,,,,,,,
,html-keyboard-response,515,1124284,0.0-265.0-0.0,5605.2,<p>You are all done with the experiment!</p><p> You made $15 plus $2 in bonus payment!</p><p>Thank you for participating. You will recieve your payment within 3 days.<p><b>[Press the space bar to end the experiment]</b></p></div>,,32,,,,,,,,,,,,,,,,