"success","trial_type","trial_index","time_elapsed","internal_node_id","interactions","blur_events","focus_events","fullscreenenter_events","fullscreenexit_events","rt","stimulus","key_press","subject_id","participant_id","age","gender","prompt","response","choice_outcomes","context_n","context_img_id","trial_n","probe_img_id","pR_red","pR_white","pR_black","outcome","is_valid","image_to_show","probed_trial","probed_context","correct","probe","probed_trial_n","probed_context_n","context_im"
"true","fullscreen","0","3231","0.0-0.0","""event"",""trial"",""time""
""fullscreenenter"",""0"",""2321""
","
","
","""event"",""trial"",""time""
""fullscreenenter"",""0"",""2321""
","
","","","","","","","","","","","","","","","","","","","","","","","","","","",""
"","pavlovia","1","3236","0.0-1.0","""event"",""trial"",""time""
""fullscreenenter"",""0"",""2321""
","
","
","""event"",""trial"",""time""
""fullscreenenter"",""0"",""2321""
","
","","","","","","","","","","","","","","","","","","","","","","","","","","",""
"","welc_back","2","13008","0.0-2.0","""event"",""trial"",""time""
""fullscreenenter"",""0"",""2321""
","
","
","""event"",""trial"",""time""
""fullscreenenter"",""0"",""2321""
","
","null","run_exp/static/audio/clip_29_welcome_back.m4a","null","878","1063","8","Female","<div class='center'><p>Welcome to day 2!</p><p> Yesterday, you were the head captain of a pirate ship. You asked your fellow pirates to rob other ships of their gold across six different islands.</p></div>","","","","","","","","","","","","","","","","","","",""
"","html-keyboard-response","3","14606","0.0-3.0","""event"",""trial"",""time""
""fullscreenenter"",""0"",""2321""
","
","
","""event"",""trial"",""time""
""fullscreenenter"",""0"",""2321""
","
","1593.9000000953674","<div class='center'><p>Welcome to day 2!</p><p> Yesterday, you were the head captain of a pirate ship. You asked your fellow pirates to rob other ships of their gold across six different islands.</p><p><b>[Press the space bar to continue]</b></p></div>","32","","","","","","","","","","","","","","","","","","","","","","","",""
"","day_1_summary_goal","4","31827","0.0-4.0","""event"",""trial"",""time""
""fullscreenenter"",""0"",""2321""
","
","
","""event"",""trial"",""time""
""fullscreenenter"",""0"",""2321""
","
","null","run_exp/static/audio/clip_30_goal_of_game.m4a","null","","","","","<div class='center'><p>Today, like yesterday, you get to pick which pirate you want to rob the next ship.</p><p>If the pirate is successful in robbing a ship, you get gold coins that look like this: </p><p><img src='run_exp/static/images/tutorial/reward.png' height='150'></p><p> If they were not successful in robbing the ship, then you will get no gold coins and you'll see a big red x like this: </p><p><img src='run_exp/static/images/tutorial/reward_no.png' height='150'></p></div>","","","","","","","","","","","","","","","","","","",""
"","html-keyboard-response","5","32053","0.0-5.0","""event"",""trial"",""time""
""fullscreenenter"",""0"",""2321""
","
","
","""event"",""trial"",""time""
""fullscreenenter"",""0"",""2321""
","
","223.20000004768372","<div class='center'><p>Today, like yesterday, you get to pick which pirate you want to rob the next ship.</p><p>If the pirate is successful in robbing a ship, you get gold coins that look like this: </p><p><img src='run_exp/static/images/tutorial/reward.png' height='150'></p><p> If they were not successful in robbing the ship, then you will get no gold coins and you'll see a big red x like this: </p><p><img src='run_exp/static/images/tutorial/reward_no.png' height='150'></p><p><b>[Press the space bar to continue]</b></p></div>","32","","","","","","","","","","","","","","","","","","","","","","","",""
"","day_1_summary_pick","6","46770","0.0-6.0","""event"",""trial"",""time""
""fullscreenenter"",""0"",""2321""
","
","
","""event"",""trial"",""time""
""fullscreenenter"",""0"",""2321""
","
","null","run_exp/static/audio/clip_31_how_to_pick_a_pirate.m4a","null","","","","","<div class='center'><p>Also, just like yesterday, you will use the 1,2,3 keys on your keyboard to pick a pirate. Press '1' to choose red beard, '2' to choose white beard, and '3' to choose black beard . You only have 3 seconds to pick a pirate, so please make a choice quickly!</p></div>","","","","","","","","","","","","","","","","","","",""
"","html-keyboard-response","7","47110","0.0-7.0","""event"",""trial"",""time""
""fullscreenenter"",""0"",""2321""
","
","
","""event"",""trial"",""time""
""fullscreenenter"",""0"",""2321""
","
","337.2999999523163","<div class='center'><p>Also, just like yesterday, you will use the 1,2,3 keys on your keyboard to pick a pirate. Press '1' to choose red beard, '2' to choose white beard, and '3' to choose black beard . You only have 3 seconds to pick a pirate, so please make a choice quickly!</p><p><b>[Press the space bar to continue]</b></p></div>","32","","","","","","","","","","","","","","","","","","","","","","","",""
"","test_phase_begin","8","77510","0.0-8.0","""event"",""trial"",""time""
""fullscreenenter"",""0"",""2321""
","
","
","""event"",""trial"",""time""
""fullscreenenter"",""0"",""2321""
","
","null","run_exp/static/audio/clip_32_final_place.m4a","null","","","","","<div class='center'><p>You’ve arrived at the final island of your journey! Unfortunately, it’s very foggy out, so you won’t be able to see it in the distance like the other islands you've visited.</p><p>You’ll still be deciding which pirate you want to rob a ship like before. However, because of the fog, you also won’t be able to see the ship.</p><p>This means you do not have to remember the ships you rob on this island.</p><p>Unlike yesterday, you won't be visiting multiple islands today. You will stay on this island for the entire game. This game will last ~30 minutes.</p></div>","","","","","","","","","","","","","","","","","","",""
"","html-keyboard-response","9","77920","0.0-9.0","""event"",""trial"",""time""
""fullscreenenter"",""0"",""2321""
","
","
","""event"",""trial"",""time""
""fullscreenenter"",""0"",""2321""
","
","407.39999997615814","<div class='center'><p>You’ve arrived at the final island of your journey! Unfortunately, it’s very foggy out, so you won’t be able to see it in the distance like the other islands you've visited.</p><p>You’ll still be deciding which pirate you want to rob a ship like before. However, because of the fog, you also won’t be able to see the ship.</p><p>This means you do not have to remember the ships you rob on this island.</p><p>Unlike yesterday, you won't be visiting multiple islands today. You will stay on this island for the entire game. This game will last ~30 minutes.</p><p><b>[Press the space bar to continue]</b></p></div>","32","","","","","","","","","","","","","","","","","","","","","","","",""
"","explain_probe_1","10","85650","0.0-10.0","""event"",""trial"",""time""
""fullscreenenter"",""0"",""2321""
","
","
","""event"",""trial"",""time""
""fullscreenenter"",""0"",""2321""
","
","null","run_exp/static/audio/clip_33_recognition_1.m4a","null","","","","","<div class='center'><p> Sometimes you’ll be shown a ship, and you will be asked if you saw this ship on a past island.</p><p> Here is an example of what you will see.</p><p><img src='run_exp/static/images/tutorial/example_recog_trial.png' height='500'></p></div>","","","","","","","","","","","","","","","","","","",""
"","html-keyboard-response","11","89512","0.0-11.0","""event"",""trial"",""time""
""fullscreenenter"",""0"",""2321""
","
","
","""event"",""trial"",""time""
""fullscreenenter"",""0"",""2321""
","
","3859","<div class='center'><p> Sometimes you’ll be shown a ship, and you will be asked if you saw this ship on a past island.</p><p> Here is an example of what you will see.</p><p><img src='run_exp/static/images/tutorial/example_recog_trial.png' height='500'></p><p><b>[Press the space bar to continue]</b></p></div>","32","","","","","","","","","","","","","","","","","","","","","","","",""
"","explain_probe_2","12","111244","0.0-12.0","""event"",""trial"",""time""
""fullscreenenter"",""0"",""2321""
","
","
","""event"",""trial"",""time""
""fullscreenenter"",""0"",""2321""
","
","null","run_exp/static/audio/clip_34_recognition_2.m4a","null","","","","","<div class='center'><p> You will press the 5, 6, 7, 8 keys on your keyboard to respond.</p><p>If you are sure you saw the ship, press <b>5</b> on your keyboard.</p><p> If you think you saw it before but aren't sure, then press <b>6</b>.</p><p> If you think you have <b>not</b> seen it before but aren't sure, then press <b>7</b>.</p><p> If you are sure you did <b>not</b> see the ship before, then press <b>8</b>.</p><p><img src='run_exp/static/images/tutorial/example_recog_trial.png' height='500'></p></div>","","","","","","","","","","","","","","","","","","",""
"","html-keyboard-response","13","111929","0.0-13.0","""event"",""trial"",""time""
""fullscreenenter"",""0"",""2321""
","
","
","""event"",""trial"",""time""
""fullscreenenter"",""0"",""2321""
","
","681.8999999761581","<div class='center'><p> You will press the 5, 6, 7, 8 keys on your keyboard to respond.</p><p>If you are sure you saw the ship, press <b>5</b> on your keyboard.</p><p> If you think you saw it before but aren't sure, then press <b>6</b>.</p><p> If you think you have <b>not</b> seen it before but aren't sure, then press <b>7</b>.</p><p> If you are sure you did <b>not</b> see the ship before, then press <b>8</b>.</p><p><img src='run_exp/static/images/tutorial/example_recog_trial.png' height='500'></p><p><b>[Press the space bar to continue]</b></p></div>","32","","","","","","","","","","","","","","","","","","","","","","","",""
"","explain_outcome","14","129145","0.0-14.0","""event"",""trial"",""time""
""fullscreenenter"",""0"",""2321""
","
","
","""event"",""trial"",""time""
""fullscreenenter"",""0"",""2321""
","
","null","run_exp/static/audio/clip_35_recognition_3.m4a","null","","","","","<div class='center'><p> If you remember correctly, then you’ll get a gold coin like this: </p><p><img src='run_exp/static/images/tutorial/reward_small.png' height='200'></p><p>If you do not remember correctly, then you'll see a red x like this: </p><p><img src='run_exp/static/images/tutorial/reward_no.png' height='200'></p><p>Importantly, when you are shown a ship, take the time to remind yourself which island you saw it on. This will help you in the next part of the study.</p></div>","","","","","","","","","","","","","","","","","","",""
"","html-keyboard-response","15","129662","0.0-15.0","""event"",""trial"",""time""
""fullscreenenter"",""0"",""2321""
","
","
","""event"",""trial"",""time""
""fullscreenenter"",""0"",""2321""
","
","513.5","<div class='center'><p> If you remember correctly, then you’ll get a gold coin like this: </p><p><img src='run_exp/static/images/tutorial/reward_small.png' height='200'></p><p>If you do not remember correctly, then you'll see a red x like this: </p><p><img src='run_exp/static/images/tutorial/reward_no.png' height='200'></p><p>Importantly, when you are shown a ship, take the time to remind yourself which island you saw it on. This will help you in the next part of the study.</p><p><b>[Press the space bar to continue]</b></p></div>","32","","","","","","","","","","","","","","","","","","","","","","","",""
"","begin_test_phase","16","147003","0.0-16.0","""event"",""trial"",""time""
""fullscreenenter"",""0"",""2321""
","
","
","""event"",""trial"",""time""
""fullscreenenter"",""0"",""2321""
","
","null","run_exp/static/audio/clip_36_begin_final.m4a","null","","","","","<div class='center'><p>Let's go over the important points again. Your job is to: </p><p>1. Pick the pirate who is best at robbing ships and will bring you back gold coins. </p><p>2. Correctly remember whether or not you saw a ship before. If you did see the ship before, remind yourself on which island you saw it. </p></div>","","","","","","","","","","","","","","","","","","",""
"","html-keyboard-response","17","149091","0.0-17.0","""event"",""trial"",""time""
""fullscreenenter"",""0"",""2321""
","
","
","""event"",""trial"",""time""
""fullscreenenter"",""0"",""2321""
","
","1922.8000000715256","<div class='center'><p>Let's go over the important points again. Your job is to: </p><p>1. Pick the pirate who is best at robbing ships and will bring you back gold coins. </p><p>2. Correctly remember whether or not you saw a ship before. If you did see the ship before, remind yourself on which island you saw it. </p><p><b>[Press the space bar to continue]</b></p></div>","32","","","","","","","","","","","","","","","","","","","","","","","",""
"","do_welcome","18","153119","0.0-18.0","""event"",""trial"",""time""
""fullscreenenter"",""0"",""2321""
","
","
","""event"",""trial"",""time""
""fullscreenenter"",""0"",""2321""
","
","null","","","","","","","","null","","","","","","","","","","","","","","","","","",""
"","do_trial","19","157526","0.0-19.0-0.0","""event"",""trial"",""time""
""fullscreenenter"",""0"",""2321""
","
","
","""event"",""trial"",""time""
""fullscreenenter"",""0"",""2321""
","
","1809.5","","","","","","","","49","1,1,0","6","blank","230","null","0.3850381161474664","0.20235610598512785","0.7579401532178756","1","","","","","","","","",""
"","html-keyboard-response","20","158539","0.0-19.0-1.0","""event"",""trial"",""time""
""fullscreenenter"",""0"",""2321""
","
","
","""event"",""trial"",""time""
""fullscreenenter"",""0"",""2321""
","
","null","<p></p>","null","","","","","","","","","","","","","","","","","","","","","","","",""
"","do_trial","21","162878","0.0-20.0-0.0","""event"",""trial"",""time""
""fullscreenenter"",""0"",""2321""
","
","
","""event"",""trial"",""time""
""fullscreenenter"",""0"",""2321""
","
","1761","","","","","","","","50","0,0,1","6","blank","231","null","0.28500257831664816","0.26823442747894144","0.6079067915283808","0","","","","","","","","",""
"","html-keyboard-response","22","163887","0.0-20.0-1.0","""event"",""trial"",""time""
""fullscreenenter"",""0"",""2321""
","
","
","""event"",""trial"",""time""
""fullscreenenter"",""0"",""2321""
","
","null","<p></p>","null","","","","","","","","","","","","","","","","","","","","","","","",""
"","do_trial","23","167209","0.0-21.0-0.0","""event"",""trial"",""time""
""fullscreenenter"",""0"",""2321""
","
","
","""event"",""trial"",""time""
""fullscreenenter"",""0"",""2321""
","
","684.1000000238419","","","","","","","","49","1,1,0","6","blank","232","null","0.32934816596880845","0.2959103528090804","0.7443436145974878","1","","","","","","","","",""
"","html-keyboard-response","24","168213","0.0-21.0-1.0","""event"",""trial"",""time""
""fullscreenenter"",""0"",""2321""
","
","
","""event"",""trial"",""time""
""fullscreenenter"",""0"",""2321""
","
","null","<p></p>","null","","","","","","","","","","","","","","","","","","","","","","","",""
"","do_trial","25","171729","0.0-22.0-0.0","""event"",""trial"",""time""
""fullscreenenter"",""0"",""2321""
","
","
","""event"",""trial"",""time""
""fullscreenenter"",""0"",""2321""
","
","830.1000000238419","","","","","","","","49","0,0,1","6","blank","233","null","0.3090992864507437","0.16367794125576907","0.6760882944841095","0","","","","","","","","",""
"","html-keyboard-response","26","172747","0.0-22.0-1.0","""event"",""trial"",""time""
""fullscreenenter"",""0"",""2321""
","
","
","""event"",""trial"",""time""
""fullscreenenter"",""0"",""2321""
","
","null","<p></p>","null","","","","","","","","","","","","","","","","","","","","","","","",""
"","do_trial","27","175981","0.0-23.0-0.0","""event"",""trial"",""time""
""fullscreenenter"",""0"",""2321""
","
","
","""event"",""trial"",""time""
""fullscreenenter"",""0"",""2321""
","
","630.8999999761581","","","","","","","","51","0,0,0","6","blank","234","null","0.300917269936364","0.25317449679465365","0.6755553954529948","0","","","","","","","","",""
"","html-keyboard-response","28","176986","0.0-23.0-1.0","""event"",""trial"",""time""
""fullscreenenter"",""0"",""2321""
","
","
","""event"",""trial"",""time""
""fullscreenenter"",""0"",""2321""
","
","null","<p></p>","null","","","","","","","","","","","","","","","","","","","","","","","",""
"","do_trial","29","180226","0.0-24.0-0.0","""event"",""trial"",""time""
""fullscreenenter"",""0"",""2321""
","
","
","""event"",""trial"",""time""
""fullscreenenter"",""0"",""2321""
","
","661.2999999523163","","","","","","","","49","1,0,1","6","blank","235","null","0.343625756581228","0.27943020630716975","0.6172991734501139","1","","","","","","","","",""
"","html-keyboard-response","30","181238","0.0-24.0-1.0","""event"",""trial"",""time""
""fullscreenenter"",""0"",""2321""
","
","
","""event"",""trial"",""time""
""fullscreenenter"",""0"",""2321""
","
","null","<p></p>","null","","","","","","","","","","","","","","","","","","","","","","","",""
"","do_trial","31","184342","0.0-25.0-0.0","""event"",""trial"",""time""
""fullscreenenter"",""0"",""2321""
","
","
","""event"",""trial"",""time""
""fullscreenenter"",""0"",""2321""
","
","487.90000009536743","","","","","","","","49","0,1,1","6","blank","236","null","0.2853233025119839","0.1373355676086129","0.6112089614068323","0","","","","","","","","",""
"","html-keyboard-response","32","185344","0.0-25.0-1.0","""event"",""trial"",""time""
""fullscreenenter"",""0"",""2321""
","
","
","""event"",""trial"",""time""
""fullscreenenter"",""0"",""2321""
","
","null","<p></p>","null","","","","","","","","","","","","","","","","","","","","","","","",""
"","do_trial","33","190242","0.0-26.0-0.0","""event"",""trial"",""time""
""fullscreenenter"",""0"",""2321""
","
","
","""event"",""trial"",""time""
""fullscreenenter"",""0"",""2321""
","
","2338.5","","","","","","","","49","0,1,1","6","blank","237","null","0.3120788046958371","0.1083112010303274","0.8036337947881934","0","","","","","","","","",""
"","html-keyboard-response","34","191251","0.0-26.0-1.0","""event"",""trial"",""time""
""fullscreenenter"",""0"",""2321""
","
","
","""event"",""trial"",""time""
""fullscreenenter"",""0"",""2321""
","
","null","<p></p>","null","","","","","","","","","","","","","","","","","","","","","","","",""
"","do_trial","35","193932","0.0-27.0-0.0","""event"",""trial"",""time""
""fullscreenenter"",""0"",""2321""
","
","
","""event"",""trial"",""time""
""fullscreenenter"",""0"",""2321""
","
","0.20000004768371582","","","","","","","","49","1,0,1","6","blank","238","null","0.3325226705495931","0.12709629824081423","0.5862840816903395","1","","","","","","","","",""
"","html-keyboard-response","36","194944","0.0-27.0-1.0","""event"",""trial"",""time""
""fullscreenenter"",""0"",""2321""
","
","
","""event"",""trial"",""time""
""fullscreenenter"",""0"",""2321""
","
","null","<p></p>","null","","","","","","","","","","","","","","","","","","","","","","","",""
"","do_trial","37","198035","0.0-28.0-0.0","""event"",""trial"",""time""
""fullscreenenter"",""0"",""2321""
","
","
","""event"",""trial"",""time""
""fullscreenenter"",""0"",""2321""
","
","416","","","","","","","","49","0,0,0","6","blank","239","null","0.2043309898892506","0.07013883771937357","0.6398594348302323","0","","","","","","","","",""
"","html-keyboard-response","38","199047","0.0-28.0-1.0","""event"",""trial"",""time""
""fullscreenenter"",""0"",""2321""
","
","
","""event"",""trial"",""time""
""fullscreenenter"",""0"",""2321""
","
","null","<p></p>","null","","","","","","","","","","","","","","","","","","","","","","","",""
"","do_trial","39","202001","0.0-29.0-0.0","""event"",""trial"",""time""
""fullscreenenter"",""0"",""2321""
","
","
","""event"",""trial"",""time""
""fullscreenenter"",""0"",""2321""
","
","356.5","","","","","","","","49","0,0,1","6","blank","240","null","0.2804646302740929","0.07144952864390279","0.6005857209221248","0","","","","","","","","",""
"","html-keyboard-response","40","203018","0.0-29.0-1.0","""event"",""trial"",""time""
""fullscreenenter"",""0"",""2321""
","
","
","""event"",""trial"",""time""
""fullscreenenter"",""0"",""2321""
","
","null","<p></p>","null","","","","","","","","","","","","","","","","","","","","","","","",""
"","do_trial","41","205815","0.0-30.0-0.0","""event"",""trial"",""time""
""fullscreenenter"",""0"",""2321""
","
","
","""event"",""trial"",""time""
""fullscreenenter"",""0"",""2321""
","
","185.70000004768372","","","","","","","","49","1,0,1","6","blank","241","null","0.5099874945693784","0.06438422047901718","0.5209888051288748","1","","","","","","","","",""
"","html-keyboard-response","42","206818","0.0-30.0-1.0","""event"",""trial"",""time""
""fullscreenenter"",""0"",""2321""
","
","
","""event"",""trial"",""time""
""fullscreenenter"",""0"",""2321""
","
","null","<p></p>","null","","","","","","","","","","","","","","","","","","","","","","","",""
"","do_recog","43","212848","0.0-31.0-0.0","""event"",""trial"",""time""
""fullscreenenter"",""0"",""2321""
","
","
","""event"",""trial"",""time""
""fullscreenenter"",""0"",""2321""
","
","null","","","","","","","","null","","","","242","probe-201","","","","","1","[object Object]","151","3","0","","","",""
"","html-keyboard-response","44","213867","0.0-31.0-1.0","""event"",""trial"",""time""
""fullscreenenter"",""0"",""2321""
","
","
","""event"",""trial"",""time""
""fullscreenenter"",""0"",""2321""
","
","null","<p></p>","null","","","","","","","","","","","","","","","","","","","","","","","",""
"","do_trial","45","219950","0.0-32.0-0.0","""event"",""trial"",""time""
""fullscreenenter"",""0"",""2321""
","
","
","""event"",""trial"",""time""
""fullscreenenter"",""0"",""2321""
","
","null","","","","","","","","null","0,0,1","6","blank","243","null","0.6459812291652857","0.15084057968270942","0.3310696427718536","","","","","","","","","",""
"","html-keyboard-response","46","220954","0.0-32.0-1.0","""event"",""trial"",""time""
""fullscreenenter"",""0"",""2321""
","
","
","""event"",""trial"",""time""
""fullscreenenter"",""0"",""2321""
","
","null","<p></p>","null","","","","","","","","","","","","","","","","","","","","","","","",""
"","do_recog","47","226987","0.0-33.0-0.0","""event"",""trial"",""time""
""fullscreenenter"",""0"",""2321""
","
","
","""event"",""trial"",""time""
""fullscreenenter"",""0"",""2321""
","
","null","","","","","","","","null","","","","244","probe-34","","","","","1","[object Object]","32","0","0","","","",""
"","html-keyboard-response","48","228005","0.0-33.0-1.0","""event"",""trial"",""time""
""fullscreenenter"",""0"",""2321""
","
","
","""event"",""trial"",""time""
""fullscreenenter"",""0"",""2321""
","
","null","<p></p>","null","","","","","","","","","","","","","","","","","","","","","","","",""
"","do_trial","49","231420","0.0-34.0-0.0","""event"",""trial"",""time""
""fullscreenenter"",""0"",""2321""
","
","
","""event"",""trial"",""time""
""fullscreenenter"",""0"",""2321""
","
","837.1000000238419","","","","","","","","49","1,0,1","6","blank","245","null","0.616997956707083","0.24480091231694076","0.4383491448334778","1","","","","","","","","",""
"","html-keyboard-response","50","232436","0.0-34.0-1.0","""event"",""trial"",""time""
""fullscreenenter"",""0"",""2321""
","
","
","""event"",""trial"",""time""
""fullscreenenter"",""0"",""2321""
","
","null","<p></p>","null","","","","","","","","","","","","","","","","","","","","","","","",""
"","do_trial","51","235675","0.0-35.0-0.0","""event"",""trial"",""time""
""fullscreenenter"",""0"",""2321""
","
","
","""event"",""trial"",""time""
""fullscreenenter"",""0"",""2321""
","
","618.7000000476837","","","","","","","","49","1,0,0","6","blank","246","null","0.6080600865623544","0.08866897066515439","0.27488736243860296","1","","","","","","","","",""
"","html-keyboard-response","52","236685","0.0-35.0-1.0","""event"",""trial"",""time""
""fullscreenenter"",""0"",""2321""
","
","
","""event"",""trial"",""time""
""fullscreenenter"",""0"",""2321""
","
","null","<p></p>","null","","","","","","","","","","","","","","","","","","","","","","","",""
"","do_trial","53","240000","0.0-36.0-0.0","""event"",""trial"",""time""
""fullscreenenter"",""0"",""2321""
","
","
","""event"",""trial"",""time""
""fullscreenenter"",""0"",""2321""
","
","635.5","","","","","","","","49","1,0,0","6","blank","247","null","0.5287797320915901","0.11008488239563935","0.3972197314767389","1","","","","","","","","",""
"","html-keyboard-response","54","241003","0.0-36.0-1.0","""event"",""trial"",""time""
""fullscreenenter"",""0"",""2321""
","
","
","""event"",""trial"",""time""
""fullscreenenter"",""0"",""2321""
","
","null","<p></p>","null","","","","","","","","","","","","","","","","","","","","","","","",""
"","do_recog","55","244635","0.0-37.0-0.0","""event"",""trial"",""time""
""fullscreenenter"",""0"",""2321""
","
","
","""event"",""trial"",""time""
""fullscreenenter"",""0"",""2321""
","
","2105.399999976158","","","","","","","","53","","","","248","probe-186","","","","","1","[object Object]","79","1","1","","","",""
"","html-keyboard-response","56","245643","0.0-37.0-1.0","""event"",""trial"",""time""
""fullscreenenter"",""0"",""2321""
","
","
","""event"",""trial"",""time""
""fullscreenenter"",""0"",""2321""
","
","null","<p></p>","null","","","","","","","","","","","","","","","","","","","","","","","",""
"","do_trial","57","250168","0.0-38.0-0.0","""event"",""trial"",""time""
""fullscreenenter"",""0"",""2321""
","
","
","""event"",""trial"",""time""
""fullscreenenter"",""0"",""2321""
","
","1934.6999999284744","","","","","","","","49","0,1,0","6","blank","249","null","0.5234077054294017","0.18051935806871844","0.2992781866232164","0","","","","","","","","",""
"","html-keyboard-response","58","251174","0.0-38.0-1.0","""event"",""trial"",""time""
""fullscreenenter"",""0"",""2321""
","
","
","""event"",""trial"",""time""
""fullscreenenter"",""0"",""2321""
","
","null","<p></p>","null","","","","","","","","","","","","","","","","","","","","","","","",""
"","do_recog","59","254552","0.0-39.0-0.0","""event"",""trial"",""time""
""fullscreenenter"",""0"",""2321""
","
","
","""event"",""trial"",""time""
""fullscreenenter"",""0"",""2321""
","
","1852.0999999046326","","","","","","","","53","","","","250","probe-221","","","","","1","[object Object]","35","0","1","","","",""
"","html-keyboard-response","60","255567","0.0-39.0-1.0","""event"",""trial"",""time""
""fullscreenenter"",""0"",""2321""
","
","
","""event"",""trial"",""time""
""fullscreenenter"",""0"",""2321""
","
","null","<p></p>","null","","","","","","","","","","","","","","","","","","","","","","","",""
"","do_trial","61","258982","0.0-40.0-0.0","""event"",""trial"",""time""
""fullscreenenter"",""0"",""2321""
","
","
","""event"",""trial"",""time""
""fullscreenenter"",""0"",""2321""
","
","766.8000000715256","","","","","","","","49","1,0,0","6","blank","251","null","0.5458863528557621","0.0614653327091534","0.3586746515438023","1","","","","","","","","",""
"","html-keyboard-response","62","259997","0.0-40.0-1.0","""event"",""trial"",""time""
""fullscreenenter"",""0"",""2321""
","
","
","""event"",""trial"",""time""
""fullscreenenter"",""0"",""2321""
","
","null","<p></p>","null","","","","","","","","","","","","","","","","","","","","","","","",""
"","do_trial","63","262929","0.0-41.0-0.0","""event"",""trial"",""time""
""fullscreenenter"",""0"",""2321""
","
","
","""event"",""trial"",""time""
""fullscreenenter"",""0"",""2321""
","
","356.39999997615814","","","","","","","","49","1,0,1","6","blank","252","null","0.46997533067985736","0.09507413383360647","0.40278436121041983","1","","","","","","","","",""
"","html-keyboard-response","64","263944","0.0-41.0-1.0","""event"",""trial"",""time""
""fullscreenenter"",""0"",""2321""
","
","
","""event"",""trial"",""time""
""fullscreenenter"",""0"",""2321""
","
","null","<p></p>","null","","","","","","","","","","","","","","","","","","","","","","","",""
"","do_trial","65","267125","0.0-42.0-0.0","""event"",""trial"",""time""
""fullscreenenter"",""0"",""2321""
","
","
","""event"",""trial"",""time""
""fullscreenenter"",""0"",""2321""
","
","556.2999999523163","","","","","","","","49","1,0,0","6","blank","253","null","0.5874181653685546","0.08673201159472967","0.3978753559075207","1","","","","","","","","",""
"","html-keyboard-response","66","268143","0.0-42.0-1.0","""event"",""trial"",""time""
""fullscreenenter"",""0"",""2321""
","
","
","""event"",""trial"",""time""
""fullscreenenter"",""0"",""2321""
","
","null","<p></p>","null","","","","","","","","","","","","","","","","","","","","","","","",""
"","do_trial","67","271268","0.0-43.0-0.0","""event"",""trial"",""time""
""fullscreenenter"",""0"",""2321""
","
","
","""event"",""trial"",""time""
""fullscreenenter"",""0"",""2321""
","
","432.5","","","","","","","","49","0,1,1","6","blank","254","null","0.6772444387098387","0.144544478829601","0.22337675640426774","0","","","","","","","","",""
"","html-keyboard-response","68","272270","0.0-43.0-1.0","""event"",""trial"",""time""
""fullscreenenter"",""0"",""2321""
","
","
","""event"",""trial"",""time""
""fullscreenenter"",""0"",""2321""
","
","null","<p></p>","null","","","","","","","","","","","","","","","","","","","","","","","",""
"","do_recog","69","275589","0.0-44.0-0.0","""event"",""trial"",""time""
""fullscreenenter"",""0"",""2321""
","
","
","""event"",""trial"",""time""
""fullscreenenter"",""0"",""2321""
","
","1791.3000000715256","","","","","","","","53","","","","255","probe-59","","","","","1","[object Object]","114","2","1","","","",""
"","html-keyboard-response","70","276604","0.0-44.0-1.0","""event"",""trial"",""time""
""fullscreenenter"",""0"",""2321""
","
","
","""event"",""trial"",""time""
""fullscreenenter"",""0"",""2321""
","
","null","<p></p>","null","","","","","","","","","","","","","","","","","","","","","","","",""
"","do_trial","71","279932","0.0-45.0-0.0","""event"",""trial"",""time""
""fullscreenenter"",""0"",""2321""
","
","
","""event"",""trial"",""time""
""fullscreenenter"",""0"",""2321""
","
","669.2000000476837","","","","","","","","49","1,0,1","6","blank","256","null","0.7361994317194048","0.1786474993270354","0.3928034254860105","1","","","","","","","","",""
"","html-keyboard-response","72","280943","0.0-45.0-1.0","""event"",""trial"",""time""
""fullscreenenter"",""0"",""2321""
","
","
","""event"",""trial"",""time""
""fullscreenenter"",""0"",""2321""
","
","null","<p></p>","null","","","","","","","","","","","","","","","","","","","","","","","",""
"","do_recog","73","283822","0.0-46.0-0.0","""event"",""trial"",""time""
""fullscreenenter"",""0"",""2321""
","
","
","""event"",""trial"",""time""
""fullscreenenter"",""0"",""2321""
","
","1362","","","","","","","","53","","","","257","probe-250","","","","","0","[object Object]","null","null","0","","","",""
"","html-keyboard-response","74","284840","0.0-46.0-1.0","""event"",""trial"",""time""
""fullscreenenter"",""0"",""2321""
","
","
","""event"",""trial"",""time""
""fullscreenenter"",""0"",""2321""
","
","null","<p></p>","null","","","","","","","","","","","","","","","","","","","","","","","",""
"","do_trial","75","288090","0.0-47.0-0.0","""event"",""trial"",""time""
""fullscreenenter"",""0"",""2321""
","
","
","""event"",""trial"",""time""
""fullscreenenter"",""0"",""2321""
","
","635.2000000476837","","","","","","","","49","0,0,0","6","blank","258","null","0.5577857207921822","0.1826137554656263","0.39725129529216874","0","","","","","","","","",""
"","html-keyboard-response","76","289102","0.0-47.0-1.0","""event"",""trial"",""time""
""fullscreenenter"",""0"",""2321""
","
","
","""event"",""trial"",""time""
""fullscreenenter"",""0"",""2321""
","
","null","<p></p>","null","","","","","","","","","","","","","","","","","","","","","","","",""
"","do_trial","77","291784","0.0-48.0-0.0","""event"",""trial"",""time""
""fullscreenenter"",""0"",""2321""
","
","
","""event"",""trial"",""time""
""fullscreenenter"",""0"",""2321""
","
","63.60000002384186","","","","","","","","49","0,0,0","6","blank","259","null","0.5651506546839334","0.10576851312165243","0.4460634726302062","0","","","","","","","","",""
"","html-keyboard-response","78","292787","0.0-48.0-1.0","""event"",""trial"",""time""
""fullscreenenter"",""0"",""2321""
","
","
","""event"",""trial"",""time""
""fullscreenenter"",""0"",""2321""
","
","null","<p></p>","null","","","","","","","","","","","","","","","","","","","","","","","",""
"","do_recog","79","295446","0.0-49.0-0.0","""event"",""trial"",""time""
""fullscreenenter"",""0"",""2321""
","
","
","""event"",""trial"",""time""
""fullscreenenter"",""0"",""2321""
","
","1128.8999999761581","","","","","","","","56","","","","260","probe-103","","","","","1","[object Object]","33","0","0","","","",""
"","html-keyboard-response","80","296448","0.0-49.0-1.0","""event"",""trial"",""time""
""fullscreenenter"",""0"",""2321""
","
","
","""event"",""trial"",""time""
""fullscreenenter"",""0"",""2321""
","
","null","<p></p>","null","","","","","","","","","","","","","","","","","","","","","","","",""
"","do_trial","81","299734","0.0-50.0-0.0","""event"",""trial"",""time""
""fullscreenenter"",""0"",""2321""
","
","
","""event"",""trial"",""time""
""fullscreenenter"",""0"",""2321""
","
","600.2000000476837","","","","","","","","49","1,0,0","6","blank","261","null","0.5755129113718204","0.15776317834749778","0.40233264079848424","1","","","","","","","","",""
"","html-keyboard-response","82","300749","0.0-50.0-1.0","""event"",""trial"",""time""
""fullscreenenter"",""0"",""2321""
","
","
","""event"",""trial"",""time""
""fullscreenenter"",""0"",""2321""
","
","null","<p></p>","null","","","","","","","","","","","","","","","","","","","","","","","",""
"","do_recog","83","303385","0.0-51.0-0.0","""event"",""trial"",""time""
""fullscreenenter"",""0"",""2321""
","
","
","""event"",""trial"",""time""
""fullscreenenter"",""0"",""2321""
","
","1107.3999999761581","","","","","","","","53","","","","262","probe-91","","","","","1","[object Object]","154","3","1","","","",""
"","html-keyboard-response","84","304393","0.0-51.0-1.0","""event"",""trial"",""time""
""fullscreenenter"",""0"",""2321""
","
","
","""event"",""trial"",""time""
""fullscreenenter"",""0"",""2321""
","
","null","<p></p>","null","","","","","","","","","","","","","","","","","","","","","","","",""
"","do_trial","85","308951","0.0-52.0-0.0","""event"",""trial"",""time""
""fullscreenenter"",""0"",""2321""
","
","
","""event"",""trial"",""time""
""fullscreenenter"",""0"",""2321""
","
","1874","","","","","","","","49","0,0,0","6","blank","263","null","0.45790946039424835","0.170569661586391","0.28646989206695805","0","","","","","","","","",""
"","html-keyboard-response","86","309962","0.0-52.0-1.0","""event"",""trial"",""time""
""fullscreenenter"",""0"",""2321""
","
","
","""event"",""trial"",""time""
""fullscreenenter"",""0"",""2321""
","
","null","<p></p>","null","","","","","","","","","","","","","","","","","","","","","","","",""
"","do_trial","87","313273","0.0-53.0-0.0","""event"",""trial"",""time""
""fullscreenenter"",""0"",""2321""
","
","
","""event"",""trial"",""time""
""fullscreenenter"",""0"",""2321""
","
","737.1000000238419","","","","","","","","49","0,0,0","6","blank","264","null","0.311088515285986","0.08243902787983665","0.18467350942793936","0","","","","","","","","",""
"","html-keyboard-response","88","314284","0.0-53.0-1.0","""event"",""trial"",""time""
""fullscreenenter"",""0"",""2321""
","
","
","""event"",""trial"",""time""
""fullscreenenter"",""0"",""2321""
","
","null","<p></p>","null","","","","","","","","","","","","","","","","","","","","","","","",""
"","do_trial","89","317246","0.0-54.0-0.0","""event"",""trial"",""time""
""fullscreenenter"",""0"",""2321""
","
","
","""event"",""trial"",""time""
""fullscreenenter"",""0"",""2321""
","
","345.10000002384186","","","","","","","","49","0,0,0","6","blank","265","null","0.47557421185743354","0.1015686341297994","0.3159320904580667","0","","","","","","","","",""
"","html-keyboard-response","90","318249","0.0-54.0-1.0","""event"",""trial"",""time""
""fullscreenenter"",""0"",""2321""
","
","
","""event"",""trial"",""time""
""fullscreenenter"",""0"",""2321""
","
","null","<p></p>","null","","","","","","","","","","","","","","","","","","","","","","","",""
"","do_trial","91","321240","0.0-55.0-0.0","""event"",""trial"",""time""
""fullscreenenter"",""0"",""2321""
","
","
","""event"",""trial"",""time""
""fullscreenenter"",""0"",""2321""
","
","384.5","","","","","","","","49","1,0,0","6","blank","266","null","0.4666947280591029","0.0911630035168168","0.31225677586353434","1","","","","","","","","",""
"","html-keyboard-response","92","322243","0.0-55.0-1.0","""event"",""trial"",""time""
""fullscreenenter"",""0"",""2321""
","
","
","""event"",""trial"",""time""
""fullscreenenter"",""0"",""2321""
","
","null","<p></p>","null","","","","","","","","","","","","","","","","","","","","","","","",""
"","do_trial","93","325321","0.0-56.0-0.0","""event"",""trial"",""time""
""fullscreenenter"",""0"",""2321""
","
","
","""event"",""trial"",""time""
""fullscreenenter"",""0"",""2321""
","
","487.8000000715256","","","","","","","","49","0,0,0","6","blank","267","null","0.5798954749730051","0.08003689430655765","0.3023715376846319","0","","","","","","","","",""
"","html-keyboard-response","94","326334","0.0-56.0-1.0","""event"",""trial"",""time""
""fullscreenenter"",""0"",""2321""
","
","
","""event"",""trial"",""time""
""fullscreenenter"",""0"",""2321""
","
","null","<p></p>","null","","","","","","","","","","","","","","","","","","","","","","","",""
"","do_recog","95","329060","0.0-57.0-0.0","""event"",""trial"",""time""
""fullscreenenter"",""0"",""2321""
","
","
","""event"",""trial"",""time""
""fullscreenenter"",""0"",""2321""
","
","1201","","","","","","","","54","","","","268","probe-166","","","","","1","[object Object]","158","3","1","","","",""
"","html-keyboard-response","96","330073","0.0-57.0-1.0","""event"",""trial"",""time""
""fullscreenenter"",""0"",""2321""
","
","
","""event"",""trial"",""time""
""fullscreenenter"",""0"",""2321""
","
","null","<p></p>","null","","","","","","","","","","","","","","","","","","","","","","","",""
"","break","97","333273","0.0-58.0-0.0","""event"",""trial"",""time""
""fullscreenenter"",""0"",""2321""
","
","
","""event"",""trial"",""time""
""fullscreenenter"",""0"",""2321""
","
","3197.5","<div class='center'><p>Time to take a quick break! You have 2 minutes to rest, but you can move on sooner if you'd like.</p><p> Press the <b>space bar</b> to continue.</p></div>","32","","","","","","","","","","","","","","","","","","","","","","","",""
"","do_trial","98","337785","0.0-58.0-1.0","""event"",""trial"",""time""
""fullscreenenter"",""0"",""2321""
","
","
","""event"",""trial"",""time""
""fullscreenenter"",""0"",""2321""
","
","1909.2000000476837","","","","","","","","49","0,1,1","6","blank","269","null","0.5302087224781323","0.09533075553413904","0.300846837454122","0","","","","","","","","",""
"","html-keyboard-response","99","338795","0.0-58.0-2.0","""event"",""trial"",""time""
""fullscreenenter"",""0"",""2321""
","
","
","""event"",""trial"",""time""
""fullscreenenter"",""0"",""2321""
","
","null","<p></p>","null","","","","","","","","","","","","","","","","","","","","","","","",""
"","do_recog","100","341086","0.0-59.0-0.0","""event"",""trial"",""time""
""fullscreenenter"",""0"",""2321""
","
","
","""event"",""trial"",""time""
""fullscreenenter"",""0"",""2321""
","
","770.7000000476837","","","","","","","","54","","","","270","probe-162","","","","","1","[object Object]","119","2","1","","","",""
"","html-keyboard-response","101","342096","0.0-59.0-1.0","""event"",""trial"",""time""
""fullscreenenter"",""0"",""2321""
","
","
","""event"",""trial"",""time""
""fullscreenenter"",""0"",""2321""
","
","null","<p></p>","null","","","","","","","","","","","","","","","","","","","","","","","",""
"","do_trial","102","345207","0.0-60.0-0.0","""event"",""trial"",""time""
""fullscreenenter"",""0"",""2321""
","
","
","""event"",""trial"",""time""
""fullscreenenter"",""0"",""2321""
","
","520.3999999761581","","","","","","","","49","1,0,0","6","blank","271","null","0.6388309620359996","0.05587011859488597","0.29954911518899974","1","","","","","","","","",""
"","html-keyboard-response","103","346213","0.0-60.0-1.0","""event"",""trial"",""time""
""fullscreenenter"",""0"",""2321""
","
","
","""event"",""trial"",""time""
""fullscreenenter"",""0"",""2321""
","
","null","<p></p>","null","","","","","","","","","","","","","","","","","","","","","","","",""
"","do_trial","104","349219","0.0-61.0-0.0","""event"",""trial"",""time""
""fullscreenenter"",""0"",""2321""
","
","
","""event"",""trial"",""time""
""fullscreenenter"",""0"",""2321""
","
","347.89999997615814","","","","","","","","49","1,0,0","6","blank","272","null","0.6813842256843574","0.1493544636744644","0.2604795474560858","1","","","","","","","","",""
"","html-keyboard-response","105","350231","0.0-61.0-1.0","""event"",""trial"",""time""
""fullscreenenter"",""0"",""2321""
","
","
","""event"",""trial"",""time""
""fullscreenenter"",""0"",""2321""
","
","null","<p></p>","null","","","","","","","","","","","","","","","","","","","","","","","",""
"","do_recog","106","353404","0.0-62.0-0.0","""event"",""trial"",""time""
""fullscreenenter"",""0"",""2321""
","
","
","""event"",""trial"",""time""
""fullscreenenter"",""0"",""2321""
","
","1649.1000000238419","","","","","","","","54","","","","273","probe-200","","","","","1","[object Object]","73","1","1","","","",""
"","html-keyboard-response","107","354415","0.0-62.0-1.0","""event"",""trial"",""time""
""fullscreenenter"",""0"",""2321""
","
","
","""event"",""trial"",""time""
""fullscreenenter"",""0"",""2321""
","
","null","<p></p>","null","","","","","","","","","","","","","","","","","","","","","","","",""
"","do_trial","108","357924","0.0-63.0-0.0","""event"",""trial"",""time""
""fullscreenenter"",""0"",""2321""
","
","
","""event"",""trial"",""time""
""fullscreenenter"",""0"",""2321""
","
","913.3999999761581","","","","","","","","49","1,0,0","6","blank","274","null","0.5617465327717759","0.1834073495862641","0.3716656852395079","1","","","","","","","","",""
"","html-keyboard-response","109","358942","0.0-63.0-1.0","""event"",""trial"",""time""
""fullscreenenter"",""0"",""2321""
","
","
","""event"",""trial"",""time""
""fullscreenenter"",""0"",""2321""
","
","null","<p></p>","null","","","","","","","","","","","","","","","","","","","","","","","",""
"","do_recog","110","361292","0.0-64.0-0.0","""event"",""trial"",""time""
""fullscreenenter"",""0"",""2321""
","
","
","""event"",""trial"",""time""
""fullscreenenter"",""0"",""2321""
","
","830.7999999523163","","","","","","","","54","","","","275","probe-115","","","","","1","[object Object]","112","2","1","","","",""
"","html-keyboard-response","111","362302","0.0-64.0-1.0","""event"",""trial"",""time""
""fullscreenenter"",""0"",""2321""
","
","
","""event"",""trial"",""time""
""fullscreenenter"",""0"",""2321""
","
","null","<p></p>","null","","","","","","","","","","","","","","","","","","","","","","","",""
"","do_trial","112","365944","0.0-65.0-0.0","""event"",""trial"",""time""
""fullscreenenter"",""0"",""2321""
","
","
","""event"",""trial"",""time""
""fullscreenenter"",""0"",""2321""
","
","1020.4000000953674","","","","","","","","49","0,0,0","6","blank","276","null","0.6541254526088853","0.07043008703594167","0.40399223345327334","0","","","","","","","","",""
"","html-keyboard-response","113","366952","0.0-65.0-1.0","""event"",""trial"",""time""
""fullscreenenter"",""0"",""2321""
","
","
","""event"",""trial"",""time""
""fullscreenenter"",""0"",""2321""
","
","null","<p></p>","null","","","","","","","","","","","","","","","","","","","","","","","",""
"","do_recog","114","369238","0.0-66.0-0.0","""event"",""trial"",""time""
""fullscreenenter"",""0"",""2321""
","
","
","""event"",""trial"",""time""
""fullscreenenter"",""0"",""2321""
","
","767","","","","","","","","54","","","","277","probe-154","","","","","1","[object Object]","30","0","1","","","",""
"","html-keyboard-response","115","370247","0.0-66.0-1.0","""event"",""trial"",""time""
""fullscreenenter"",""0"",""2321""
","
","
","""event"",""trial"",""time""
""fullscreenenter"",""0"",""2321""
","
","null","<p></p>","null","","","","","","","","","","","","","","","","","","","","","","","",""
"","do_trial","116","373603","0.0-67.0-0.0","""event"",""trial"",""time""
""fullscreenenter"",""0"",""2321""
","
","
","""event"",""trial"",""time""
""fullscreenenter"",""0"",""2321""
","
","770.7000000476837","","","","","","","","49","1,0,0","6","blank","278","null","0.556256488580427","0.14330942828460544","0.25986199468343174","1","","","","","","","","",""
"","html-keyboard-response","117","374617","0.0-67.0-1.0","""event"",""trial"",""time""
""fullscreenenter"",""0"",""2321""
","
","
","""event"",""trial"",""time""
""fullscreenenter"",""0"",""2321""
","
","null","<p></p>","null","","","","","","","","","","","","","","","","","","","","","","","",""
"","do_trial","118","377783","0.0-68.0-0.0","""event"",""trial"",""time""
""fullscreenenter"",""0"",""2321""
","
","
","""event"",""trial"",""time""
""fullscreenenter"",""0"",""2321""
","
","587.7999999523163","","","","","","","","49","0,0,0","6","blank","279","null","0.4176055617977016","0.06289198896392509","0.28794857109780814","0","","","","","","","","",""
"","html-keyboard-response","119","378795","0.0-68.0-1.0","""event"",""trial"",""time""
""fullscreenenter"",""0"",""2321""
","
","
","""event"",""trial"",""time""
""fullscreenenter"",""0"",""2321""
","
","null","<p></p>","null","","","","","","","","","","","","","","","","","","","","","","","",""
"","do_recog","120","380946","0.0-69.0-0.0","""event"",""trial"",""time""
""fullscreenenter"",""0"",""2321""
","
","
","""event"",""trial"",""time""
""fullscreenenter"",""0"",""2321""
","
","622","","","","","","","","53","","","","280","probe-80","","","","","1","[object Object]","155","3","1","","","",""
"","html-keyboard-response","121","381952","0.0-69.0-1.0","""event"",""trial"",""time""
""fullscreenenter"",""0"",""2321""
","
","
","""event"",""trial"",""time""
""fullscreenenter"",""0"",""2321""
","
","null","<p></p>","null","","","","","","","","","","","","","","","","","","","","","","","",""
"","do_trial","122","385203","0.0-70.0-0.0","""event"",""trial"",""time""
""fullscreenenter"",""0"",""2321""
","
","
","""event"",""trial"",""time""
""fullscreenenter"",""0"",""2321""
","
","607.1000000238419","","","","","","","","49","1,1,1","6","blank","281","null","0.4417911002683104","0.13560622938866407","0.385827942009748","1","","","","","","","","",""
"","html-keyboard-response","123","386214","0.0-70.0-1.0","""event"",""trial"",""time""
""fullscreenenter"",""0"",""2321""
","
","
","""event"",""trial"",""time""
""fullscreenenter"",""0"",""2321""
","
","null","<p></p>","null","","","","","","","","","","","","","","","","","","","","","","","",""
"","do_recog","124","388465","0.0-71.0-0.0","""event"",""trial"",""time""
""fullscreenenter"",""0"",""2321""
","
","
","""event"",""trial"",""time""
""fullscreenenter"",""0"",""2321""
","
","733.8999999761581","","","","","","","","53","","","","282","probe-37","","","","","1","[object Object]","38","0","1","","","",""
"","html-keyboard-response","125","389477","0.0-71.0-1.0","""event"",""trial"",""time""
""fullscreenenter"",""0"",""2321""
","
","
","""event"",""trial"",""time""
""fullscreenenter"",""0"",""2321""
","
","null","<p></p>","null","","","","","","","","","","","","","","","","","","","","","","","",""
"","do_trial","126","393604","0.0-72.0-0.0","""event"",""trial"",""time""
""fullscreenenter"",""0"",""2321""
","
","
","""event"",""trial"",""time""
""fullscreenenter"",""0"",""2321""
","
","1543.5","","","","","","","","49","1,0,0","6","blank","283","null","0.7252672303072727","0.14951172757329212","0.42431980238695505","1","","","","","","","","",""
"","html-keyboard-response","127","394607","0.0-72.0-1.0","""event"",""trial"",""time""
""fullscreenenter"",""0"",""2321""
","
","
","""event"",""trial"",""time""
""fullscreenenter"",""0"",""2321""
","
","null","<p></p>","null","","","","","","","","","","","","","","","","","","","","","","","",""
"","do_trial","128","397674","0.0-73.0-0.0","""event"",""trial"",""time""
""fullscreenenter"",""0"",""2321""
","
","
","""event"",""trial"",""time""
""fullscreenenter"",""0"",""2321""
","
","472.89999997615814","","","","","","","","49","1,0,0","6","blank","284","null","0.8061184076654289","0.15596273927888166","0.27464379774592784","1","","","","","","","","",""
"","html-keyboard-response","129","398678","0.0-73.0-1.0","""event"",""trial"",""time""
""fullscreenenter"",""0"",""2321""
","
","
","""event"",""trial"",""time""
""fullscreenenter"",""0"",""2321""
","
","null","<p></p>","null","","","","","","","","","","","","","","","","","","","","","","","",""
"","do_trial","130","401811","0.0-74.0-0.0","""event"",""trial"",""time""
""fullscreenenter"",""0"",""2321""
","
","
","""event"",""trial"",""time""
""fullscreenenter"",""0"",""2321""
","
","542.7000000476837","","","","","","","","49","1,1,0","6","blank","285","null","0.8786521864810383","0.19753765174370802","0.2105807588918799","1","","","","","","","","",""
"","html-keyboard-response","131","402823","0.0-74.0-1.0","""event"",""trial"",""time""
""fullscreenenter"",""0"",""2321""
","
","
","""event"",""trial"",""time""
""fullscreenenter"",""0"",""2321""
","
","null","<p></p>","null","","","","","","","","","","","","","","","","","","","","","","","",""
"","do_trial","132","406667","0.0-75.0-0.0","""event"",""trial"",""time""
""fullscreenenter"",""0"",""2321""
","
","
","""event"",""trial"",""time""
""fullscreenenter"",""0"",""2321""
","
","1228.1999999284744","","","","","","","","49","1,0,0","6","blank","286","null","0.8251515957137181","0.10545735737144547","0.2573593391870058","1","","","","","","","","",""
"","html-keyboard-response","133","407674","0.0-75.0-1.0","""event"",""trial"",""time""
""fullscreenenter"",""0"",""2321""
","
","
","""event"",""trial"",""time""
""fullscreenenter"",""0"",""2321""
","
","null","<p></p>","null","","","","","","","","","","","","","","","","","","","","","","","",""
"","do_trial","134","410678","0.0-76.0-0.0","""event"",""trial"",""time""
""fullscreenenter"",""0"",""2321""
","
","
","""event"",""trial"",""time""
""fullscreenenter"",""0"",""2321""
","
","389.10000002384186","","","","","","","","49","1,0,0","6","blank","287","null","0.5978252702041276","0.06893027318003454","0.30601373149798045","1","","","","","","","","",""
"","html-keyboard-response","135","411689","0.0-76.0-1.0","""event"",""trial"",""time""
""fullscreenenter"",""0"",""2321""
","
","
","""event"",""trial"",""time""
""fullscreenenter"",""0"",""2321""
","
","null","<p></p>","null","","","","","","","","","","","","","","","","","","","","","","","",""
"","do_trial","136","414854","0.0-77.0-0.0","""event"",""trial"",""time""
""fullscreenenter"",""0"",""2321""
","
","
","""event"",""trial"",""time""
""fullscreenenter"",""0"",""2321""
","
","545.6999999284744","","","","","","","","49","0,0,1","6","blank","288","null","0.5774218488501389","0.10902169095379806","0.32316812747541923","0","","","","","","","","",""
"","html-keyboard-response","137","415865","0.0-77.0-1.0","""event"",""trial"",""time""
""fullscreenenter"",""0"",""2321""
","
","
","""event"",""trial"",""time""
""fullscreenenter"",""0"",""2321""
","
","null","<p></p>","null","","","","","","","","","","","","","","","","","","","","","","","",""
"","do_recog","138","418380","0.0-78.0-0.0","""event"",""trial"",""time""
""fullscreenenter"",""0"",""2321""
","
","
","""event"",""trial"",""time""
""fullscreenenter"",""0"",""2321""
","
","990.7999999523163","","","","","","","","54","","","","289","probe-136","","","","","1","[object Object]","116","2","1","","","",""
"","html-keyboard-response","139","419382","0.0-78.0-1.0","""event"",""trial"",""time""
""fullscreenenter"",""0"",""2321""
","
","
","""event"",""trial"",""time""
""fullscreenenter"",""0"",""2321""
","
","null","<p></p>","null","","","","","","","","","","","","","","","","","","","","","","","",""
"","do_trial","140","422639","0.0-79.0-0.0","""event"",""trial"",""time""
""fullscreenenter"",""0"",""2321""
","
","
","""event"",""trial"",""time""
""fullscreenenter"",""0"",""2321""
","
","566","","","","","","","","49","1,1,0","6","blank","290","null","0.5726695947211836","0.21520313407628372","0.21693757122957355","1","","","","","","","","",""
"","html-keyboard-response","141","423650","0.0-79.0-1.0","""event"",""trial"",""time""
""fullscreenenter"",""0"",""2321""
","
","
","""event"",""trial"",""time""
""fullscreenenter"",""0"",""2321""
","
","null","<p></p>","null","","","","","","","","","","","","","","","","","","","","","","","",""
"","do_recog","142","426040","0.0-80.0-0.0","""event"",""trial"",""time""
""fullscreenenter"",""0"",""2321""
","
","
","""event"",""trial"",""time""
""fullscreenenter"",""0"",""2321""
","
","867.3999999761581","","","","","","","","54","","","","291","probe-04","","","","","1","[object Object]","34","0","1","","","",""
"","html-keyboard-response","143","427043","0.0-80.0-1.0","""event"",""trial"",""time""
""fullscreenenter"",""0"",""2321""
","
","
","""event"",""trial"",""time""
""fullscreenenter"",""0"",""2321""
","
","null","<p></p>","null","","","","","","","","","","","","","","","","","","","","","","","",""
"","do_trial","144","430107","0.0-81.0-0.0","""event"",""trial"",""time""
""fullscreenenter"",""0"",""2321""
","
","
","""event"",""trial"",""time""
""fullscreenenter"",""0"",""2321""
","
","487.2000000476837","","","","","","","","49","0,0,0","6","blank","292","null","0.4379151102117686","0.17506311300921965","0.1918435239100606","0","","","","","","","","",""
"","html-keyboard-response","145","431115","0.0-81.0-1.0","""event"",""trial"",""time""
""fullscreenenter"",""0"",""2321""
","
","
","""event"",""trial"",""time""
""fullscreenenter"",""0"",""2321""
","
","null","<p></p>","null","","","","","","","","","","","","","","","","","","","","","","","",""
"","do_recog","146","433617","0.0-82.0-0.0","""event"",""trial"",""time""
""fullscreenenter"",""0"",""2321""
","
","
","""event"",""trial"",""time""
""fullscreenenter"",""0"",""2321""
","
","974.2000000476837","","","","","","","","54","","","","293","probe-111","","","","","1","[object Object]","153","3","1","","","",""
"","html-keyboard-response","147","434635","0.0-82.0-1.0","""event"",""trial"",""time""
""fullscreenenter"",""0"",""2321""
","
","
","""event"",""trial"",""time""
""fullscreenenter"",""0"",""2321""
","
","null","<p></p>","null","","","","","","","","","","","","","","","","","","","","","","","",""
"","do_trial","148","437962","0.0-83.0-0.0","""event"",""trial"",""time""
""fullscreenenter"",""0"",""2321""
","
","
","""event"",""trial"",""time""
""fullscreenenter"",""0"",""2321""
","
","639.5","","","","","","","","49","1,0,0","6","blank","294","null","0.621003570486648","0.2792518261882358","0.16819166872577498","1","","","","","","","","",""
"","html-keyboard-response","149","438966","0.0-83.0-1.0","""event"",""trial"",""time""
""fullscreenenter"",""0"",""2321""
","
","
","""event"",""trial"",""time""
""fullscreenenter"",""0"",""2321""
","
","null","<p></p>","null","","","","","","","","","","","","","","","","","","","","","","","",""
"","do_trial","150","442323","0.0-84.0-0.0","""event"",""trial"",""time""
""fullscreenenter"",""0"",""2321""
","
","
","""event"",""trial"",""time""
""fullscreenenter"",""0"",""2321""
","
","775.3999999761581","","","","","","","","49","0,0,0","6","blank","295","null","0.5449947275414482","0.13377325621537847","0.3376504641538409","0","","","","","","","","",""
"","html-keyboard-response","151","443336","0.0-84.0-1.0","""event"",""trial"",""time""
""fullscreenenter"",""0"",""2321""
","
","
","""event"",""trial"",""time""
""fullscreenenter"",""0"",""2321""
","
","null","<p></p>","null","","","","","","","","","","","","","","","","","","","","","","","",""
"","do_trial","152","446625","0.0-85.0-0.0","""event"",""trial"",""time""
""fullscreenenter"",""0"",""2321""
","
","
","""event"",""trial"",""time""
""fullscreenenter"",""0"",""2321""
","
","636.2999999523163","","","","","","","","49","1,0,0","6","blank","296","null","0.6822629950349322","0.07405756393735179","0.2381683501574859","1","","","","","","","","",""
"","html-keyboard-response","153","447640","0.0-85.0-1.0","""event"",""trial"",""time""
""fullscreenenter"",""0"",""2321""
","
","
","""event"",""trial"",""time""
""fullscreenenter"",""0"",""2321""
","
","null","<p></p>","null","","","","","","","","","","","","","","","","","","","","","","","",""
"","do_trial","154","450670","0.0-86.0-0.0","""event"",""trial"",""time""
""fullscreenenter"",""0"",""2321""
","
","
","""event"",""trial"",""time""
""fullscreenenter"",""0"",""2321""
","
","456.2999999523163","","","","","","","","49","1,0,0","6","blank","297","null","0.5803876432695647","0.15279007094613373","0.25847482145096534","1","","","","","","","","",""
"","html-keyboard-response","155","451674","0.0-86.0-1.0","""event"",""trial"",""time""
""fullscreenenter"",""0"",""2321""
","
","
","""event"",""trial"",""time""
""fullscreenenter"",""0"",""2321""
","
","null","<p></p>","null","","","","","","","","","","","","","","","","","","","","","","","",""
"","do_trial","156","454616","0.0-87.0-0.0","""event"",""trial"",""time""
""fullscreenenter"",""0"",""2321""
","
","
","""event"",""trial"",""time""
""fullscreenenter"",""0"",""2321""
","
","356.09999990463257","","","","","","","","49","0,0,0","6","blank","298","null","0.41726720710025417","0.1344457084780771","0.11541873984810014","0","","","","","","","","",""
"","html-keyboard-response","157","455633","0.0-87.0-1.0","""event"",""trial"",""time""
""fullscreenenter"",""0"",""2321""
","
","
","""event"",""trial"",""time""
""fullscreenenter"",""0"",""2321""
","
","null","<p></p>","null","","","","","","","","","","","","","","","","","","","","","","","",""
"","do_trial","158","458706","0.0-88.0-0.0","""event"",""trial"",""time""
""fullscreenenter"",""0"",""2321""
","
","
","""event"",""trial"",""time""
""fullscreenenter"",""0"",""2321""
","
","486.2000000476837","","","","","","","","49","0,0,0","6","blank","299","null","0.44648345640263304","0.20992299084670957","0.06789692213433794","0","","","","","","","","",""
"","html-keyboard-response","159","459721","0.0-88.0-1.0","""event"",""trial"",""time""
""fullscreenenter"",""0"",""2321""
","
","
","""event"",""trial"",""time""
""fullscreenenter"",""0"",""2321""
","
","null","<p></p>","null","","","","","","","","","","","","","","","","","","","","","","","",""
"","do_recog","160","465765","0.0-89.0-0.0","""event"",""trial"",""time""
""fullscreenenter"",""0"",""2321""
","
","
","""event"",""trial"",""time""
""fullscreenenter"",""0"",""2321""
","
","null","","","","","","","","null","","","","300","probe-81","","","","","1","[object Object]","113","2","0","","","",""
"","html-keyboard-response","161","466776","0.0-89.0-1.0","""event"",""trial"",""time""
""fullscreenenter"",""0"",""2321""
","
","
","""event"",""trial"",""time""
""fullscreenenter"",""0"",""2321""
","
","null","<p></p>","null","","","","","","","","","","","","","","","","","","","","","","","",""
"","do_trial","162","470556","0.0-90.0-0.0","""event"",""trial"",""time""
""fullscreenenter"",""0"",""2321""
","
","
","""event"",""trial"",""time""
""fullscreenenter"",""0"",""2321""
","
","1188.2999999523163","","","","","","","","49","1,1,0","6","blank","301","null","0.23209814198174492","0.43666727332191435","0.2048335050575642","1","","","","","","","","",""
"","html-keyboard-response","163","471565","0.0-90.0-1.0","""event"",""trial"",""time""
""fullscreenenter"",""0"",""2321""
","
","
","""event"",""trial"",""time""
""fullscreenenter"",""0"",""2321""
","
","null","<p></p>","null","","","","","","","","","","","","","","","","","","","","","","","",""
"","do_recog","164","474028","0.0-91.0-0.0","""event"",""trial"",""time""
""fullscreenenter"",""0"",""2321""
","
","
","""event"",""trial"",""time""
""fullscreenenter"",""0"",""2321""
","
","940.3999999761581","","","","","","","","54","","","","302","probe-235","","","","","0","[object Object]","null","null","0","","","",""
"","html-keyboard-response","165","475039","0.0-91.0-1.0","""event"",""trial"",""time""
""fullscreenenter"",""0"",""2321""
","
","
","""event"",""trial"",""time""
""fullscreenenter"",""0"",""2321""
","
","null","<p></p>","null","","","","","","","","","","","","","","","","","","","","","","","",""
"","do_trial","166","478177","0.0-92.0-0.0","""event"",""trial"",""time""
""fullscreenenter"",""0"",""2321""
","
","
","""event"",""trial"",""time""
""fullscreenenter"",""0"",""2321""
","
","555.5","","","","","","","","49","0,0,0","6","blank","303","null","0.08725683453331756","0.45466361417911116","0.3276196336277012","0","","","","","","","","",""
"","html-keyboard-response","167","479180","0.0-92.0-1.0","""event"",""trial"",""time""
""fullscreenenter"",""0"",""2321""
","
","
","""event"",""trial"",""time""
""fullscreenenter"",""0"",""2321""
","
","null","<p></p>","null","","","","","","","","","","","","","","","","","","","","","","","",""
"","do_trial","168","481825","0.0-93.0-0.0","""event"",""trial"",""time""
""fullscreenenter"",""0"",""2321""
","
","
","""event"",""trial"",""time""
""fullscreenenter"",""0"",""2321""
","
","31","","","","","","","","49","0,1,0","6","blank","304","null","0.08231663944054683","0.4526910360707609","0.33797068319223494","0","","","","","","","","",""
"","html-keyboard-response","169","482836","0.0-93.0-1.0","""event"",""trial"",""time""
""fullscreenenter"",""0"",""2321""
","
","
","""event"",""trial"",""time""
""fullscreenenter"",""0"",""2321""
","
","null","<p></p>","null","","","","","","","","","","","","","","","","","","","","","","","",""
"","do_trial","170","485691","0.0-94.0-0.0","""event"",""trial"",""time""
""fullscreenenter"",""0"",""2321""
","
","
","""event"",""trial"",""time""
""fullscreenenter"",""0"",""2321""
","
","236.5","","","","","","","","49","1,1,0","6","blank","305","null","0.08877139824934861","0.5711427490153793","0.2563960213020107","1","","","","","","","","",""
"","html-keyboard-response","171","486707","0.0-94.0-1.0","""event"",""trial"",""time""
""fullscreenenter"",""0"",""2321""
","
","
","""event"",""trial"",""time""
""fullscreenenter"",""0"",""2321""
","
","null","<p></p>","null","","","","","","","","","","","","","","","","","","","","","","","",""
"","do_trial","172","490249","0.0-95.0-0.0","""event"",""trial"",""time""
""fullscreenenter"",""0"",""2321""
","
","
","""event"",""trial"",""time""
""fullscreenenter"",""0"",""2321""
","
","926.2999999523163","","","","","","","","49","0,1,0","6","blank","306","null","0.07966779920085135","0.6372893731989601","0.28957830383391087","0","","","","","","","","",""
"","html-keyboard-response","173","491252","0.0-95.0-1.0","""event"",""trial"",""time""
""fullscreenenter"",""0"",""2321""
","
","
","""event"",""trial"",""time""
""fullscreenenter"",""0"",""2321""
","
","null","<p></p>","null","","","","","","","","","","","","","","","","","","","","","","","",""
"","do_trial","174","494481","0.0-96.0-0.0","""event"",""trial"",""time""
""fullscreenenter"",""0"",""2321""
","
","
","""event"",""trial"",""time""
""fullscreenenter"",""0"",""2321""
","
","650.6999999284744","","","","","","","","49","0,1,1","6","blank","307","null","0.10279628443180543","0.6032673609520502","0.22651540805133596","0","","","","","","","","",""
"","html-keyboard-response","175","495490","0.0-96.0-1.0","""event"",""trial"",""time""
""fullscreenenter"",""0"",""2321""
","
","
","""event"",""trial"",""time""
""fullscreenenter"",""0"",""2321""
","
","null","<p></p>","null","","","","","","","","","","","","","","","","","","","","","","","",""
"","do_recog","176","498064","0.0-97.0-0.0","""event"",""trial"",""time""
""fullscreenenter"",""0"",""2321""
","
","
","""event"",""trial"",""time""
""fullscreenenter"",""0"",""2321""
","
","1053.6000000238419","","","","","","","","54","","","","308","probe-142","","","","","1","[object Object]","39","0","1","","","",""
"","html-keyboard-response","177","499075","0.0-97.0-1.0","""event"",""trial"",""time""
""fullscreenenter"",""0"",""2321""
","
","
","""event"",""trial"",""time""
""fullscreenenter"",""0"",""2321""
","
","null","<p></p>","null","","","","","","","","","","","","","","","","","","","","","","","",""
"","break","178","500762","0.0-98.0-0.0","""event"",""trial"",""time""
""fullscreenenter"",""0"",""2321""
","
","
","""event"",""trial"",""time""
""fullscreenenter"",""0"",""2321""
","
","1685.3000000715256","<div class='center'><p>Time to take a quick break! You have 2 minutes to rest, but you can move on sooner if you'd like.</p><p> Press the <b>space bar</b> to continue.</p></div>","32","","","","","","","","","","","","","","","","","","","","","","","",""
"","do_trial","179","505347","0.0-98.0-1.0","""event"",""trial"",""time""
""fullscreenenter"",""0"",""2321""
","
","
","""event"",""trial"",""time""
""fullscreenenter"",""0"",""2321""
","
","1925.8000000715256","","","","","","","","49","0,1,0","6","blank","309","null","0.09921043553309435","0.561506158942886","0.4208967494640372","0","","","","","","","","",""
"","html-keyboard-response","180","506359","0.0-98.0-2.0","""event"",""trial"",""time""
""fullscreenenter"",""0"",""2321""
","
","
","""event"",""trial"",""time""
""fullscreenenter"",""0"",""2321""
","
","null","<p></p>","null","","","","","","","","","","","","","","","","","","","","","","","",""
"","do_trial","181","509053","0.0-99.0-0.0","""event"",""trial"",""time""
""fullscreenenter"",""0"",""2321""
","
","
","""event"",""trial"",""time""
""fullscreenenter"",""0"",""2321""
","
","0.3999999761581421","","","","","","","","49","0,0,0","6","blank","310","null","0.10843131623452422","0.5642096866121515","0.45128263013649367","0","","","","","","","","",""
"","html-keyboard-response","182","510063","0.0-99.0-1.0","""event"",""trial"",""time""
""fullscreenenter"",""0"",""2321""
","
","
","""event"",""trial"",""time""
""fullscreenenter"",""0"",""2321""
","
","null","<p></p>","null","","","","","","","","","","","","","","","","","","","","","","","",""
"","do_trial","183","512707","0.0-100.0-0.0","""event"",""trial"",""time""
""fullscreenenter"",""0"",""2321""
","
","
","""event"",""trial"",""time""
""fullscreenenter"",""0"",""2321""
","
","70.89999997615814","","","","","","","","49","1,0,0","6","blank","311","null","0.11936867930744965","0.6157016126813202","0.38167217096464034","1","","","","","","","","",""
"","html-keyboard-response","184","513719","0.0-100.0-1.0","""event"",""trial"",""time""
""fullscreenenter"",""0"",""2321""
","
","
","""event"",""trial"",""time""
""fullscreenenter"",""0"",""2321""
","
","null","<p></p>","null","","","","","","","","","","","","","","","","","","","","","","","",""
"","do_recog","185","516418","0.0-101.0-0.0","""event"",""trial"",""time""
""fullscreenenter"",""0"",""2321""
","
","
","""event"",""trial"",""time""
""fullscreenenter"",""0"",""2321""
","
","1169.3999999761581","","","","","","","","54","","","","312","probe-180","","","","","1","[object Object]","37","0","1","","","",""
"","html-keyboard-response","186","517433","0.0-101.0-1.0","""event"",""trial"",""time""
""fullscreenenter"",""0"",""2321""
","
","
","""event"",""trial"",""time""
""fullscreenenter"",""0"",""2321""
","
","null","<p></p>","null","","","","","","","","","","","","","","","","","","","","","","","",""
"","do_trial","187","520060","0.0-102.0-0.0","""event"",""trial"",""time""
""fullscreenenter"",""0"",""2321""
","
","
","""event"",""trial"",""time""
""fullscreenenter"",""0"",""2321""
","
","0.09999990463256836","","","","","","","","49","1,0,1","6","blank","313","null","0.16678368117168701","0.521120163536369","0.39898679990991154","1","","","","","","","","",""
"","html-keyboard-response","188","521072","0.0-102.0-1.0","""event"",""trial"",""time""
""fullscreenenter"",""0"",""2321""
","
","
","""event"",""trial"",""time""
""fullscreenenter"",""0"",""2321""
","
","null","<p></p>","null","","","","","","","","","","","","","","","","","","","","","","","",""
"","do_trial","189","524324","0.0-103.0-0.0","""event"",""trial"",""time""
""fullscreenenter"",""0"",""2321""
","
","
","""event"",""trial"",""time""
""fullscreenenter"",""0"",""2321""
","
","640.4000000953674","","","","","","","","49","1,0,1","6","blank","314","null","0.22117194889173875","0.5432143951113146","0.30179796951012533","1","","","","","","","","",""
"","html-keyboard-response","190","525328","0.0-103.0-1.0","""event"",""trial"",""time""
""fullscreenenter"",""0"",""2321""
","
","
","""event"",""trial"",""time""
""fullscreenenter"",""0"",""2321""
","
","null","<p></p>","null","","","","","","","","","","","","","","","","","","","","","","","",""
"","do_recog","191","527717","0.0-104.0-0.0","""event"",""trial"",""time""
""fullscreenenter"",""0"",""2321""
","
","
","""event"",""trial"",""time""
""fullscreenenter"",""0"",""2321""
","
","870.3999999761581","","","","","","","","54","","","","315","probe-139","","","","","1","[object Object]","71","1","1","","","",""
"","html-keyboard-response","192","528733","0.0-104.0-1.0","""event"",""trial"",""time""
""fullscreenenter"",""0"",""2321""
","
","
","""event"",""trial"",""time""
""fullscreenenter"",""0"",""2321""
","
","null","<p></p>","null","","","","","","","","","","","","","","","","","","","","","","","",""
"","do_trial","193","531886","0.0-105.0-0.0","""event"",""trial"",""time""
""fullscreenenter"",""0"",""2321""
","
","
","""event"",""trial"",""time""
""fullscreenenter"",""0"",""2321""
","
","468.09999990463257","","","","","","","","49","0,0,0","6","blank","316","null","0.17170479981057293","0.5828312850835738","0.36648240841092744","0","","","","","","","","",""
"","html-keyboard-response","194","532896","0.0-105.0-1.0","""event"",""trial"",""time""
""fullscreenenter"",""0"",""2321""
","
","
","""event"",""trial"",""time""
""fullscreenenter"",""0"",""2321""
","
","null","<p></p>","null","","","","","","","","","","","","","","","","","","","","","","","",""
"","do_recog","195","535391","0.0-106.0-0.0","""event"",""trial"",""time""
""fullscreenenter"",""0"",""2321""
","
","
","""event"",""trial"",""time""
""fullscreenenter"",""0"",""2321""
","
","977","","","","","","","","54","","","","317","probe-13","","","","","1","[object Object]","195","4","1","","","",""
"","html-keyboard-response","196","536408","0.0-106.0-1.0","""event"",""trial"",""time""
""fullscreenenter"",""0"",""2321""
","
","
","""event"",""trial"",""time""
""fullscreenenter"",""0"",""2321""
","
","null","<p></p>","null","","","","","","","","","","","","","","","","","","","","","","","",""
"","do_trial","197","539509","0.0-107.0-0.0","""event"",""trial"",""time""
""fullscreenenter"",""0"",""2321""
","
","
","""event"",""trial"",""time""
""fullscreenenter"",""0"",""2321""
","
","445.8000000715256","","","","","","","","49","0,0,0","6","blank","318","null","0.09135445459737472","0.6231152209852711","0.3880266279844791","0","","","","","","","","",""
"","html-keyboard-response","198","540519","0.0-107.0-1.0","""event"",""trial"",""time""
""fullscreenenter"",""0"",""2321""
","
","
","""event"",""trial"",""time""
""fullscreenenter"",""0"",""2321""
","
","null","<p></p>","null","","","","","","","","","","","","","","","","","","","","","","","",""
"","do_trial","199","543644","0.0-108.0-0.0","""event"",""trial"",""time""
""fullscreenenter"",""0"",""2321""
","
","
","""event"",""trial"",""time""
""fullscreenenter"",""0"",""2321""
","
","481.7000000476837","","","","","","","","49","1,0,0","6","blank","319","null","0.18792933928841088","0.5563827351867092","0.2699698908653152","1","","","","","","","","",""
"","html-keyboard-response","200","544656","0.0-108.0-1.0","""event"",""trial"",""time""
""fullscreenenter"",""0"",""2321""
","
","
","""event"",""trial"",""time""
""fullscreenenter"",""0"",""2321""
","
","null","<p></p>","null","","","","","","","","","","","","","","","","","","","","","","","",""
"","do_recog","201","547361","0.0-109.0-0.0","""event"",""trial"",""time""
""fullscreenenter"",""0"",""2321""
","
","
","""event"",""trial"",""time""
""fullscreenenter"",""0"",""2321""
","
","1177.3999999761581","","","","","","","","54","","","","320","probe-236","","","","","0","[object Object]","null","null","0","","","",""
"","html-keyboard-response","202","548364","0.0-109.0-1.0","""event"",""trial"",""time""
""fullscreenenter"",""0"",""2321""
","
","
","""event"",""trial"",""time""
""fullscreenenter"",""0"",""2321""
","
","null","<p></p>","null","","","","","","","","","","","","","","","","","","","","","","","",""
"","do_trial","203","551603","0.0-110.0-0.0","""event"",""trial"",""time""
""fullscreenenter"",""0"",""2321""
","
","
","""event"",""trial"",""time""
""fullscreenenter"",""0"",""2321""
","
","550.6000000238419","","","","","","","","49","0,0,0","6","blank","321","null","0.17209913490640552","0.40197789102408416","0.3264653492329842","0","","","","","","","","",""
"","html-keyboard-response","204","552612","0.0-110.0-1.0","""event"",""trial"",""time""
""fullscreenenter"",""0"",""2321""
","
","
","""event"",""trial"",""time""
""fullscreenenter"",""0"",""2321""
","
","null","<p></p>","null","","","","","","","","","","","","","","","","","","","","","","","",""
"","do_trial","205","555770","0.0-111.0-0.0","""event"",""trial"",""time""
""fullscreenenter"",""0"",""2321""
","
","
","""event"",""trial"",""time""
""fullscreenenter"",""0"",""2321""
","
","534.5","","","","","","","","49","0,1,0","6","blank","322","null","0.19322954108805998","0.3504288024707883","0.3478635441653952","0","","","","","","","","",""
"","html-keyboard-response","206","556780","0.0-111.0-1.0","""event"",""trial"",""time""
""fullscreenenter"",""0"",""2321""
","
","
","""event"",""trial"",""time""
""fullscreenenter"",""0"",""2321""
","
","null","<p></p>","null","","","","","","","","","","","","","","","","","","","","","","","",""
"","do_recog","207","558809","0.0-112.0-0.0","""event"",""trial"",""time""
""fullscreenenter"",""0"",""2321""
","
","
","""event"",""trial"",""time""
""fullscreenenter"",""0"",""2321""
","
","512.6000000238419","","","","","","","","55","","","","323","probe-106","","","","","1","[object Object]","31","0","0","","","",""
"","html-keyboard-response","208","559819","0.0-112.0-1.0","""event"",""trial"",""time""
""fullscreenenter"",""0"",""2321""
","
","
","""event"",""trial"",""time""
""fullscreenenter"",""0"",""2321""
","
","null","<p></p>","null","","","","","","","","","","","","","","","","","","","","","","","",""
"","do_trial","209","563419","0.0-113.0-0.0","""event"",""trial"",""time""
""fullscreenenter"",""0"",""2321""
","
","
","""event"",""trial"",""time""
""fullscreenenter"",""0"",""2321""
","
","937.3000000715256","","","","","","","","49","0,0,0","6","blank","324","null","0.1974004728676055","0.4149841319099571","0.43400375467440827","0","","","","","","","","",""
"","html-keyboard-response","210","564431","0.0-113.0-1.0","""event"",""trial"",""time""
""fullscreenenter"",""0"",""2321""
","
","
","""event"",""trial"",""time""
""fullscreenenter"",""0"",""2321""
","
","null","<p></p>","null","","","","","","","","","","","","","","","","","","","","","","","",""
"","do_recog","211","566755","0.0-114.0-0.0","""event"",""trial"",""time""
""fullscreenenter"",""0"",""2321""
","
","
","""event"",""trial"",""time""
""fullscreenenter"",""0"",""2321""
","
","807","","","","","","","","54","","","","325","probe-253","","","","","0","[object Object]","null","null","0","","","",""
"","html-keyboard-response","212","567766","0.0-114.0-1.0","""event"",""trial"",""time""
""fullscreenenter"",""0"",""2321""
","
","
","""event"",""trial"",""time""
""fullscreenenter"",""0"",""2321""
","
","null","<p></p>","null","","","","","","","","","","","","","","","","","","","","","","","",""
"","do_trial","213","570812","0.0-115.0-0.0","""event"",""trial"",""time""
""fullscreenenter"",""0"",""2321""
","
","
","""event"",""trial"",""time""
""fullscreenenter"",""0"",""2321""
","
","463.8000000715256","","","","","","","","49","1,0,1","6","blank","326","null","0.22579337508806377","0.46631069559341476","0.48935740223529983","1","","","","","","","","",""
"","html-keyboard-response","214","571824","0.0-115.0-1.0","""event"",""trial"",""time""
""fullscreenenter"",""0"",""2321""
","
","
","""event"",""trial"",""time""
""fullscreenenter"",""0"",""2321""
","
","null","<p></p>","null","","","","","","","","","","","","","","","","","","","","","","","",""
"","do_trial","215","578026","0.0-116.0-0.0","""event"",""trial"",""time""
""fullscreenenter"",""0"",""2321""
","
","
","""event"",""trial"",""time""
""fullscreenenter"",""0"",""2321""
","
","null","","","","","","","","null","0,1,1","6","blank","327","null","0.14226309663092393","0.65569314010488","0.5646936052777357","","","","","","","","","",""
"","html-keyboard-response","216","579042","0.0-116.0-1.0","""event"",""trial"",""time""
""fullscreenenter"",""0"",""2321""
","
","
","""event"",""trial"",""time""
""fullscreenenter"",""0"",""2321""
","
","null","<p></p>","null","","","","","","","","","","","","","","","","","","","","","","","",""
"","do_trial","217","582192","0.0-117.0-0.0","""event"",""trial"",""time""
""fullscreenenter"",""0"",""2321""
","
","
","""event"",""trial"",""time""
""fullscreenenter"",""0"",""2321""
","
","556.1000000238419","","","","","","","","49","0,0,1","6","blank","328","null","0.07430894279589868","0.5393657217814417","0.493775126636273","0","","","","","","","","",""
"","html-keyboard-response","218","583205","0.0-117.0-1.0","""event"",""trial"",""time""
""fullscreenenter"",""0"",""2321""
","
","
","""event"",""trial"",""time""
""fullscreenenter"",""0"",""2321""
","
","null","<p></p>","null","","","","","","","","","","","","","","","","","","","","","","","",""
"","do_trial","219","586152","0.0-118.0-0.0","""event"",""trial"",""time""
""fullscreenenter"",""0"",""2321""
","
","
","""event"",""trial"",""time""
""fullscreenenter"",""0"",""2321""
","
","365.10000002384186","","","","","","","","49","0,1,1","6","blank","329","null","0.07096128853395939","0.5038865037131809","0.43396640028266925","0","","","","","","","","",""
"","html-keyboard-response","220","587166","0.0-118.0-1.0","""event"",""trial"",""time""
""fullscreenenter"",""0"",""2321""
","
","
","""event"",""trial"",""time""
""fullscreenenter"",""0"",""2321""
","
","null","<p></p>","null","","","","","","","","","","","","","","","","","","","","","","","",""
"","do_recog","221","589685","0.0-119.0-0.0","""event"",""trial"",""time""
""fullscreenenter"",""0"",""2321""
","
","
","""event"",""trial"",""time""
""fullscreenenter"",""0"",""2321""
","
","993.8999999761581","","","","","","","","54","","","","330","probe-84","","","","","1","[object Object]","118","2","1","","","",""
"","html-keyboard-response","222","590691","0.0-119.0-1.0","""event"",""trial"",""time""
""fullscreenenter"",""0"",""2321""
","
","
","""event"",""trial"",""time""
""fullscreenenter"",""0"",""2321""
","
","null","<p></p>","null","","","","","","","","","","","","","","","","","","","","","","","",""
"","do_trial","223","593814","0.0-120.0-0.0","""event"",""trial"",""time""
""fullscreenenter"",""0"",""2321""
","
","
","""event"",""trial"",""time""
""fullscreenenter"",""0"",""2321""
","
","509.7000000476837","","","","","","","","49","1,1,0","6","blank","331","null","0.11196266550263559","0.5694755961575879","0.39041335958481505","1","","","","","","","","",""
"","html-keyboard-response","224","594821","0.0-120.0-1.0","""event"",""trial"",""time""
""fullscreenenter"",""0"",""2321""
","
","
","""event"",""trial"",""time""
""fullscreenenter"",""0"",""2321""
","
","null","<p></p>","null","","","","","","","","","","","","","","","","","","","","","","","",""
"","do_recog","225","597251","0.0-121.0-0.0","""event"",""trial"",""time""
""fullscreenenter"",""0"",""2321""
","
","
","""event"",""trial"",""time""
""fullscreenenter"",""0"",""2321""
","
","906.6000000238419","","","","","","","","54","","","","332","probe-58","","","","","1","[object Object]","190","4","1","","","",""
"","html-keyboard-response","226","598268","0.0-121.0-1.0","""event"",""trial"",""time""
""fullscreenenter"",""0"",""2321""
","
","
","""event"",""trial"",""time""
""fullscreenenter"",""0"",""2321""
","
","null","<p></p>","null","","","","","","","","","","","","","","","","","","","","","","","",""
"","do_trial","227","601993","0.0-122.0-0.0","""event"",""trial"",""time""
""fullscreenenter"",""0"",""2321""
","
","
","""event"",""trial"",""time""
""fullscreenenter"",""0"",""2321""
","
","1033.1999999284744","","","","","","","","49","0,1,0","6","blank","333","null","0.11854952100670381","0.469943158163302","0.2730869377414137","0","","","","","","","","",""
"","html-keyboard-response","228","603004","0.0-122.0-1.0","""event"",""trial"",""time""
""fullscreenenter"",""0"",""2321""
","
","
","""event"",""trial"",""time""
""fullscreenenter"",""0"",""2321""
","
","null","<p></p>","null","","","","","","","","","","","","","","","","","","","","","","","",""
"","do_trial","229","606027","0.0-123.0-0.0","""event"",""trial"",""time""
""fullscreenenter"",""0"",""2321""
","
","
","""event"",""trial"",""time""
""fullscreenenter"",""0"",""2321""
","
","412.3000000715256","","","","","","","","49","0,1,1","6","blank","334","null","0.10667270874155275","0.5413848803134829","0.2726458877286831","0","","","","","","","","",""
"","html-keyboard-response","230","607035","0.0-123.0-1.0","""event"",""trial"",""time""
""fullscreenenter"",""0"",""2321""
","
","
","""event"",""trial"",""time""
""fullscreenenter"",""0"",""2321""
","
","null","<p></p>","null","","","","","","","","","","","","","","","","","","","","","","","",""
"","do_trial","231","609673","0.0-124.0-0.0","""event"",""trial"",""time""
""fullscreenenter"",""0"",""2321""
","
","
","""event"",""trial"",""time""
""fullscreenenter"",""0"",""2321""
","
","55.89999997615814","","","","","","","","49","0,1,0","6","blank","335","null","0.16979501436775363","0.5438690951852355","0.3210206686969008","0","","","","","","","","",""
"","html-keyboard-response","232","610676","0.0-124.0-1.0","""event"",""trial"",""time""
""fullscreenenter"",""0"",""2321""
","
","
","""event"",""trial"",""time""
""fullscreenenter"",""0"",""2321""
","
","null","<p></p>","null","","","","","","","","","","","","","","","","","","","","","","","",""
"","do_trial","233","613919","0.0-125.0-0.0","""event"",""trial"",""time""
""fullscreenenter"",""0"",""2321""
","
","
","""event"",""trial"",""time""
""fullscreenenter"",""0"",""2321""
","
","651.3999999761581","","","","","","","","49","0,1,0","6","blank","336","null","0.12613550667768064","0.6689072532024228","0.2788888484567723","0","","","","","","","","",""
"","html-keyboard-response","234","614936","0.0-125.0-1.0","""event"",""trial"",""time""
""fullscreenenter"",""0"",""2321""
","
","
","""event"",""trial"",""time""
""fullscreenenter"",""0"",""2321""
","
","null","<p></p>","null","","","","","","","","","","","","","","","","","","","","","","","",""
"","do_trial","235","618048","0.0-126.0-0.0","""event"",""trial"",""time""
""fullscreenenter"",""0"",""2321""
","
","
","""event"",""trial"",""time""
""fullscreenenter"",""0"",""2321""
","
","470.2000000476837","","","","","","","","49","0,0,0","6","blank","337","null","0.09536934227444237","0.5660901713569468","0.2721882447575674","0","","","","","","","","",""
"","html-keyboard-response","236","619064","0.0-126.0-1.0","""event"",""trial"",""time""
""fullscreenenter"",""0"",""2321""
","
","
","""event"",""trial"",""time""
""fullscreenenter"",""0"",""2321""
","
","null","<p></p>","null","","","","","","","","","","","","","","","","","","","","","","","",""
"","do_trial","237","622062","0.0-127.0-0.0","""event"",""trial"",""time""
""fullscreenenter"",""0"",""2321""
","
","
","""event"",""trial"",""time""
""fullscreenenter"",""0"",""2321""
","
","415.89999997615814","","","","","","","","49","0,1,1","6","blank","338","null","0.11809813628765906","0.6216231995516489","0.2432156368059284","0","","","","","","","","",""
"","html-keyboard-response","238","623076","0.0-127.0-1.0","""event"",""trial"",""time""
""fullscreenenter"",""0"",""2321""
","
","
","""event"",""trial"",""time""
""fullscreenenter"",""0"",""2321""
","
","null","<p></p>","null","","","","","","","","","","","","","","","","","","","","","","","",""
"","do_recog","239","625716","0.0-128.0-0.0","""event"",""trial"",""time""
""fullscreenenter"",""0"",""2321""
","
","
","""event"",""trial"",""time""
""fullscreenenter"",""0"",""2321""
","
","1123.2000000476837","","","","","","","","54","","","","339","probe-05","","","","","1","[object Object]","111","2","1","","","",""
"","html-keyboard-response","240","626726","0.0-128.0-1.0","""event"",""trial"",""time""
""fullscreenenter"",""0"",""2321""
","
","
","""event"",""trial"",""time""
""fullscreenenter"",""0"",""2321""
","
","null","<p></p>","null","","","","","","","","","","","","","","","","","","","","","","","",""
"","do_trial","241","630530","0.0-129.0-0.0","""event"",""trial"",""time""
""fullscreenenter"",""0"",""2321""
","
","
","""event"",""trial"",""time""
""fullscreenenter"",""0"",""2321""
","
","1184.1999999284744","","","","","","","","51","0,0,0","6","blank","340","null","0.12267660115341436","0.5572229262532032","0.22839774222690296","0","","","","","","","","",""
"","html-keyboard-response","242","631541","0.0-129.0-1.0","""event"",""trial"",""time""
""fullscreenenter"",""0"",""2321""
","
","
","""event"",""trial"",""time""
""fullscreenenter"",""0"",""2321""
","
","null","<p></p>","null","","","","","","","","","","","","","","","","","","","","","","","",""
"","do_trial","243","634455","0.0-130.0-0.0","""event"",""trial"",""time""
""fullscreenenter"",""0"",""2321""
","
","
","""event"",""trial"",""time""
""fullscreenenter"",""0"",""2321""
","
","349.09999990463257","","","","","","","","51","0,1,0","6","blank","341","null","0.21518770469172743","0.6318079047618071","0.31812607780124746","0","","","","","","","","",""
"","html-keyboard-response","244","635481","0.0-130.0-1.0","""event"",""trial"",""time""
""fullscreenenter"",""0"",""2321""
","
","
","""event"",""trial"",""time""
""fullscreenenter"",""0"",""2321""
","
","null","<p></p>","null","","","","","","","","","","","","","","","","","","","","","","","",""
"","do_trial","245","638554","0.0-131.0-0.0","""event"",""trial"",""time""
""fullscreenenter"",""0"",""2321""
","
","
","""event"",""trial"",""time""
""fullscreenenter"",""0"",""2321""
","
","462.40000009536743","","","","","","","","50","0,0,0","6","blank","342","null","0.2621100257274962","0.48987988593811355","0.3409646996996665","0","","","","","","","","",""
"","html-keyboard-response","246","639560","0.0-131.0-1.0","""event"",""trial"",""time""
""fullscreenenter"",""0"",""2321""
","
","
","""event"",""trial"",""time""
""fullscreenenter"",""0"",""2321""
","
","null","<p></p>","null","","","","","","","","","","","","","","","","","","","","","","","",""
"","do_trial","247","642700","0.0-132.0-0.0","""event"",""trial"",""time""
""fullscreenenter"",""0"",""2321""
","
","
","""event"",""trial"",""time""
""fullscreenenter"",""0"",""2321""
","
","457.3000000715256","","","","","","","","50","0,0,1","6","blank","343","null","0.2715085947320456","0.5903055584627959","0.32889072104921796","0","","","","","","","","",""
"","html-keyboard-response","248","643712","0.0-132.0-1.0","""event"",""trial"",""time""
""fullscreenenter"",""0"",""2321""
","
","
","""event"",""trial"",""time""
""fullscreenenter"",""0"",""2321""
","
","null","<p></p>","null","","","","","","","","","","","","","","","","","","","","","","","",""
"","do_recog","249","646201","0.0-133.0-0.0","""event"",""trial"",""time""
""fullscreenenter"",""0"",""2321""
","
","
","""event"",""trial"",""time""
""fullscreenenter"",""0"",""2321""
","
","968.2999999523163","","","","","","","","54","","","","344","probe-198","","","","","1","[object Object]","193","4","1","","","",""
"","html-keyboard-response","250","647212","0.0-133.0-1.0","""event"",""trial"",""time""
""fullscreenenter"",""0"",""2321""
","
","
","""event"",""trial"",""time""
""fullscreenenter"",""0"",""2321""
","
","null","<p></p>","null","","","","","","","","","","","","","","","","","","","","","","","",""
"","do_trial","251","650419","0.0-134.0-0.0","""event"",""trial"",""time""
""fullscreenenter"",""0"",""2321""
","
","
","""event"",""trial"",""time""
""fullscreenenter"",""0"",""2321""
","
","586.5","","","","","","","","49","0,1,1","6","blank","345","null","0.1906461698344338","0.6249192485435223","0.3424143151311354","0","","","","","","","","",""
"","html-keyboard-response","252","651429","0.0-134.0-1.0","""event"",""trial"",""time""
""fullscreenenter"",""0"",""2321""
","
","
","""event"",""trial"",""time""
""fullscreenenter"",""0"",""2321""
","
","null","<p></p>","null","","","","","","","","","","","","","","","","","","","","","","","",""
"","do_recog","253","654092","0.0-135.0-0.0","""event"",""trial"",""time""
""fullscreenenter"",""0"",""2321""
","
","
","""event"",""trial"",""time""
""fullscreenenter"",""0"",""2321""
","
","1135","","","","","","","","54","","","","346","probe-146","","","","","1","[object Object]","78","1","1","","","",""
"","html-keyboard-response","254","655098","0.0-135.0-1.0","""event"",""trial"",""time""
""fullscreenenter"",""0"",""2321""
","
","
","""event"",""trial"",""time""
""fullscreenenter"",""0"",""2321""
","
","null","<p></p>","null","","","","","","","","","","","","","","","","","","","","","","","",""
"","do_trial","255","658532","0.0-136.0-0.0","""event"",""trial"",""time""
""fullscreenenter"",""0"",""2321""
","
","
","""event"",""trial"",""time""
""fullscreenenter"",""0"",""2321""
","
","840.1000000238419","","","","","","","","49","0,1,1","6","blank","347","null","0.10124552358075974","0.600044208222508","0.3303367391134739","0","","","","","","","","",""
"","html-keyboard-response","256","659542","0.0-136.0-1.0","""event"",""trial"",""time""
""fullscreenenter"",""0"",""2321""
","
","
","""event"",""trial"",""time""
""fullscreenenter"",""0"",""2321""
","
","null","<p></p>","null","","","","","","","","","","","","","","","","","","","","","","","",""
"","do_trial","257","662509","0.0-137.0-0.0","""event"",""trial"",""time""
""fullscreenenter"",""0"",""2321""
","
","
","""event"",""trial"",""time""
""fullscreenenter"",""0"",""2321""
","
","316.7000000476837","","","","","","","","51","0,0,0","6","blank","348","null","0.06608968033947933","0.6032637491426555","0.24531940774813862","0","","","","","","","","",""
"","html-keyboard-response","258","663517","0.0-137.0-1.0","""event"",""trial"",""time""
""fullscreenenter"",""0"",""2321""
","
","
","""event"",""trial"",""time""
""fullscreenenter"",""0"",""2321""
","
","null","<p></p>","null","","","","","","","","","","","","","","","","","","","","","","","",""
"","break","259","664417","0.0-138.0-0.0","""event"",""trial"",""time""
""fullscreenenter"",""0"",""2321""
","
","
","""event"",""trial"",""time""
""fullscreenenter"",""0"",""2321""
","
","898","<div class='center'><p>Time to take a quick break! You have 2 minutes to rest, but you can move on sooner if you'd like.</p><p> Press the <b>space bar</b> to continue.</p></div>","32","","","","","","","","","","","","","","","","","","","","","","","",""
"","do_trial","260","667852","0.0-138.0-1.0","""event"",""trial"",""time""
""fullscreenenter"",""0"",""2321""
","
","
","""event"",""trial"",""time""
""fullscreenenter"",""0"",""2321""
","
","744.3999999761581","","","","","","","","49","0,0,0","6","blank","349","null","0.07452602048770034","0.7017699126551743","0.19646159479768982","0","","","","","","","","",""
"","html-keyboard-response","261","668869","0.0-138.0-2.0","""event"",""trial"",""time""
""fullscreenenter"",""0"",""2321""
","
","
","""event"",""trial"",""time""
""fullscreenenter"",""0"",""2321""
","
","null","<p></p>","null","","","","","","","","","","","","","","","","","","","","","","","",""
"","do_trial","262","671820","0.0-139.0-0.0","""event"",""trial"",""time""
""fullscreenenter"",""0"",""2321""
","
","
","""event"",""trial"",""time""
""fullscreenenter"",""0"",""2321""
","
","347.60000002384186","","","","","","","","49","0,0,0","6","blank","350","null","0.058742346944709624","0.6798971471397574","0.262820025228008","0","","","","","","","","",""
"","html-keyboard-response","263","672831","0.0-139.0-1.0","""event"",""trial"",""time""
""fullscreenenter"",""0"",""2321""
","
","
","""event"",""trial"",""time""
""fullscreenenter"",""0"",""2321""
","
","null","<p></p>","null","","","","","","","","","","","","","","","","","","","","","","","",""
"","do_trial","264","675846","0.0-140.0-0.0","""event"",""trial"",""time""
""fullscreenenter"",""0"",""2321""
","
","
","""event"",""trial"",""time""
""fullscreenenter"",""0"",""2321""
","
","436.5","","","","","","","","49","0,1,0","6","blank","351","null","0.0564147856345733","0.4348777807100609","0.1603023339871304","0","","","","","","","","",""
"","html-keyboard-response","265","676860","0.0-140.0-1.0","""event"",""trial"",""time""
""fullscreenenter"",""0"",""2321""
","
","
","""event"",""trial"",""time""
""fullscreenenter"",""0"",""2321""
","
","null","<p></p>","null","","","","","","","","","","","","","","","","","","","","","","","",""
"","do_trial","266","679500","0.0-141.0-0.0","""event"",""trial"",""time""
""fullscreenenter"",""0"",""2321""
","
","
","""event"",""trial"",""time""
""fullscreenenter"",""0"",""2321""
","
","24.700000047683716","","","","","","","","49","0,0,0","6","blank","352","null","0.08831694367761783","0.5512674005520832","0.13693566052097572","0","","","","","","","","",""
"","html-keyboard-response","267","680509","0.0-141.0-1.0","""event"",""trial"",""time""
""fullscreenenter"",""0"",""2321""
","
","
","""event"",""trial"",""time""
""fullscreenenter"",""0"",""2321""
","
","null","<p></p>","null","","","","","","","","","","","","","","","","","","","","","","","",""
"","do_recog","268","683072","0.0-142.0-0.0","""event"",""trial"",""time""
""fullscreenenter"",""0"",""2321""
","
","
","""event"",""trial"",""time""
""fullscreenenter"",""0"",""2321""
","
","1035.4000000953674","","","","","","","","54","","","","353","probe-242","","","","","0","[object Object]","null","null","0","","","",""
"","html-keyboard-response","269","684090","0.0-142.0-1.0","""event"",""trial"",""time""
""fullscreenenter"",""0"",""2321""
","
","
","""event"",""trial"",""time""
""fullscreenenter"",""0"",""2321""
","
","null","<p></p>","null","","","","","","","","","","","","","","","","","","","","","","","",""
"","do_trial","270","688051","0.0-143.0-0.0","""event"",""trial"",""time""
""fullscreenenter"",""0"",""2321""
","
","
","""event"",""trial"",""time""
""fullscreenenter"",""0"",""2321""
","
","1276.7999999523163","","","","","","","","49","0,0,0","6","blank","354","null","0.1320272741959865","0.70049608538628","0.1819412138434153","0","","","","","","","","",""
"","html-keyboard-response","271","689065","0.0-143.0-1.0","""event"",""trial"",""time""
""fullscreenenter"",""0"",""2321""
","
","
","""event"",""trial"",""time""
""fullscreenenter"",""0"",""2321""
","
","null","<p></p>","null","","","","","","","","","","","","","","","","","","","","","","","",""
"","do_recog","272","695091","0.0-144.0-0.0","""event"",""trial"",""time""
""fullscreenenter"",""0"",""2321""
","
","
","""event"",""trial"",""time""
""fullscreenenter"",""0"",""2321""
","
","null","","","","","","","","null","","","","355","probe-22","","","","","1","[object Object]","191","4","0","","","",""
"","html-keyboard-response","273","696100","0.0-144.0-1.0","""event"",""trial"",""time""
""fullscreenenter"",""0"",""2321""
","
","
","""event"",""trial"",""time""
""fullscreenenter"",""0"",""2321""
","
","null","<p></p>","null","","","","","","","","","","","","","","","","","","","","","","","",""
"","do_trial","274","699381","0.0-145.0-0.0","""event"",""trial"",""time""
""fullscreenenter"",""0"",""2321""
","
","
","""event"",""trial"",""time""
""fullscreenenter"",""0"",""2321""
","
","709.7999999523163","","","","","","","","49","0,1,0","6","blank","356","null","0.11307554693382858","0.2939257658226528","0.3218202189022404","0","","","","","","","","",""
"","html-keyboard-response","275","700395","0.0-145.0-1.0","""event"",""trial"",""time""
""fullscreenenter"",""0"",""2321""
","
","
","""event"",""trial"",""time""
""fullscreenenter"",""0"",""2321""
","
","null","<p></p>","null","","","","","","","","","","","","","","","","","","","","","","","",""
"","do_trial","276","703979","0.0-146.0-0.0","""event"",""trial"",""time""
""fullscreenenter"",""0"",""2321""
","
","
","""event"",""trial"",""time""
""fullscreenenter"",""0"",""2321""
","
","898.2000000476837","","","","","","","","49","1,0,1","6","blank","357","null","0.35252692099094574","0.23052774247640087","0.4462132434466098","1","","","","","","","","",""
"","html-keyboard-response","277","704992","0.0-146.0-1.0","""event"",""trial"",""time""
""fullscreenenter"",""0"",""2321""
","
","
","""event"",""trial"",""time""
""fullscreenenter"",""0"",""2321""
","
","null","<p></p>","null","","","","","","","","","","","","","","","","","","","","","","","",""
"","do_recog","278","707513","0.0-147.0-0.0","""event"",""trial"",""time""
""fullscreenenter"",""0"",""2321""
","
","
","""event"",""trial"",""time""
