"success","trial_type","trial_index","time_elapsed","internal_node_id","interactions","blur_events","focus_events","fullscreenenter_events","fullscreenexit_events","rt","stimulus","key_press","subject_id","participant_id","age","gender","prompt","response","choice_outcomes","context_n","context_img_id","trial_n","probe_img_id","pR_red","pR_white","pR_black","outcome","is_valid","image_to_show","probed_trial","probed_context","correct","probe","probed_trial_n","probed_context_n","context_im"
"true","fullscreen","0","2763","0.0-0.0","""event"",""trial"",""time""
""fullscreenenter"",""0"",""1782""
","
","
","""event"",""trial"",""time""
""fullscreenenter"",""0"",""1782""
","
","","","","","","","","","","","","","","","","","","","","","","","","","","",""
"","pavlovia","1","2773","0.0-1.0","""event"",""trial"",""time""
""fullscreenenter"",""0"",""1782""
","
","
","""event"",""trial"",""time""
""fullscreenenter"",""0"",""1782""
","
","","","","","","","","","","","","","","","","","","","","","","","","","","",""
"","welc_back","2","12534","0.0-2.0","""event"",""trial"",""time""
""fullscreenenter"",""0"",""1782""
","
","
","""event"",""trial"",""time""
""fullscreenenter"",""0"",""1782""
","
","null","run_exp/static/audio/clip_29_welcome_back.m4a","null","2480","2430","19","Male","<div class='center'><p>Welcome to day 2!</p><p> Yesterday, you were the head captain of a pirate ship. You asked your fellow pirates to rob other ships of their gold across six different islands.</p></div>","","","","","","","","","","","","","","","","","","",""
"","html-keyboard-response","3","19633","0.0-3.0","""event"",""trial"",""time""
""fullscreenenter"",""0"",""1782""
","
","
","""event"",""trial"",""time""
""fullscreenenter"",""0"",""1782""
","
","7098.700000047684","<div class='center'><p>Welcome to day 2!</p><p> Yesterday, you were the head captain of a pirate ship. You asked your fellow pirates to rob other ships of their gold across six different islands.</p><p><b>[Press the space bar to continue]</b></p></div>","32","","","","","","","","","","","","","","","","","","","","","","","",""
"","day_1_summary_goal","4","36826","0.0-4.0","""event"",""trial"",""time""
""fullscreenenter"",""0"",""1782""
","
","
","""event"",""trial"",""time""
""fullscreenenter"",""0"",""1782""
","
","null","run_exp/static/audio/clip_30_goal_of_game.m4a","null","","","","","<div class='center'><p>Today, like yesterday, you get to pick which pirate you want to rob the next ship.</p><p>If the pirate is successful in robbing a ship, you get gold coins that look like this: </p><p><img src='run_exp/static/images/tutorial/reward.png' height='150'></p><p> If they were not successful in robbing the ship, then you will get no gold coins and you'll see a big red x like this: </p><p><img src='run_exp/static/images/tutorial/reward_no.png' height='150'></p></div>","","","","","","","","","","","","","","","","","","",""
"","html-keyboard-response","5","37857","0.0-5.0","""event"",""trial"",""time""
""fullscreenenter"",""0"",""1782""
","
","
","""event"",""trial"",""time""
""fullscreenenter"",""0"",""1782""
","
","1029.3999998569489","<div class='center'><p>Today, like yesterday, you get to pick which pirate you want to rob the next ship.</p><p>If the pirate is successful in robbing a ship, you get gold coins that look like this: </p><p><img src='run_exp/static/images/tutorial/reward.png' height='150'></p><p> If they were not successful in robbing the ship, then you will get no gold coins and you'll see a big red x like this: </p><p><img src='run_exp/static/images/tutorial/reward_no.png' height='150'></p><p><b>[Press the space bar to continue]</b></p></div>","32","","","","","","","","","","","","","","","","","","","","","","","",""
"","day_1_summary_pick","6","52538","0.0-6.0","""event"",""trial"",""time""
""fullscreenenter"",""0"",""1782""
","
","
","""event"",""trial"",""time""
""fullscreenenter"",""0"",""1782""
","
","null","run_exp/static/audio/clip_31_how_to_pick_a_pirate.m4a","null","","","","","<div class='center'><p>Also, just like yesterday, you will use the 1,2,3 keys on your keyboard to pick a pirate. Press '1' to choose red beard, '2' to choose white beard, and '3' to choose black beard . You only have 3 seconds to pick a pirate, so please make a choice quickly!</p></div>","","","","","","","","","","","","","","","","","","",""
"","html-keyboard-response","7","56889","0.0-7.0","""event"",""trial"",""time""
""fullscreenenter"",""0"",""1782""
","
","
","""event"",""trial"",""time""
""fullscreenenter"",""0"",""1782""
","
","4350.299999952316","<div class='center'><p>Also, just like yesterday, you will use the 1,2,3 keys on your keyboard to pick a pirate. Press '1' to choose red beard, '2' to choose white beard, and '3' to choose black beard . You only have 3 seconds to pick a pirate, so please make a choice quickly!</p><p><b>[Press the space bar to continue]</b></p></div>","32","","","","","","","","","","","","","","","","","","","","","","","",""
"","test_phase_begin","8","87280","0.0-8.0","""event"",""trial"",""time""
""fullscreenenter"",""0"",""1782""
","
","
","""event"",""trial"",""time""
""fullscreenenter"",""0"",""1782""
","
","null","run_exp/static/audio/clip_32_final_place.m4a","null","","","","","<div class='center'><p>You’ve arrived at the final island of your journey! Unfortunately, it’s very foggy out, so you won’t be able to see it in the distance like the other islands you've visited.</p><p>You’ll still be deciding which pirate you want to rob a ship like before. However, because of the fog, you also won’t be able to see the ship.</p><p>This means you do not have to remember the ships you rob on this island.</p><p>Unlike yesterday, you won't be visiting multiple islands today. You will stay on this island for the entire game. This game will last ~30 minutes.</p></div>","","","","","","","","","","","","","","","","","","",""
"","html-keyboard-response","9","88945","0.0-9.0","""event"",""trial"",""time""
""fullscreenenter"",""0"",""1782""
","
","
","""event"",""trial"",""time""
""fullscreenenter"",""0"",""1782""
","
","1664.2000000476837","<div class='center'><p>You’ve arrived at the final island of your journey! Unfortunately, it’s very foggy out, so you won’t be able to see it in the distance like the other islands you've visited.</p><p>You’ll still be deciding which pirate you want to rob a ship like before. However, because of the fog, you also won’t be able to see the ship.</p><p>This means you do not have to remember the ships you rob on this island.</p><p>Unlike yesterday, you won't be visiting multiple islands today. You will stay on this island for the entire game. This game will last ~30 minutes.</p><p><b>[Press the space bar to continue]</b></p></div>","32","","","","","","","","","","","","","","","","","","","","","","","",""
"","explain_probe_1","10","96645","0.0-10.0","""event"",""trial"",""time""
""fullscreenenter"",""0"",""1782""
","
","
","""event"",""trial"",""time""
""fullscreenenter"",""0"",""1782""
","
","null","run_exp/static/audio/clip_33_recognition_1.m4a","null","","","","","<div class='center'><p> Sometimes you’ll be shown a ship, and you will be asked if you saw this ship on a past island.</p><p> Here is an example of what you will see.</p><p><img src='run_exp/static/images/tutorial/example_recog_trial.png' height='500'></p></div>","","","","","","","","","","","","","","","","","","",""
"","html-keyboard-response","11","99713","0.0-11.0","""event"",""trial"",""time""
""fullscreenenter"",""0"",""1782""
","
","
","""event"",""trial"",""time""
""fullscreenenter"",""0"",""1782""
","
","3066.7999999523163","<div class='center'><p> Sometimes you’ll be shown a ship, and you will be asked if you saw this ship on a past island.</p><p> Here is an example of what you will see.</p><p><img src='run_exp/static/images/tutorial/example_recog_trial.png' height='500'></p><p><b>[Press the space bar to continue]</b></p></div>","32","","","","","","","","","","","","","","","","","","","","","","","",""
"","explain_probe_2","12","121423","0.0-12.0","""event"",""trial"",""time""
""fullscreenenter"",""0"",""1782""
","
","
","""event"",""trial"",""time""
""fullscreenenter"",""0"",""1782""
","
","null","run_exp/static/audio/clip_34_recognition_2.m4a","null","","","","","<div class='center'><p> You will press the 5, 6, 7, 8 keys on your keyboard to respond.</p><p>If you are sure you saw the ship, press <b>5</b> on your keyboard.</p><p> If you think you saw it before but aren't sure, then press <b>6</b>.</p><p> If you think you have <b>not</b> seen it before but aren't sure, then press <b>7</b>.</p><p> If you are sure you did <b>not</b> see the ship before, then press <b>8</b>.</p><p><img src='run_exp/static/images/tutorial/example_recog_trial.png' height='500'></p></div>","","","","","","","","","","","","","","","","","","",""
"","html-keyboard-response","13","121561","0.0-13.0","""event"",""trial"",""time""
""fullscreenenter"",""0"",""1782""
","
","
","""event"",""trial"",""time""
""fullscreenenter"",""0"",""1782""
","
","136.79999995231628","<div class='center'><p> You will press the 5, 6, 7, 8 keys on your keyboard to respond.</p><p>If you are sure you saw the ship, press <b>5</b> on your keyboard.</p><p> If you think you saw it before but aren't sure, then press <b>6</b>.</p><p> If you think you have <b>not</b> seen it before but aren't sure, then press <b>7</b>.</p><p> If you are sure you did <b>not</b> see the ship before, then press <b>8</b>.</p><p><img src='run_exp/static/images/tutorial/example_recog_trial.png' height='500'></p><p><b>[Press the space bar to continue]</b></p></div>","32","","","","","","","","","","","","","","","","","","","","","","","",""
"","explain_outcome","14","138746","0.0-14.0","""event"",""trial"",""time""
""fullscreenenter"",""0"",""1782""
","
","
","""event"",""trial"",""time""
""fullscreenenter"",""0"",""1782""
","
","null","run_exp/static/audio/clip_35_recognition_3.m4a","null","","","","","<div class='center'><p> If you remember correctly, then you’ll get a gold coin like this: </p><p><img src='run_exp/static/images/tutorial/reward_small.png' height='200'></p><p>If you do not remember correctly, then you'll see a red x like this: </p><p><img src='run_exp/static/images/tutorial/reward_no.png' height='200'></p><p>Importantly, when you are shown a ship, take the time to remind yourself which island you saw it on. This will help you in the next part of the study.</p></div>","","","","","","","","","","","","","","","","","","",""
"","html-keyboard-response","15","144697","0.0-15.0","""event"",""trial"",""time""
""fullscreenenter"",""0"",""1782""
","
","
","""event"",""trial"",""time""
""fullscreenenter"",""0"",""1782""
","
","5949.5","<div class='center'><p> If you remember correctly, then you’ll get a gold coin like this: </p><p><img src='run_exp/static/images/tutorial/reward_small.png' height='200'></p><p>If you do not remember correctly, then you'll see a red x like this: </p><p><img src='run_exp/static/images/tutorial/reward_no.png' height='200'></p><p>Importantly, when you are shown a ship, take the time to remind yourself which island you saw it on. This will help you in the next part of the study.</p><p><b>[Press the space bar to continue]</b></p></div>","32","","","","","","","","","","","","","","","","","","","","","","","",""
"","begin_test_phase","16","160506","0.0-16.0","""event"",""trial"",""time""
""fullscreenenter"",""0"",""1782""
","
","
","""event"",""trial"",""time""
""fullscreenenter"",""0"",""1782""
","
","null","run_exp/static/audio/clip_36_begin_final.m4a","null","","","","","<div class='center'><p>Let's go over the important points again. Your job is to: </p><p>1. Pick the pirate who is best at robbing ships and will bring you back gold coins. </p><p>2. Correctly remember whether or not you saw a ship before. If you did see the ship before, remind yourself on which island you saw it. </p></div>","","","","","","","","","","","","","","","","","","",""
"","html-keyboard-response","17","160825","0.0-17.0","""event"",""trial"",""time""
""fullscreenenter"",""0"",""1782""
","
","
","""event"",""trial"",""time""
""fullscreenenter"",""0"",""1782""
","
","296.7000000476837","<div class='center'><p>Let's go over the important points again. Your job is to: </p><p>1. Pick the pirate who is best at robbing ships and will bring you back gold coins. </p><p>2. Correctly remember whether or not you saw a ship before. If you did see the ship before, remind yourself on which island you saw it. </p><p><b>[Press the space bar to continue]</b></p></div>","32","","","","","","","","","","","","","","","","","","","","","","","",""
"","do_welcome","18","164833","0.0-18.0","""event"",""trial"",""time""
""fullscreenenter"",""0"",""1782""
","
","
","""event"",""trial"",""time""
""fullscreenenter"",""0"",""1782""
","
","null","","","","","","","","null","","","","","","","","","","","","","","","","","",""
"","do_trial","19","168613","0.0-19.0-0.0","""event"",""trial"",""time""
""fullscreenenter"",""0"",""1782""
","
","
","""event"",""trial"",""time""
""fullscreenenter"",""0"",""1782""
","
","1252.7000000476837","","","","","","","","50","0,0,0","6","blank","230","null","0.14133654684175442","0.6361361297907331","0.34003501474262093","0","","","","","","","","",""
"","html-keyboard-response","20","169616","0.0-19.0-1.0","""event"",""trial"",""time""
""fullscreenenter"",""0"",""1782""
","
","
","""event"",""trial"",""time""
""fullscreenenter"",""0"",""1782""
","
","null","<p></p>","null","","","","","","","","","","","","","","","","","","","","","","","",""
"","do_trial","21","172495","0.0-20.0-0.0","""event"",""trial"",""time""
""fullscreenenter"",""0"",""1782""
","
","
","""event"",""trial"",""time""
""fullscreenenter"",""0"",""1782""
","
","350","","","","","","","","50","0,0,0","6","blank","231","null","0.17956880656766436","0.5420660859391722","0.42593586420236584","0","","","","","","","","",""
"","html-keyboard-response","22","173498","0.0-20.0-1.0","""event"",""trial"",""time""
""fullscreenenter"",""0"",""1782""
","
","
","""event"",""trial"",""time""
""fullscreenenter"",""0"",""1782""
","
","null","<p></p>","null","","","","","","","","","","","","","","","","","","","","","","","",""
"","do_trial","23","176356","0.0-21.0-0.0","""event"",""trial"",""time""
""fullscreenenter"",""0"",""1782""
","
","
","""event"",""trial"",""time""
""fullscreenenter"",""0"",""1782""
","
","324.40000009536743","","","","","","","","49","0,1,0","6","blank","232","null","0.2329964458060635","0.5185632459625003","0.3369315895526573","0","","","","","","","","",""
"","html-keyboard-response","24","177367","0.0-21.0-1.0","""event"",""trial"",""time""
""fullscreenenter"",""0"",""1782""
","
","
","""event"",""trial"",""time""
""fullscreenenter"",""0"",""1782""
","
","null","<p></p>","null","","","","","","","","","","","","","","","","","","","","","","","",""
"","do_trial","25","180131","0.0-22.0-0.0","""event"",""trial"",""time""
""fullscreenenter"",""0"",""1782""
","
","
","""event"",""trial"",""time""
""fullscreenenter"",""0"",""1782""
","
","221.90000009536743","","","","","","","","49","0,1,0","6","blank","233","null","0.21591169197516727","0.557876929703771","0.3439275422524263","0","","","","","","","","",""
"","html-keyboard-response","26","181137","0.0-22.0-1.0","""event"",""trial"",""time""
""fullscreenenter"",""0"",""1782""
","
","
","""event"",""trial"",""time""
""fullscreenenter"",""0"",""1782""
","
","null","<p></p>","null","","","","","","","","","","","","","","","","","","","","","","","",""
"","do_trial","27","183929","0.0-23.0-0.0","""event"",""trial"",""time""
""fullscreenenter"",""0"",""1782""
","
","
","""event"",""trial"",""time""
""fullscreenenter"",""0"",""1782""
","
","251.29999995231628","","","","","","","","51","0,1,0","6","blank","234","null","0.2500071663275197","0.48133789730926035","0.27324443855386116","0","","","","","","","","",""
"","html-keyboard-response","28","184941","0.0-23.0-1.0","""event"",""trial"",""time""
""fullscreenenter"",""0"",""1782""
","
","
","""event"",""trial"",""time""
""fullscreenenter"",""0"",""1782""
","
","null","<p></p>","null","","","","","","","","","","","","","","","","","","","","","","","",""
"","do_trial","29","187761","0.0-24.0-0.0","""event"",""trial"",""time""
""fullscreenenter"",""0"",""1782""
","
","
","""event"",""trial"",""time""
""fullscreenenter"",""0"",""1782""
","
","281.10000014305115","","","","","","","","51","0,1,1","6","blank","235","null","0.2035070615617019","0.5928142005157352","0.3221667256223166","1","","","","","","","","",""
"","html-keyboard-response","30","188767","0.0-24.0-1.0","""event"",""trial"",""time""
""fullscreenenter"",""0"",""1782""
","
","
","""event"",""trial"",""time""
""fullscreenenter"",""0"",""1782""
","
","null","<p></p>","null","","","","","","","","","","","","","","","","","","","","","","","",""
"","do_trial","31","191609","0.0-25.0-0.0","""event"",""trial"",""time""
""fullscreenenter"",""0"",""1782""
","
","
","""event"",""trial"",""time""
""fullscreenenter"",""0"",""1782""
","
","304.5","","","","","","","","51","0,1,0","6","blank","236","null","0.14882468123661194","0.725060339263803","0.2491923145412456","0","","","","","","","","",""
"","html-keyboard-response","32","192610","0.0-25.0-1.0","""event"",""trial"",""time""
""fullscreenenter"",""0"",""1782""
","
","
","""event"",""trial"",""time""
""fullscreenenter"",""0"",""1782""
","
","null","<p></p>","null","","","","","","","","","","","","","","","","","","","","","","","",""
"","do_trial","33","195560","0.0-26.0-0.0","""event"",""trial"",""time""
""fullscreenenter"",""0"",""1782""
","
","
","""event"",""trial"",""time""
""fullscreenenter"",""0"",""1782""
","
","420.09999990463257","","","","","","","","51","0,1,0","6","blank","237","null","0.14185943343105042","0.5212295065311408","0.20102510774176105","0","","","","","","","","",""
"","html-keyboard-response","34","196568","0.0-26.0-1.0","""event"",""trial"",""time""
""fullscreenenter"",""0"",""1782""
","
","
","""event"",""trial"",""time""
""fullscreenenter"",""0"",""1782""
","
","null","<p></p>","null","","","","","","","","","","","","","","","","","","","","","","","",""
"","do_trial","35","199375","0.0-27.0-0.0","""event"",""trial"",""time""
""fullscreenenter"",""0"",""1782""
","
","
","""event"",""trial"",""time""
""fullscreenenter"",""0"",""1782""
","
","277.09999990463257","","","","","","","","50","0,1,1","6","blank","238","null","0.22578121721826133","0.5808625180501512","0.2721597238328225","1","","","","","","","","",""
"","html-keyboard-response","36","200381","0.0-27.0-1.0","""event"",""trial"",""time""
""fullscreenenter"",""0"",""1782""
","
","
","""event"",""trial"",""time""
""fullscreenenter"",""0"",""1782""
","
","null","<p></p>","null","","","","","","","","","","","","","","","","","","","","","","","",""
"","do_trial","37","203123","0.0-28.0-0.0","""event"",""trial"",""time""
""fullscreenenter"",""0"",""1782""
","
","
","""event"",""trial"",""time""
""fullscreenenter"",""0"",""1782""
","
","199.09999990463257","","","","","","","","50","0,0,0","6","blank","239","null","0.41784955196836804","0.5831423697842048","0.41984942132342556","0","","","","","","","","",""
"","html-keyboard-response","38","204134","0.0-28.0-1.0","""event"",""trial"",""time""
""fullscreenenter"",""0"",""1782""
","
","
","""event"",""trial"",""time""
""fullscreenenter"",""0"",""1782""
","
","null","<p></p>","null","","","","","","","","","","","","","","","","","","","","","","","",""
"","do_trial","39","206885","0.0-29.0-0.0","""event"",""trial"",""time""
""fullscreenenter"",""0"",""1782""
","
","
","""event"",""trial"",""time""
""fullscreenenter"",""0"",""1782""
","
","218","","","","","","","","50","0,0,0","6","blank","240","null","0.40775168644803883","0.47700148080309557","0.4456677929260035","0","","","","","","","","",""
"","html-keyboard-response","40","207892","0.0-29.0-1.0","""event"",""trial"",""time""
""fullscreenenter"",""0"",""1782""
","
","
","""event"",""trial"",""time""
""fullscreenenter"",""0"",""1782""
","
","null","<p></p>","null","","","","","","","","","","","","","","","","","","","","","","","",""
"","do_trial","41","210574","0.0-30.0-0.0","""event"",""trial"",""time""
""fullscreenenter"",""0"",""1782""
","
","
","""event"",""trial"",""time""
""fullscreenenter"",""0"",""1782""
","
","148.70000004768372","","","","","","","","51","1,1,0","6","blank","241","null","0.47084361399035446","0.588249523800795","0.42097330526648913","0","","","","","","","","",""
"","html-keyboard-response","42","211579","0.0-30.0-1.0","""event"",""trial"",""time""
""fullscreenenter"",""0"",""1782""
","
","
","""event"",""trial"",""time""
""fullscreenenter"",""0"",""1782""
","
","null","<p></p>","null","","","","","","","","","","","","","","","","","","","","","","","",""
"","do_trial","43","214202","0.0-31.0-0.0","""event"",""trial"",""time""
""fullscreenenter"",""0"",""1782""
","
","
","""event"",""trial"",""time""
""fullscreenenter"",""0"",""1782""
","
","89.5","","","","","","","","49","0,0,1","6","blank","242","null","0.3254145422925879","0.546535063121418","0.4850997230231504","0","","","","","","","","",""
"","html-keyboard-response","44","215216","0.0-31.0-1.0","""event"",""trial"",""time""
""fullscreenenter"",""0"",""1782""
","
","
","""event"",""trial"",""time""
""fullscreenenter"",""0"",""1782""
","
","null","<p></p>","null","","","","","","","","","","","","","","","","","","","","","","","",""
"","do_trial","45","217986","0.0-32.0-0.0","""event"",""trial"",""time""
""fullscreenenter"",""0"",""1782""
","
","
","""event"",""trial"",""time""
""fullscreenenter"",""0"",""1782""
","
","229","","","","","","","","49","0,0,0","6","blank","243","null","0.1749360689306924","0.6039405517027898","0.3839384819489037","0","","","","","","","","",""
"","html-keyboard-response","46","218994","0.0-32.0-1.0","""event"",""trial"",""time""
""fullscreenenter"",""0"",""1782""
","
","
","""event"",""trial"",""time""
""fullscreenenter"",""0"",""1782""
","
","null","<p></p>","null","","","","","","","","","","","","","","","","","","","","","","","",""
"","do_recog","47","225015","0.0-33.0-0.0","""event"",""trial"",""time""
""fullscreenenter"",""0"",""1782""
","
","
","""event"",""trial"",""time""
""fullscreenenter"",""0"",""1782""
","
","null","","","","","","","","null","","","","244","probe-04","","","","","1","[object Object]","112","2","0","","","",""
"","html-keyboard-response","48","226025","0.0-33.0-1.0","""event"",""trial"",""time""
""fullscreenenter"",""0"",""1782""
","
","
","""event"",""trial"",""time""
""fullscreenenter"",""0"",""1782""
","
","null","<p></p>","null","","","","","","","","","","","","","","","","","","","","","","","",""
"","do_trial","49","229128","0.0-34.0-0.0","""event"",""trial"",""time""
""fullscreenenter"",""0"",""1782""
","
","
","""event"",""trial"",""time""
""fullscreenenter"",""0"",""1782""
","
","567.3999998569489","","","","","","","","49","0,0,0","6","blank","245","null","0.3676385758419022","0.5199698963277447","0.48575997128494963","0","","","","","","","","",""
"","html-keyboard-response","50","230140","0.0-34.0-1.0","""event"",""trial"",""time""
""fullscreenenter"",""0"",""1782""
","
","
","""event"",""trial"",""time""
""fullscreenenter"",""0"",""1782""
","
","null","<p></p>","null","","","","","","","","","","","","","","","","","","","","","","","",""
"","do_trial","51","233290","0.0-35.0-0.0","""event"",""trial"",""time""
""fullscreenenter"",""0"",""1782""
","
","
","""event"",""trial"",""time""
""fullscreenenter"",""0"",""1782""
","
","617.2000000476837","","","","","","","","49","0,0,1","6","blank","246","null","0.19328501070882947","0.4602515194740844","0.6678141786971823","0","","","","","","","","",""
"","html-keyboard-response","52","234302","0.0-35.0-1.0","""event"",""trial"",""time""
""fullscreenenter"",""0"",""1782""
","
","
","""event"",""trial"",""time""
""fullscreenenter"",""0"",""1782""
","
","null","<p></p>","null","","","","","","","","","","","","","","","","","","","","","","","",""
"","do_recog","53","237085","0.0-36.0-0.0","""event"",""trial"",""time""
""fullscreenenter"",""0"",""1782""
","
","
","""event"",""trial"",""time""
""fullscreenenter"",""0"",""1782""
","
","1271.4000000953674","","","","","","","","55","","","","247","probe-217","","","","","1","[object Object]","118","2","0","","","",""
"","html-keyboard-response","54","238091","0.0-36.0-1.0","""event"",""trial"",""time""
""fullscreenenter"",""0"",""1782""
","
","
","""event"",""trial"",""time""
""fullscreenenter"",""0"",""1782""
","
","null","<p></p>","null","","","","","","","","","","","","","","","","","","","","","","","",""
"","do_trial","55","241031","0.0-37.0-0.0","""event"",""trial"",""time""
""fullscreenenter"",""0"",""1782""
","
","
","""event"",""trial"",""time""
""fullscreenenter"",""0"",""1782""
","
","402","","","","","","","","49","0,1,0","6","blank","248","null","0.17013559857952612","0.410668916309114","0.7035180427911999","0","","","","","","","","",""
"","html-keyboard-response","56","242037","0.0-37.0-1.0","""event"",""trial"",""time""
""fullscreenenter"",""0"",""1782""
","
","
","""event"",""trial"",""time""
""fullscreenenter"",""0"",""1782""
","
","null","<p></p>","null","","","","","","","","","","","","","","","","","","","","","","","",""
"","do_trial","57","244792","0.0-38.0-0.0","""event"",""trial"",""time""
""fullscreenenter"",""0"",""1782""
","
","
","""event"",""trial"",""time""
""fullscreenenter"",""0"",""1782""
","
","225","","","","","","","","50","0,0,1","6","blank","249","null","0.054059949304700296","0.5102538626279869","0.6421101535669423","0","","","","","","","","",""
"","html-keyboard-response","58","245795","0.0-38.0-1.0","""event"",""trial"",""time""
""fullscreenenter"",""0"",""1782""
","
","
","""event"",""trial"",""time""
""fullscreenenter"",""0"",""1782""
","
","null","<p></p>","null","","","","","","","","","","","","","","","","","","","","","","","",""
"","do_trial","59","248584","0.0-39.0-0.0","""event"",""trial"",""time""
""fullscreenenter"",""0"",""1782""
","
","
","""event"",""trial"",""time""
""fullscreenenter"",""0"",""1782""
","
","251","","","","","","","","51","0,0,1","6","blank","250","null","0.11275578462054534","0.5617745039721886","0.6353245574145622","1","","","","","","","","",""
"","html-keyboard-response","60","249590","0.0-39.0-1.0","""event"",""trial"",""time""
""fullscreenenter"",""0"",""1782""
","
","
","""event"",""trial"",""time""
""fullscreenenter"",""0"",""1782""
","
","null","<p></p>","null","","","","","","","","","","","","","","","","","","","","","","","",""
"","do_trial","61","252604","0.0-40.0-0.0","""event"",""trial"",""time""
""fullscreenenter"",""0"",""1782""
","
","
","""event"",""trial"",""time""
""fullscreenenter"",""0"",""1782""
","
","479.09999990463257","","","","","","","","51","0,0,1","6","blank","251","null","0.13660342389452163","0.48898399902277184","0.6470617971789959","1","","","","","","","","",""
"","html-keyboard-response","62","253609","0.0-40.0-1.0","""event"",""trial"",""time""
""fullscreenenter"",""0"",""1782""
","
","
","""event"",""trial"",""time""
""fullscreenenter"",""0"",""1782""
","
","null","<p></p>","null","","","","","","","","","","","","","","","","","","","","","","","",""
"","do_recog","63","256314","0.0-41.0-0.0","""event"",""trial"",""time""
""fullscreenenter"",""0"",""1782""
","
","
","""event"",""trial"",""time""
""fullscreenenter"",""0"",""1782""
","
","1188.2000000476837","","","","","","","","53","","","","252","probe-127","","","","","1","[object Object]","154","3","1","","","",""
"","html-keyboard-response","64","257327","0.0-41.0-1.0","""event"",""trial"",""time""
""fullscreenenter"",""0"",""1782""
","
","
","""event"",""trial"",""time""
""fullscreenenter"",""0"",""1782""
","
","null","<p></p>","null","","","","","","","","","","","","","","","","","","","","","","","",""
"","do_trial","65","260195","0.0-42.0-0.0","""event"",""trial"",""time""
""fullscreenenter"",""0"",""1782""
","
","
","""event"",""trial"",""time""
""fullscreenenter"",""0"",""1782""
","
","326.60000014305115","","","","","","","","51","1,1,0","6","blank","253","null","0.3303301982120303","0.5148152406015312","0.6904616491671465","0","","","","","","","","",""
"","html-keyboard-response","66","261212","0.0-42.0-1.0","""event"",""trial"",""time""
""fullscreenenter"",""0"",""1782""
","
","
","""event"",""trial"",""time""
""fullscreenenter"",""0"",""1782""
","
","null","<p></p>","null","","","","","","","","","","","","","","","","","","","","","","","",""
"","do_trial","67","264061","0.0-43.0-0.0","""event"",""trial"",""time""
""fullscreenenter"",""0"",""1782""
","
","
","""event"",""trial"",""time""
""fullscreenenter"",""0"",""1782""
","
","315.7999999523163","","","","","","","","50","0,0,1","6","blank","254","null","0.05277347629560989","0.3742425431511541","0.7969879752006261","0","","","","","","","","",""
"","html-keyboard-response","68","265064","0.0-43.0-1.0","""event"",""trial"",""time""
""fullscreenenter"",""0"",""1782""
","
","
","""event"",""trial"",""time""
""fullscreenenter"",""0"",""1782""
","
","null","<p></p>","null","","","","","","","","","","","","","","","","","","","","","","","",""
"","do_trial","69","267958","0.0-44.0-0.0","""event"",""trial"",""time""
""fullscreenenter"",""0"",""1782""
","
","
","""event"",""trial"",""time""
""fullscreenenter"",""0"",""1782""
","
","365.09999990463257","","","","","","","","51","0,0,1","6","blank","255","null","0.05665856874723991","0.3482365193269225","0.7176646164132328","1","","","","","","","","",""
"","html-keyboard-response","70","268964","0.0-44.0-1.0","""event"",""trial"",""time""
""fullscreenenter"",""0"",""1782""
","
","
","""event"",""trial"",""time""
""fullscreenenter"",""0"",""1782""
","
","null","<p></p>","null","","","","","","","","","","","","","","","","","","","","","","","",""
"","do_trial","71","271797","0.0-45.0-0.0","""event"",""trial"",""time""
""fullscreenenter"",""0"",""1782""
","
","
","""event"",""trial"",""time""
""fullscreenenter"",""0"",""1782""
","
","298.60000014305115","","","","","","","","51","0,1,0","6","blank","256","null","0.16215727418370296","0.4045930658675298","0.6292803388663026","0","","","","","","","","",""
"","html-keyboard-response","72","272805","0.0-45.0-1.0","""event"",""trial"",""time""
""fullscreenenter"",""0"",""1782""
","
","
","""event"",""trial"",""time""
""fullscreenenter"",""0"",""1782""
","
","null","<p></p>","null","","","","","","","","","","","","","","","","","","","","","","","",""
"","do_trial","73","275585","0.0-46.0-0.0","""event"",""trial"",""time""
""fullscreenenter"",""0"",""1782""
","
","
","""event"",""trial"",""time""
""fullscreenenter"",""0"",""1782""
","
","248.5","","","","","","","","50","1,0,1","6","blank","257","null","0.09385191550846184","0.18409586872399883","0.6088968607805192","0","","","","","","","","",""
"","html-keyboard-response","74","276600","0.0-46.0-1.0","""event"",""trial"",""time""
""fullscreenenter"",""0"",""1782""
","
","
","""event"",""trial"",""time""
""fullscreenenter"",""0"",""1782""
","
","null","<p></p>","null","","","","","","","","","","","","","","","","","","","","","","","",""
"","do_recog","75","279228","0.0-47.0-0.0","""event"",""trial"",""time""
""fullscreenenter"",""0"",""1782""
","
","
","""event"",""trial"",""time""
""fullscreenenter"",""0"",""1782""
","
","1109.2999999523163","","","","","","","","54","","","","258","probe-105","","","","","1","[object Object]","114","2","1","","","",""
"","html-keyboard-response","76","280240","0.0-47.0-1.0","""event"",""trial"",""time""
""fullscreenenter"",""0"",""1782""
","
","
","""event"",""trial"",""time""
""fullscreenenter"",""0"",""1782""
","
","null","<p></p>","null","","","","","","","","","","","","","","","","","","","","","","","",""
"","do_trial","77","283096","0.0-48.0-0.0","""event"",""trial"",""time""
""fullscreenenter"",""0"",""1782""
","
","
","""event"",""trial"",""time""
""fullscreenenter"",""0"",""1782""
","
","319.59999990463257","","","","","","","","50","0,0,1","6","blank","259","null","0.10300235535234556","0.07731309049166417","0.6966544343746514","0","","","","","","","","",""
"","html-keyboard-response","78","284103","0.0-48.0-1.0","""event"",""trial"",""time""
""fullscreenenter"",""0"",""1782""
","
","
","""event"",""trial"",""time""
""fullscreenenter"",""0"",""1782""
","
","null","<p></p>","null","","","","","","","","","","","","","","","","","","","","","","","",""
"","do_recog","79","286537","0.0-49.0-0.0","""event"",""trial"",""time""
""fullscreenenter"",""0"",""1782""
","
","
","""event"",""trial"",""time""
""fullscreenenter"",""0"",""1782""
","
","927.1000001430511","","","","","","","","54","","","","260","probe-10","","","","","1","[object Object]","198","4","1","","","",""
"","html-keyboard-response","80","287545","0.0-49.0-1.0","""event"",""trial"",""time""
""fullscreenenter"",""0"",""1782""
","
","
","""event"",""trial"",""time""
""fullscreenenter"",""0"",""1782""
","
","null","<p></p>","null","","","","","","","","","","","","","","","","","","","","","","","",""
"","do_trial","81","290355","0.0-50.0-0.0","""event"",""trial"",""time""
""fullscreenenter"",""0"",""1782""
","
","
","""event"",""trial"",""time""
""fullscreenenter"",""0"",""1782""
","
","268.10000014305115","","","","","","","","51","0,0,1","6","blank","261","null","0.06518722154167907","0.20846186761156127","0.5698699320138207","1","","","","","","","","",""
"","html-keyboard-response","82","291366","0.0-50.0-1.0","""event"",""trial"",""time""
""fullscreenenter"",""0"",""1782""
","
","
","""event"",""trial"",""time""
""fullscreenenter"",""0"",""1782""
","
","null","<p></p>","null","","","","","","","","","","","","","","","","","","","","","","","",""
"","do_trial","83","294242","0.0-51.0-0.0","""event"",""trial"",""time""
""fullscreenenter"",""0"",""1782""
","
","
","""event"",""trial"",""time""
""fullscreenenter"",""0"",""1782""
","
","343.5","","","","","","","","51","0,1,0","6","blank","262","null","0.08289063596733444","0.2855107396077046","0.45929066258950285","0","","","","","","","","",""
"","html-keyboard-response","84","295248","0.0-51.0-1.0","""event"",""trial"",""time""
""fullscreenenter"",""0"",""1782""
","
","
","""event"",""trial"",""time""
""fullscreenenter"",""0"",""1782""
","
","null","<p></p>","null","","","","","","","","","","","","","","","","","","","","","","","",""
"","do_trial","85","297937","0.0-52.0-0.0","""event"",""trial"",""time""
""fullscreenenter"",""0"",""1782""
","
","
","""event"",""trial"",""time""
""fullscreenenter"",""0"",""1782""
","
","151","","","","","","","","50","1,0,1","6","blank","263","null","0.18226019821288972","0.2250016829933077","0.48059726022180904","0","","","","","","","","",""
"","html-keyboard-response","86","298954","0.0-52.0-1.0","""event"",""trial"",""time""
""fullscreenenter"",""0"",""1782""
","
","
","""event"",""trial"",""time""
""fullscreenenter"",""0"",""1782""
","
","null","<p></p>","null","","","","","","","","","","","","","","","","","","","","","","","",""
"","do_recog","87","301534","0.0-53.0-0.0","""event"",""trial"",""time""
""fullscreenenter"",""0"",""1782""
","
","
","""event"",""trial"",""time""
""fullscreenenter"",""0"",""1782""
","
","1075.4000000953674","","","","","","","","55","","","","264","probe-137","","","","","1","[object Object]","152","3","0","","","",""
"","html-keyboard-response","88","302544","0.0-53.0-1.0","""event"",""trial"",""time""
""fullscreenenter"",""0"",""1782""
","
","
","""event"",""trial"",""time""
""fullscreenenter"",""0"",""1782""
","
","null","<p></p>","null","","","","","","","","","","","","","","","","","","","","","","","",""
"","do_trial","89","305538","0.0-54.0-0.0","""event"",""trial"",""time""
""fullscreenenter"",""0"",""1782""
","
","
","""event"",""trial"",""time""
""fullscreenenter"",""0"",""1782""
","
","456","","","","","","","","51","0,0,0","6","blank","265","null","0.198571443621864","0.2317953175784584","0.5675698882768833","0","","","","","","","","",""
"","html-keyboard-response","90","306554","0.0-54.0-1.0","""event"",""trial"",""time""
""fullscreenenter"",""0"",""1782""
","
","
","""event"",""trial"",""time""
""fullscreenenter"",""0"",""1782""
","
","null","<p></p>","null","","","","","","","","","","","","","","","","","","","","","","","",""
"","do_trial","91","309396","0.0-55.0-0.0","""event"",""trial"",""time""
""fullscreenenter"",""0"",""1782""
","
","
","""event"",""trial"",""time""
""fullscreenenter"",""0"",""1782""
","
","311.10000014305115","","","","","","","","51","0,0,0","6","blank","266","null","0.13470990681635328","0.23625808571734014","0.6516797582874277","0","","","","","","","","",""
"","html-keyboard-response","92","310404","0.0-55.0-1.0","""event"",""trial"",""time""
""fullscreenenter"",""0"",""1782""
","
","
","""event"",""trial"",""time""
""fullscreenenter"",""0"",""1782""
","
","null","<p></p>","null","","","","","","","","","","","","","","","","","","","","","","","",""
"","do_trial","93","313097","0.0-56.0-0.0","""event"",""trial"",""time""
""fullscreenenter"",""0"",""1782""
","
","
","""event"",""trial"",""time""
""fullscreenenter"",""0"",""1782""
","
","162.60000014305115","","","","","","","","49","0,0,1","6","blank","267","null","0.2060124254773098","0.26279275048087297","0.742054605352825","0","","","","","","","","",""
"","html-keyboard-response","94","314108","0.0-56.0-1.0","""event"",""trial"",""time""
""fullscreenenter"",""0"",""1782""
","
","
","""event"",""trial"",""time""
""fullscreenenter"",""0"",""1782""
","
","null","<p></p>","null","","","","","","","","","","","","","","","","","","","","","","","",""
"","do_trial","95","316955","0.0-57.0-0.0","""event"",""trial"",""time""
""fullscreenenter"",""0"",""1782""
","
","
","""event"",""trial"",""time""
""fullscreenenter"",""0"",""1782""
","
","306.2000000476837","","","","","","","","49","0,1,0","6","blank","268","null","0.1694350808712754","0.3645103156631466","0.7897004388886487","0","","","","","","","","",""
"","html-keyboard-response","96","317967","0.0-57.0-1.0","""event"",""trial"",""time""
""fullscreenenter"",""0"",""1782""
","
","
","""event"",""trial"",""time""
""fullscreenenter"",""0"",""1782""
","
","null","<p></p>","null","","","","","","","","","","","","","","","","","","","","","","","",""
"","break","97","319681","0.0-58.0-0.0","""event"",""trial"",""time""
""fullscreenenter"",""0"",""1782""
","
","
","""event"",""trial"",""time""
""fullscreenenter"",""0"",""1782""
","
","1713.5","<div class='center'><p>Time to take a quick break! You have 2 minutes to rest, but you can move on sooner if you'd like.</p><p> Press the <b>space bar</b> to continue.</p></div>","32","","","","","","","","","","","","","","","","","","","","","","","",""
"","do_trial","98","323742","0.0-58.0-1.0","""event"",""trial"",""time""
""fullscreenenter"",""0"",""1782""
","
","
","""event"",""trial"",""time""
""fullscreenenter"",""0"",""1782""
","
","1534.2999999523163","","","","","","","","49","1,0,1","6","blank","269","null","0.2868323538093654","0.286795177429425","0.6860883526561262","1","","","","","","","","",""
"","html-keyboard-response","99","324753","0.0-58.0-2.0","""event"",""trial"",""time""
""fullscreenenter"",""0"",""1782""
","
","
","""event"",""trial"",""time""
""fullscreenenter"",""0"",""1782""
","
","null","<p></p>","null","","","","","","","","","","","","","","","","","","","","","","","",""
"","do_recog","100","327807","0.0-59.0-0.0","""event"",""trial"",""time""
""fullscreenenter"",""0"",""1782""
","
","
","""event"",""trial"",""time""
""fullscreenenter"",""0"",""1782""
","
","1549.2999999523163","","","","","","","","53","","","","270","probe-18","","","","","1","[object Object]","71","1","1","","","",""
"","html-keyboard-response","101","328817","0.0-59.0-1.0","""event"",""trial"",""time""
""fullscreenenter"",""0"",""1782""
","
","
","""event"",""trial"",""time""
""fullscreenenter"",""0"",""1782""
","
","null","<p></p>","null","","","","","","","","","","","","","","","","","","","","","","","",""
"","do_trial","102","331623","0.0-60.0-0.0","""event"",""trial"",""time""
""fullscreenenter"",""0"",""1782""
","
","
","""event"",""trial"",""time""
""fullscreenenter"",""0"",""1782""
","
","270.2999999523163","","","","","","","","49","1,0,0","6","blank","271","null","0.17251205704364966","0.11739885022530785","0.6520812107465886","1","","","","","","","","",""
"","html-keyboard-response","103","332628","0.0-60.0-1.0","""event"",""trial"",""time""
""fullscreenenter"",""0"",""1782""
","
","
","""event"",""trial"",""time""
""fullscreenenter"",""0"",""1782""
","
","null","<p></p>","null","","","","","","","","","","","","","","","","","","","","","","","",""
"","do_recog","104","334746","0.0-61.0-0.0","""event"",""trial"",""time""
""fullscreenenter"",""0"",""1782""
","
","
","""event"",""trial"",""time""
""fullscreenenter"",""0"",""1782""
","
","603.1000001430511","","","","","","","","53","","","","272","probe-153","","","","","1","[object Object]","191","4","1","","","",""
"","html-keyboard-response","105","335754","0.0-61.0-1.0","""event"",""trial"",""time""
""fullscreenenter"",""0"",""1782""
","
","
","""event"",""trial"",""time""
""fullscreenenter"",""0"",""1782""
","
","null","<p></p>","null","","","","","","","","","","","","","","","","","","","","","","","",""
"","do_trial","106","338548","0.0-62.0-0.0","""event"",""trial"",""time""
""fullscreenenter"",""0"",""1782""
","
","
","""event"",""trial"",""time""
""fullscreenenter"",""0"",""1782""
","
","260.39999985694885","","","","","","","","49","0,0,1","6","blank","273","null","0.2206964566980142","0.20514719429573913","0.6522210680318188","0","","","","","","","","",""
"","html-keyboard-response","107","339557","0.0-62.0-1.0","""event"",""trial"",""time""
""fullscreenenter"",""0"",""1782""
","
","
","""event"",""trial"",""time""
""fullscreenenter"",""0"",""1782""
","
","null","<p></p>","null","","","","","","","","","","","","","","","","","","","","","","","",""
"","do_trial","108","342266","0.0-63.0-0.0","""event"",""trial"",""time""
""fullscreenenter"",""0"",""1782""
","
","
","""event"",""trial"",""time""
""fullscreenenter"",""0"",""1782""
","
","166.59999990463257","","","","","","","","50","0,0,0","6","blank","274","null","0.17235737621053862","0.2467071903814828","0.5726589770309124","0","","","","","","","","",""
"","html-keyboard-response","109","343271","0.0-63.0-1.0","""event"",""trial"",""time""
""fullscreenenter"",""0"",""1782""
","
","
","""event"",""trial"",""time""
""fullscreenenter"",""0"",""1782""
","
","null","<p></p>","null","","","","","","","","","","","","","","","","","","","","","","","",""
"","do_trial","110","346208","0.0-64.0-0.0","""event"",""trial"",""time""
""fullscreenenter"",""0"",""1782""
","
","
","""event"",""trial"",""time""
""fullscreenenter"",""0"",""1782""
","
","409.2999999523163","","","","","","","","51","0,1,0","6","blank","275","null","0.08075648406063507","0.3164770529109492","0.6256586844719401","0","","","","","","","","",""
"","html-keyboard-response","111","347214","0.0-64.0-1.0","""event"",""trial"",""time""
""fullscreenenter"",""0"",""1782""
","
","
","""event"",""trial"",""time""
""fullscreenenter"",""0"",""1782""
","
","null","<p></p>","null","","","","","","","","","","","","","","","","","","","","","","","",""
"","do_recog","112","349391","0.0-65.0-0.0","""event"",""trial"",""time""
""fullscreenenter"",""0"",""1782""
","
","
","""event"",""trial"",""time""
""fullscreenenter"",""0"",""1782""
","
","662.9000000953674","","","","","","","","53","","","","276","probe-251","","","","","0","[object Object]","null","null","0","","","",""
"","html-keyboard-response","113","350401","0.0-65.0-1.0","""event"",""trial"",""time""
""fullscreenenter"",""0"",""1782""
","
","
","""event"",""trial"",""time""
""fullscreenenter"",""0"",""1782""
","
","null","<p></p>","null","","","","","","","","","","","","","","","","","","","","","","","",""
"","do_trial","114","353178","0.0-66.0-0.0","""event"",""trial"",""time""
""fullscreenenter"",""0"",""1782""
","
","
","""event"",""trial"",""time""
""fullscreenenter"",""0"",""1782""
","
","244","","","","","","","","49","0,1,1","6","blank","277","null","0.09904399258358293","0.4914420602162823","0.5839073236120307","0","","","","","","","","",""
"","html-keyboard-response","115","354189","0.0-66.0-1.0","""event"",""trial"",""time""
""fullscreenenter"",""0"",""1782""
","
","
","""event"",""trial"",""time""
""fullscreenenter"",""0"",""1782""
","
","null","<p></p>","null","","","","","","","","","","","","","","","","","","","","","","","",""
"","do_trial","116","356983","0.0-67.0-0.0","""event"",""trial"",""time""
""fullscreenenter"",""0"",""1782""
","
","
","""event"",""trial"",""time""
""fullscreenenter"",""0"",""1782""
","
","252.79999995231628","","","","","","","","49","0,0,0","6","blank","278","null","0.11688812949078535","0.5631455465677327","0.6421218314527215","0","","","","","","","","",""
"","html-keyboard-response","117","357992","0.0-67.0-1.0","""event"",""trial"",""time""
""fullscreenenter"",""0"",""1782""
","
","
","""event"",""trial"",""time""
""fullscreenenter"",""0"",""1782""
","
","null","<p></p>","null","","","","","","","","","","","","","","","","","","","","","","","",""
"","do_trial","118","360732","0.0-68.0-0.0","""event"",""trial"",""time""
""fullscreenenter"",""0"",""1782""
","
","
","""event"",""trial"",""time""
""fullscreenenter"",""0"",""1782""
","
","204.29999995231628","","","","","","","","50","0,0,0","6","blank","279","null","0.19062498192264676","0.5540596876168822","0.6715172083811954","0","","","","","","","","",""
"","html-keyboard-response","119","361735","0.0-68.0-1.0","""event"",""trial"",""time""
""fullscreenenter"",""0"",""1782""
","
","
","""event"",""trial"",""time""
""fullscreenenter"",""0"",""1782""
","
","null","<p></p>","null","","","","","","","","","","","","","","","","","","","","","","","",""
"","do_recog","120","364435","0.0-69.0-0.0","""event"",""trial"",""time""
""fullscreenenter"",""0"",""1782""
","
","
","""event"",""trial"",""time""
""fullscreenenter"",""0"",""1782""
","
","1182.2000000476837","","","","","","","","55","","","","280","probe-141","","","","","1","[object Object]","153","3","0","","","",""
"","html-keyboard-response","121","365443","0.0-69.0-1.0","""event"",""trial"",""time""
""fullscreenenter"",""0"",""1782""
","
","
","""event"",""trial"",""time""
""fullscreenenter"",""0"",""1782""
","
","null","<p></p>","null","","","","","","","","","","","","","","","","","","","","","","","",""
"","do_trial","122","368272","0.0-70.0-0.0","""event"",""trial"",""time""
""fullscreenenter"",""0"",""1782""
","
","
","""event"",""trial"",""time""
""fullscreenenter"",""0"",""1782""
","
","296.7999999523163","","","","","","","","51","0,1,1","6","blank","281","null","0.2541848916187615","0.4536537545443317","0.6518361253803204","1","","","","","","","","",""
"","html-keyboard-response","123","369274","0.0-70.0-1.0","""event"",""trial"",""time""
""fullscreenenter"",""0"",""1782""
","
","
","""event"",""trial"",""time""
""fullscreenenter"",""0"",""1782""
","
","null","<p></p>","null","","","","","","","","","","","","","","","","","","","","","","","",""
"","do_trial","124","372110","0.0-71.0-0.0","""event"",""trial"",""time""
""fullscreenenter"",""0"",""1782""
","
","
","""event"",""trial"",""time""
""fullscreenenter"",""0"",""1782""
","
","301.7000000476837","","","","","","","","51","0,0,0","6","blank","282","null","0.05325087796718275","0.33989135145301225","0.6094441195281817","0","","","","","","","","",""
"","html-keyboard-response","125","373122","0.0-71.0-1.0","""event"",""trial"",""time""
""fullscreenenter"",""0"",""1782""
","
","
","""event"",""trial"",""time""
""fullscreenenter"",""0"",""1782""
","
","null","<p></p>","null","","","","","","","","","","","","","","","","","","","","","","","",""
"","do_trial","126","375709","0.0-72.0-0.0","""event"",""trial"",""time""
""fullscreenenter"",""0"",""1782""
","
","
","""event"",""trial"",""time""
""fullscreenenter"",""0"",""1782""
","
","58.700000047683716","","","","","","","","51","0,1,1","6","blank","283","null","0.12025841198692198","0.2892613153697435","0.4942065971592288","1","","","","","","","","",""
"","html-keyboard-response","127","376721","0.0-72.0-1.0","""event"",""trial"",""time""
""fullscreenenter"",""0"",""1782""
","
","
","""event"",""trial"",""time""
""fullscreenenter"",""0"",""1782""
","
","null","<p></p>","null","","","","","","","","","","","","","","","","","","","","","","","",""
"","do_trial","128","379512","0.0-73.0-0.0","""event"",""trial"",""time""
""fullscreenenter"",""0"",""1782""
","
","
","""event"",""trial"",""time""
""fullscreenenter"",""0"",""1782""
","
","261.7000000476837","","","","","","","","51","0,1,1","6","blank","284","null","0.07081036081445762","0.3176802176653434","0.6427702658768668","1","","","","","","","","",""
"","html-keyboard-response","129","380521","0.0-73.0-1.0","""event"",""trial"",""time""
""fullscreenenter"",""0"",""1782""
","
","
","""event"",""trial"",""time""
""fullscreenenter"",""0"",""1782""
","
","null","<p></p>","null","","","","","","","","","","","","","","","","","","","","","","","",""
"","do_trial","130","383404","0.0-74.0-0.0","""event"",""trial"",""time""
""fullscreenenter"",""0"",""1782""
","
","
","""event"",""trial"",""time""
""fullscreenenter"",""0"",""1782""
","
","351.10000014305115","","","","","","","","51","0,0,0","6","blank","285","null","0.1756100234002227","0.34792401299497555","0.40937346143658715","0","","","","","","","","",""
"","html-keyboard-response","131","384411","0.0-74.0-1.0","""event"",""trial"",""time""
""fullscreenenter"",""0"",""1782""
","
","
","""event"",""trial"",""time""
""fullscreenenter"",""0"",""1782""
","
","null","<p></p>","null","","","","","","","","","","","","","","","","","","","","","","","",""
"","do_trial","132","387273","0.0-75.0-0.0","""event"",""trial"",""time""
""fullscreenenter"",""0"",""1782""
","
","
","""event"",""trial"",""time""
""fullscreenenter"",""0"",""1782""
","
","329.40000009536743","","","","","","","","51","0,0,1","6","blank","286","null","0.29214870577247803","0.3068035721920062","0.3500596697479076","1","","","","","","","","",""
"","html-keyboard-response","133","388282","0.0-75.0-1.0","""event"",""trial"",""time""
""fullscreenenter"",""0"",""1782""
","
","
","""event"",""trial"",""time""
""fullscreenenter"",""0"",""1782""
","
","null","<p></p>","null","","","","","","","","","","","","","","","","","","","","","","","",""
"","do_recog","134","391102","0.0-76.0-0.0","""event"",""trial"",""time""
""fullscreenenter"",""0"",""1782""
","
","
","""event"",""trial"",""time""
""fullscreenenter"",""0"",""1782""
","
","1315.0999999046326","","","","","","","","53","","","","287","probe-14","","","","","1","[object Object]","155","3","1","","","",""
"","html-keyboard-response","135","392113","0.0-76.0-1.0","""event"",""trial"",""time""
""fullscreenenter"",""0"",""1782""
","
","
","""event"",""trial"",""time""
""fullscreenenter"",""0"",""1782""
","
","null","<p></p>","null","","","","","","","","","","","","","","","","","","","","","","","",""
"","do_trial","136","395520","0.0-77.0-0.0","""event"",""trial"",""time""
""fullscreenenter"",""0"",""1782""
","
","
","""event"",""trial"",""time""
""fullscreenenter"",""0"",""1782""
","
","867.2000000476837","","","","","","","","51","0,0,1","6","blank","288","null","0.18425538530857846","0.12144095731320576","0.43480340588564376","1","","","","","","","","",""
"","html-keyboard-response","137","396530","0.0-77.0-1.0","""event"",""trial"",""time""
""fullscreenenter"",""0"",""1782""
","
","
","""event"",""trial"",""time""
""fullscreenenter"",""0"",""1782""
","
","null","<p></p>","null","","","","","","","","","","","","","","","","","","","","","","","",""
"","do_trial","138","399386","0.0-78.0-0.0","""event"",""trial"",""time""
""fullscreenenter"",""0"",""1782""
","
","
","""event"",""trial"",""time""
""fullscreenenter"",""0"",""1782""
","
","315.60000014305115","","","","","","","","51","0,0,0","6","blank","289","null","0.13524074246643855","0.2344970725578287","0.4924896333976136","0","","","","","","","","",""
"","html-keyboard-response","139","400388","0.0-78.0-1.0","""event"",""trial"",""time""
""fullscreenenter"",""0"",""1782""
","
","
","""event"",""trial"",""time""
""fullscreenenter"",""0"",""1782""
","
","null","<p></p>","null","","","","","","","","","","","","","","","","","","","","","","","",""
"","do_recog","140","402584","0.0-79.0-0.0","""event"",""trial"",""time""
""fullscreenenter"",""0"",""1782""
","
","
","""event"",""trial"",""time""
""fullscreenenter"",""0"",""1782""
","
","680.3999998569489","","","","","","","","53","","","","290","probe-230","","","","","1","[object Object]","193","4","1","","","",""
"","html-keyboard-response","141","403592","0.0-79.0-1.0","""event"",""trial"",""time""
""fullscreenenter"",""0"",""1782""
","
","
","""event"",""trial"",""time""
""fullscreenenter"",""0"",""1782""
","
","null","<p></p>","null","","","","","","","","","","","","","","","","","","","","","","","",""
"","do_trial","142","406562","0.0-80.0-0.0","""event"",""trial"",""time""
""fullscreenenter"",""0"",""1782""
","
","
","""event"",""trial"",""time""
""fullscreenenter"",""0"",""1782""
","
","429.19999980926514","","","","","","","","51","0,0,1","6","blank","291","null","0.09091074992692219","0.1732072818693402","0.5693467191340299","1","","","","","","","","",""
"","html-keyboard-response","143","407570","0.0-80.0-1.0","""event"",""trial"",""time""
""fullscreenenter"",""0"",""1782""
","
","
","""event"",""trial"",""time""
""fullscreenenter"",""0"",""1782""
","
","null","<p></p>","null","","","","","","","","","","","","","","","","","","","","","","","",""
"","do_trial","144","410419","0.0-81.0-0.0","""event"",""trial"",""time""
""fullscreenenter"",""0"",""1782""
","
","
","""event"",""trial"",""time""
""fullscreenenter"",""0"",""1782""
","
","315.2000000476837","","","","","","","","51","0,0,0","6","blank","292","null","0.1621689768339999","0.07570337493457382","0.574261611660971","0","","","","","","","","",""
"","html-keyboard-response","145","411428","0.0-81.0-1.0","""event"",""trial"",""time""
""fullscreenenter"",""0"",""1782""
","
","
","""event"",""trial"",""time""
""fullscreenenter"",""0"",""1782""
","
","null","<p></p>","null","","","","","","","","","","","","","","","","","","","","","","","",""
"","do_trial","146","414211","0.0-82.0-0.0","""event"",""trial"",""time""
""fullscreenenter"",""0"",""1782""
","
","
","""event"",""trial"",""time""
""fullscreenenter"",""0"",""1782""
","
","248.79999995231628","","","","","","","","50","0,0,0","6","blank","293","null","0.12078093074862857","0.20542372759755745","0.5607518131732399","0","","","","","","","","",""
"","html-keyboard-response","147","415215","0.0-82.0-1.0","""event"",""trial"",""time""
""fullscreenenter"",""0"",""1782""
","
","
","""event"",""trial"",""time""
""fullscreenenter"",""0"",""1782""
","
","null","<p></p>","null","","","","","","","","","","","","","","","","","","","","","","","",""
"","do_trial","148","418002","0.0-83.0-0.0","""event"",""trial"",""time""
""fullscreenenter"",""0"",""1782""
","
","
","""event"",""trial"",""time""
""fullscreenenter"",""0"",""1782""
","
","246","","","","","","","","51","1,0,0","6","blank","294","null","0.29611501740262675","0.05507396698797141","0.45909760546889594","0","","","","","","","","",""
"","html-keyboard-response","149","419011","0.0-83.0-1.0","""event"",""trial"",""time""
""fullscreenenter"",""0"",""1782""
","
","
","""event"",""trial"",""time""
""fullscreenenter"",""0"",""1782""
","
","null","<p></p>","null","","","","","","","","","","","","","","","","","","","","","","","",""
"","do_trial","150","421863","0.0-84.0-0.0","""event"",""trial"",""time""
""fullscreenenter"",""0"",""1782""
","
","
","""event"",""trial"",""time""
""fullscreenenter"",""0"",""1782""
","
","324.69999980926514","","","","","","","","51","1,0,1","6","blank","295","null","0.46975202483209993","0.3167017943503619","0.4516147667526673","1","","","","","","","","",""
"","html-keyboard-response","151","422866","0.0-84.0-1.0","""event"",""trial"",""time""
""fullscreenenter"",""0"",""1782""
","
","
","""event"",""trial"",""time""
""fullscreenenter"",""0"",""1782""
","
","null","<p></p>","null","","","","","","","","","","","","","","","","","","","","","","","",""
"","do_trial","152","425824","0.0-85.0-0.0","""event"",""trial"",""time""
""fullscreenenter"",""0"",""1782""
","
","
","""event"",""trial"",""time""
""fullscreenenter"",""0"",""1782""
","
","427.59999990463257","","","","","","","","51","0,0,1","6","blank","296","null","0.5231694448273795","0.24001357367725934","0.5574888986166225","1","","","","","","","","",""
"","html-keyboard-response","153","426838","0.0-85.0-1.0","""event"",""trial"",""time""
""fullscreenenter"",""0"",""1782""
","
","
","""event"",""trial"",""time""
""fullscreenenter"",""0"",""1782""
","
","null","<p></p>","null","","","","","","","","","","","","","","","","","","","","","","","",""
"","do_recog","154","429583","0.0-86.0-0.0","""event"",""trial"",""time""
""fullscreenenter"",""0"",""1782""
","
","
","""event"",""trial"",""time""
""fullscreenenter"",""0"",""1782""
","
","1231.5999999046326","","","","","","","","53","","","","297","probe-109","","","","","1","[object Object]","30","0","1","","","",""
"","html-keyboard-response","155","430590","0.0-86.0-1.0","""event"",""trial"",""time""
""fullscreenenter"",""0"",""1782""
","
","
","""event"",""trial"",""time""
""fullscreenenter"",""0"",""1782""
","
","null","<p></p>","null","","","","","","","","","","","","","","","","","","","","","","","",""
"","do_trial","156","433360","0.0-87.0-0.0","""event"",""trial"",""time""
""fullscreenenter"",""0"",""1782""
","
","
","""event"",""trial"",""time""
""fullscreenenter"",""0"",""1782""
","
","230.59999990463257","","","","","","","","51","1,1,1","6","blank","298","null","0.5736279644965264","0.16472313104581687","0.3385002078287313","1","","","","","","","","",""
"","html-keyboard-response","157","434368","0.0-87.0-1.0","""event"",""trial"",""time""
""fullscreenenter"",""0"",""1782""
","
","
","""event"",""trial"",""time""
""fullscreenenter"",""0"",""1782""
","
","null","<p></p>","null","","","","","","","","","","","","","","","","","","","","","","","",""
"","do_trial","158","437234","0.0-88.0-0.0","""event"",""trial"",""time""
""fullscreenenter"",""0"",""1782""
","
","
","""event"",""trial"",""time""
""fullscreenenter"",""0"",""1782""
","
","325.2999999523163","","","","","","","","51","0,0,0","6","blank","299","null","0.5776885303106368","0.20805083994079787","0.19548093561115962","0","","","","","","","","",""
"","html-keyboard-response","159","438241","0.0-88.0-1.0","""event"",""trial"",""time""
""fullscreenenter"",""0"",""1782""
","
","
","""event"",""trial"",""time""
""fullscreenenter"",""0"",""1782""
","
","null","<p></p>","null","","","","","","","","","","","","","","","","","","","","","","","",""
"","do_trial","160","441040","0.0-89.0-0.0","""event"",""trial"",""time""
""fullscreenenter"",""0"",""1782""
","
","
","""event"",""trial"",""time""
""fullscreenenter"",""0"",""1782""
","
","259.7000000476837","","","","","","","","50","1,0,0","6","blank","300","null","0.5899614711119238","0.2873835305520712","0.3448661988493709","0","","","","","","","","",""
"","html-keyboard-response","161","442047","0.0-89.0-1.0","""event"",""trial"",""time""
""fullscreenenter"",""0"",""1782""
","
","
","""event"",""trial"",""time""
""fullscreenenter"",""0"",""1782""
","
","null","<p></p>","null","","","","","","","","","","","","","","","","","","","","","","","",""
"","do_trial","162","444886","0.0-90.0-0.0","""event"",""trial"",""time""
""fullscreenenter"",""0"",""1782""
","
","
","""event"",""trial"",""time""
""fullscreenenter"",""0"",""1782""
","
","312.59999990463257","","","","","","","","50","1,0,0","6","blank","301","null","0.5599742025458327","0.23652225649696057","0.2941189185445587","0","","","","","","","","",""
"","html-keyboard-response","163","445896","0.0-90.0-1.0","""event"",""trial"",""time""
""fullscreenenter"",""0"",""1782""
","
","
","""event"",""trial"",""time""
""fullscreenenter"",""0"",""1782""
","
","null","<p></p>","null","","","","","","","","","","","","","","","","","","","","","","","",""
"","do_trial","164","448628","0.0-91.0-0.0","""event"",""trial"",""time""
""fullscreenenter"",""0"",""1782""
","
","
","""event"",""trial"",""time""
""fullscreenenter"",""0"",""1782""
","
","199.79999995231628","","","","","","","","50","1,0,0","6","blank","302","null","0.5869690570941432","0.11581085508877513","0.12733059716012607","0","","","","","","","","",""
"","html-keyboard-response","165","449635","0.0-91.0-1.0","""event"",""trial"",""time""
""fullscreenenter"",""0"",""1782""
","
","
","""event"",""trial"",""time""
""fullscreenenter"",""0"",""1782""
","
","null","<p></p>","null","","","","","","","","","","","","","","","","","","","","","","","",""
"","do_trial","166","452385","0.0-92.0-0.0","""event"",""trial"",""time""
""fullscreenenter"",""0"",""1782""
","
","
","""event"",""trial"",""time""
""fullscreenenter"",""0"",""1782""
","
","210.60000014305115","","","","","","","","51","0,0,0","6","blank","303","null","0.5845774176208574","0.20687842370493414","0.09718265280371313","0","","","","","","","","",""
"","html-keyboard-response","167","453392","0.0-92.0-1.0","""event"",""trial"",""time""
""fullscreenenter"",""0"",""1782""
","
","
","""event"",""trial"",""time""
""fullscreenenter"",""0"",""1782""
","
","null","<p></p>","null","","","","","","","","","","","","","","","","","","","","","","","",""
"","do_recog","168","456243","0.0-93.0-0.0","""event"",""trial"",""time""
""fullscreenenter"",""0"",""1782""
","
","
","""event"",""trial"",""time""
""fullscreenenter"",""0"",""1782""
","
","1341.4000000953674","","","","","","","","53","","","","304","probe-76","","","","","1","[object Object]","116","2","1","","","",""
"","html-keyboard-response","169","457254","0.0-93.0-1.0","""event"",""trial"",""time""
""fullscreenenter"",""0"",""1782""
","
","
","""event"",""trial"",""time""
""fullscreenenter"",""0"",""1782""
","
","null","<p></p>","null","","","","","","","","","","","","","","","","","","","","","","","",""
"","do_trial","170","460022","0.0-94.0-0.0","""event"",""trial"",""time""
""fullscreenenter"",""0"",""1782""
","
","
","""event"",""trial"",""time""
""fullscreenenter"",""0"",""1782""
","
","238.09999990463257","","","","","","","","49","1,1,1","6","blank","305","null","0.700987892113498","0.24714445931884016","0.197338831885671","1","","","","","","","","",""
"","html-keyboard-response","171","461031","0.0-94.0-1.0","""event"",""trial"",""time""
""fullscreenenter"",""0"",""1782""
","
","
","""event"",""trial"",""time""
""fullscreenenter"",""0"",""1782""
","
","null","<p></p>","null","","","","","","","","","","","","","","","","","","","","","","","",""
"","do_recog","172","463747","0.0-95.0-0.0","""event"",""trial"",""time""
""fullscreenenter"",""0"",""1782""
","
","
","""event"",""trial"",""time""
""fullscreenenter"",""0"",""1782""
","
","1206.0999999046326","","","","","","","","53","","","","306","probe-108","","","","","1","[object Object]","158","3","1","","","",""
"","html-keyboard-response","173","464754","0.0-95.0-1.0","""event"",""trial"",""time""
""fullscreenenter"",""0"",""1782""
","
","
","""event"",""trial"",""time""
""fullscreenenter"",""0"",""1782""
","
","null","<p></p>","null","","","","","","","","","","","","","","","","","","","","","","","",""
"","do_trial","174","467565","0.0-96.0-0.0","""event"",""trial"",""time""
""fullscreenenter"",""0"",""1782""
","
","
","""event"",""trial"",""time""
""fullscreenenter"",""0"",""1782""
","
","286.2999999523163","","","","","","","","49","0,1,0","6","blank","307","null","0.7622469504870304","0.2647373450420115","0.10770505325983255","0","","","","","","","","",""
"","html-keyboard-response","175","468570","0.0-96.0-1.0","""event"",""trial"",""time""
""fullscreenenter"",""0"",""1782""
","
","
","""event"",""trial"",""time""
""fullscreenenter"",""0"",""1782""
","
","null","<p></p>","null","","","","","","","","","","","","","","","","","","","","","","","",""
"","do_recog","176","470806","0.0-97.0-0.0","""event"",""trial"",""time""
""fullscreenenter"",""0"",""1782""
","
","
","""event"",""trial"",""time""
""fullscreenenter"",""0"",""1782""
","
","730.4000000953674","","","","","","","","53","","","","308","probe-50","","","","","1","[object Object]","119","2","1","","","",""
"","html-keyboard-response","177","471812","0.0-97.0-1.0","""event"",""trial"",""time""
""fullscreenenter"",""0"",""1782""
","
","
","""event"",""trial"",""time""
""fullscreenenter"",""0"",""1782""
","
","null","<p></p>","null","","","","","","","","","","","","","","","","","","","","","","","",""
"","break","178","473144","0.0-98.0-0.0","""event"",""trial"",""time""
""fullscreenenter"",""0"",""1782""
","
","
","""event"",""trial"",""time""
""fullscreenenter"",""0"",""1782""
","
","1331.2000000476837","<div class='center'><p>Time to take a quick break! You have 2 minutes to rest, but you can move on sooner if you'd like.</p><p> Press the <b>space bar</b> to continue.</p></div>","32","","","","","","","","","","","","","","","","","","","","","","","",""
"","do_trial","179","476434","0.0-98.0-1.0","""event"",""trial"",""time""
""fullscreenenter"",""0"",""1782""
","
","
","""event"",""trial"",""time""
""fullscreenenter"",""0"",""1782""
","
","752.1000001430511","","","","","","","","51","1,1,0","6","blank","309","null","0.7989300171202234","0.2543104286813596","0.09478476614669384","0","","","","","","","","",""
"","html-keyboard-response","180","477446","0.0-98.0-2.0","""event"",""trial"",""time""
""fullscreenenter"",""0"",""1782""
","
","
","""event"",""trial"",""time""
""fullscreenenter"",""0"",""1782""
","
","null","<p></p>","null","","","","","","","","","","","","","","","","","","","","","","","",""
"","do_trial","181","480243","0.0-99.0-0.0","""event"",""trial"",""time""
""fullscreenenter"",""0"",""1782""
","
","
","""event"",""trial"",""time""
""fullscreenenter"",""0"",""1782""
","
","254.09999990463257","","","","","","","","51","1,1,0","6","blank","310","null","0.5666144891221652","0.3880260459468135","0.1587409377587639","0","","","","","","","","",""
"","html-keyboard-response","182","481260","0.0-99.0-1.0","""event"",""trial"",""time""
""fullscreenenter"",""0"",""1782""
","
","
","""event"",""trial"",""time""
""fullscreenenter"",""0"",""1782""
","
","null","<p></p>","null","","","","","","","","","","","","","","","","","","","","","","","",""
"","do_recog","183","484061","0.0-100.0-0.0","""event"",""trial"",""time""
""fullscreenenter"",""0"",""1782""
","
","
","""event"",""trial"",""time""
""fullscreenenter"",""0"",""1782""
","
","1281.0999999046326","","","","","","","","53","","","","311","probe-111","","","","","1","[object Object]","194","4","1","","","",""
"","html-keyboard-response","184","485069","0.0-100.0-1.0","""event"",""trial"",""time""
""fullscreenenter"",""0"",""1782""
","
","
","""event"",""trial"",""time""
""fullscreenenter"",""0"",""1782""
","
","null","<p></p>","null","","","","","","","","","","","","","","","","","","","","","","","",""
"","do_trial","185","487946","0.0-101.0-0.0","""event"",""trial"",""time""
""fullscreenenter"",""0"",""1782""
","
","
","""event"",""trial"",""time""
""fullscreenenter"",""0"",""1782""
","
","344.7000000476837","","","","","","","","50","1,0,1","6","blank","312","null","0.5241836988891783","0.38463953308276133","0.08670733148401588","0","","","","","","","","",""
"","html-keyboard-response","186","488961","0.0-101.0-1.0","""event"",""trial"",""time""
""fullscreenenter"",""0"",""1782""
","
","
","""event"",""trial"",""time""
""fullscreenenter"",""0"",""1782""
","
","null","<p></p>","null","","","","","","","","","","","","","","","","","","","","","","","",""
"","do_recog","187","491061","0.0-102.0-0.0","""event"",""trial"",""time""
""fullscreenenter"",""0"",""1782""
","
","
","""event"",""trial"",""time""
""fullscreenenter"",""0"",""1782""
","
","588.7000000476837","","","","","","","","53","","","","313","probe-65","","","","","1","[object Object]","196","4","1","","","",""
"","html-keyboard-response","188","492066","0.0-102.0-1.0","""event"",""trial"",""time""
""fullscreenenter"",""0"",""1782""
","
","
","""event"",""trial"",""time""
""fullscreenenter"",""0"",""1782""
","
","null","<p></p>","null","","","","","","","","","","","","","","","","","","","","","","","",""
"","do_trial","189","495036","0.0-103.0-0.0","""event"",""trial"",""time""
""fullscreenenter"",""0"",""1782""
","
","
","""event"",""trial"",""time""
""fullscreenenter"",""0"",""1782""
","
","435.69999980926514","","","","","","","","51","0,1,0","6","blank","314","null","0.6234694479962385","0.2961661828752389","0.25667303822583465","0","","","","","","","","",""
"","html-keyboard-response","190","496044","0.0-103.0-1.0","""event"",""trial"",""time""
""fullscreenenter"",""0"",""1782""
","
","
","""event"",""trial"",""time""
""fullscreenenter"",""0"",""1782""
","
","null","<p></p>","null","","","","","","","","","","","","","","","","","","","","","","","",""
"","do_recog","191","498123","0.0-104.0-0.0","""event"",""trial"",""time""
""fullscreenenter"",""0"",""1782""
","
","
","""event"",""trial"",""time""
""fullscreenenter"",""0"",""1782""
","
","569.7999999523163","","","","","","","","53","","","","315","probe-55","","","","","1","[object Object]","70","1","1","","","",""
"","html-keyboard-response","192","499137","0.0-104.0-1.0","""event"",""trial"",""time""
""fullscreenenter"",""0"",""1782""
","
","
","""event"",""trial"",""time""
""fullscreenenter"",""0"",""1782""
","
","null","<p></p>","null","","","","","","","","","","","","","","","","","","","","","","","",""
"","do_trial","193","501928","0.0-105.0-0.0","""event"",""trial"",""time""
""fullscreenenter"",""0"",""1782""
","
","
","""event"",""trial"",""time""
""fullscreenenter"",""0"",""1782""
","
","262.7000000476837","","","","","","","","51","1,0,0","6","blank","316","null","0.5314771410099348","0.31186919103342126","0.19282416719914391","0","","","","","","","","",""
"","html-keyboard-response","194","502939","0.0-105.0-1.0","""event"",""trial"",""time""
""fullscreenenter"",""0"",""1782""
","
","
","""event"",""trial"",""time""
""fullscreenenter"",""0"",""1782""
","
","null","<p></p>","null","","","","","","","","","","","","","","","","","","","","","","","",""
"","do_trial","195","505695","0.0-106.0-0.0","""event"",""trial"",""time""
""fullscreenenter"",""0"",""1782""
","
","
","""event"",""trial"",""time""
""fullscreenenter"",""0"",""1782""
","
","226.79999995231628","","","","","","","","50","1,1,0","6","blank","317","null","0.6560264984218188","0.24422424895456998","0.1012681956115379","1","","","","","","","","",""
"","html-keyboard-response","196","506706","0.0-106.0-1.0","""event"",""trial"",""time""
""fullscreenenter"",""0"",""1782""
","
","
","""event"",""trial"",""time""
""fullscreenenter"",""0"",""1782""
","
","null","<p></p>","null","","","","","","","","","","","","","","","","","","","","","","","",""
"","do_trial","197","509558","0.0-107.0-0.0","""event"",""trial"",""time""
""fullscreenenter"",""0"",""1782""
","
","
","""event"",""trial"",""time""
""fullscreenenter"",""0"",""1782""
","
","322.7000000476837","","","","","","","","50","1,0,0","6","blank","318","null","0.6798598875261116","0.11402031180051174","0.07169723335959229","0","","","","","","","","",""
"","html-keyboard-response","198","510570","0.0-107.0-1.0","""event"",""trial"",""time""
""fullscreenenter"",""0"",""1782""
","
","
","""event"",""trial"",""time""
""fullscreenenter"",""0"",""1782""
","
","null","<p></p>","null","","","","","","","","","","","","","","","","","","","","","","","",""
"","do_recog","199","512759","0.0-108.0-0.0","""event"",""trial"",""time""
""fullscreenenter"",""0"",""1782""
","
","
","""event"",""trial"",""time""
""fullscreenenter"",""0"",""1782""
","
","684","","","","","","","","53","","","","319","probe-191","","","","","1","[object Object]","79","1","1","","","",""
"","html-keyboard-response","200","513769","0.0-108.0-1.0","""event"",""trial"",""time""
""fullscreenenter"",""0"",""1782""
","
","
","""event"",""trial"",""time""
""fullscreenenter"",""0"",""1782""
","
","null","<p></p>","null","","","","","","","","","","","","","","","","","","","","","","","",""
"","do_trial","201","516674","0.0-109.0-0.0","""event"",""trial"",""time""
""fullscreenenter"",""0"",""1782""
","
","
","""event"",""trial"",""time""
""fullscreenenter"",""0"",""1782""
","
","364.69999980926514","","","","","","","","50","1,1,0","6","blank","320","null","0.6527248090837378","0.17788529223348665","0.10323645510217708","1","","","","","","","","",""
"","html-keyboard-response","202","517687","0.0-109.0-1.0","""event"",""trial"",""time""
""fullscreenenter"",""0"",""1782""
","
","
","""event"",""trial"",""time""
""fullscreenenter"",""0"",""1782""
","
","null","<p></p>","null","","","","","","","","","","","","","","","","","","","","","","","",""
"","do_trial","203","520467","0.0-110.0-0.0","""event"",""trial"",""time""
""fullscreenenter"",""0"",""1782""
","
","
","""event"",""trial"",""time""
""fullscreenenter"",""0"",""1782""
","
","247.19999980926514","","","","","","","","50","1,0,1","6","blank","321","null","0.6192001456126027","0.2365047102880161","0.11292246575634186","0","","","","","","","","",""
"","html-keyboard-response","204","521478","0.0-110.0-1.0","""event"",""trial"",""time""
""fullscreenenter"",""0"",""1782""
","
","
","""event"",""trial"",""time""
""fullscreenenter"",""0"",""1782""
","
","null","<p></p>","null","","","","","","","","","","","","","","","","","","","","","","","",""
"","do_trial","205","524205","0.0-111.0-0.0","""event"",""trial"",""time""
""fullscreenenter"",""0"",""1782""
","
","
","""event"",""trial"",""time""
""fullscreenenter"",""0"",""1782""
","
","198.70000004768372","","","","","","","","50","0,0,0","6","blank","322","null","0.5559632378527867","0.13700426030705984","0.11512340729073701","0","","","","","","","","",""
"","html-keyboard-response","206","525210","0.0-111.0-1.0","""event"",""trial"",""time""
""fullscreenenter"",""0"",""1782""
","
","
","""event"",""trial"",""time""
""fullscreenenter"",""0"",""1782""
","
","null","<p></p>","null","","","","","","","","","","","","","","","","","","","","","","","",""
"","do_trial","207","528006","0.0-112.0-0.0","""event"",""trial"",""time""
""fullscreenenter"",""0"",""1782""
","
","
","""event"",""trial"",""time""
""fullscreenenter"",""0"",""1782""
","
","259.2999999523163","","","","","","","","49","1,1,0","6","blank","323","null","0.5592687205360358","0.230432092479771","0.20813842774768218","1","","","","","","","","",""
"","html-keyboard-response","208","529013","0.0-112.0-1.0","""event"",""trial"",""time""
""fullscreenenter"",""0"",""1782""
","
","
","""event"",""trial"",""time""
""fullscreenenter"",""0"",""1782""
","
","null","<p></p>","null","","","","","","","","","","","","","","","","","","","","","","","",""
"","do_trial","209","531924","0.0-113.0-0.0","""event"",""trial"",""time""
""fullscreenenter"",""0"",""1782""
","
","
","""event"",""trial"",""time""
""fullscreenenter"",""0"",""1782""
","
","368.2999999523163","","","","","","","","49","1,0,1","6","blank","324","null","0.6207308345825719","0.4288413616584312","0.08806814317542808","1","","","","","","","","",""
"","html-keyboard-response","210","532940","0.0-113.0-1.0","""event"",""trial"",""time""
""fullscreenenter"",""0"",""1782""
","
","
","""event"",""trial"",""time""
""fullscreenenter"",""0"",""1782""
","
","null","<p></p>","null","","","","","","","","","","","","","","","","","","","","","","","",""
"","do_trial","211","535757","0.0-114.0-0.0","""event"",""trial"",""time""
""fullscreenenter"",""0"",""1782""
","
","
","""event"",""trial"",""time""
""fullscreenenter"",""0"",""1782""
","
","273.39999985694885","","","","","","","","49","0,0,0","6","blank","325","null","0.6010042356517181","0.2563867561208089","0.14088956197848834","0","","","","","","","","",""
"","html-keyboard-response","212","536767","0.0-114.0-1.0","""event"",""trial"",""time""
""fullscreenenter"",""0"",""1782""
","
","
","""event"",""trial"",""time""
""fullscreenenter"",""0"",""1782""
","
","null","<p></p>","null","","","","","","","","","","","","","","","","","","","","","","","",""
"","do_recog","213","538967","0.0-115.0-0.0","""event"",""trial"",""time""
""fullscreenenter"",""0"",""1782""
","
","
","""event"",""trial"",""time""
""fullscreenenter"",""0"",""1782""
","
","695.2999999523163","","","","","","","","53","","","","326","probe-09","","","","","1","[object Object]","157","3","1","","","",""
"","html-keyboard-response","214","539976","0.0-115.0-1.0","""event"",""trial"",""time""
""fullscreenenter"",""0"",""1782""
","
","
","""event"",""trial"",""time""
""fullscreenenter"",""0"",""1782""
","
","null","<p></p>","null","","","","","","","","","","","","","","","","","","","","","","","",""
"","do_trial","215","542844","0.0-116.0-0.0","""event"",""trial"",""time""
""fullscreenenter"",""0"",""1782""
","
","
","""event"",""trial"",""time""
""fullscreenenter"",""0"",""1782""
","
","325.5","","","","","","","","49","0,0,0","6","blank","327","null","0.6153632740372516","0.3490608915284841","0.05762497626963091","0","","","","","","","","",""
"","html-keyboard-response","216","543854","0.0-116.0-1.0","""event"",""trial"",""time""
""fullscreenenter"",""0"",""1782""
","
","
","""event"",""trial"",""time""
""fullscreenenter"",""0"",""1782""
","
","null","<p></p>","null","","","","","","","","","","","","","","","","","","","","","","","",""
"","do_trial","217","546588","0.0-117.0-0.0","""event"",""trial"",""time""
""fullscreenenter"",""0"",""1782""
","
","
","""event"",""trial"",""time""
""fullscreenenter"",""0"",""1782""
","
","201.89999985694885","","","","","","","","49","0,0,1","6","blank","328","null","0.5920494488499746","0.21644784259821254","0.1699079203957392","0","","","","","","","","",""
"","html-keyboard-response","218","547593","0.0-117.0-1.0","""event"",""trial"",""time""
""fullscreenenter"",""0"",""1782""
","
","
","""event"",""trial"",""time""
""fullscreenenter"",""0"",""1782""
","
","null","<p></p>","null","","","","","","","","","","","","","","","","","","","","","","","",""
"","do_trial","219","550161","0.0-118.0-0.0","""event"",""trial"",""time""
""fullscreenenter"",""0"",""1782""
","
","
","""event"",""trial"",""time""
""fullscreenenter"",""0"",""1782""
","
","28.40000009536743","","","","","","","","50","1,1,0","6","blank","329","null","0.6873161769042478","0.38882842568204856","0.054754539965426674","1","","","","","","","","",""
"","html-keyboard-response","220","551173","0.0-118.0-1.0","""event"",""trial"",""time""
""fullscreenenter"",""0"",""1782""
","
","
","""event"",""trial"",""time""
""fullscreenenter"",""0"",""1782""
","
","null","<p></p>","null","","","","","","","","","","","","","","","","","","","","","","","",""
"","do_trial","221","553996","0.0-119.0-0.0","""event"",""trial"",""time""
""fullscreenenter"",""0"",""1782""
","
","
","""event"",""trial"",""time""
""fullscreenenter"",""0"",""1782""
","
","283.2000000476837","","","","","","","","50","0,0,0","6","blank","330","null","0.7930526191537531","0.3348359889099684","0.05651947889819729","0","","","","","","","","",""
"","html-keyboard-response","222","555010","0.0-119.0-1.0","""event"",""trial"",""time""
""fullscreenenter"",""0"",""1782""
","
","
","""event"",""trial"",""time""
""fullscreenenter"",""0"",""1782""
","
","null","<p></p>","null","","","","","","","","","","","","","","","","","","","","","","","",""
"","do_trial","223","557815","0.0-120.0-0.0","""event"",""trial"",""time""
""fullscreenenter"",""0"",""1782""
","
","
","""event"",""trial"",""time""
""fullscreenenter"",""0"",""1782""
","
","266.40000009536743","","","","","","","","50","1,1,0","6","blank","331","null","0.6693526959452137","0.33028464110920863","0.15295885080799146","1","","","","","","","","",""
"","html-keyboard-response","224","558825","0.0-120.0-1.0","""event"",""trial"",""time""
""fullscreenenter"",""0"",""1782""
","
","
","""event"",""trial"",""time""
""fullscreenenter"",""0"",""1782""
","
","null","<p></p>","null","","","","","","","","","","","","","","","","","","","","","","","",""
"","do_recog","225","561517","0.0-121.0-0.0","""event"",""trial"",""time""
""fullscreenenter"",""0"",""1782""
","
","
","""event"",""trial"",""time""
""fullscreenenter"",""0"",""1782""
","
","1180.7999999523163","","","","","","","","53","","","","332","probe-53","","","","","1","[object Object]","113","2","1","","","",""
"","html-keyboard-response","226","562532","0.0-121.0-1.0","""event"",""trial"",""time""
""fullscreenenter"",""0"",""1782""
","
","
","""event"",""trial"",""time""
""fullscreenenter"",""0"",""1782""
","
","null","<p></p>","null","","","","","","","","","","","","","","","","","","","","","","","",""
"","do_trial","227","565489","0.0-122.0-0.0","""event"",""trial"",""time""
""fullscreenenter"",""0"",""1782""
","
","
","""event"",""trial"",""time""
""fullscreenenter"",""0"",""1782""
","
","418.2999999523163","","","","","","","","50","1,0,1","6","blank","333","null","0.634759960968089","0.3126321480310187","0.2555306667357527","0","","","","","","","","",""
"","html-keyboard-response","228","566502","0.0-122.0-1.0","""event"",""trial"",""time""
""fullscreenenter"",""0"",""1782""
","
","
","""event"",""trial"",""time""
""fullscreenenter"",""0"",""1782""
","
","null","<p></p>","null","","","","","","","","","","","","","","","","","","","","","","","",""
"","do_trial","229","569419","0.0-123.0-0.0","""event"",""trial"",""time""
""fullscreenenter"",""0"",""1782""
","
","
","""event"",""trial"",""time""
""fullscreenenter"",""0"",""1782""
","
","377.19999980926514","","","","","","","","50","1,1,0","6","blank","334","null","0.5448804190920312","0.3689217827325817","0.13302617673352565","1","","","","","","","","",""
"","html-keyboard-response","230","570424","0.0-123.0-1.0","""event"",""trial"",""time""
""fullscreenenter"",""0"",""1782""
","
","
","""event"",""trial"",""time""
""fullscreenenter"",""0"",""1782""
","
","null","<p></p>","null","","","","","","","","","","","","","","","","","","","","","","","",""
"","do_trial","231","573269","0.0-124.0-0.0","""event"",""trial"",""time""
""fullscreenenter"",""0"",""1782""
","
","
","""event"",""trial"",""time""
""fullscreenenter"",""0"",""1782""
","
","301.90000009536743","","","","","","","","50","1,1,0","6","blank","335","null","0.6839110589562762","0.22393168116076873","0.1294063459477903","1","","","","","","","","",""
"","html-keyboard-response","232","574273","0.0-124.0-1.0","""event"",""trial"",""time""
""fullscreenenter"",""0"",""1782""
","
","
","""event"",""trial"",""time""
""fullscreenenter"",""0"",""1782""
","
","null","<p></p>","null","","","","","","","","","","","","","","","","","","","","","","","",""
"","do_trial","233","577076","0.0-125.0-0.0","""event"",""trial"",""time""
""fullscreenenter"",""0"",""1782""
","
","
","""event"",""trial"",""time""
""fullscreenenter"",""0"",""1782""
","
","267.90000009536743","","","","","","","","50","1,0,0","6","blank","336","null","0.7734128848562941","0.15992070260692492","0.12314148526120564","0","","","","","","","","",""
"","html-keyboard-response","234","578085","0.0-125.0-1.0","""event"",""trial"",""time""
""fullscreenenter"",""0"",""1782""
","
","
","""event"",""trial"",""time""
""fullscreenenter"",""0"",""1782""
","
","null","<p></p>","null","","","","","","","","","","","","","","","","","","","","","","","",""
"","do_trial","235","580926","0.0-126.0-0.0","""event"",""trial"",""time""
""fullscreenenter"",""0"",""1782""
","
","
","""event"",""trial"",""time""
""fullscreenenter"",""0"",""1782""
","
","304.5","","","","","","","","50","0,0,0","6","blank","337","null","0.7195368619507219","0.2576316674620528","0.11555924247778428","0","","","","","","","","",""
"","html-keyboard-response","236","581933","0.0-126.0-1.0","""event"",""trial"",""time""
""fullscreenenter"",""0"",""1782""
","
","
","""event"",""trial"",""time""
""fullscreenenter"",""0"",""1782""
","
","null","<p></p>","null","","","","","","","","","","","","","","","","","","","","","","","",""
"","do_trial","237","584793","0.0-127.0-0.0","""event"",""trial"",""time""
""fullscreenenter"",""0"",""1782""
","
","
","""event"",""trial"",""time""
""fullscreenenter"",""0"",""1782""
","
","320.7000000476837","","","","","","","","50","1,0,0","6","blank","338","null","0.6306333733148494","0.15432942096815247","0.07482679122158334","0","","","","","","","","",""
"","html-keyboard-response","238","585799","0.0-127.0-1.0","""event"",""trial"",""time""
""fullscreenenter"",""0"",""1782""
","
","
","""event"",""trial"",""time""
""fullscreenenter"",""0"",""1782""
","
","null","<p></p>","null","","","","","","","","","","","","","","","","","","","","","","","",""
"","do_trial","239","588617","0.0-128.0-0.0","""event"",""trial"",""time""
""fullscreenenter"",""0"",""1782""
","
","
","""event"",""trial"",""time""
""fullscreenenter"",""0"",""1782""
","
","286.90000009536743","","","","","","","","51","1,0,0","6","blank","339","null","0.6034773989955678","0.06390307870896081","0.09066374610314756","0","","","","","","","","",""
"","html-keyboard-response","240","589624","0.0-128.0-1.0","""event"",""trial"",""time""
""fullscreenenter"",""0"",""1782""
","
","
","""event"",""trial"",""time""
""fullscreenenter"",""0"",""1782""
","
","null","<p></p>","null","","","","","","","","","","","","","","","","","","","","","","","",""
"","do_recog","241","591867","0.0-129.0-0.0","""event"",""trial"",""time""
""fullscreenenter"",""0"",""1782""
","
","
","""event"",""trial"",""time""
""fullscreenenter"",""0"",""1782""
","
","725","","","","","","","","53","","","","340","probe-87","","","","","1","[object Object]","35","0","1","","","",""
"","html-keyboard-response","242","592882","0.0-129.0-1.0","""event"",""trial"",""time""
""fullscreenenter"",""0"",""1782""
","
","
","""event"",""trial"",""time""
""fullscreenenter"",""0"",""1782""
","
","null","<p></p>","null","","","","","","","","","","","","","","","","","","","","","","","",""
"","do_trial","243","595725","0.0-130.0-0.0","""event"",""trial"",""time""
""fullscreenenter"",""0"",""1782""
","
","
","""event"",""trial"",""time""
""fullscreenenter"",""0"",""1782""
","
","307.10000014305115","","","","","","","","50","0,1,1","6","blank","341","null","0.6403496023589133","0.07263024383284508","0.1191627905436769","1","","","","","","","","",""
"","html-keyboard-response","244","596736","0.0-130.0-1.0","""event"",""trial"",""time""
""fullscreenenter"",""0"",""1782""
","
","
","""event"",""trial"",""time""
""fullscreenenter"",""0"",""1782""
","
","null","<p></p>","null","","","","","","","","","","","","","","","","","","","","","","","",""
"","do_trial","245","599480","0.0-131.0-0.0","""event"",""trial"",""time""
""fullscreenenter"",""0"",""1782""
","
","
","""event"",""trial"",""time""
""fullscreenenter"",""0"",""1782""
","
","204.90000009536743","","","","","","","","50","1,0,0","6","blank","342","null","0.6261981949857542","0.19574274282481557","0.0854250160121085","0","","","","","","","","",""
"","html-keyboard-response","246","600496","0.0-131.0-1.0","""event"",""trial"",""time""
""fullscreenenter"",""0"",""1782""
","
","
","""event"",""trial"",""time""
""fullscreenenter"",""0"",""1782""
","
","null","<p></p>","null","","","","","","","","","","","","","","","","","","","","","","","",""
"","do_trial","247","603297","0.0-132.0-0.0","""event"",""trial"",""time""
""fullscreenenter"",""0"",""1782""
","
","
","""event"",""trial"",""time""
""fullscreenenter"",""0"",""1782""
","
","269.5","","","","","","","","50","1,0,0","6","blank","343","null","0.632173722034781","0.18409170969101527","0.07006204147068576","0","","","","","","","","",""
"","html-keyboard-response","248","604308","0.0-132.0-1.0","""event"",""trial"",""time""
""fullscreenenter"",""0"",""1782""
","
","
","""event"",""trial"",""time""
""fullscreenenter"",""0"",""1782""
","
","null","<p></p>","null","","","","","","","","","","","","","","","","","","","","","","","",""
"","do_trial","249","607039","0.0-133.0-0.0","""event"",""trial"",""time""
""fullscreenenter"",""0"",""1782""
","
","
","""event"",""trial"",""time""
""fullscreenenter"",""0"",""1782""
","
","201.20000004768372","","","","","","","","51","1,0,1","6","blank","344","null","0.7075908543609072","0.09851327517640587","0.20427205101602777","1","","","","","","","","",""
"","html-keyboard-response","250","608050","0.0-133.0-1.0","""event"",""trial"",""time""
""fullscreenenter"",""0"",""1782""
","
","
","""event"",""trial"",""time""
""fullscreenenter"",""0"",""1782""
","
","null","<p></p>","null","","","","","","","","","","","","","","","","","","","","","","","",""
"","do_recog","251","610210","0.0-134.0-0.0","""event"",""trial"",""time""
""fullscreenenter"",""0"",""1782""
","
","
","""event"",""trial"",""time""
""fullscreenenter"",""0"",""1782""
","
","643.4000000953674","","","","","","","","53","","","","345","probe-231","","","","","0","[object Object]","null","null","0","","","",""
"","html-keyboard-response","252","611224","0.0-134.0-1.0","""event"",""trial"",""time""
""fullscreenenter"",""0"",""1782""
","
","
","""event"",""trial"",""time""
""fullscreenenter"",""0"",""1782""
","
","null","<p></p>","null","","","","","","","","","","","","","","","","","","","","","","","",""
"","do_trial","253","613987","0.0-135.0-0.0","""event"",""trial"",""time""
""fullscreenenter"",""0"",""1782""
","
","
","""event"",""trial"",""time""
""fullscreenenter"",""0"",""1782""
","
","221.39999985694885","","","","","","","","50","1,0,0","6","blank","346","null","0.47047901833371647","0.37636563011782787","0.05818025614835925","0","","","","","","","","",""
"","html-keyboard-response","254","614993","0.0-135.0-1.0","""event"",""trial"",""time""
""fullscreenenter"",""0"",""1782""
","
","
","""event"",""trial"",""time""
""fullscreenenter"",""0"",""1782""
","
","null","<p></p>","null","","","","","","","","","","","","","","","","","","","","","","","",""
"","do_trial","255","617761","0.0-136.0-0.0","""event"",""trial"",""time""
""fullscreenenter"",""0"",""1782""
","
","
","""event"",""trial"",""time""
""fullscreenenter"",""0"",""1782""
","
","238.70000004768372","","","","","","","","49","0,0,0","6","blank","347","null","0.3577835798642467","0.4683343743611204","0.113344404004951","0","","","","","","","","",""
"","html-keyboard-response","256","618774","0.0-136.0-1.0","""event"",""trial"",""time""
""fullscreenenter"",""0"",""1782""
","
","
","""event"",""trial"",""time""
""fullscreenenter"",""0"",""1782""
","
","null","<p></p>","null","","","","","","","","","","","","","","","","","","","","","","","",""
"","do_trial","257","621564","0.0-137.0-0.0","""event"",""trial"",""time""
""fullscreenenter"",""0"",""1782""
","
","
","""event"",""trial"",""time""
""fullscreenenter"",""0"",""1782""
","
","246.70000004768372","","","","","","","","51","0,0,0","6","blank","348","null","0.38516445639077457","0.4313730942846051","0.0671850402789105","0","","","","","","","","",""
"","html-keyboard-response","258","622573","0.0-137.0-1.0","""event"",""trial"",""time""
""fullscreenenter"",""0"",""1782""
","
","
","""event"",""trial"",""time""
""fullscreenenter"",""0"",""1782""
","
","null","<p></p>","null","","","","","","","","","","","","","","","","","","","","","","","",""
"","break","259","623192","0.0-138.0-0.0","""event"",""trial"",""time""
""fullscreenenter"",""0"",""1782""
","
","
","""event"",""trial"",""time""
""fullscreenenter"",""0"",""1782""
","
","618.2999999523163","<div class='center'><p>Time to take a quick break! You have 2 minutes to rest, but you can move on sooner if you'd like.</p><p> Press the <b>space bar</b> to continue.</p></div>","32","","","","","","","","","","","","","","","","","","","","","","","",""
"","do_trial","260","628212","0.0-138.0-1.0","""event"",""trial"",""time""
""fullscreenenter"",""0"",""1782""
","
","
","""event"",""trial"",""time""
""fullscreenenter"",""0"",""1782""
","
","2478.100000143051","","","","","","","","51","0,0,0","6","blank","349","null","0.2952024351533513","0.3345793503229331","0.1356081262671841","0","","","","","","","","",""
"","html-keyboard-response","261","629219","0.0-138.0-2.0","""event"",""trial"",""time""
""fullscreenenter"",""0"",""1782""
","
","
","""event"",""trial"",""time""
""fullscreenenter"",""0"",""1782""
","
","null","<p></p>","null","","","","","","","","","","","","","","","","","","","","","","","",""
"","do_recog","262","632045","0.0-139.0-0.0","""event"",""trial"",""time""
""fullscreenenter"",""0"",""1782""
","
","
","""event"",""trial"",""time""
""fullscreenenter"",""0"",""1782""
","
","1322.7000000476837","","","","","","","","53","","","","350","probe-207","","","","","1","[object Object]","156","3","1","","","",""
"","html-keyboard-response","263","633056","0.0-139.0-1.0","""event"",""trial"",""time""
""fullscreenenter"",""0"",""1782""
","
","
","""event"",""trial"",""time""
""fullscreenenter"",""0"",""1782""
","
","null","<p></p>","null","","","","","","","","","","","","","","","","","","","","","","","",""
"","do_trial","264","635850","0.0-140.0-0.0","""event"",""trial"",""time""
""fullscreenenter"",""0"",""1782""
","
","
","""event"",""trial"",""time""
""fullscreenenter"",""0"",""1782""
","
","260.89999985694885","","","","","","","","51","1,0,0","6","blank","351","null","0.21710165565306105","0.3920083552379209","0.10985868555947922","0","","","","","","","","",""
"","html-keyboard-response","265","636862","0.0-140.0-1.0","""event"",""trial"",""time""
""fullscreenenter"",""0"",""1782""
","
","
","""event"",""trial"",""time""
""fullscreenenter"",""0"",""1782""
","
","null","<p></p>","null","","","","","","","","","","","","","","","","","","","","","","","",""
"","do_recog","266","638995","0.0-141.0-0.0","""event"",""trial"",""time""
""fullscreenenter"",""0"",""1782""
","
","
","""event"",""trial"",""time""
""fullscreenenter"",""0"",""1782""
","
","615.9000000953674","","","","","","","","53","","","","352","probe-175","","","","","1","[object Object]","38","0","1","","","",""
"","html-keyboard-response","267","640005","0.0-141.0-1.0","""event"",""trial"",""time""
""fullscreenenter"",""0"",""1782""
","
","
","""event"",""trial"",""time""
""fullscreenenter"",""0"",""1782""
","
","null","<p></p>","null","","","","","","","","","","","","","","","","","","","","","","","",""
"","do_trial","268","642992","0.0-142.0-0.0","""event"",""trial"",""time""
""fullscreenenter"",""0"",""1782""
","
","
","""event"",""trial"",""time""
""fullscreenenter"",""0"",""1782""
","
","448.5","","","","","","","","51","1,0,0","6","blank","353","null","0.12498764078417084","0.42582940738644004","0.07581654427285496","0","","","","","","","","",""
"","html-keyboard-response","269","643997","0.0-142.0-1.0","""event"",""trial"",""time""
""fullscreenenter"",""0"",""1782""
","
","
","""event"",""trial"",""time""
""fullscreenenter"",""0"",""1782""
","
","null","<p></p>","null","","","","","","","","","","","","","","","","","","","","","","","",""
"","do_trial","270","646743","0.0-143.0-0.0","""event"",""trial"",""time""
""fullscreenenter"",""0"",""1782""
","
","
","""event"",""trial"",""time""
""fullscreenenter"",""0"",""1782""
","
","207.40000009536743","","","","","","","","51","0,0,0","6","blank","354","null","0.2332287174717466","0.5738092945965343","0.2319454783699902","0","","","","","","","","",""
"","html-keyboard-response","271","647751","0.0-143.0-1.0","""event"",""trial"",""time""
""fullscreenenter"",""0"",""1782""
","
","
","""event"",""trial"",""time""
""fullscreenenter"",""0"",""1782""
","
","null","<p></p>","null","","","","","","","","","","","","","","","","","","","","","","","",""
"","do_trial","272","650508","0.0-144.0-0.0","""event"",""trial"",""time""
""fullscreenenter"",""0"",""1782""
","
","
","""event"",""trial"",""time""
""fullscreenenter"",""0"",""1782""
","
","230.09999990463257","","","","","","","","51","1,0,1","6","blank","355","null","0.3062952528976171","0.3598709842383886","0.3561138465059962","1","","","","","","","","",""
"","html-keyboard-response","273","651522","0.0-144.0-1.0","""event"",""trial"",""time""
""fullscreenenter"",""0"",""1782""
","
","
","""event"",""trial"",""time""
""fullscreenenter"",""0"",""1782""
","
","null","<p></p>","null","","","","","","","","","","","","","","","","","","","","","","","",""
"","do_trial","274","654436","0.0-145.0-0.0","""event"",""trial"",""time""
""fullscreenenter"",""0"",""1782""
","
","
","""event"",""trial"",""time""
""fullscreenenter"",""0"",""1782""
","
","371.5","","","","","","","","50","1,1,1","6","blank","356","null","0.18497054032754143","0.5169248141794044","0.2834340302064618","1","","","","","","","","",""
"","html-keyboard-response","275","655449","0.0-145.0-1.0","""event"",""trial"",""time""
""fullscreenenter"",""0"",""1782""
","
","
","""event"",""trial"",""time""
""fullscreenenter"",""0"",""1782""
","
","null","<p></p>","null","","","","","","","","","","","","","","","","","","","","","","","",""
"","do_trial","276","658233","0.0-146.0-0.0","""event"",""trial"",""time""
""fullscreenenter"",""0"",""1782""
","
","
","""event"",""trial"",""time""
""fullscreenenter"",""0"",""1782""
","
","250.5","","","","","","","","50","0,0,0","6","blank","357","null","0.0735038900779122","0.6547820459151114","0.24153550263880819","0","","","","","","","","",""
