"success","trial_type","trial_index","time_elapsed","internal_node_id","interactions","blur_events","focus_events","fullscreenenter_events","fullscreenexit_events","rt","stimulus","key_press","subject_id","participant_id","age","gender","prompt","response","choice_outcomes","context_n","context_img_id","trial_n","probe_img_id","pR_red","pR_white","pR_black","outcome","is_valid","image_to_show","probed_trial","probed_context","correct","probe","probed_trial_n","probed_context_n","context_im"
"true","fullscreen","0","14822","0.0-0.0","""event"",""trial"",""time""
""fullscreenenter"",""0"",""13850""
","
","
","""event"",""trial"",""time""
""fullscreenenter"",""0"",""13850""
","
","","","","","","","","","","","","","","","","","","","","","","","","","","",""
"","pavlovia","1","14825","0.0-1.0","""event"",""trial"",""time""
""fullscreenenter"",""0"",""13850""
","
","
","""event"",""trial"",""time""
""fullscreenenter"",""0"",""13850""
","
","","","","","","","","","","","","","","","","","","","","","","","","","","",""
"","welc_back","2","24727","0.0-2.0","""event"",""trial"",""time""
""fullscreenenter"",""0"",""13850""
","
","
","""event"",""trial"",""time""
""fullscreenenter"",""0"",""13850""
","
","null","run_exp/static/audio/clip_29_welcome_back.m4a","null","2145","2148","19","Male","<div class='center'><p>Welcome to day 2!</p><p> Yesterday, you were the head captain of a pirate ship. You asked your fellow pirates to rob other ships of their gold across six different islands.</p></div>","","","","","","","","","","","","","","","","","","",""
"","html-keyboard-response","3","25608","0.0-3.0","""event"",""trial"",""time""
""fullscreenenter"",""0"",""13850""
","
","
","""event"",""trial"",""time""
""fullscreenenter"",""0"",""13850""
","
","878.4000000059605","<div class='center'><p>Welcome to day 2!</p><p> Yesterday, you were the head captain of a pirate ship. You asked your fellow pirates to rob other ships of their gold across six different islands.</p><p><b>[Press the space bar to continue]</b></p></div>","32","","","","","","","","","","","","","","","","","","","","","","","",""
"","day_1_summary_goal","4","42829","0.0-4.0","""event"",""trial"",""time""
""fullscreenenter"",""0"",""13850""
","
","
","""event"",""trial"",""time""
""fullscreenenter"",""0"",""13850""
","
","null","run_exp/static/audio/clip_30_goal_of_game.m4a","null","","","","","<div class='center'><p>Today, like yesterday, you get to pick which pirate you want to rob the next ship.</p><p>If the pirate is successful in robbing a ship, you get gold coins that look like this: </p><p><img src='run_exp/static/images/tutorial/reward.png' height='150'></p><p> If they were not successful in robbing the ship, then you will get no gold coins and you'll see a big red x like this: </p><p><img src='run_exp/static/images/tutorial/reward_no.png' height='150'></p></div>","","","","","","","","","","","","","","","","","","",""
"","html-keyboard-response","5","43106","0.0-5.0","""event"",""trial"",""time""
""fullscreenenter"",""0"",""13850""
","
","
","""event"",""trial"",""time""
""fullscreenenter"",""0"",""13850""
","
","274.69999998807907","<div class='center'><p>Today, like yesterday, you get to pick which pirate you want to rob the next ship.</p><p>If the pirate is successful in robbing a ship, you get gold coins that look like this: </p><p><img src='run_exp/static/images/tutorial/reward.png' height='150'></p><p> If they were not successful in robbing the ship, then you will get no gold coins and you'll see a big red x like this: </p><p><img src='run_exp/static/images/tutorial/reward_no.png' height='150'></p><p><b>[Press the space bar to continue]</b></p></div>","32","","","","","","","","","","","","","","","","","","","","","","","",""
"","day_1_summary_pick","6","57809","0.0-6.0","""event"",""trial"",""time""
""fullscreenenter"",""0"",""13850""
","
","
","""event"",""trial"",""time""
""fullscreenenter"",""0"",""13850""
","
","null","run_exp/static/audio/clip_31_how_to_pick_a_pirate.m4a","null","","","","","<div class='center'><p>Also, just like yesterday, you will use the 1,2,3 keys on your keyboard to pick a pirate. Press '1' to choose red beard, '2' to choose white beard, and '3' to choose black beard . You only have 3 seconds to pick a pirate, so please make a choice quickly!</p></div>","","","","","","","","","","","","","","","","","","",""
"","html-keyboard-response","7","58505","0.0-7.0","""event"",""trial"",""time""
""fullscreenenter"",""0"",""13850""
","
","
","""event"",""trial"",""time""
""fullscreenenter"",""0"",""13850""
","
","693.8000000119209","<div class='center'><p>Also, just like yesterday, you will use the 1,2,3 keys on your keyboard to pick a pirate. Press '1' to choose red beard, '2' to choose white beard, and '3' to choose black beard . You only have 3 seconds to pick a pirate, so please make a choice quickly!</p><p><b>[Press the space bar to continue]</b></p></div>","32","","","","","","","","","","","","","","","","","","","","","","","",""
"","test_phase_begin","8","88909","0.0-8.0","""event"",""trial"",""time""
""fullscreenenter"",""0"",""13850""
","
","
","""event"",""trial"",""time""
""fullscreenenter"",""0"",""13850""
","
","null","run_exp/static/audio/clip_32_final_place.m4a","null","","","","","<div class='center'><p>You’ve arrived at the final island of your journey! Unfortunately, it’s very foggy out, so you won’t be able to see it in the distance like the other islands you've visited.</p><p>You’ll still be deciding which pirate you want to rob a ship like before. However, because of the fog, you also won’t be able to see the ship.</p><p>This means you do not have to remember the ships you rob on this island.</p><p>Unlike yesterday, you won't be visiting multiple islands today. You will stay on this island for the entire game. This game will last ~30 minutes.</p></div>","","","","","","","","","","","","","","","","","","",""
"","html-keyboard-response","9","89810","0.0-9.0","""event"",""trial"",""time""
""fullscreenenter"",""0"",""13850""
","
","
","""event"",""trial"",""time""
""fullscreenenter"",""0"",""13850""
","
","899.5","<div class='center'><p>You’ve arrived at the final island of your journey! Unfortunately, it’s very foggy out, so you won’t be able to see it in the distance like the other islands you've visited.</p><p>You’ll still be deciding which pirate you want to rob a ship like before. However, because of the fog, you also won’t be able to see the ship.</p><p>This means you do not have to remember the ships you rob on this island.</p><p>Unlike yesterday, you won't be visiting multiple islands today. You will stay on this island for the entire game. This game will last ~30 minutes.</p><p><b>[Press the space bar to continue]</b></p></div>","32","","","","","","","","","","","","","","","","","","","","","","","",""
"","explain_probe_1","10","97529","0.0-10.0","""event"",""trial"",""time""
""fullscreenenter"",""0"",""13850""
","
","
","""event"",""trial"",""time""
""fullscreenenter"",""0"",""13850""
","
","null","run_exp/static/audio/clip_33_recognition_1.m4a","null","","","","","<div class='center'><p> Sometimes you’ll be shown a ship, and you will be asked if you saw this ship on a past island.</p><p> Here is an example of what you will see.</p><p><img src='run_exp/static/images/tutorial/example_recog_trial.png' height='500'></p></div>","","","","","","","","","","","","","","","","","","",""
"","html-keyboard-response","11","99078","0.0-11.0","""event"",""trial"",""time""
""fullscreenenter"",""0"",""13850""
","
","
","""event"",""trial"",""time""
""fullscreenenter"",""0"",""13850""
","
","1547.4000000059605","<div class='center'><p> Sometimes you’ll be shown a ship, and you will be asked if you saw this ship on a past island.</p><p> Here is an example of what you will see.</p><p><img src='run_exp/static/images/tutorial/example_recog_trial.png' height='500'></p><p><b>[Press the space bar to continue]</b></p></div>","32","","","","","","","","","","","","","","","","","","","","","","","",""
"","explain_probe_2","12","120809","0.0-12.0","""event"",""trial"",""time""
""fullscreenenter"",""0"",""13850""
","
","
","""event"",""trial"",""time""
""fullscreenenter"",""0"",""13850""
","
","null","run_exp/static/audio/clip_34_recognition_2.m4a","null","","","","","<div class='center'><p> You will press the 5, 6, 7, 8 keys on your keyboard to respond.</p><p>If you are sure you saw the ship, press <b>5</b> on your keyboard.</p><p> If you think you saw it before but aren't sure, then press <b>6</b>.</p><p> If you think you have <b>not</b> seen it before but aren't sure, then press <b>7</b>.</p><p> If you are sure you did <b>not</b> see the ship before, then press <b>8</b>.</p><p><img src='run_exp/static/images/tutorial/example_recog_trial.png' height='500'></p></div>","","","","","","","","","","","","","","","","","","",""
"","html-keyboard-response","13","121804","0.0-13.0","""event"",""trial"",""time""
""fullscreenenter"",""0"",""13850""
","
","
","""event"",""trial"",""time""
""fullscreenenter"",""0"",""13850""
","
","993.2999999821186","<div class='center'><p> You will press the 5, 6, 7, 8 keys on your keyboard to respond.</p><p>If you are sure you saw the ship, press <b>5</b> on your keyboard.</p><p> If you think you saw it before but aren't sure, then press <b>6</b>.</p><p> If you think you have <b>not</b> seen it before but aren't sure, then press <b>7</b>.</p><p> If you are sure you did <b>not</b> see the ship before, then press <b>8</b>.</p><p><img src='run_exp/static/images/tutorial/example_recog_trial.png' height='500'></p><p><b>[Press the space bar to continue]</b></p></div>","32","","","","","","","","","","","","","","","","","","","","","","","",""
"","explain_outcome","14","139028","0.0-14.0","""event"",""trial"",""time""
""fullscreenenter"",""0"",""13850""
","
","
","""event"",""trial"",""time""
""fullscreenenter"",""0"",""13850""
","
","null","run_exp/static/audio/clip_35_recognition_3.m4a","null","","","","","<div class='center'><p> If you remember correctly, then you’ll get a gold coin like this: </p><p><img src='run_exp/static/images/tutorial/reward_small.png' height='200'></p><p>If you do not remember correctly, then you'll see a red x like this: </p><p><img src='run_exp/static/images/tutorial/reward_no.png' height='200'></p><p>Importantly, when you are shown a ship, take the time to remind yourself which island you saw it on. This will help you in the next part of the study.</p></div>","","","","","","","","","","","","","","","","","","",""
"","html-keyboard-response","15","139944","0.0-15.0","""event"",""trial"",""time""
""fullscreenenter"",""0"",""13850""
","
","
","""event"",""trial"",""time""
""fullscreenenter"",""0"",""13850""
","
","913.3000000119209","<div class='center'><p> If you remember correctly, then you’ll get a gold coin like this: </p><p><img src='run_exp/static/images/tutorial/reward_small.png' height='200'></p><p>If you do not remember correctly, then you'll see a red x like this: </p><p><img src='run_exp/static/images/tutorial/reward_no.png' height='200'></p><p>Importantly, when you are shown a ship, take the time to remind yourself which island you saw it on. This will help you in the next part of the study.</p><p><b>[Press the space bar to continue]</b></p></div>","32","","","","","","","","","","","","","","","","","","","","","","","",""
"","begin_test_phase","16","155768","0.0-16.0","""event"",""trial"",""time""
""fullscreenenter"",""0"",""13850""
","
","
","""event"",""trial"",""time""
""fullscreenenter"",""0"",""13850""
","
","null","run_exp/static/audio/clip_36_begin_final.m4a","null","","","","","<div class='center'><p>Let's go over the important points again. Your job is to: </p><p>1. Pick the pirate who is best at robbing ships and will bring you back gold coins. </p><p>2. Correctly remember whether or not you saw a ship before. If you did see the ship before, remind yourself on which island you saw it. </p></div>","","","","","","","","","","","","","","","","","","",""
"","html-keyboard-response","17","159451","0.0-17.0","""event"",""trial"",""time""
""fullscreenenter"",""0"",""13850""
","
","
","""event"",""trial"",""time""
""fullscreenenter"",""0"",""13850""
","
","3650.699999988079","<div class='center'><p>Let's go over the important points again. Your job is to: </p><p>1. Pick the pirate who is best at robbing ships and will bring you back gold coins. </p><p>2. Correctly remember whether or not you saw a ship before. If you did see the ship before, remind yourself on which island you saw it. </p><p><b>[Press the space bar to continue]</b></p></div>","32","","","","","","","","","","","","","","","","","","","","","","","",""
"","do_welcome","18","163467","0.0-18.0","""event"",""trial"",""time""
""fullscreenenter"",""0"",""13850""
","
","
","""event"",""trial"",""time""
""fullscreenenter"",""0"",""13850""
","
","null","","","","","","","","null","","","","","","","","","","","","","","","","","",""
"","do_trial","19","167238","0.0-19.0-0.0","""event"",""trial"",""time""
""fullscreenenter"",""0"",""13850""
","
","
","""event"",""trial"",""time""
""fullscreenenter"",""0"",""13850""
","
","1231","","","","","","","","49","1,0,0","6","blank","230","null","0.17266324187553533","0.0659084131834223","0.7543322833375088","1","","","","","","","","",""
"","html-keyboard-response","20","168248","0.0-19.0-1.0","""event"",""trial"",""time""
""fullscreenenter"",""0"",""13850""
","
","
","""event"",""trial"",""time""
""fullscreenenter"",""0"",""13850""
","
","null","<p></p>","null","","","","","","","","","","","","","","","","","","","","","","","",""
"","do_trial","21","171137","0.0-20.0-0.0","""event"",""trial"",""time""
""fullscreenenter"",""0"",""13850""
","
","
","""event"",""trial"",""time""
""fullscreenenter"",""0"",""13850""
","
","333.59999999403954","","","","","","","","49","0,0,1","6","blank","231","null","0.12139312212310521","0.052902298944300014","0.5237987002004009","0","","","","","","","","",""
"","html-keyboard-response","22","172148","0.0-20.0-1.0","""event"",""trial"",""time""
""fullscreenenter"",""0"",""13850""
","
","
","""event"",""trial"",""time""
""fullscreenenter"",""0"",""13850""
","
","null","<p></p>","null","","","","","","","","","","","","","","","","","","","","","","","",""
"","do_trial","23","174933","0.0-21.0-0.0","""event"",""trial"",""time""
""fullscreenenter"",""0"",""13850""
","
","
","""event"",""trial"",""time""
""fullscreenenter"",""0"",""13850""
","
","239.69999998807907","","","","","","","","49","0,1,1","6","blank","232","null","0.18851759833119858","0.12165812053000612","0.4568840439015719","0","","","","","","","","",""
"","html-keyboard-response","24","175936","0.0-21.0-1.0","""event"",""trial"",""time""
""fullscreenenter"",""0"",""13850""
","
","
","""event"",""trial"",""time""
""fullscreenenter"",""0"",""13850""
","
","null","<p></p>","null","","","","","","","","","","","","","","","","","","","","","","","",""
"","do_trial","25","178768","0.0-22.0-0.0","""event"",""trial"",""time""
""fullscreenenter"",""0"",""13850""
","
","
","""event"",""trial"",""time""
""fullscreenenter"",""0"",""13850""
","
","291.09999999403954","","","","","","","","49","1,0,1","6","blank","233","null","0.20807359123970146","0.09891019177936297","0.5681266754883302","1","","","","","","","","",""
"","html-keyboard-response","26","179778","0.0-22.0-1.0","""event"",""trial"",""time""
""fullscreenenter"",""0"",""13850""
","
","
","""event"",""trial"",""time""
""fullscreenenter"",""0"",""13850""
","
","null","<p></p>","null","","","","","","","","","","","","","","","","","","","","","","","",""
"","do_trial","27","182627","0.0-23.0-0.0","""event"",""trial"",""time""
""fullscreenenter"",""0"",""13850""
","
","
","""event"",""trial"",""time""
""fullscreenenter"",""0"",""13850""
","
","309.09999999403954","","","","","","","","49","0,0,1","6","blank","234","null","0.17998144095874363","0.16371734048195527","0.690870699736969","0","","","","","","","","",""
"","html-keyboard-response","28","183631","0.0-23.0-1.0","""event"",""trial"",""time""
""fullscreenenter"",""0"",""13850""
","
","
","""event"",""trial"",""time""
""fullscreenenter"",""0"",""13850""
","
","null","<p></p>","null","","","","","","","","","","","","","","","","","","","","","","","",""
"","do_trial","29","186486","0.0-24.0-0.0","""event"",""trial"",""time""
""fullscreenenter"",""0"",""13850""
","
","
","""event"",""trial"",""time""
""fullscreenenter"",""0"",""13850""
","
","305.7000000178814","","","","","","","","49","0,0,1","6","blank","235","null","0.24846976496568396","0.19469734463696292","0.6286062276087893","0","","","","","","","","",""
"","html-keyboard-response","30","187490","0.0-24.0-1.0","""event"",""trial"",""time""
""fullscreenenter"",""0"",""13850""
","
","
","""event"",""trial"",""time""
""fullscreenenter"",""0"",""13850""
","
","null","<p></p>","null","","","","","","","","","","","","","","","","","","","","","","","",""
"","do_trial","31","190507","0.0-25.0-0.0","""event"",""trial"",""time""
""fullscreenenter"",""0"",""13850""
","
","
","""event"",""trial"",""time""
""fullscreenenter"",""0"",""13850""
","
","462.2999999821186","","","","","","","","49","0,0,0","6","blank","236","null","0.24741247311009218","0.13247904504888036","0.6423180914973092","0","","","","","","","","",""
"","html-keyboard-response","32","191510","0.0-25.0-1.0","""event"",""trial"",""time""
""fullscreenenter"",""0"",""13850""
","
","
","""event"",""trial"",""time""
""fullscreenenter"",""0"",""13850""
","
","null","<p></p>","null","","","","","","","","","","","","","","","","","","","","","","","",""
"","do_trial","33","194148","0.0-26.0-0.0","""event"",""trial"",""time""
""fullscreenenter"",""0"",""13850""
","
","
","""event"",""trial"",""time""
""fullscreenenter"",""0"",""13850""
","
","87.2999999821186","","","","","","","","49","1,0,1","6","blank","237","null","0.21860446961873684","0.30928016423832655","0.5763399808802965","1","","","","","","","","",""
"","html-keyboard-response","34","195156","0.0-26.0-1.0","""event"",""trial"",""time""
""fullscreenenter"",""0"",""13850""
","
","
","""event"",""trial"",""time""
""fullscreenenter"",""0"",""13850""
","
","null","<p></p>","null","","","","","","","","","","","","","","","","","","","","","","","",""
"","do_trial","35","198018","0.0-27.0-0.0","""event"",""trial"",""time""
""fullscreenenter"",""0"",""13850""
","
","
","""event"",""trial"",""time""
""fullscreenenter"",""0"",""13850""
","
","316.69999998807907","","","","","","","","49","0,0,0","6","blank","238","null","0.21212693561999468","0.15385366050160035","0.6526286128192778","0","","","","","","","","",""
"","html-keyboard-response","36","199020","0.0-27.0-1.0","""event"",""trial"",""time""
""fullscreenenter"",""0"",""13850""
","
","
","""event"",""trial"",""time""
""fullscreenenter"",""0"",""13850""
","
","null","<p></p>","null","","","","","","","","","","","","","","","","","","","","","","","",""
"","do_trial","37","202154","0.0-28.0-0.0","""event"",""trial"",""time""
""fullscreenenter"",""0"",""13850""
","
","
","""event"",""trial"",""time""
""fullscreenenter"",""0"",""13850""
","
","582.5999999940395","","","","","","","","49","0,0,0","6","blank","239","null","0.18047363580284237","0.13598504144912732","0.5135221832463863","0","","","","","","","","",""
"","html-keyboard-response","38","203162","0.0-28.0-1.0","""event"",""trial"",""time""
""fullscreenenter"",""0"",""13850""
","
","
","""event"",""trial"",""time""
""fullscreenenter"",""0"",""13850""
","
","null","<p></p>","null","","","","","","","","","","","","","","","","","","","","","","","",""
"","do_trial","39","206087","0.0-29.0-0.0","""event"",""trial"",""time""
""fullscreenenter"",""0"",""13850""
","
","
","""event"",""trial"",""time""
""fullscreenenter"",""0"",""13850""
","
","386","","","","","","","","49","0,1,0","6","blank","240","null","0.30043537650818136","0.12143257960606242","0.40769487206334776","0","","","","","","","","",""
"","html-keyboard-response","40","207107","0.0-29.0-1.0","""event"",""trial"",""time""
""fullscreenenter"",""0"",""13850""
","
","
","""event"",""trial"",""time""
""fullscreenenter"",""0"",""13850""
","
","null","<p></p>","null","","","","","","","","","","","","","","","","","","","","","","","",""
"","do_recog","41","213127","0.0-30.0-0.0","""event"",""trial"",""time""
""fullscreenenter"",""0"",""13850""
","
","
","""event"",""trial"",""time""
""fullscreenenter"",""0"",""13850""
","
","null","","","","","","","","null","","","","241","probe-190","","","","","1","[object Object]","114","2","0","","","",""
"","html-keyboard-response","42","214132","0.0-30.0-1.0","""event"",""trial"",""time""
""fullscreenenter"",""0"",""13850""
","
","
","""event"",""trial"",""time""
""fullscreenenter"",""0"",""13850""
","
","null","<p></p>","null","","","","","","","","","","","","","","","","","","","","","","","",""
"","do_trial","43","218038","0.0-31.0-0.0","""event"",""trial"",""time""
""fullscreenenter"",""0"",""13850""
","
","
","""event"",""trial"",""time""
""fullscreenenter"",""0"",""13850""
","
","1349.800000011921","","","","","","","","49","1,0,1","6","blank","242","null","0.3790576764982359","0.25247327148178084","0.4857557200144374","1","","","","","","","","",""
"","html-keyboard-response","44","219044","0.0-31.0-1.0","""event"",""trial"",""time""
""fullscreenenter"",""0"",""13850""
","
","
","""event"",""trial"",""time""
""fullscreenenter"",""0"",""13850""
","
","null","<p></p>","null","","","","","","","","","","","","","","","","","","","","","","","",""
"","do_trial","45","222180","0.0-32.0-0.0","""event"",""trial"",""time""
""fullscreenenter"",""0"",""13850""
","
","
","""event"",""trial"",""time""
""fullscreenenter"",""0"",""13850""
","
","576.1999999880791","","","","","","","","50","0,0,0","6","blank","243","null","0.2664675708672105","0.37902421836441674","0.3843266778185652","0","","","","","","","","",""
"","html-keyboard-response","46","223192","0.0-32.0-1.0","""event"",""trial"",""time""
""fullscreenenter"",""0"",""13850""
","
","
","""event"",""trial"",""time""
""fullscreenenter"",""0"",""13850""
","
","null","<p></p>","null","","","","","","","","","","","","","","","","","","","","","","","",""
"","do_recog","47","226821","0.0-33.0-0.0","""event"",""trial"",""time""
""fullscreenenter"",""0"",""13850""
","
","
","""event"",""trial"",""time""
""fullscreenenter"",""0"",""13850""
","
","2114","","","","","","","","55","","","","244","probe-169","","","","","1","[object Object]","190","4","0","","","",""
"","html-keyboard-response","48","227837","0.0-33.0-1.0","""event"",""trial"",""time""
""fullscreenenter"",""0"",""13850""
","
","
","""event"",""trial"",""time""
""fullscreenenter"",""0"",""13850""
","
","null","<p></p>","null","","","","","","","","","","","","","","","","","","","","","","","",""
"","do_trial","49","231696","0.0-34.0-0.0","""event"",""trial"",""time""
""fullscreenenter"",""0"",""13850""
","
","
","""event"",""trial"",""time""
""fullscreenenter"",""0"",""13850""
","
","1319.1000000238419","","","","","","","","51","1,0,0","6","blank","245","null","0.26045167535724073","0.4459037310114598","0.17571078783613459","0","","","","","","","","",""
"","html-keyboard-response","50","232700","0.0-34.0-1.0","""event"",""trial"",""time""
""fullscreenenter"",""0"",""13850""
","
","
","""event"",""trial"",""time""
""fullscreenenter"",""0"",""13850""
","
","null","<p></p>","null","","","","","","","","","","","","","","","","","","","","","","","",""
"","do_recog","51","236027","0.0-35.0-0.0","""event"",""trial"",""time""
""fullscreenenter"",""0"",""13850""
","
","
","""event"",""trial"",""time""
""fullscreenenter"",""0"",""13850""
","
","1806.5","","","","","","","","53","","","","246","probe-158","","","","","1","[object Object]","111","2","1","","","",""
"","html-keyboard-response","52","237043","0.0-35.0-1.0","""event"",""trial"",""time""
""fullscreenenter"",""0"",""13850""
","
","
","""event"",""trial"",""time""
""fullscreenenter"",""0"",""13850""
","
","null","<p></p>","null","","","","","","","","","","","","","","","","","","","","","","","",""
"","do_trial","53","241215","0.0-36.0-0.0","""event"",""trial"",""time""
""fullscreenenter"",""0"",""13850""
","
","
","""event"",""trial"",""time""
""fullscreenenter"",""0"",""13850""
","
","1629.4000000059605","","","","","","","","51","1,1,0","6","blank","247","null","0.28350922496292486","0.5045088026583724","0.17088791340854556","0","","","","","","","","",""
"","html-keyboard-response","54","242221","0.0-36.0-1.0","""event"",""trial"",""time""
""fullscreenenter"",""0"",""13850""
","
","
","""event"",""trial"",""time""
""fullscreenenter"",""0"",""13850""
","
","null","<p></p>","null","","","","","","","","","","","","","","","","","","","","","","","",""
"","do_trial","55","245427","0.0-37.0-0.0","""event"",""trial"",""time""
""fullscreenenter"",""0"",""13850""
","
","
","""event"",""trial"",""time""
""fullscreenenter"",""0"",""13850""
","
","647.5","","","","","","","","51","0,1,0","6","blank","248","null","0.3395581063343766","0.48148819363842876","0.12307967729693826","0","","","","","","","","",""
"","html-keyboard-response","56","246431","0.0-37.0-1.0","""event"",""trial"",""time""
""fullscreenenter"",""0"",""13850""
","
","
","""event"",""trial"",""time""
""fullscreenenter"",""0"",""13850""
","
","null","<p></p>","null","","","","","","","","","","","","","","","","","","","","","","","",""
"","do_trial","57","249713","0.0-38.0-0.0","""event"",""trial"",""time""
""fullscreenenter"",""0"",""13850""
","
","
","""event"",""trial"",""time""
""fullscreenenter"",""0"",""13850""
","
","726.8999999761581","","","","","","","","51","1,0,0","6","blank","249","null","0.38646590600738945","0.5071474246498548","0.08859023363426977","0","","","","","","","","",""
"","html-keyboard-response","58","250723","0.0-38.0-1.0","""event"",""trial"",""time""
""fullscreenenter"",""0"",""13850""
","
","
","""event"",""trial"",""time""
""fullscreenenter"",""0"",""13850""
","
","null","<p></p>","null","","","","","","","","","","","","","","","","","","","","","","","",""
"","do_recog","59","253445","0.0-39.0-0.0","""event"",""trial"",""time""
""fullscreenenter"",""0"",""13850""
","
","
","""event"",""trial"",""time""
""fullscreenenter"",""0"",""13850""
","
","1202.300000011921","","","","","","","","53","","","","250","probe-128","","","","","1","[object Object]","192","4","1","","","",""
"","html-keyboard-response","60","254460","0.0-39.0-1.0","""event"",""trial"",""time""
""fullscreenenter"",""0"",""13850""
","
","
","""event"",""trial"",""time""
""fullscreenenter"",""0"",""13850""
","
","null","<p></p>","null","","","","","","","","","","","","","","","","","","","","","","","",""
"","do_trial","61","257664","0.0-40.0-0.0","""event"",""trial"",""time""
""fullscreenenter"",""0"",""13850""
","
","
","""event"",""trial"",""time""
""fullscreenenter"",""0"",""13850""
","
","659.2000000178814","","","","","","","","51","0,0,0","6","blank","251","null","0.34759105022567677","0.5224290884656247","0.12797817786658924","0","","","","","","","","",""
"","html-keyboard-response","62","258681","0.0-40.0-1.0","""event"",""trial"",""time""
""fullscreenenter"",""0"",""13850""
","
","
","""event"",""trial"",""time""
""fullscreenenter"",""0"",""13850""
","
","null","<p></p>","null","","","","","","","","","","","","","","","","","","","","","","","",""
"","do_trial","63","261753","0.0-41.0-0.0","""event"",""trial"",""time""
""fullscreenenter"",""0"",""13850""
","
","
","""event"",""trial"",""time""
""fullscreenenter"",""0"",""13850""
","
","515.5999999940395","","","","","","","","51","1,1,1","6","blank","252","null","0.4027393497415413","0.6080617788784268","0.2815092176389499","1","","","","","","","","",""
"","html-keyboard-response","64","262760","0.0-41.0-1.0","""event"",""trial"",""time""
""fullscreenenter"",""0"",""13850""
","
","
","""event"",""trial"",""time""
""fullscreenenter"",""0"",""13850""
","
","null","<p></p>","null","","","","","","","","","","","","","","","","","","","","","","","",""
"","do_trial","65","265664","0.0-42.0-0.0","""event"",""trial"",""time""
""fullscreenenter"",""0"",""13850""
","
","
","""event"",""trial"",""time""
""fullscreenenter"",""0"",""13850""
","
","347.30000001192093","","","","","","","","51","0,1,0","6","blank","253","null","0.3845642019758386","0.739844846834982","0.3341088965191557","0","","","","","","","","",""
"","html-keyboard-response","66","266668","0.0-42.0-1.0","""event"",""trial"",""time""
""fullscreenenter"",""0"",""13850""
","
","
","""event"",""trial"",""time""
""fullscreenenter"",""0"",""13850""
","
","null","<p></p>","null","","","","","","","","","","","","","","","","","","","","","","","",""
"","do_trial","67","269521","0.0-43.0-0.0","""event"",""trial"",""time""
""fullscreenenter"",""0"",""13850""
","
","
","""event"",""trial"",""time""
""fullscreenenter"",""0"",""13850""
","
","304.5","","","","","","","","51","1,0,0","6","blank","254","null","0.3126392929349321","0.6264811778074239","0.1050440009578109","0","","","","","","","","",""
"","html-keyboard-response","68","270533","0.0-43.0-1.0","""event"",""trial"",""time""
""fullscreenenter"",""0"",""13850""
","
","
","""event"",""trial"",""time""
""fullscreenenter"",""0"",""13850""
","
","null","<p></p>","null","","","","","","","","","","","","","","","","","","","","","","","",""
"","do_trial","69","273348","0.0-44.0-0.0","""event"",""trial"",""time""
""fullscreenenter"",""0"",""13850""
","
","
","""event"",""trial"",""time""
""fullscreenenter"",""0"",""13850""
","
","261.59999999403954","","","","","","","","51","0,1,0","6","blank","255","null","0.29419390215137936","0.4950252855116161","0.137187344687809","0","","","","","","","","",""
"","html-keyboard-response","70","274357","0.0-44.0-1.0","""event"",""trial"",""time""
""fullscreenenter"",""0"",""13850""
","
","
","""event"",""trial"",""time""
""fullscreenenter"",""0"",""13850""
","
","null","<p></p>","null","","","","","","","","","","","","","","","","","","","","","","","",""
"","do_recog","71","277652","0.0-45.0-0.0","""event"",""trial"",""time""
""fullscreenenter"",""0"",""13850""
","
","
","""event"",""trial"",""time""
""fullscreenenter"",""0"",""13850""
","
","1781.2999999821186","","","","","","","","55","","","","256","probe-239","","","","","0","[object Object]","null","null","1","","","",""
"","html-keyboard-response","72","278660","0.0-45.0-1.0","""event"",""trial"",""time""
""fullscreenenter"",""0"",""13850""
","
","
","""event"",""trial"",""time""
""fullscreenenter"",""0"",""13850""
","
","null","<p></p>","null","","","","","","","","","","","","","","","","","","","","","","","",""
"","do_trial","73","282246","0.0-46.0-0.0","""event"",""trial"",""time""
""fullscreenenter"",""0"",""13850""
","
","
","""event"",""trial"",""time""
""fullscreenenter"",""0"",""13850""
","
","1049.4000000059605","","","","","","","","51","0,0,1","6","blank","257","null","0.277159716350148","0.4311222905957821","0.11096852474478236","1","","","","","","","","",""
"","html-keyboard-response","74","283260","0.0-46.0-1.0","""event"",""trial"",""time""
""fullscreenenter"",""0"",""13850""
","
","
","""event"",""trial"",""time""
""fullscreenenter"",""0"",""13850""
","
","null","<p></p>","null","","","","","","","","","","","","","","","","","","","","","","","",""
"","do_recog","75","286914","0.0-47.0-0.0","""event"",""trial"",""time""
""fullscreenenter"",""0"",""13850""
","
","
","""event"",""trial"",""time""
""fullscreenenter"",""0"",""13850""
","
","2137.5","","","","","","","","56","","","","258","probe-80","","","","","1","[object Object]","38","0","0","","","",""
"","html-keyboard-response","76","287931","0.0-47.0-1.0","""event"",""trial"",""time""
""fullscreenenter"",""0"",""13850""
","
","
","""event"",""trial"",""time""
""fullscreenenter"",""0"",""13850""
","
","null","<p></p>","null","","","","","","","","","","","","","","","","","","","","","","","",""
"","do_trial","77","291748","0.0-48.0-0.0","""event"",""trial"",""time""
""fullscreenenter"",""0"",""13850""
","
","
","""event"",""trial"",""time""
""fullscreenenter"",""0"",""13850""
","
","1267.300000011921","","","","","","","","51","0,0,0","6","blank","259","null","0.3199042803886352","0.6641397269312634","0.09341094067646256","0","","","","","","","","",""
"","html-keyboard-response","78","292761","0.0-48.0-1.0","""event"",""trial"",""time""
""fullscreenenter"",""0"",""13850""
","
","
","""event"",""trial"",""time""
""fullscreenenter"",""0"",""13850""
","
","null","<p></p>","null","","","","","","","","","","","","","","","","","","","","","","","",""
"","do_recog","79","295835","0.0-49.0-0.0","""event"",""trial"",""time""
""fullscreenenter"",""0"",""13850""
","
","
","""event"",""trial"",""time""
""fullscreenenter"",""0"",""13850""
","
","1567.4000000059605","","","","","","","","53","","","","260","probe-76","","","","","1","[object Object]","119","2","1","","","",""
"","html-keyboard-response","80","296852","0.0-49.0-1.0","""event"",""trial"",""time""
""fullscreenenter"",""0"",""13850""
","
","
","""event"",""trial"",""time""
""fullscreenenter"",""0"",""13850""
","
","null","<p></p>","null","","","","","","","","","","","","","","","","","","","","","","","",""
"","do_trial","81","300342","0.0-50.0-0.0","""event"",""trial"",""time""
""fullscreenenter"",""0"",""13850""
","
","
","""event"",""trial"",""time""
""fullscreenenter"",""0"",""13850""
","
","951.6000000238419","","","","","","","","50","1,0,0","6","blank","261","null","0.3546076534972628","0.6564378768962524","0.21865769024916915","0","","","","","","","","",""
"","html-keyboard-response","82","301353","0.0-50.0-1.0","""event"",""trial"",""time""
""fullscreenenter"",""0"",""13850""
","
","
","""event"",""trial"",""time""
""fullscreenenter"",""0"",""13850""
","
","null","<p></p>","null","","","","","","","","","","","","","","","","","","","","","","","",""
"","do_recog","83","303979","0.0-51.0-0.0","""event"",""trial"",""time""
""fullscreenenter"",""0"",""13850""
","
","
","""event"",""trial"",""time""
""fullscreenenter"",""0"",""13850""
","
","1107.2999999821186","","","","","","","","56","","","","262","probe-243","","","","","0","[object Object]","null","null","1","","","",""
"","html-keyboard-response","84","304984","0.0-51.0-1.0","""event"",""trial"",""time""
""fullscreenenter"",""0"",""13850""
","
","
","""event"",""trial"",""time""
""fullscreenenter"",""0"",""13850""
","
","null","<p></p>","null","","","","","","","","","","","","","","","","","","","","","","","",""
"","do_trial","85","309093","0.0-52.0-0.0","""event"",""trial"",""time""
""fullscreenenter"",""0"",""13850""
","
","
","""event"",""trial"",""time""
""fullscreenenter"",""0"",""13850""
","
","1570.5999999940395","","","","","","","","50","0,1,0","6","blank","263","null","0.21135611471042068","0.5853236660909158","0.17685843168296192","1","","","","","","","","",""
"","html-keyboard-response","86","310096","0.0-52.0-1.0","""event"",""trial"",""time""
""fullscreenenter"",""0"",""13850""
","
","
","""event"",""trial"",""time""
""fullscreenenter"",""0"",""13850""
","
","null","<p></p>","null","","","","","","","","","","","","","","","","","","","","","","","",""
"","do_recog","87","313133","0.0-53.0-0.0","""event"",""trial"",""time""
""fullscreenenter"",""0"",""13850""
","
","
","""event"",""trial"",""time""
""fullscreenenter"",""0"",""13850""
","
","1526.199999988079","","","","","","","","56","","","","264","probe-22","","","","","1","[object Object]","34","0","0","","","",""
"","html-keyboard-response","88","314146","0.0-53.0-1.0","""event"",""trial"",""time""
""fullscreenenter"",""0"",""13850""
","
","
","""event"",""trial"",""time""
""fullscreenenter"",""0"",""13850""
","
","null","<p></p>","null","","","","","","","","","","","","","","","","","","","","","","","",""
"","do_trial","89","317184","0.0-54.0-0.0","""event"",""trial"",""time""
""fullscreenenter"",""0"",""13850""
","
","
","""event"",""trial"",""time""
""fullscreenenter"",""0"",""13850""
","
","490.19999998807907","","","","","","","","50","1,0,0","6","blank","265","null","0.31577037117067763","0.512789571389746","0.12293114913105782","0","","","","","","","","",""
"","html-keyboard-response","90","318193","0.0-54.0-1.0","""event"",""trial"",""time""
""fullscreenenter"",""0"",""13850""
","
","
","""event"",""trial"",""time""
""fullscreenenter"",""0"",""13850""
","
","null","<p></p>","null","","","","","","","","","","","","","","","","","","","","","","","",""
"","do_trial","91","321192","0.0-55.0-0.0","""event"",""trial"",""time""
""fullscreenenter"",""0"",""13850""
","
","
","""event"",""trial"",""time""
""fullscreenenter"",""0"",""13850""
","
","454.90000000596046","","","","","","","","50","0,1,0","6","blank","266","null","0.32644265363679414","0.5460107099568537","0.09733755778997089","1","","","","","","","","",""
"","html-keyboard-response","92","322194","0.0-55.0-1.0","""event"",""trial"",""time""
""fullscreenenter"",""0"",""13850""
","
","
","""event"",""trial"",""time""
""fullscreenenter"",""0"",""13850""
","
","null","<p></p>","null","","","","","","","","","","","","","","","","","","","","","","","",""
"","do_trial","93","325163","0.0-56.0-0.0","""event"",""trial"",""time""
""fullscreenenter"",""0"",""13850""
","
","
","""event"",""trial"",""time""
""fullscreenenter"",""0"",""13850""
","
","409.19999998807907","","","","","","","","50","1,1,0","6","blank","267","null","0.33683143778265434","0.5032998485500437","0.12457087897354117","1","","","","","","","","",""
"","html-keyboard-response","94","326168","0.0-56.0-1.0","""event"",""trial"",""time""
""fullscreenenter"",""0"",""13850""
","
","
","""event"",""trial"",""time""
""fullscreenenter"",""0"",""13850""
","
","null","<p></p>","null","","","","","","","","","","","","","","","","","","","","","","","",""
"","do_trial","95","329068","0.0-57.0-0.0","""event"",""trial"",""time""
""fullscreenenter"",""0"",""13850""
","
","
","""event"",""trial"",""time""
""fullscreenenter"",""0"",""13850""
","
","349","","","","","","","","50","0,0,0","6","blank","268","null","0.3566764629298571","0.5357225412164478","0.16760101916084594","0","","","","","","","","",""
"","html-keyboard-response","96","330083","0.0-57.0-1.0","""event"",""trial"",""time""
""fullscreenenter"",""0"",""13850""
","
","
","""event"",""trial"",""time""
""fullscreenenter"",""0"",""13850""
","
","null","<p></p>","null","","","","","","","","","","","","","","","","","","","","","","","",""
"","break","97","450100","0.0-58.0-0.0","""event"",""trial"",""time""
""fullscreenenter"",""0"",""13850""
","
","
","""event"",""trial"",""time""
""fullscreenenter"",""0"",""13850""
","
","null","<div class='center'><p>Time to take a quick break! You have 2 minutes to rest, but you can move on sooner if you'd like.</p><p> Press the <b>space bar</b> to continue.</p></div>","null","","","","","","","","","","","","","","","","","","","","","","","",""
"","do_trial","98","454567","0.0-58.0-1.0","""event"",""trial"",""time""
""fullscreenenter"",""0"",""13850""
","
","
","""event"",""trial"",""time""
""fullscreenenter"",""0"",""13850""
","
","1915.0999999940395","","","","","","","","49","1,1,0","6","blank","269","null","0.3506559700962813","0.672517363835603","0.13829140979111632","1","","","","","","","","",""
"","html-keyboard-response","99","455578","0.0-58.0-2.0","""event"",""trial"",""time""
""fullscreenenter"",""0"",""13850""
","
","
","""event"",""trial"",""time""
""fullscreenenter"",""0"",""13850""
","
","null","<p></p>","null","","","","","","","","","","","","","","","","","","","","","","","",""
"","do_trial","100","458670","0.0-59.0-0.0","""event"",""trial"",""time""
""fullscreenenter"",""0"",""13850""
","
","
","""event"",""trial"",""time""
""fullscreenenter"",""0"",""13850""
","
","549.0999999940395","","","","","","","","50","0,1,0","6","blank","270","null","0.2430891525939158","0.6973204566718993","0.0739418226129484","1","","","","","","","","",""
"","html-keyboard-response","101","459681","0.0-59.0-1.0","""event"",""trial"",""time""
""fullscreenenter"",""0"",""13850""
","
","
","""event"",""trial"",""time""
""fullscreenenter"",""0"",""13850""
","
","null","<p></p>","null","","","","","","","","","","","","","","","","","","","","","","","",""
"","do_trial","102","462884","0.0-60.0-0.0","""event"",""trial"",""time""
""fullscreenenter"",""0"",""13850""
","
","
","""event"",""trial"",""time""
""fullscreenenter"",""0"",""13850""
","
","651.6000000238419","","","","","","","","49","0,0,0","6","blank","271","null","0.2171793931607394","0.5202240691252216","0.09122156129532483","0","","","","","","","","",""
"","html-keyboard-response","103","463893","0.0-60.0-1.0","""event"",""trial"",""time""
""fullscreenenter"",""0"",""13850""
","
","
","""event"",""trial"",""time""
""fullscreenenter"",""0"",""13850""
","
","null","<p></p>","null","","","","","","","","","","","","","","","","","","","","","","","",""
"","do_recog","104","466509","0.0-61.0-0.0","""event"",""trial"",""time""
""fullscreenenter"",""0"",""13850""
","
","
","""event"",""trial"",""time""
""fullscreenenter"",""0"",""13850""
","
","1102.7000000178814","","","","","","","","53","","","","272","probe-38","","","","","1","[object Object]","73","1","1","","","",""
"","html-keyboard-response","105","467516","0.0-61.0-1.0","""event"",""trial"",""time""
""fullscreenenter"",""0"",""13850""
","
","
","""event"",""trial"",""time""
""fullscreenenter"",""0"",""13850""
","
","null","<p></p>","null","","","","","","","","","","","","","","","","","","","","","","","",""
"","do_trial","106","470494","0.0-62.0-0.0","""event"",""trial"",""time""
""fullscreenenter"",""0"",""13850""
","
","
","""event"",""trial"",""time""
""fullscreenenter"",""0"",""13850""
","
","424.40000000596046","","","","","","","","49","0,1,1","6","blank","273","null","0.3523650610934928","0.5955454337585582","0.20262733055240337","0","","","","","","","","",""
"","html-keyboard-response","107","471498","0.0-62.0-1.0","""event"",""trial"",""time""
""fullscreenenter"",""0"",""13850""
","
","
","""event"",""trial"",""time""
""fullscreenenter"",""0"",""13850""
","
","null","<p></p>","null","","","","","","","","","","","","","","","","","","","","","","","",""
"","do_trial","108","474470","0.0-63.0-0.0","""event"",""trial"",""time""
""fullscreenenter"",""0"",""13850""
","
","
","""event"",""trial"",""time""
""fullscreenenter"",""0"",""13850""
","
","418.39999997615814","","","","","","","","49","1,0,0","6","blank","274","null","0.3939967786894662","0.5572450622382874","0.17679952994907308","1","","","","","","","","",""
"","html-keyboard-response","109","475483","0.0-63.0-1.0","""event"",""trial"",""time""
""fullscreenenter"",""0"",""13850""
","
","
","""event"",""trial"",""time""
""fullscreenenter"",""0"",""13850""
","
","null","<p></p>","null","","","","","","","","","","","","","","","","","","","","","","","",""
"","do_trial","110","478485","0.0-64.0-0.0","""event"",""trial"",""time""
""fullscreenenter"",""0"",""13850""
","
","
","""event"",""trial"",""time""
""fullscreenenter"",""0"",""13850""
","
","453.60000002384186","","","","","","","","49","1,1,0","6","blank","275","null","0.40806258271777723","0.5748648594325687","0.13338474863141453","1","","","","","","","","",""
"","html-keyboard-response","111","479500","0.0-64.0-1.0","""event"",""trial"",""time""
""fullscreenenter"",""0"",""13850""
","
","
","""event"",""trial"",""time""
""fullscreenenter"",""0"",""13850""
","
","null","<p></p>","null","","","","","","","","","","","","","","","","","","","","","","","",""
"","do_recog","112","481932","0.0-65.0-0.0","""event"",""trial"",""time""
""fullscreenenter"",""0"",""13850""
","
","
","""event"",""trial"",""time""
""fullscreenenter"",""0"",""13850""
","
","914.9000000059605","","","","","","","","53","","","","276","probe-63","","","","","1","[object Object]","116","2","1","","","",""
"","html-keyboard-response","113","482940","0.0-65.0-1.0","""event"",""trial"",""time""
""fullscreenenter"",""0"",""13850""
","
","
","""event"",""trial"",""time""
""fullscreenenter"",""0"",""13850""
","
","null","<p></p>","null","","","","","","","","","","","","","","","","","","","","","","","",""
"","do_trial","114","485854","0.0-66.0-0.0","""event"",""trial"",""time""
""fullscreenenter"",""0"",""13850""
","
","
","""event"",""trial"",""time""
""fullscreenenter"",""0"",""13850""
","
","367.69999998807907","","","","","","","","49","0,0,0","6","blank","277","null","0.5012297501895221","0.5305138457201014","0.26660744980255147","0","","","","","","","","",""
"","html-keyboard-response","115","486860","0.0-66.0-1.0","""event"",""trial"",""time""
""fullscreenenter"",""0"",""13850""
","
","
","""event"",""trial"",""time""
""fullscreenenter"",""0"",""13850""
","
","null","<p></p>","null","","","","","","","","","","","","","","","","","","","","","","","",""
"","do_trial","116","489709","0.0-67.0-0.0","""event"",""trial"",""time""
""fullscreenenter"",""0"",""13850""
","
","
","""event"",""trial"",""time""
""fullscreenenter"",""0"",""13850""
","
","302.90000000596046","","","","","","","","49","1,1,0","6","blank","278","null","0.4320725022314204","0.5584254891093349","0.4179752373678025","1","","","","","","","","",""
"","html-keyboard-response","117","490714","0.0-67.0-1.0","""event"",""trial"",""time""
""fullscreenenter"",""0"",""13850""
","
","
","""event"",""trial"",""time""
""fullscreenenter"",""0"",""13850""
","
","null","<p></p>","null","","","","","","","","","","","","","","","","","","","","","","","",""
"","do_trial","118","493636","0.0-68.0-0.0","""event"",""trial"",""time""
""fullscreenenter"",""0"",""13850""
","
","
","""event"",""trial"",""time""
""fullscreenenter"",""0"",""13850""
","
","383.19999998807907","","","","","","","","49","0,0,0","6","blank","279","null","0.3455023874772236","0.578871351512711","0.20776945526424315","0","","","","","","","","",""
"","html-keyboard-response","119","494654","0.0-68.0-1.0","""event"",""trial"",""time""
""fullscreenenter"",""0"",""13850""
","
","
","""event"",""trial"",""time""
""fullscreenenter"",""0"",""13850""
","
","null","<p></p>","null","","","","","","","","","","","","","","","","","","","","","","","",""
"","do_trial","120","497508","0.0-69.0-0.0","""event"",""trial"",""time""
""fullscreenenter"",""0"",""13850""
","
","
","""event"",""trial"",""time""
""fullscreenenter"",""0"",""13850""
","
","304","","","","","","","","49","1,1,0","6","blank","280","null","0.3285576172511413","0.6643327755622599","0.17111933735335322","1","","","","","","","","",""
"","html-keyboard-response","121","498512","0.0-69.0-1.0","""event"",""trial"",""time""
""fullscreenenter"",""0"",""13850""
","
","
","""event"",""trial"",""time""
""fullscreenenter"",""0"",""13850""
","
","null","<p></p>","null","","","","","","","","","","","","","","","","","","","","","","","",""
"","do_recog","122","500962","0.0-70.0-0.0","""event"",""trial"",""time""
""fullscreenenter"",""0"",""13850""
","
","
","""event"",""trial"",""time""
""fullscreenenter"",""0"",""13850""
","
","925.5999999940395","","","","","","","","53","","","","281","probe-115","","","","","1","[object Object]","31","0","1","","","",""
"","html-keyboard-response","123","501971","0.0-70.0-1.0","""event"",""trial"",""time""
""fullscreenenter"",""0"",""13850""
","
","
","""event"",""trial"",""time""
""fullscreenenter"",""0"",""13850""
","
","null","<p></p>","null","","","","","","","","","","","","","","","","","","","","","","","",""
"","do_trial","124","504949","0.0-71.0-0.0","""event"",""trial"",""time""
""fullscreenenter"",""0"",""13850""
","
","
","""event"",""trial"",""time""
""fullscreenenter"",""0"",""13850""
","
","434.80000001192093","","","","","","","","50","1,1,0","6","blank","282","null","0.38260572909074236","0.5406820641843978","0.0820170456887491","1","","","","","","","","",""
"","html-keyboard-response","125","505966","0.0-71.0-1.0","""event"",""trial"",""time""
""fullscreenenter"",""0"",""13850""
","
","
","""event"",""trial"",""time""
""fullscreenenter"",""0"",""13850""
","
","null","<p></p>","null","","","","","","","","","","","","","","","","","","","","","","","",""
"","do_recog","126","508882","0.0-72.0-0.0","""event"",""trial"",""time""
""fullscreenenter"",""0"",""13850""
","
","
","""event"",""trial"",""time""
""fullscreenenter"",""0"",""13850""
","
","1397.199999988079","","","","","","","","56","","","","283","probe-01","","","","","1","[object Object]","118","2","0","","","",""
"","html-keyboard-response","127","509894","0.0-72.0-1.0","""event"",""trial"",""time""
""fullscreenenter"",""0"",""13850""
","
","
","""event"",""trial"",""time""
""fullscreenenter"",""0"",""13850""
","
","null","<p></p>","null","","","","","","","","","","","","","","","","","","","","","","","",""
"","do_trial","128","512793","0.0-73.0-0.0","""event"",""trial"",""time""
""fullscreenenter"",""0"",""13850""
","
","
","""event"",""trial"",""time""
""fullscreenenter"",""0"",""13850""
","
","336.09999999403954","","","","","","","","50","0,1,0","6","blank","284","null","0.44295756186549673","0.8087802449066526","0.06689285630649786","1","","","","","","","","",""
"","html-keyboard-response","129","513797","0.0-73.0-1.0","""event"",""trial"",""time""
""fullscreenenter"",""0"",""13850""
","
","
","""event"",""trial"",""time""
""fullscreenenter"",""0"",""13850""
","
","null","<p></p>","null","","","","","","","","","","","","","","","","","","","","","","","",""
"","do_recog","130","516825","0.0-74.0-0.0","""event"",""trial"",""time""
""fullscreenenter"",""0"",""13850""
","
","
","""event"",""trial"",""time""
""fullscreenenter"",""0"",""13850""
","
","1512.2999999821186","","","","","","","","55","","","","285","probe-82","","","","","1","[object Object]","117","2","0","","","",""
"","html-keyboard-response","131","517840","0.0-74.0-1.0","""event"",""trial"",""time""
""fullscreenenter"",""0"",""13850""
","
","
","""event"",""trial"",""time""
""fullscreenenter"",""0"",""13850""
","
","null","<p></p>","null","","","","","","","","","","","","","","","","","","","","","","","",""
"","do_trial","132","520879","0.0-75.0-0.0","""event"",""trial"",""time""
""fullscreenenter"",""0"",""13850""
","
","
","""event"",""trial"",""time""
""fullscreenenter"",""0"",""13850""
","
","485.40000000596046","","","","","","","","50","0,1,0","6","blank","286","null","0.41643107230953663","0.735187854848131","0.06095694918789731","1","","","","","","","","",""
"","html-keyboard-response","133","521884","0.0-75.0-1.0","""event"",""trial"",""time""
""fullscreenenter"",""0"",""13850""
","
","
","""event"",""trial"",""time""
""fullscreenenter"",""0"",""13850""
","
","null","<p></p>","null","","","","","","","","","","","","","","","","","","","","","","","",""
"","do_trial","134","524748","0.0-76.0-0.0","""event"",""trial"",""time""
""fullscreenenter"",""0"",""13850""
","
","
","""event"",""trial"",""time""
""fullscreenenter"",""0"",""13850""
","
","314.2000000178814","","","","","","","","50","0,0,1","6","blank","287","null","0.4201798075424002","0.5405651794363627","0.10408847541544054","0","","","","","","","","",""
"","html-keyboard-response","135","525765","0.0-76.0-1.0","""event"",""trial"",""time""
""fullscreenenter"",""0"",""13850""
","
","
","""event"",""trial"",""time""
""fullscreenenter"",""0"",""13850""
","
","null","<p></p>","null","","","","","","","","","","","","","","","","","","","","","","","",""
"","do_trial","136","528671","0.0-77.0-0.0","""event"",""trial"",""time""
""fullscreenenter"",""0"",""13850""
","
","
","""event"",""trial"",""time""
""fullscreenenter"",""0"",""13850""
","
","348.90000000596046","","","","","","","","50","1,1,0","6","blank","288","null","0.32330187864919085","0.6659593938890565","0.1545884814931717","1","","","","","","","","",""
"","html-keyboard-response","137","529681","0.0-77.0-1.0","""event"",""trial"",""time""
""fullscreenenter"",""0"",""13850""
","
","
","""event"",""trial"",""time""
""fullscreenenter"",""0"",""13850""
","
","null","<p></p>","null","","","","","","","","","","","","","","","","","","","","","","","",""
"","do_trial","138","532542","0.0-78.0-0.0","""event"",""trial"",""time""
""fullscreenenter"",""0"",""13850""
","
","
","""event"",""trial"",""time""
""fullscreenenter"",""0"",""13850""
","
","307.40000000596046","","","","","","","","50","0,1,1","6","blank","289","null","0.37688679174644835","0.6946795617515075","0.29284857280046284","1","","","","","","","","",""
"","html-keyboard-response","139","533553","0.0-78.0-1.0","""event"",""trial"",""time""
""fullscreenenter"",""0"",""13850""
","
","
","""event"",""trial"",""time""
""fullscreenenter"",""0"",""13850""
","
","null","<p></p>","null","","","","","","","","","","","","","","","","","","","","","","","",""
"","do_trial","140","536360","0.0-79.0-0.0","""event"",""trial"",""time""
""fullscreenenter"",""0"",""13850""
","
","
","""event"",""trial"",""time""
""fullscreenenter"",""0"",""13850""
","
","256.69999998807907","","","","","","","","50","0,1,0","6","blank","290","null","0.4282703212814932","0.6665468543683558","0.19024371188693476","1","","","","","","","","",""
"","html-keyboard-response","141","537375","0.0-79.0-1.0","""event"",""trial"",""time""
""fullscreenenter"",""0"",""13850""
","
","
","""event"",""trial"",""time""
""fullscreenenter"",""0"",""13850""
","
","null","<p></p>","null","","","","","","","","","","","","","","","","","","","","","","","",""
"","do_recog","142","540937","0.0-80.0-0.0","""event"",""trial"",""time""
""fullscreenenter"",""0"",""13850""
","
","
","""event"",""trial"",""time""
""fullscreenenter"",""0"",""13850""
","
","2042.4000000059605","","","","","","","","56","","","","291","probe-86","","","","","1","[object Object]","151","3","0","","","",""
"","html-keyboard-response","143","541949","0.0-80.0-1.0","""event"",""trial"",""time""
""fullscreenenter"",""0"",""13850""
","
","
","""event"",""trial"",""time""
""fullscreenenter"",""0"",""13850""
","
","null","<p></p>","null","","","","","","","","","","","","","","","","","","","","","","","",""
"","do_trial","144","544881","0.0-81.0-0.0","""event"",""trial"",""time""
""fullscreenenter"",""0"",""13850""
","
","
","""event"",""trial"",""time""
""fullscreenenter"",""0"",""13850""
","
","379.40000000596046","","","","","","","","50","0,1,0","6","blank","292","null","0.40581127310888077","0.5080838873803373","0.10670355549472832","1","","","","","","","","",""
"","html-keyboard-response","145","545893","0.0-81.0-1.0","""event"",""trial"",""time""
""fullscreenenter"",""0"",""13850""
","
","
","""event"",""trial"",""time""
""fullscreenenter"",""0"",""13850""
","
","null","<p></p>","null","","","","","","","","","","","","","","","","","","","","","","","",""
"","do_trial","146","548794","0.0-82.0-0.0","""event"",""trial"",""time""
""fullscreenenter"",""0"",""13850""
","
","
","""event"",""trial"",""time""
""fullscreenenter"",""0"",""13850""
","
","346.5","","","","","","","","50","0,1,1","6","blank","293","null","0.38837662902586856","0.6215768810987945","0.15185791792373501","1","","","","","","","","",""
"","html-keyboard-response","147","549798","0.0-82.0-1.0","""event"",""trial"",""time""
""fullscreenenter"",""0"",""13850""
","
","
","""event"",""trial"",""time""
""fullscreenenter"",""0"",""13850""
","
","null","<p></p>","null","","","","","","","","","","","","","","","","","","","","","","","",""
"","do_trial","148","552763","0.0-83.0-0.0","""event"",""trial"",""time""
""fullscreenenter"",""0"",""13850""
","
","
","""event"",""trial"",""time""
""fullscreenenter"",""0"",""13850""
","
","418.09999999403954","","","","","","","","50","1,0,0","6","blank","294","null","0.3232986401033317","0.6426503980802265","0.06727418079800063","0","","","","","","","","",""
"","html-keyboard-response","149","553777","0.0-83.0-1.0","""event"",""trial"",""time""
""fullscreenenter"",""0"",""13850""
","
","
","""event"",""trial"",""time""
""fullscreenenter"",""0"",""13850""
","
","null","<p></p>","null","","","","","","","","","","","","","","","","","","","","","","","",""
"","do_trial","150","556932","0.0-84.0-0.0","""event"",""trial"",""time""
""fullscreenenter"",""0"",""13850""
","
","
","""event"",""trial"",""time""
""fullscreenenter"",""0"",""13850""
","
","599.6999999880791","","","","","","","","50","0,1,0","6","blank","295","null","0.35037223742403517","0.7142075159963605","0.1958661687981219","1","","","","","","","","",""
"","html-keyboard-response","151","557940","0.0-84.0-1.0","""event"",""trial"",""time""
""fullscreenenter"",""0"",""13850""
","
","
","""event"",""trial"",""time""
""fullscreenenter"",""0"",""13850""
","
","null","<p></p>","null","","","","","","","","","","","","","","","","","","","","","","","",""
"","do_trial","152","560822","0.0-85.0-0.0","""event"",""trial"",""time""
""fullscreenenter"",""0"",""13850""
","
","
","""event"",""trial"",""time""
""fullscreenenter"",""0"",""13850""
","
","327.40000000596046","","","","","","","","51","0,1,0","6","blank","296","null","0.41390658903146926","0.6593773525880883","0.23806340971113787","0","","","","","","","","",""
"","html-keyboard-response","153","561833","0.0-85.0-1.0","""event"",""trial"",""time""
""fullscreenenter"",""0"",""13850""
","
","
","""event"",""trial"",""time""
""fullscreenenter"",""0"",""13850""
","
","null","<p></p>","null","","","","","","","","","","","","","","","","","","","","","","","",""
"","do_trial","154","564687","0.0-86.0-0.0","""event"",""trial"",""time""
""fullscreenenter"",""0"",""13850""
","
","
","""event"",""trial"",""time""
""fullscreenenter"",""0"",""13850""
","
","302.69999998807907","","","","","","","","51","0,0,0","6","blank","297","null","0.16200098483700986","0.5374741233563427","0.45275103242957526","0","","","","","","","","",""
"","html-keyboard-response","155","565701","0.0-86.0-1.0","""event"",""trial"",""time""
""fullscreenenter"",""0"",""13850""
","
","
","""event"",""trial"",""time""
""fullscreenenter"",""0"",""13850""
","
","null","<p></p>","null","","","","","","","","","","","","","","","","","","","","","","","",""
"","do_recog","156","568116","0.0-87.0-0.0","""event"",""trial"",""time""
""fullscreenenter"",""0"",""13850""
","
","
","""event"",""trial"",""time""
""fullscreenenter"",""0"",""13850""
","
","894","","","","","","","","53","","","","298","probe-109","","","","","1","[object Object]","74","1","1","","","",""
"","html-keyboard-response","157","569130","0.0-87.0-1.0","""event"",""trial"",""time""
""fullscreenenter"",""0"",""13850""
","
","
","""event"",""trial"",""time""
""fullscreenenter"",""0"",""13850""
","
","null","<p></p>","null","","","","","","","","","","","","","","","","","","","","","","","",""
"","do_trial","158","572078","0.0-88.0-0.0","""event"",""trial"",""time""
""fullscreenenter"",""0"",""13850""
","
","
","""event"",""trial"",""time""
""fullscreenenter"",""0"",""13850""
","
","394.59999999403954","","","","","","","","51","1,0,1","6","blank","299","null","0.35268056782006313","0.4213069629190777","0.5820820719079985","1","","","","","","","","",""
"","html-keyboard-response","159","573086","0.0-88.0-1.0","""event"",""trial"",""time""
""fullscreenenter"",""0"",""13850""
","
","
","""event"",""trial"",""time""
""fullscreenenter"",""0"",""13850""
","
","null","<p></p>","null","","","","","","","","","","","","","","","","","","","","","","","",""
"","do_trial","160","576158","0.0-89.0-0.0","""event"",""trial"",""time""
""fullscreenenter"",""0"",""13850""
","
","
","""event"",""trial"",""time""
""fullscreenenter"",""0"",""13850""
","
","530.4000000059605","","","","","","","","51","0,0,0","6","blank","300","null","0.27393712100506035","0.5049701292890243","0.6268858299615364","0","","","","","","","","",""
"","html-keyboard-response","161","577175","0.0-89.0-1.0","""event"",""trial"",""time""
""fullscreenenter"",""0"",""13850""
","
","
","""event"",""trial"",""time""
""fullscreenenter"",""0"",""13850""
","
","null","<p></p>","null","","","","","","","","","","","","","","","","","","","","","","","",""
"","do_recog","162","579668","0.0-90.0-0.0","""event"",""trial"",""time""
""fullscreenenter"",""0"",""13850""
","
","
","""event"",""trial"",""time""
""fullscreenenter"",""0"",""13850""
","
","977.3999999761581","","","","","","","","53","","","","301","probe-206","","","","","1","[object Object]","196","4","1","","","",""
"","html-keyboard-response","163","580678","0.0-90.0-1.0","""event"",""trial"",""time""
""fullscreenenter"",""0"",""13850""
","
","
","""event"",""trial"",""time""
""fullscreenenter"",""0"",""13850""
","
","null","<p></p>","null","","","","","","","","","","","","","","","","","","","","","","","",""
"","do_trial","164","583763","0.0-91.0-0.0","""event"",""trial"",""time""
""fullscreenenter"",""0"",""13850""
","
","
","""event"",""trial"",""time""
""fullscreenenter"",""0"",""13850""
","
","542.1000000238419","","","","","","","","51","0,1,1","6","blank","302","null","0.288991017825622","0.33757285564141215","0.733619279686035","1","","","","","","","","",""
"","html-keyboard-response","165","584773","0.0-91.0-1.0","""event"",""trial"",""time""
""fullscreenenter"",""0"",""13850""
","
","
","""event"",""trial"",""time""
""fullscreenenter"",""0"",""13850""
","
","null","<p></p>","null","","","","","","","","","","","","","","","","","","","","","","","",""
"","do_trial","166","587618","0.0-92.0-0.0","""event"",""trial"",""time""
""fullscreenenter"",""0"",""13850""
","
","
","""event"",""trial"",""time""
""fullscreenenter"",""0"",""13850""
","
","294.59999999403954","","","","","","","","51","1,1,1","6","blank","303","null","0.1124722758112815","0.5521045238616599","0.7080416932996402","1","","","","","","","","",""
"","html-keyboard-response","167","588623","0.0-92.0-1.0","""event"",""trial"",""time""
""fullscreenenter"",""0"",""13850""
","
","
","""event"",""trial"",""time""
""fullscreenenter"",""0"",""13850""
","
","null","<p></p>","null","","","","","","","","","","","","","","","","","","","","","","","",""
"","do_trial","168","591465","0.0-93.0-0.0","""event"",""trial"",""time""
""fullscreenenter"",""0"",""13850""
","
","
","""event"",""trial"",""time""
""fullscreenenter"",""0"",""13850""
","
","294.80000001192093","","","","","","","","51","0,1,1","6","blank","304","null","0.05720383796758606","0.4801653167451182","0.7537628270323222","1","","","","","","","","",""
"","html-keyboard-response","169","592474","0.0-93.0-1.0","""event"",""trial"",""time""
""fullscreenenter"",""0"",""13850""
","
","
","""event"",""trial"",""time""
""fullscreenenter"",""0"",""13850""
","
","null","<p></p>","null","","","","","","","","","","","","","","","","","","","","","","","",""
"","do_trial","170","595307","0.0-94.0-0.0","""event"",""trial"",""time""
""fullscreenenter"",""0"",""13850""
","
","
","""event"",""trial"",""time""
""fullscreenenter"",""0"",""13850""
","
","297.09999999403954","","","","","","","","51","0,0,1","6","blank","305","null","0.13161214851969177","0.35712383305459844","0.6855734811449304","1","","","","","","","","",""
"","html-keyboard-response","171","596319","0.0-94.0-1.0","""event"",""trial"",""time""
""fullscreenenter"",""0"",""13850""
","
","
","""event"",""trial"",""time""
""fullscreenenter"",""0"",""13850""
","
","null","<p></p>","null","","","","","","","","","","","","","","","","","","","","","","","",""
"","do_recog","172","598862","0.0-95.0-0.0","""event"",""trial"",""time""
""fullscreenenter"",""0"",""13850""
","
","
","""event"",""trial"",""time""
""fullscreenenter"",""0"",""13850""
","
","1025.5","","","","","","","","53","","","","306","probe-50","","","","","1","[object Object]","70","1","1","","","",""
"","html-keyboard-response","173","599871","0.0-95.0-1.0","""event"",""trial"",""time""
""fullscreenenter"",""0"",""13850""
","
","
","""event"",""trial"",""time""
""fullscreenenter"",""0"",""13850""
","
","null","<p></p>","null","","","","","","","","","","","","","","","","","","","","","","","",""
"","do_trial","174","602869","0.0-96.0-0.0","""event"",""trial"",""time""
""fullscreenenter"",""0"",""13850""
","
","
","""event"",""trial"",""time""
""fullscreenenter"",""0"",""13850""
","
","452.2000000178814","","","","","","","","51","0,1,1","6","blank","307","null","0.06264754294762521","0.29173149040427065","0.5694974896820427","1","","","","","","","","",""
"","html-keyboard-response","175","603885","0.0-96.0-1.0","""event"",""trial"",""time""
""fullscreenenter"",""0"",""13850""
","
","
","""event"",""trial"",""time""
""fullscreenenter"",""0"",""13850""
","
","null","<p></p>","null","","","","","","","","","","","","","","","","","","","","","","","",""
"","do_trial","176","606801","0.0-97.0-0.0","""event"",""trial"",""time""
""fullscreenenter"",""0"",""13850""
","
","
","""event"",""trial"",""time""
""fullscreenenter"",""0"",""13850""
","
","361.90000000596046","","","","","","","","51","0,0,0","6","blank","308","null","0.09731789451860365","0.4953887308663561","0.3696095184753398","0","","","","","","","","",""
"","html-keyboard-response","177","607809","0.0-97.0-1.0","""event"",""trial"",""time""
""fullscreenenter"",""0"",""13850""
","
","
","""event"",""trial"",""time""
""fullscreenenter"",""0"",""13850""
","
","null","<p></p>","null","","","","","","","","","","","","","","","","","","","","","","","",""
"","break","178","727820","0.0-98.0-0.0","""event"",""trial"",""time""
""fullscreenenter"",""0"",""13850""
","
","
","""event"",""trial"",""time""
""fullscreenenter"",""0"",""13850""
","
","null","<div class='center'><p>Time to take a quick break! You have 2 minutes to rest, but you can move on sooner if you'd like.</p><p> Press the <b>space bar</b> to continue.</p></div>","null","","","","","","","","","","","","","","","","","","","","","","","",""
"","do_trial","179","732055","0.0-98.0-1.0","""event"",""trial"",""time""
""fullscreenenter"",""0"",""13850""
","
","
","""event"",""trial"",""time""
""fullscreenenter"",""0"",""13850""
","
","1686.7999999821186","","","","","","","","49","0,1,0","6","blank","309","null","0.08741315987179692","0.22029575791175282","0.24380718411286884","0","","","","","","","","",""
"","html-keyboard-response","180","733064","0.0-98.0-2.0","""event"",""trial"",""time""
""fullscreenenter"",""0"",""13850""
","
","
","""event"",""trial"",""time""
""fullscreenenter"",""0"",""13850""
","
","null","<p></p>","null","","","","","","","","","","","","","","","","","","","","","","","",""
"","do_recog","181","736186","0.0-99.0-0.0","""event"",""trial"",""time""
""fullscreenenter"",""0"",""13850""
","
","
","""event"",""trial"",""time""
""fullscreenenter"",""0"",""13850""
","
","1612.8999999761581","","","","","","","","53","","","","310","probe-88","","","","","1","[object Object]","158","3","1","","","",""
"","html-keyboard-response","182","737192","0.0-99.0-1.0","""event"",""trial"",""time""
""fullscreenenter"",""0"",""13850""
","
","
","""event"",""trial"",""time""
""fullscreenenter"",""0"",""13850""
","
","null","<p></p>","null","","","","","","","","","","","","","","","","","","","","","","","",""
"","do_trial","183","740173","0.0-100.0-0.0","""event"",""trial"",""time""
""fullscreenenter"",""0"",""13850""
","
","
","""event"",""trial"",""time""
""fullscreenenter"",""0"",""13850""
","
","418.19999998807907","","","","","","","","49","0,1,0","6","blank","311","null","0.10198889900348684","0.3045290236001546","0.2705125454421879","0","","","","","","","","",""
"","html-keyboard-response","184","741183","0.0-100.0-1.0","""event"",""trial"",""time""
""fullscreenenter"",""0"",""13850""
","
","
","""event"",""trial"",""time""
""fullscreenenter"",""0"",""13850""
","
","null","<p></p>","null","","","","","","","","","","","","","","","","","","","","","","","",""
"","do_recog","185","744172","0.0-101.0-0.0","""event"",""trial"",""time""
""fullscreenenter"",""0"",""13850""
","
","
","""event"",""trial"",""time""
""fullscreenenter"",""0"",""13850""
","
","1470.8999999761581","","","","","","","","53","","","","312","probe-160","","","","","1","[object Object]","193","4","1","","","",""
"","html-keyboard-response","186","745190","0.0-101.0-1.0","""event"",""trial"",""time""
""fullscreenenter"",""0"",""13850""
","
","
","""event"",""trial"",""time""
""fullscreenenter"",""0"",""13850""
","
","null","<p></p>","null","","","","","","","","","","","","","","","","","","","","","","","",""
"","do_trial","187","748058","0.0-102.0-0.0","""event"",""trial"",""time""
""fullscreenenter"",""0"",""13850""
","
","
","""event"",""trial"",""time""
""fullscreenenter"",""0"",""13850""
","
","322.2999999821186","","","","","","","","49","1,0,0","6","blank","313","null","0.14558640793620567","0.20989533060165586","0.38706054076430013","1","","","","","","","","",""
"","html-keyboard-response","188","749065","0.0-102.0-1.0","""event"",""trial"",""time""
""fullscreenenter"",""0"",""13850""
","
","
","""event"",""trial"",""time""
""fullscreenenter"",""0"",""13850""
","
","null","<p></p>","null","","","","","","","","","","","","","","","","","","","","","","","",""
"","do_recog","189","751445","0.0-103.0-0.0","""event"",""trial"",""time""
""fullscreenenter"",""0"",""13850""
","
","
","""event"",""trial"",""time""
""fullscreenenter"",""0"",""13850""
","
","863.2999999821186","","","","","","","","53","","","","314","probe-177","","","","","1","[object Object]","79","1","1","","","",""
"","html-keyboard-response","190","752462","0.0-103.0-1.0","""event"",""trial"",""time""
""fullscreenenter"",""0"",""13850""
","
","
","""event"",""trial"",""time""
""fullscreenenter"",""0"",""13850""
","
","null","<p></p>","null","","","","","","","","","","","","","","","","","","","","","","","",""
"","do_trial","191","755339","0.0-104.0-0.0","""event"",""trial"",""time""
""fullscreenenter"",""0"",""13850""
","
","
","""event"",""trial"",""time""
""fullscreenenter"",""0"",""13850""
","
","325.5","","","","","","","","49","0,0,0","6","blank","315","null","0.054422009273068006","0.18580106977441838","0.366570467285076","0","","","","","","","","",""
"","html-keyboard-response","192","756345","0.0-104.0-1.0","""event"",""trial"",""time""
""fullscreenenter"",""0"",""13850""
","
","
","""event"",""trial"",""time""
""fullscreenenter"",""0"",""13850""
","
","null","<p></p>","null","","","","","","","","","","","","","","","","","","","","","","","",""
"","do_trial","193","759657","0.0-105.0-0.0","""event"",""trial"",""time""
""fullscreenenter"",""0"",""13850""
","
","
","""event"",""trial"",""time""
""fullscreenenter"",""0"",""13850""
","
","775.1999999880791","","","","","","","","49","1,0,1","6","blank","316","null","0.10204164174199004","0.3345161811744444","0.32242245448340945","1","","","","","","","","",""
"","html-keyboard-response","194","760668","0.0-105.0-1.0","""event"",""trial"",""time""
""fullscreenenter"",""0"",""13850""
","
","
","""event"",""trial"",""time""
""fullscreenenter"",""0"",""13850""
","
","null","<p></p>","null","","","","","","","","","","","","","","","","","","","","","","","",""
"","do_trial","195","763734","0.0-106.0-0.0","""event"",""trial"",""time""
""fullscreenenter"",""0"",""13850""
","
","
","""event"",""trial"",""time""
""fullscreenenter"",""0"",""13850""
","
","518","","","","","","","","49","0,0,0","6","blank","317","null","0.18499762939016545","0.2644942953016824","0.47230545347524167","0","","","","","","","","",""
"","html-keyboard-response","196","764747","0.0-106.0-1.0","""event"",""trial"",""time""
""fullscreenenter"",""0"",""13850""
","
","
","""event"",""trial"",""time""
""fullscreenenter"",""0"",""13850""
","
","null","<p></p>","null","","","","","","","","","","","","","","","","","","","","","","","",""
"","do_trial","197","767623","0.0-107.0-0.0","""event"",""trial"",""time""
""fullscreenenter"",""0"",""13850""
","
","
","""event"",""trial"",""time""
""fullscreenenter"",""0"",""13850""
","
","307.69999998807907","","","","","","","","49","0,0,1","6","blank","318","null","0.10256665699316138","0.2992666011121018","0.6783741101701205","0","","","","","","","","",""
"","html-keyboard-response","198","768640","0.0-107.0-1.0","""event"",""trial"",""time""
""fullscreenenter"",""0"",""13850""
","
","
","""event"",""trial"",""time""
""fullscreenenter"",""0"",""13850""
","
","null","<p></p>","null","","","","","","","","","","","","","","","","","","","","","","","",""
"","do_trial","199","771487","0.0-108.0-0.0","""event"",""trial"",""time""
""fullscreenenter"",""0"",""13850""
","
","
","""event"",""trial"",""time""
""fullscreenenter"",""0"",""13850""
","
","299","","","","","","","","49","0,0,0","6","blank","319","null","0.06808193681809167","0.26829130092883313","0.5624272121011632","0","","","","","","","","",""
"","html-keyboard-response","200","772494","0.0-108.0-1.0","""event"",""trial"",""time""
""fullscreenenter"",""0"",""13850""
","
","
","""event"",""trial"",""time""
""fullscreenenter"",""0"",""13850""
","
","null","<p></p>","null","","","","","","","","","","","","","","","","","","","","","","","",""
"","do_trial","201","775319","0.0-109.0-0.0","""event"",""trial"",""time""
""fullscreenenter"",""0"",""13850""
","
","
","""event"",""trial"",""time""
""fullscreenenter"",""0"",""13850""
","
","283.69999998807907","","","","","","","","49","0,0,1","6","blank","320","null","0.058897625402732565","0.356530481777605","0.5234012624654115","0","","","","","","","","",""
"","html-keyboard-response","202","776323","0.0-109.0-1.0","""event"",""trial"",""time""
""fullscreenenter"",""0"",""13850""
","
","
","""event"",""trial"",""time""
""fullscreenenter"",""0"",""13850""
","
","null","<p></p>","null","","","","","","","","","","","","","","","","","","","","","","","",""
"","do_recog","203","779479","0.0-110.0-0.0","""event"",""trial"",""time""
""fullscreenenter"",""0"",""13850""
","
","
","""event"",""trial"",""time""
""fullscreenenter"",""0"",""13850""
","
","1639.199999988079","","","","","","","","56","","","","321","probe-254","","","","","0","[object Object]","null","null","1","","","",""
"","html-keyboard-response","204","780489","0.0-110.0-1.0","""event"",""trial"",""time""
""fullscreenenter"",""0"",""13850""
","
","
","""event"",""trial"",""time""
""fullscreenenter"",""0"",""13850""
","
","null","<p></p>","null","","","","","","","","","","","","","","","","","","","","","","","",""
"","do_trial","205","783606","0.0-111.0-0.0","""event"",""trial"",""time""
""fullscreenenter"",""0"",""13850""
","
","
","""event"",""trial"",""time""
""fullscreenenter"",""0"",""13850""
","
","577.8000000119209","","","","","","","","49","0,0,0","6","blank","322","null","0.06353605501068918","0.2365335087856763","0.4744700648619371","0","","","","","","","","",""
"","html-keyboard-response","206","784610","0.0-111.0-1.0","""event"",""trial"",""time""
""fullscreenenter"",""0"",""13850""
","
","
","""event"",""trial"",""time""
""fullscreenenter"",""0"",""13850""
","
","null","<p></p>","null","","","","","","","","","","","","","","","","","","","","","","","",""
"","do_trial","207","787462","0.0-112.0-0.0","""event"",""trial"",""time""
""fullscreenenter"",""0"",""13850""
","
","
","""event"",""trial"",""time""
""fullscreenenter"",""0"",""13850""
","
","300","","","","","","","","50","0,0,0","6","blank","323","null","0.19403276310479356","0.34514903697617777","0.5133656723940844","0","","","","","","","","",""
"","html-keyboard-response","208","788477","0.0-112.0-1.0","""event"",""trial"",""time""
""fullscreenenter"",""0"",""13850""
","
","
","""event"",""trial"",""time""
""fullscreenenter"",""0"",""13850""
","
","null","<p></p>","null","","","","","","","","","","","","","","","","","","","","","","","",""
"","do_trial","209","791275","0.0-113.0-0.0","""event"",""trial"",""time""
""fullscreenenter"",""0"",""13850""
","
","
","""event"",""trial"",""time""
""fullscreenenter"",""0"",""13850""
","
","262.30000001192093","","","","","","","","50","0,0,1","6","blank","324","null","0.16481401855985897","0.3797740290533732","0.6007607663253345","0","","","","","","","","",""
"","html-keyboard-response","210","792290","0.0-113.0-1.0","""event"",""trial"",""time""
""fullscreenenter"",""0"",""13850""
","
","
","""event"",""trial"",""time""
""fullscreenenter"",""0"",""13850""
","
","null","<p></p>","null","","","","","","","","","","","","","","","","","","","","","","","",""
"","do_trial","211","795098","0.0-114.0-0.0","""event"",""trial"",""time""
""fullscreenenter"",""0"",""13850""
","
","
","""event"",""trial"",""time""
""fullscreenenter"",""0"",""13850""
","
","261.90000000596046","","","","","","","","50","0,1,1","6","blank","325","null","0.08170487623219028","0.3541306581838453","0.6609608944718659","1","","","","","","","","",""
"","html-keyboard-response","212","796106","0.0-114.0-1.0","""event"",""trial"",""time""
""fullscreenenter"",""0"",""13850""
","
","
","""event"",""trial"",""time""
""fullscreenenter"",""0"",""13850""
","
","null","<p></p>","null","","","","","","","","","","","","","","","","","","","","","","","",""
"","do_recog","213","798556","0.0-115.0-0.0","""event"",""trial"",""time""
""fullscreenenter"",""0"",""13850""
","
","
","""event"",""trial"",""time""
""fullscreenenter"",""0"",""13850""
","
","931.1999999880791","","","","","","","","53","","","","326","probe-163","","","","","1","[object Object]","112","2","1","","","",""
"","html-keyboard-response","214","799561","0.0-115.0-1.0","""event"",""trial"",""time""
""fullscreenenter"",""0"",""13850""
","
","
","""event"",""trial"",""time""
""fullscreenenter"",""0"",""13850""
","
","null","<p></p>","null","","","","","","","","","","","","","","","","","","","","","","","",""
"","do_trial","215","802422","0.0-116.0-0.0","""event"",""trial"",""time""
""fullscreenenter"",""0"",""13850""
","
","
","""event"",""trial"",""time""
""fullscreenenter"",""0"",""13850""
","
","311.90000000596046","","","","","","","","50","0,0,0","6","blank","327","null","0.08836010290422701","0.23044582992072601","0.5348039445910858","0","","","","","","","","",""
"","html-keyboard-response","216","803440","0.0-116.0-1.0","""event"",""trial"",""time""
""fullscreenenter"",""0"",""13850""
","
","
","""event"",""trial"",""time""
""fullscreenenter"",""0"",""13850""
","
","null","<p></p>","null","","","","","","","","","","","","","","","","","","","","","","","",""
"","do_trial","217","806253","0.0-117.0-0.0","""event"",""trial"",""time""
""fullscreenenter"",""0"",""13850""
","
","
","""event"",""trial"",""time""
""fullscreenenter"",""0"",""13850""
","
","270.2999999821186","","","","","","","","50","0,0,1","6","blank","328","null","0.16894166374163788","0.3648185151977503","0.6061580474580568","0","","","","","","","","",""
"","html-keyboard-response","218","807260","0.0-117.0-1.0","""event"",""trial"",""time""
""fullscreenenter"",""0"",""13850""
","
","
","""event"",""trial"",""time""
""fullscreenenter"",""0"",""13850""
","
","null","<p></p>","null","","","","","","","","","","","","","","","","","","","","","","","",""
"","do_trial","219","810068","0.0-118.0-0.0","""event"",""trial"",""time""
""fullscreenenter"",""0"",""13850""
","
","
","""event"",""trial"",""time""
""fullscreenenter"",""0"",""13850""
","
","266.7000000178814","","","","","","","","50","0,0,1","6","blank","329","null","0.07104217773467798","0.35818900624668126","0.6110959537313859","0","","","","","","","","",""
"","html-keyboard-response","220","811071","0.0-118.0-1.0","""event"",""trial"",""time""
""fullscreenenter"",""0"",""13850""
","
","
","""event"",""trial"",""time""
""fullscreenenter"",""0"",""13850""
","
","null","<p></p>","null","","","","","","","","","","","","","","","","","","","","","","","",""
"","do_recog","221","813728","0.0-119.0-0.0","""event"",""trial"",""time""
""fullscreenenter"",""0"",""13850""
","
","
","""event"",""trial"",""time""
""fullscreenenter"",""0"",""13850""
","
","1142.0999999940395","","","","","","","","56","","","","330","probe-174","","","","","1","[object Object]","153","3","0","","","",""
"","html-keyboard-response","222","814743","0.0-119.0-1.0","""event"",""trial"",""time""
""fullscreenenter"",""0"",""13850""
","
","
","""event"",""trial"",""time""
""fullscreenenter"",""0"",""13850""
","
","null","<p></p>","null","","","","","","","","","","","","","","","","","","","","","","","",""
"","do_trial","223","817652","0.0-120.0-0.0","""event"",""trial"",""time""
""fullscreenenter"",""0"",""13850""
","
","
","""event"",""trial"",""time""
""fullscreenenter"",""0"",""13850""
","
","364.40000000596046","","","","","","","","50","0,1,1","6","blank","331","null","0.08549217536292748","0.3625731402424823","0.5107337810256012","1","","","","","","","","",""
"","html-keyboard-response","224","818669","0.0-120.0-1.0","""event"",""trial"",""time""
""fullscreenenter"",""0"",""13850""
","
","
","""event"",""trial"",""time""
""fullscreenenter"",""0"",""13850""
","
","null","<p></p>","null","","","","","","","","","","","","","","","","","","","","","","","",""
"","do_trial","225","821614","0.0-121.0-0.0","""event"",""trial"",""time""
""fullscreenenter"",""0"",""13850""
","
","
","""event"",""trial"",""time""
""fullscreenenter"",""0"",""13850""
","
","389.69999998807907","","","","","","","","50","0,0,1","6","blank","332","null","0.10410574364613441","0.2112164491027761","0.5664610046583693","0","","","","","","","","",""
"","html-keyboard-response","226","822629","0.0-121.0-1.0","""event"",""trial"",""time""
""fullscreenenter"",""0"",""13850""
","
","
","""event"",""trial"",""time""
""fullscreenenter"",""0"",""13850""
","
","null","<p></p>","null","","","","","","","","","","","","","","","","","","","","","","","",""
"","do_trial","227","825472","0.0-122.0-0.0","""event"",""trial"",""time""
""fullscreenenter"",""0"",""13850""
","
","
","""event"",""trial"",""time""
""fullscreenenter"",""0"",""13850""
","
","301","","","","","","","","50","0,0,1","6","blank","333","null","0.06263740467005169","0.3122192119813282","0.675098279825045","0","","","","","","","","",""
"","html-keyboard-response","228","826484","0.0-122.0-1.0","""event"",""trial"",""time""
""fullscreenenter"",""0"",""13850""
","
","
","""event"",""trial"",""time""
""fullscreenenter"",""0"",""13850""
","
","null","<p></p>","null","","","","","","","","","","","","","","","","","","","","","","","",""
"","do_recog","229","829386","0.0-123.0-0.0","""event"",""trial"",""time""
""fullscreenenter"",""0"",""13850""
","
","
","""event"",""trial"",""time""
""fullscreenenter"",""0"",""13850""
","
","1381.800000011921","","","","","","","","55","","","","334","probe-181","","","","","1","[object Object]","197","4","0","","","",""
"","html-keyboard-response","230","830401","0.0-123.0-1.0","""event"",""trial"",""time""
""fullscreenenter"",""0"",""13850""
","
","
","""event"",""trial"",""time""
""fullscreenenter"",""0"",""13850""
","
","null","<p></p>","null","","","","","","","","","","","","","","","","","","","","","","","",""
"","do_trial","231","833490","0.0-124.0-0.0","""event"",""trial"",""time""
""fullscreenenter"",""0"",""13850""
","
","
","""event"",""trial"",""time""
""fullscreenenter"",""0"",""13850""
","
","541.4000000059605","","","","","","","","51","0,0,1","6","blank","335","null","0.11345803770060395","0.23623029245538568","0.7410296891954293","1","","","","","","","","",""
"","html-keyboard-response","232","834499","0.0-124.0-1.0","""event"",""trial"",""time""
""fullscreenenter"",""0"",""13850""
","
","
","""event"",""trial"",""time""
""fullscreenenter"",""0"",""13850""
","
","null","<p></p>","null","","","","","","","","","","","","","","","","","","","","","","","",""
"","do_recog","233","837034","0.0-125.0-0.0","""event"",""trial"",""time""
""fullscreenenter"",""0"",""13850""
","
","
","""event"",""trial"",""time""
""fullscreenenter"",""0"",""13850""
","
","1016.7999999821186","","","","","","","","53","","","","336","probe-156","","","","","1","[object Object]","36","0","1","","","",""
"","html-keyboard-response","234","838042","0.0-125.0-1.0","""event"",""trial"",""time""
""fullscreenenter"",""0"",""13850""
","
","
","""event"",""trial"",""time""
""fullscreenenter"",""0"",""13850""
","
","null","<p></p>","null","","","","","","","","","","","","","","","","","","","","","","","",""
"","do_trial","235","841047","0.0-126.0-0.0","""event"",""trial"",""time""
""fullscreenenter"",""0"",""13850""
","
","
","""event"",""trial"",""time""
""fullscreenenter"",""0"",""13850""
","
","461.30000001192093","","","","","","","","51","0,0,0","6","blank","337","null","0.17773107006070737","0.25108046896647623","0.7084361864099352","0","","","","","","","","",""
"","html-keyboard-response","236","842052","0.0-126.0-1.0","""event"",""trial"",""time""
""fullscreenenter"",""0"",""13850""
","
","
","""event"",""trial"",""time""
""fullscreenenter"",""0"",""13850""
","
","null","<p></p>","null","","","","","","","","","","","","","","","","","","","","","","","",""
"","do_recog","237","844521","0.0-127.0-0.0","""event"",""trial"",""time""
""fullscreenenter"",""0"",""13850""
","
","
","""event"",""trial"",""time""
""fullscreenenter"",""0"",""13850""
","
","954.8000000119209","","","","","","","","53","","","","338","probe-75","","","","","1","[object Object]","71","1","1","","","",""
"","html-keyboard-response","238","845532","0.0-127.0-1.0","""event"",""trial"",""time""
""fullscreenenter"",""0"",""13850""
","
","
","""event"",""trial"",""time""
""fullscreenenter"",""0"",""13850""
","
","null","<p></p>","null","","","","","","","","","","","","","","","","","","","","","","","",""
"","do_trial","239","848384","0.0-128.0-0.0","""event"",""trial"",""time""
""fullscreenenter"",""0"",""13850""
","
","
","""event"",""trial"",""time""
""fullscreenenter"",""0"",""13850""
","
","299.5","","","","","","","","51","0,0,1","6","blank","339","null","0.18228814833983017","0.2819959334568276","0.5543837863919004","1","","","","","","","","",""
"","html-keyboard-response","240","849394","0.0-128.0-1.0","""event"",""trial"",""time""
""fullscreenenter"",""0"",""13850""
","
","
","""event"",""trial"",""time""
""fullscreenenter"",""0"",""13850""
","
","null","<p></p>","null","","","","","","","","","","","","","","","","","","","","","","","",""
"","do_trial","241","852354","0.0-129.0-0.0","""event"",""trial"",""time""
""fullscreenenter"",""0"",""13850""
","
","
","""event"",""trial"",""time""
""fullscreenenter"",""0"",""13850""
","
","410.7999999821186","","","","","","","","51","0,0,0","6","blank","340","null","0.17034733705106475","0.3550169399036105","0.6494357095881528","0","","","","","","","","",""
"","html-keyboard-response","242","853372","0.0-129.0-1.0","""event"",""trial"",""time""
""fullscreenenter"",""0"",""13850""
","
","
","""event"",""trial"",""time""
""fullscreenenter"",""0"",""13850""
","
","null","<p></p>","null","","","","","","","","","","","","","","","","","","","","","","","",""
"","do_trial","243","856245","0.0-130.0-0.0","""event"",""trial"",""time""
""fullscreenenter"",""0"",""13850""
","
","
","""event"",""trial"",""time""
""fullscreenenter"",""0"",""13850""
","
","328.09999999403954","","","","","","","","51","0,1,1","6","blank","341","null","0.10879549157448029","0.5106868041120406","0.6272304168886893","1","","","","","","","","",""
"","html-keyboard-response","244","857251","0.0-130.0-1.0","""event"",""trial"",""time""
""fullscreenenter"",""0"",""13850""
","
","
","""event"",""trial"",""time""
""fullscreenenter"",""0"",""13850""
","
","null","<p></p>","null","","","","","","","","","","","","","","","","","","","","","","","",""
"","do_trial","245","860189","0.0-131.0-0.0","""event"",""trial"",""time""
""fullscreenenter"",""0"",""13850""
","
","
","""event"",""trial"",""time""
""fullscreenenter"",""0"",""13850""
","
","387.30000001192093","","","","","","","","51","0,1,1","6","blank","342","null","0.10358531762308557","0.34266462473936116","0.6568114647476277","1","","","","","","","","",""
"","html-keyboard-response","246","861202","0.0-131.0-1.0","""event"",""trial"",""time""
""fullscreenenter"",""0"",""13850""
","
","
","""event"",""trial"",""time""
""fullscreenenter"",""0"",""13850""
","
","null","<p></p>","null","","","","","","","","","","","","","","","","","","","","","","","",""
"","do_trial","247","864096","0.0-132.0-0.0","""event"",""trial"",""time""
""fullscreenenter"",""0"",""13850""
","
","
","""event"",""trial"",""time""
""fullscreenenter"",""0"",""13850""
","
","351.7999999821186","","","","","","","","51","0,1,0","6","blank","343","null","0.07675258830334995","0.38315040545181134","0.6916710720421587","0","","","","","","","","",""
"","html-keyboard-response","248","865113","0.0-132.0-1.0","""event"",""trial"",""time""
""fullscreenenter"",""0"",""13850""
","
","
","""event"",""trial"",""time""
""fullscreenenter"",""0"",""13850""
","
","null","<p></p>","null","","","","","","","","","","","","","","","","","","","","","","","",""
"","do_trial","249","867993","0.0-133.0-0.0","""event"",""trial"",""time""
""fullscreenenter"",""0"",""13850""
","
","
","""event"",""trial"",""time""
""fullscreenenter"",""0"",""13850""
","
","339.59999999403954","","","","","","","","51","0,1,0","6","blank","344","null","0.06500435003454726","0.3647358886704248","0.6594357467167759","0","","","","","","","","",""
"","html-keyboard-response","250","869007","0.0-133.0-1.0","""event"",""trial"",""time""
""fullscreenenter"",""0"",""13850""
","
","
","""event"",""trial"",""time""
""fullscreenenter"",""0"",""13850""
","
","null","<p></p>","null","","","","","","","","","","","","","","","","","","","","","","","",""
"","do_recog","251","872819","0.0-134.0-0.0","""event"",""trial"",""time""
""fullscreenenter"",""0"",""13850""
","
","
","""event"",""trial"",""time""
""fullscreenenter"",""0"",""13850""
","
","2295.5","","","","","","","","56","","","","345","probe-231","","","","","0","[object Object]","null","null","1","","","",""
"","html-keyboard-response","252","873827","0.0-134.0-1.0","""event"",""trial"",""time""
""fullscreenenter"",""0"",""13850""
","
","
","""event"",""trial"",""time""
""fullscreenenter"",""0"",""13850""
","
","null","<p></p>","null","","","","","","","","","","","","","","","","","","","","","","","",""
"","do_trial","253","876730","0.0-135.0-0.0","""event"",""trial"",""time""
""fullscreenenter"",""0"",""13850""
","
","
","""event"",""trial"",""time""
""fullscreenenter"",""0"",""13850""
","
","355.69999998807907","","","","","","","","51","0,0,0","6","blank","346","null","0.15787059402335862","0.34927679103412634","0.6112792478643292","0","","","","","","","","",""
"","html-keyboard-response","254","877736","0.0-135.0-1.0","""event"",""trial"",""time""
""fullscreenenter"",""0"",""13850""
","
","
","""event"",""trial"",""time""
""fullscreenenter"",""0"",""13850""
","
","null","<p></p>","null","","","","","","","","","","","","","","","","","","","","","","","",""
"","do_recog","255","881197","0.0-136.0-0.0","""event"",""trial"",""time""
""fullscreenenter"",""0"",""13850""
","
","
","""event"",""trial"",""time""
""fullscreenenter"",""0"",""13850""
","
","1943.4000000059605","","","","","","","","54","","","","347","probe-114","","","","","1","[object Object]","115","2","1","","","",""
"","html-keyboard-response","256","882206","0.0-136.0-1.0","""event"",""trial"",""time""
""fullscreenenter"",""0"",""13850""
","
","
","""event"",""trial"",""time""
""fullscreenenter"",""0"",""13850""
","
","null","<p></p>","null","","","","","","","","","","","","","","","","","","","","","","","",""
"","do_trial","257","885202","0.0-137.0-0.0","""event"",""trial"",""time""
""fullscreenenter"",""0"",""13850""
","
","
","""event"",""trial"",""time""
""fullscreenenter"",""0"",""13850""
","
","440.19999998807907","","","","","","","","51","0,0,1","6","blank","348","null","0.21267496999886168","0.28292880138032667","0.5255427629928816","1","","","","","","","","",""
"","html-keyboard-response","258","886216","0.0-137.0-1.0","""event"",""trial"",""time""
""fullscreenenter"",""0"",""13850""
","
","
","""event"",""trial"",""time""
""fullscreenenter"",""0"",""13850""
","
","null","<p></p>","null","","","","","","","","","","","","","","","","","","","","","","","",""
"","break","259","1006223","0.0-138.0-0.0","""event"",""trial"",""time""
""fullscreenenter"",""0"",""13850""
","
","
","""event"",""trial"",""time""
""fullscreenenter"",""0"",""13850""
","
","null","<div class='center'><p>Time to take a quick break! You have 2 minutes to rest, but you can move on sooner if you'd like.</p><p> Press the <b>space bar</b> to continue.</p></div>","null","","","","","","","","","","","","","","","","","","","","","","","",""
"","do_recog","260","1010262","0.0-138.0-1.0","""event"",""trial"",""time""
""fullscreenenter"",""0"",""13850""
","
","
","""event"",""trial"",""time""
""fullscreenenter"",""0"",""13850""
","
","2520.0999999940395","","","","","","","","53","","","","349","probe-21","","","","","1","[object Object]","195","4","1","","","",""
"","html-keyboard-response","261","1011279","0.0-138.0-2.0","""event"",""trial"",""time""
""fullscreenenter"",""0"",""13850""
","
","
","""event"",""trial"",""time""
""fullscreenenter"",""0"",""13850""
","
","null","<p></p>","null","","","","","","","","","","","","","","","","","","","","","","","",""
"","do_trial","262","1015091","0.0-139.0-0.0","""event"",""trial"",""time""
""fullscreenenter"",""0"",""13850""
","
","
","""event"",""trial"",""time""
""fullscreenenter"",""0"",""13850""
","
","1263.800000011921","","","","","","","","50","0,0,0","6","blank","350","null","0.23344485094311831","0.16128825863724686","0.3915775803570158","0","","","","","","","","",""
"","html-keyboard-response","263","1016096","0.0-139.0-1.0","""event"",""trial"",""time""
""fullscreenenter"",""0"",""13850""
","
","
","""event"",""trial"",""time""
""fullscreenenter"",""0"",""13850""
","
","null","<p></p>","null","","","","","","","","","","","","","","","","","","","","","","","",""
"","do_recog","264","1018548","0.0-140.0-0.0","""event"",""trial"",""time""
""fullscreenenter"",""0"",""13850""
","
","
","""event"",""trial"",""time""
""fullscreenenter"",""0"",""13850""
","
","939","","","","","","","","53","","","","351","probe-30","","","","","1","[object Object]","199","4","1","","","",""
"","html-keyboard-response","265","1019563","0.0-140.0-1.0","""event"",""trial"",""time""
""fullscreenenter"",""0"",""13850""
","
","
","""event"",""trial"",""time""
""fullscreenenter"",""0"",""13850""
","
","null","<p></p>","null","","","","","","","","","","","","","","","","","","","","","","","",""
"","do_trial","266","1022591","0.0-141.0-0.0","""event"",""trial"",""time""
""fullscreenenter"",""0"",""13850""
","
","
","""event"",""trial"",""time""
""fullscreenenter"",""0"",""13850""
","
","488","","","","","","","","49","0,0,1","6","blank","352","null","0.13736242304126378","0.2948246448579822","0.3423285440506307","0","","","","","","","","",""
"","html-keyboard-response","267","1023595","0.0-141.0-1.0","""event"",""trial"",""time""
""fullscreenenter"",""0"",""13850""
","
","
","""event"",""trial"",""time""
""fullscreenenter"",""0"",""13850""
","
","null","<p></p>","null","","","","","","","","","","","","","","","","","","","","","","","",""
"","do_recog","268","1027093","0.0-142.0-0.0","""event"",""trial"",""time""
""fullscreenenter"",""0"",""13850""
","
","
","""event"",""trial"",""time""
""fullscreenenter"",""0"",""13850""
","
","1975","","","","","","","","55","","","","353","probe-216","","","","","1","[object Object]","156","3","0","","","",""
"","html-keyboard-response","269","1028102","0.0-142.0-1.0","""event"",""trial"",""time""
""fullscreenenter"",""0"",""13850""
","
","
","""event"",""trial"",""time""
""fullscreenenter"",""0"",""13850""
","
","null","<p></p>","null","","","","","","","","","","","","","","","","","","","","","","","",""
"","do_trial","270","1031033","0.0-143.0-0.0","""event"",""trial"",""time""
""fullscreenenter"",""0"",""13850""
","
","
","""event"",""trial"",""time""
""fullscreenenter"",""0"",""13850""
","
","386.69999998807907","","","","","","","","51","1,1,1","6","blank","354","null","0.28084331037540566","0.30818587565228434","0.28037481611976456","1","","","","","","","","",""
"","html-keyboard-response","271","1032050","0.0-143.0-1.0","""event"",""trial"",""time""
""fullscreenenter"",""0"",""13850""
","
","
","""event"",""trial"",""time""
""fullscreenenter"",""0"",""13850""
","
","null","<p></p>","null","","","","","","","","","","","","","","","","","","","","","","","",""
"","do_trial","272","1035807","0.0-144.0-0.0","""event"",""trial"",""time""
""fullscreenenter"",""0"",""13850""
","
","
","""event"",""trial"",""time""
""fullscreenenter"",""0"",""13850""
","
","1208.9000000059605","","","","","","","","51","1,0,0","6","blank","355","null","0.3323884585342623","0.2837858789140326","0.06025342152221168","0","","","","","","","","",""
"","html-keyboard-response","273","1036814","0.0-144.0-1.0","""event"",""trial"",""time""
""fullscreenenter"",""0"",""13850""
","
","
","""event"",""trial"",""time""
""fullscreenenter"",""0"",""13850""
","
","null","<p></p>","null","","","","","","","","","","","","","","","","","","","","","","","",""
"","do_trial","274","1039867","0.0-145.0-0.0","""event"",""trial"",""time""
""fullscreenenter"",""0"",""13850""
","
","
","""event"",""trial"",""time""
""fullscreenenter"",""0"",""13850""
","
","499.69999998807907","","","","","","","","51","1,1,0","6","blank","356","null","0.4842316114504505","0.3513692299147309","0.11750736216275845","0","","","","","","","","",""
"","html-keyboard-response","275","1040882","0.0-145.0-1.0","""event"",""trial"",""time""
""fullscreenenter"",""0"",""13850""
","
","
","""event"",""trial"",""time""
""fullscreenenter"",""0"",""13850""
","
","null","<p></p>","null","","","","","","","","","","","","","","","","","","","","","","","",""
