"success","trial_type","trial_index","time_elapsed","internal_node_id","rt","stimulus","key_press","subject_id","participant_id","age","gender","prompt","response","choice_outcomes","context_n","context_img_id","trial_n","probe_img_id","pR_red","pR_white","pR_black","outcome","is_valid","image_to_show","probed_trial","probed_context","correct","probe","probed_trial_n","probed_context_n"
"true","fullscreen","0","9393","0.0-0.0","","","","","","","","","","","","","","","","","","","","","","","","","",""
"","pavlovia","1","9412","0.0-1.0","","","","","","","","","","","","","","","","","","","","","","","","","",""
"","welc_back","2","22209","0.0-2.0","null","run_exp/static/audio/clip_29_welcome_back.m4a","null","175","251","8","Male","<div class='center'><p>Welcome to day 2!</p><p> Yesterday, you were the head captain of a pirate ship. You and your fellow pirates robbed ships for their gold and traveled to six different islands .</p></div>","","","","","","","","","","","","","","","","","",""
"","html-keyboard-response","3","33746","0.0-3.0","11534.299999952316","<div class='center'><p>Welcome to day 2!</p><p> Yesterday, you were the head captain of a pirate ship. You and your fellow pirates robbed ships for their gold and traveled to six different islands .</p><p><b>[Press the space bar to continue]</b></p></div>","32","","","","","","","","","","","","","","","","","","","","","","",""
"","day_1_summary_goal","4","53688","0.0-4.0","null","run_exp/static/audio/clip_30_goal_of_game.m4a","null","","","","","<div class='center'><p>Today, like yesterday, you get to pick which pirate you want to rob the next ship.</p><p>If the pirate is successful in robbing a ship, you get gold coins that look like this: </p><p><img src='run_exp/static/images/tutorial/reward.png' height='150'></p><p> If they were not successful in robbing the ship, then you will get no gold coins and you'll see a big red x like this: </p><p><img src='run_exp/static/images/tutorial/reward_no.png' height='150'></p></div>","","","","","","","","","","","","","","","","","",""
"","html-keyboard-response","5","54286","0.0-5.0","595.8000000119209","<div class='center'><p>Today, like yesterday, you get to pick which pirate you want to rob the next ship.</p><p>If the pirate is successful in robbing a ship, you get gold coins that look like this: </p><p><img src='run_exp/static/images/tutorial/reward.png' height='150'></p><p> If they were not successful in robbing the ship, then you will get no gold coins and you'll see a big red x like this: </p><p><img src='run_exp/static/images/tutorial/reward_no.png' height='150'></p><p><b>[Press the space bar to continue]</b></p></div>","32","","","","","","","","","","","","","","","","","","","","","","",""
"","day_1_summary_pick","6","72118","0.0-6.0","null","run_exp/static/audio/clip_31_how_to_pick_a_pirate.m4a","null","","","","","<div class='center'><p>Also, just like yesterday, you will use the 1,2,3 keys on your keyboard to pick a pirate. Press '1' to choose red beard, '2' to choose white beard, and '3' to choose black beard . You only have 3 seconds to pick a pirate, so please make a choice quickly!</p></div>","","","","","","","","","","","","","","","","","",""
"","html-keyboard-response","7","73127","0.0-7.0","1008","<div class='center'><p>Also, just like yesterday, you will use the 1,2,3 keys on your keyboard to pick a pirate. Press '1' to choose red beard, '2' to choose white beard, and '3' to choose black beard . You only have 3 seconds to pick a pirate, so please make a choice quickly!</p><p><b>[Press the space bar to continue]</b></p></div>","32","","","","","","","","","","","","","","","","","","","","","","",""
"","test_phase_begin","8","106440","0.0-8.0","null","run_exp/static/audio/clip_32_final_place.m4a","null","","","","","<div class='center'><p>You’ve arrived at the final island of your journey! Unfortunately, it’s very foggy out, so you won’t be able to see it in the distance like the other islands you've visited.</p><p>You’ll still be deciding which pirate you want to rob a ship like before. However, because of the fog, you also won’t be able to see the ship.</p><p>This means you do not have to remember the ships you rob on this island.</p><p>Unlike yesterday, you won't be visiting multiple islands today. You will stay on this island for the entire game. This game will last ~30 minutes.</p></div>","","","","","","","","","","","","","","","","","",""
"","html-keyboard-response","9","109858","0.0-9.0","3416.399999976158","<div class='center'><p>You’ve arrived at the final island of your journey! Unfortunately, it’s very foggy out, so you won’t be able to see it in the distance like the other islands you've visited.</p><p>You’ll still be deciding which pirate you want to rob a ship like before. However, because of the fog, you also won’t be able to see the ship.</p><p>This means you do not have to remember the ships you rob on this island.</p><p>Unlike yesterday, you won't be visiting multiple islands today. You will stay on this island for the entire game. This game will last ~30 minutes.</p><p><b>[Press the space bar to continue]</b></p></div>","32","","","","","","","","","","","","","","","","","","","","","","",""
"","explain_probe_1","10","119289","0.0-10.0","null","run_exp/static/audio/clip_33_recognition_1.m4a","null","","","","","<div class='center'><p> Sometimes you’ll be shown a ship, and you will be asked if you saw this ship on a past island.</p><p> Here is an example of what you will see.</p><p><img src='run_exp/static/images/tutorial/example_recog_trial.png' height='500'></p></div>","","","","","","","","","","","","","","","","","",""
"","html-keyboard-response","11","121230","0.0-11.0","1939.2999999523163","<div class='center'><p> Sometimes you’ll be shown a ship, and you will be asked if you saw this ship on a past island.</p><p> Here is an example of what you will see.</p><p><img src='run_exp/static/images/tutorial/example_recog_trial.png' height='500'></p><p><b>[Press the space bar to continue]</b></p></div>","32","","","","","","","","","","","","","","","","","","","","","","",""
"","explain_probe_2","12","148090","0.0-12.0","null","run_exp/static/audio/clip_34_recognition_2.m4a","null","","","","","<div class='center'><p> You will press the 5, 6, 7, 8 keys on your keyboard to respond.</p><p>If you are very sure saw the ship, press <b>5</b> on your keyboard.</p><p> If you think you  saw it before but are not sure, then press <b>6</b>.</p><p> If you think you have <b>not</b> seen it before but are not sure, then press <b>7</b>.</p><p> If you are sure you did <b>not</b> see the ship before, then press <b>8</b>.</p><p><img src='run_exp/static/images/tutorial/example_recog_trial.png' height='500'></p></div>","","","","","","","","","","","","","","","","","",""
"","html-keyboard-response","13","149099","0.0-13.0","1007.8000000119209","<div class='center'><p> You will press the 5, 6, 7, 8 keys on your keyboard to respond.</p><p>If you are very sure saw the ship, press <b>5</b> on your keyboard.</p><p> If you think you  saw it before but are not sure, then press <b>6</b>.</p><p> If you think you have <b>not</b> seen it before but are not sure, then press <b>7</b>.</p><p> If you are sure you did <b>not</b> see the ship before, then press <b>8</b>.</p><p><img src='run_exp/static/images/tutorial/example_recog_trial.png' height='500'></p><p><b>[Press the space bar to continue]</b></p></div>","32","","","","","","","","","","","","","","","","","","","","","","",""
"","explain_outcome","14","170644","0.0-14.0","null","run_exp/static/audio/clip_35_recognition_3.m4a","null","","","","","<div class='center'><p> If you remember correctly, then you’ll get a gold coin like this: </p><p><img src='run_exp/static/images/tutorial/reward_small.png' height='200'></p><p>If you do not remember correctly, then you'll see a red x like this: </p><p><img src='run_exp/static/images/tutorial/reward_no.png' height='200'></p><p>Importantly, when you are shown a ship, take the time to remind yourself which island you saw it on. This will help you in the next part of the study.</p></div>","","","","","","","","","","","","","","","","","",""
"","html-keyboard-response","15","170848","0.0-15.0","202","<div class='center'><p> If you remember correctly, then you’ll get a gold coin like this: </p><p><img src='run_exp/static/images/tutorial/reward_small.png' height='200'></p><p>If you do not remember correctly, then you'll see a red x like this: </p><p><img src='run_exp/static/images/tutorial/reward_no.png' height='200'></p><p>Importantly, when you are shown a ship, take the time to remind yourself which island you saw it on. This will help you in the next part of the study.</p><p><b>[Press the space bar to continue]</b></p></div>","32","","","","","","","","","","","","","","","","","","","","","","",""
"","begin_test_phase","16","195382","0.0-16.0","null","run_exp/static/audio/clip_36_begin_final.m4a","null","","","","","<div class='center'><p>Let's go over the important points again. Your job is to: </p><p>1. Pick the pirate who is best at robbing ships and will bring you back gold coins. </p><p>2. Correctly remember whether or not you saw a ship before. If you did see the ship before, remind yourself on which island you saw the ship. </p></div>","","","","","","","","","","","","","","","","","",""
"","html-keyboard-response","17","196017","0.0-17.0","554.5","<div class='center'><p>Let's go over the important points again. Your job is to: </p><p>1. Pick the pirate who is best at robbing ships and will bring you back gold coins. </p><p>2. Correctly remember whether or not you saw a ship before. If you did see the ship before, remind yourself on which island you saw the ship. </p><p><b>[Press the space bar to continue]</b></p></div>","32","","","","","","","","","","","","","","","","","","","","","","",""
"","do_welcome","18","200054","0.0-18.0","null","","","","","","","","null","","","","","","","","","","","","","","","","",""
"","do_trial","19","204501","0.0-19.0-0.0","1865.0999999642372","","","","","","","","50","0,1,1","6","blank","230","null","0.0886812351246778","0.6077587766999578","0.30261689217639043","1","","","","","","","",""
"","html-keyboard-response","20","205505","0.0-19.0-1.0","null","<p></p>","null","","","","","","","","","","","","","","","","","","","","","","",""
"","do_trial","21","208493","0.0-20.0-0.0","399.80000001192093","","","","","","","","51","1,1,0","6","blank","231","null","0.22604369289253984","0.6799804064498663","0.20320750331117002","0","","","","","","","",""
"","html-keyboard-response","22","209514","0.0-20.0-1.0","null","<p></p>","null","","","","","","","","","","","","","","","","","","","","","","",""
"","do_trial","23","212399","0.0-21.0-0.0","313.0999999642372","","","","","","","","49","0,1,0","6","blank","232","null","0.23904122173325204","0.5857384875544088","0.2327380820501918","0","","","","","","","",""
"","html-keyboard-response","24","213412","0.0-21.0-1.0","null","<p></p>","null","","","","","","","","","","","","","","","","","","","","","","",""
"","do_trial","25","216290","0.0-22.0-0.0","309.10000002384186","","","","","","","","50","0,0,0","6","blank","233","null","0.27571008141235687","0.7241564385149606","0.30434043919592413","0","","","","","","","",""
"","html-keyboard-response","26","217300","0.0-22.0-1.0","null","<p></p>","null","","","","","","","","","","","","","","","","","","","","","","",""
"","do_trial","27","220164","0.0-23.0-0.0","290","","","","","","","","51","0,1,0","6","blank","234","null","0.11534034842217962","0.5072884444070446","0.35436949435311205","0","","","","","","","",""
"","html-keyboard-response","28","221169","0.0-23.0-1.0","null","<p></p>","null","","","","","","","","","","","","","","","","","","","","","","",""
"","do_trial","29","224005","0.0-24.0-0.0","275.7999999523163","","","","","","","","49","0,0,0","6","blank","235","null","0.253884895968352","0.5148930756139906","0.281773452465335","0","","","","","","","",""
"","html-keyboard-response","30","225020","0.0-24.0-1.0","null","<p></p>","null","","","","","","","","","","","","","","","","","","","","","","",""
"","do_trial","31","227854","0.0-25.0-0.0","263","","","","","","","","50","1,0,1","6","blank","236","null","0.09255862636946739","0.544851582436803","0.2765601707078619","0","","","","","","","",""
"","html-keyboard-response","32","228861","0.0-25.0-1.0","null","<p></p>","null","","","","","","","","","","","","","","","","","","","","","","",""
"","do_trial","33","231704","0.0-26.0-0.0","280","","","","","","","","50","0,1,1","6","blank","237","null","0.14573310751372126","0.5635612109354923","0.25908488143382524","1","","","","","","","",""
"","html-keyboard-response","34","232718","0.0-26.0-1.0","null","<p></p>","null","","","","","","","","","","","","","","","","","","","","","","",""
"","do_trial","35","235558","0.0-27.0-0.0","275.19999998807907","","","","","","","","50","0,0,1","6","blank","238","null","0.24751710355123763","0.4830041244817009","0.3405883442172977","0","","","","","","","",""
"","html-keyboard-response","36","236572","0.0-27.0-1.0","null","<p></p>","null","","","","","","","","","","","","","","","","","","","","","","",""
"","do_trial","37","239143","0.0-28.0-0.0","0.19999998807907104","","","","","","","","51","0,1,1","6","blank","239","null","0.14740202011563536","0.6447728271074251","0.29828244743450216","1","","","","","","","",""
"","html-keyboard-response","38","240157","0.0-28.0-1.0","null","<p></p>","null","","","","","","","","","","","","","","","","","","","","","","",""
"","do_trial","39","242860","0.0-29.0-0.0","129.5999999642372","","","","","","","","49","0,1,0","6","blank","240","null","0.2649635063624246","0.5453398835485428","0.34872546051230396","0","","","","","","","",""
"","html-keyboard-response","40","243876","0.0-29.0-1.0","null","<p></p>","null","","","","","","","","","","","","","","","","","","","","","","",""
"","do_recog","41","249890","0.0-30.0-0.0","null","","","","","","","","null","","","","241","probe-250","","","","","0","[object Object]","null","null","0","","",""
"","html-keyboard-response","42","250894","0.0-30.0-1.0","null","<p></p>","null","","","","","","","","","","","","","","","","","","","","","","",""
"","do_trial","43","255018","0.0-31.0-0.0","1552.3999999761581","","","","","","","","50","0,0,1","6","blank","242","null","0.3040393153990909","0.49380254162635845","0.15401569396012757","0","","","","","","","",""
"","html-keyboard-response","44","256021","0.0-31.0-1.0","null","<p></p>","null","","","","","","","","","","","","","","","","","","","","","","",""
"","do_recog","45","258599","0.0-32.0-0.0","1061.7000000476837","","","","","","","","53","","","","243","probe-140","","","","","1","[object Object]","160","4","1","","",""
"","html-keyboard-response","46","259615","0.0-32.0-1.0","null","<p></p>","null","","","","","","","","","","","","","","","","","","","","","","",""
"","do_trial","47","262745","0.0-33.0-0.0","569.3000000119209","","","","","","","","50","0,0,1","6","blank","244","null","0.4651524647332071","0.3490480301633439","0.19500622922781322","0","","","","","","","",""
"","html-keyboard-response","48","263761","0.0-33.0-1.0","null","<p></p>","null","","","","","","","","","","","","","","","","","","","","","","",""
"","do_recog","49","266695","0.0-34.0-0.0","1412","","","","","","","","54","","","","245","probe-190","","","","","1","[object Object]","129","3","1","","",""
"","html-keyboard-response","50","267705","0.0-34.0-1.0","null","<p></p>","null","","","","","","","","","","","","","","","","","","","","","","",""
"","do_trial","51","271161","0.0-35.0-0.0","900.8999999761581","","","","","","","","49","0,0,0","6","blank","246","null","0.45953832030098873","0.3915842672524961","0.32490800200289566","0","","","","","","","",""
"","html-keyboard-response","52","272164","0.0-35.0-1.0","null","<p></p>","null","","","","","","","","","","","","","","","","","","","","","","",""
"","do_trial","53","274986","0.0-36.0-0.0","259.30000001192093","","","","","","","","51","1,0,0","6","blank","247","null","0.5527147346071539","0.32878300905863067","0.3336485114428565","0","","","","","","","",""
"","html-keyboard-response","54","276002","0.0-36.0-1.0","null","<p></p>","null","","","","","","","","","","","","","","","","","","","","","","",""
"","do_trial","55","278775","0.0-37.0-0.0","211.5","","","","","","","","50","0,0,0","6","blank","248","null","0.729646521255643","0.2364750662611671","0.39854947592318085","0","","","","","","","",""
"","html-keyboard-response","56","279787","0.0-37.0-1.0","null","<p></p>","null","","","","","","","","","","","","","","","","","","","","","","",""
"","do_recog","57","282158","0.0-38.0-0.0","848.1000000238419","","","","","","","","53","","","","249","probe-199","","","","","1","[object Object]","41","1","1","","",""
"","html-keyboard-response","58","283173","0.0-38.0-1.0","null","<p></p>","null","","","","","","","","","","","","","","","","","","","","","","",""
"","do_trial","59","286170","0.0-39.0-0.0","427.19999998807907","","","","","","","","49","0,0,1","6","blank","250","null","0.5686861127991835","0.17111086165595832","0.31800220014526004","0","","","","","","","",""
"","html-keyboard-response","60","287184","0.0-39.0-1.0","null","<p></p>","null","","","","","","","","","","","","","","","","","","","","","","",""
"","do_recog","61","289641","0.0-40.0-0.0","946.7999999523163","","","","","","","","54","","","","251","probe-118","","","","","1","[object Object]","85","2","1","","",""
"","html-keyboard-response","62","290656","0.0-40.0-1.0","null","<p></p>","null","","","","","","","","","","","","","","","","","","","","","","",""
"","do_trial","63","293769","0.0-41.0-0.0","561.3999999761581","","","","","","","","51","1,0,0","6","blank","252","null","0.6232514540275562","0.05504202517382085","0.518551010179747","0","","","","","","","",""
"","html-keyboard-response","64","294773","0.0-41.0-1.0","null","<p></p>","null","","","","","","","","","","","","","","","","","","","","","","",""
"","do_trial","65","297664","0.0-42.0-0.0","322.5999999642372","","","","","","","","49","1,0,0","6","blank","253","null","0.5847646171363252","0.17428209652335733","0.4390751567379395","1","","","","","","","",""
"","html-keyboard-response","66","298674","0.0-42.0-1.0","null","<p></p>","null","","","","","","","","","","","","","","","","","","","","","","",""
"","do_trial","67","301503","0.0-43.0-0.0","258.89999997615814","","","","","","","","50","1,0,0","6","blank","254","null","0.6096602171033738","0.15990057547530656","0.2748206120878591","0","","","","","","","",""
"","html-keyboard-response","68","302520","0.0-43.0-1.0","null","<p></p>","null","","","","","","","","","","","","","","","","","","","","","","",""
"","do_recog","69","305266","0.0-44.0-0.0","1229.699999988079","","","","","","","","54","","","","255","probe-88","","","","","1","[object Object]","166","4","1","","",""
"","html-keyboard-response","70","306283","0.0-44.0-1.0","null","<p></p>","null","","","","","","","","","","","","","","","","","","","","","","",""
"","do_trial","71","309328","0.0-45.0-0.0","477.80000001192093","","","","","","","","49","1,0,0","6","blank","256","null","0.48731894335697606","0.14244247722192463","0.22389348458390715","1","","","","","","","",""
"","html-keyboard-response","72","310338","0.0-45.0-1.0","null","<p></p>","null","","","","","","","","","","","","","","","","","","","","","","",""
"","do_trial","73","313515","0.0-46.0-0.0","607","","","","","","","","50","0,0,0","6","blank","257","null","0.5950983292428974","0.2394416495931878","0.23925478545227358","0","","","","","","","",""
"","html-keyboard-response","74","314521","0.0-46.0-1.0","null","<p></p>","null","","","","","","","","","","","","","","","","","","","","","","",""
"","do_recog","75","317335","0.0-47.0-0.0","1293.199999988079","","","","","","","","54","","","","258","probe-188","","","","","1","[object Object]","87","2","1","","",""
"","html-keyboard-response","76","318340","0.0-47.0-1.0","null","<p></p>","null","","","","","","","","","","","","","","","","","","","","","","",""
"","do_trial","77","321554","0.0-48.0-0.0","638.1000000238419","","","","","","","","49","1,0,0","6","blank","259","null","0.6215815872217794","0.2200076953613472","0.35772242177530217","1","","","","","","","",""
"","html-keyboard-response","78","322567","0.0-48.0-1.0","null","<p></p>","null","","","","","","","","","","","","","","","","","","","","","","",""
"","do_recog","79","325223","0.0-49.0-0.0","1147.6000000238419","","","","","","","","54","","","","260","probe-171","","","","","1","[object Object]","42","1","1","","",""
"","html-keyboard-response","80","326240","0.0-49.0-1.0","null","<p></p>","null","","","","","","","","","","","","","","","","","","","","","","",""
"","do_trial","81","329452","0.0-50.0-0.0","640","","","","","","","","49","1,0,1","6","blank","261","null","0.5858570322156915","0.0769194289631116","0.4712016460003659","1","","","","","","","",""
"","html-keyboard-response","82","330455","0.0-50.0-1.0","null","<p></p>","null","","","","","","","","","","","","","","","","","","","","","","",""
"","do_trial","83","333309","0.0-51.0-0.0","288.80000001192093","","","","","","","","51","1,0,1","6","blank","262","null","0.463309052719368","0.082821446462005","0.3949627483891686","1","","","","","","","",""
"","html-keyboard-response","84","334325","0.0-51.0-1.0","null","<p></p>","null","","","","","","","","","","","","","","","","","","","","","","",""
"","do_trial","85","337165","0.0-52.0-0.0","267.7999999523163","","","","","","","","50","0,1,1","6","blank","263","null","0.4381923620973383","0.1916139657562185","0.38758071281759465","1","","","","","","","",""
"","html-keyboard-response","86","338168","0.0-52.0-1.0","null","<p></p>","null","","","","","","","","","","","","","","","","","","","","","","",""
"","do_trial","87","341149","0.0-53.0-0.0","424.60000002384186","","","","","","","","51","1,0,0","6","blank","264","null","0.44514372145285047","0.31234262013726755","0.34042522095438826","0","","","","","","","",""
"","html-keyboard-response","88","342152","0.0-53.0-1.0","null","<p></p>","null","","","","","","","","","","","","","","","","","","","","","","",""
"","do_trial","89","344998","0.0-54.0-0.0","284","","","","","","","","49","0,0,0","6","blank","265","null","0.4725027180496847","0.24107953468661497","0.35068424298601847","0","","","","","","","",""
"","html-keyboard-response","90","346015","0.0-54.0-1.0","null","<p></p>","null","","","","","","","","","","","","","","","","","","","","","","",""
"","do_recog","91","348316","0.0-55.0-0.0","791.6000000238419","","","","","","","","54","","","","266","probe-120","","","","","1","[object Object]","208","5","1","","",""
"","html-keyboard-response","92","349321","0.0-55.0-1.0","null","<p></p>","null","","","","","","","","","","","","","","","","","","","","","","",""
"","do_trial","93","352203","0.0-56.0-0.0","311.19999998807907","","","","","","","","50","1,1,0","6","blank","267","null","0.49259811934807335","0.3085847921141916","0.2736161289382292","1","","","","","","","",""
"","html-keyboard-response","94","353220","0.0-56.0-1.0","null","<p></p>","null","","","","","","","","","","","","","","","","","","","","","","",""
"","break","95","372518","0.0-57.0-0.0","19296.899999976158","<div class='center'><p>Time to take a quick break! You have 2 minutes to rest, but you can move on sooner if you'd like.</p><p> Press the <b>space bar</b> to continue.</p></div>","32","","","","","","","","","","","","","","","","","","","","","","",""
"","do_recog","96","375072","0.0-57.0-1.0","1035.9000000357628","","","","","","","","54","","","","268","probe-174","","","","","1","[object Object]","86","2","1","","",""
"","html-keyboard-response","97","376085","0.0-57.0-2.0","null","<p></p>","null","","","","","","","","","","","","","","","","","","","","","","",""
"","do_trial","98","379142","0.0-58.0-0.0","498.30000001192093","","","","","","","","51","1,1,1","6","blank","269","null","0.6754384087602047","0.3000541662120108","0.30728586564204174","1","","","","","","","",""
"","html-keyboard-response","99","380153","0.0-58.0-1.0","null","<p></p>","null","","","","","","","","","","","","","","","","","","","","","","",""
"","do_trial","100","382979","0.0-59.0-0.0","258.19999998807907","","","","","","","","50","1,1,0","6","blank","270","null","0.7242544622341383","0.12362568530797736","0.22327273473553397","1","","","","","","","",""
"","html-keyboard-response","101","383996","0.0-59.0-1.0","null","<p></p>","null","","","","","","","","","","","","","","","","","","","","","","",""
"","do_trial","102","386777","0.0-60.0-0.0","218.10000002384186","","","","","","","","49","1,0,0","6","blank","271","null","0.7751534758721482","0.07857141286358708","0.3854540496922877","1","","","","","","","",""
"","html-keyboard-response","103","387793","0.0-60.0-1.0","null","<p></p>","null","","","","","","","","","","","","","","","","","","","","","","",""
"","do_trial","104","390596","0.0-61.0-0.0","255.5","","","","","","","","50","1,0,0","6","blank","272","null","0.6125986292499846","0.1013649632224912","0.44916853347251917","0","","","","","","","",""
"","html-keyboard-response","105","391603","0.0-61.0-1.0","null","<p></p>","null","","","","","","","","","","","","","","","","","","","","","","",""
"","do_trial","106","394497","0.0-62.0-0.0","319.4000000357628","","","","","","","","51","1,0,1","6","blank","273","null","0.5211021400101339","0.1921479943865254","0.3727742261781124","1","","","","","","","",""
"","html-keyboard-response","107","395514","0.0-62.0-1.0","null","<p></p>","null","","","","","","","","","","","","","","","","","","","","","","",""
"","do_trial","108","398443","0.0-63.0-0.0","370.7999999523163","","","","","","","","49","0,0,0","6","blank","274","null","0.5306989466413407","0.07908280213135345","0.3288630389220335","0","","","","","","","",""
"","html-keyboard-response","109","399450","0.0-63.0-1.0","null","<p></p>","null","","","","","","","","","","","","","","","","","","","","","","",""
"","do_recog","110","401596","0.0-64.0-0.0","623.3999999761581","","","","","","","","54","","","","275","probe-244","","","","","0","[object Object]","null","null","0","","",""
"","html-keyboard-response","111","402610","0.0-64.0-1.0","null","<p></p>","null","","","","","","","","","","","","","","","","","","","","","","",""
"","do_trial","112","405453","0.0-65.0-0.0","275.5","","","","","","","","50","0,0,0","6","blank","276","null","0.5919271192313689","0.18250336456780106","0.2408023897221242","0","","","","","","","",""
"","html-keyboard-response","113","406455","0.0-65.0-1.0","null","<p></p>","null","","","","","","","","","","","","","","","","","","","","","","",""
"","do_trial","114","409346","0.0-66.0-0.0","329","","","","","","","","51","1,0,0","6","blank","277","null","0.6650863823402604","0.1650741058963631","0.19935135320051417","0","","","","","","","",""
"","html-keyboard-response","115","410357","0.0-66.0-1.0","null","<p></p>","null","","","","","","","","","","","","","","","","","","","","","","",""
"","do_trial","116","413160","0.0-67.0-0.0","234.89999997615814","","","","","","","","49","1,0,1","6","blank","278","null","0.6183226279906024","0.19016618566191804","0.22385039534828785","1","","","","","","","",""
"","html-keyboard-response","117","414167","0.0-67.0-1.0","null","<p></p>","null","","","","","","","","","","","","","","","","","","","","","","",""
"","do_trial","118","416939","0.0-68.0-0.0","205.39999997615814","","","","","","","","51","0,0,0","6","blank","279","null","0.5388840887837955","0.09898345814471915","0.27289693540700727","0","","","","","","","",""
"","html-keyboard-response","119","417952","0.0-68.0-1.0","null","<p></p>","null","","","","","","","","","","","","","","","","","","","","","","",""
"","do_trial","120","420836","0.0-69.0-0.0","318.69999998807907","","","","","","","","50","0,0,0","6","blank","280","null","0.6641227850407982","0.09734676433202319","0.1735051405644625","0","","","","","","","",""
"","html-keyboard-response","121","421847","0.0-69.0-1.0","null","<p></p>","null","","","","","","","","","","","","","","","","","","","","","","",""
"","do_recog","122","424355","0.0-70.0-0.0","991.1000000238419","","","","","","","","54","","","","281","probe-187","","","","","1","[object Object]","80","2","1","","",""
"","html-keyboard-response","123","425362","0.0-70.0-1.0","null","<p></p>","null","","","","","","","","","","","","","","","","","","","","","","",""
"","do_trial","124","428267","0.0-71.0-0.0","331.80000001192093","","","","","","","","50","1,0,1","6","blank","282","null","0.7782478654455028","0.12979849050067352","0.29732107658589796","0","","","","","","","",""
"","html-keyboard-response","125","429284","0.0-71.0-1.0","null","<p></p>","null","","","","","","","","","","","","","","","","","","","","","","",""
"","do_trial","126","432140","0.0-72.0-0.0","276.5","","","","","","","","49","0,0,0","6","blank","283","null","0.7258699323331745","0.13691114175651745","0.1989468708418875","0","","","","","","","",""
"","html-keyboard-response","127","433143","0.0-72.0-1.0","null","<p></p>","null","","","","","","","","","","","","","","","","","","","","","","",""
"","do_trial","128","436301","0.0-73.0-0.0","586.9000000357628","","","","","","","","51","0,0,0","6","blank","284","null","0.5859509495268227","0.10083748436392348","0.27198028819420933","0","","","","","","","",""
"","html-keyboard-response","129","437319","0.0-73.0-1.0","null","<p></p>","null","","","","","","","","","","","","","","","","","","","","","","",""
"","do_trial","130","440365","0.0-74.0-0.0","471.0999999642372","","","","","","","","49","1,0,0","6","blank","285","null","0.5007454484771501","0.11846196037315515","0.22247490304409767","1","","","","","","","",""
"","html-keyboard-response","131","441380","0.0-74.0-1.0","null","<p></p>","null","","","","","","","","","","","","","","","","","","","","","","",""
"","do_trial","132","444387","0.0-75.0-0.0","444.30000001192093","","","","","","","","50","1,0,0","6","blank","286","null","0.5304594072111355","0.11115547927990843","0.22923537916749215","0","","","","","","","",""
"","html-keyboard-response","133","445404","0.0-75.0-1.0","null","<p></p>","null","","","","","","","","","","","","","","","","","","","","","","",""
"","do_recog","134","448043","0.0-76.0-0.0","1127.199999988079","","","","","","","","54","","","","287","probe-236","","","","","0","[object Object]","null","null","0","","",""
"","html-keyboard-response","135","449056","0.0-76.0-1.0","null","<p></p>","null","","","","","","","","","","","","","","","","","","","","","","",""
"","do_trial","136","452322","0.0-77.0-0.0","691.8999999761581","","","","","","","","50","1,0,1","6","blank","288","null","0.6312988087230705","0.06763664990095639","0.32522974435700747","0","","","","","","","",""
"","html-keyboard-response","137","453324","0.0-77.0-1.0","null","<p></p>","null","","","","","","","","","","","","","","","","","","","","","","",""
"","do_trial","138","456153","0.0-78.0-0.0","251.69999998807907","","","","","","","","49","1,1,0","6","blank","289","null","0.5883530913735286","0.17477859518598302","0.17681330853823268","1","","","","","","","",""
"","html-keyboard-response","139","457158","0.0-78.0-1.0","null","<p></p>","null","","","","","","","","","","","","","","","","","","","","","","",""
"","do_trial","140","460035","0.0-79.0-0.0","320","","","","","","","","51","1,0,0","6","blank","290","null","0.6236896766331512","0.17619487938494072","0.3401306087547629","0","","","","","","","",""
"","html-keyboard-response","141","461044","0.0-79.0-1.0","null","<p></p>","null","","","","","","","","","","","","","","","","","","","","","","",""
"","do_trial","142","464001","0.0-80.0-0.0","391.89999997615814","","","","","","","","50","0,0,0","6","blank","291","null","0.6715053856058111","0.10964249391851393","0.3979773262790281","0","","","","","","","",""
"","html-keyboard-response","143","465013","0.0-80.0-1.0","null","<p></p>","null","","","","","","","","","","","","","","","","","","","","","","",""
"","do_trial","144","468258","0.0-81.0-0.0","672.3000000119209","","","","","","","","49","1,0,1","6","blank","292","null","0.5693967035959113","0.08261719898457724","0.5721395546719407","1","","","","","","","",""
"","html-keyboard-response","145","469268","0.0-81.0-1.0","null","<p></p>","null","","","","","","","","","","","","","","","","","","","","","","",""
"","do_recog","146","472030","0.0-82.0-0.0","1249.1000000238419","","","","","","","","54","","","","293","probe-06","","","","","1","[object Object]","47","1","1","","",""
"","html-keyboard-response","147","473033","0.0-82.0-1.0","null","<p></p>","null","","","","","","","","","","","","","","","","","","","","","","",""
"","do_trial","148","476198","0.0-83.0-0.0","607.6999999880791","","","","","","","","49","0,0,0","6","blank","294","null","0.44214075388435","0.1175739487410668","0.4314328402103156","0","","","","","","","",""
"","html-keyboard-response","149","477208","0.0-83.0-1.0","null","<p></p>","null","","","","","","","","","","","","","","","","","","","","","","",""
"","do_trial","150","479977","0.0-84.0-0.0","208.89999997615814","","","","","","","","51","1,1,1","6","blank","295","null","0.40092916700478126","0.2260906658134399","0.4448324561545623","1","","","","","","","",""
"","html-keyboard-response","151","480986","0.0-84.0-1.0","null","<p></p>","null","","","","","","","","","","","","","","","","","","","","","","",""
"","do_trial","152","483787","0.0-85.0-0.0","240.89999997615814","","","","","","","","50","0,0,0","6","blank","296","null","0.39208181892933963","0.18639681819377957","0.5978445689523808","0","","","","","","","",""
"","html-keyboard-response","153","484795","0.0-85.0-1.0","null","<p></p>","null","","","","","","","","","","","","","","","","","","","","","","",""
"","do_recog","154","487215","0.0-86.0-0.0","904.1999999880791","","","","","","","","53","","","","297","probe-45","","","","","1","[object Object]","124","3","1","","",""
"","html-keyboard-response","155","488224","0.0-86.0-1.0","null","<p></p>","null","","","","","","","","","","","","","","","","","","","","","","",""
"","do_trial","156","491297","0.0-87.0-0.0","506","","","","","","","","49","1,0,1","6","blank","298","null","0.3950374582600738","0.21021006506924741","0.49420627846973775","1","","","","","","","",""
"","html-keyboard-response","157","492312","0.0-87.0-1.0","null","<p></p>","null","","","","","","","","","","","","","","","","","","","","","","",""
"","do_recog","158","495240","0.0-88.0-0.0","1415.5","","","","","","","","54","","","","299","probe-86","","","","","1","[object Object]","205","5","1","","",""
"","html-keyboard-response","159","496256","0.0-88.0-1.0","null","<p></p>","null","","","","","","","","","","","","","","","","","","","","","","",""
"","do_trial","160","498979","0.0-89.0-0.0","163.19999998807907","","","","","","","","49","0,0,0","6","blank","300","null","0.2971190017288935","0.24110727707763574","0.6002951632818286","0","","","","","","","",""
"","html-keyboard-response","161","499994","0.0-89.0-1.0","null","<p></p>","null","","","","","","","","","","","","","","","","","","","","","","",""
"","do_trial","162","503011","0.0-90.0-0.0","456.60000002384186","","","","","","","","51","0,0,0","6","blank","301","null","0.3802048069289506","0.061668013037635847","0.4858038177694273","0","","","","","","","",""
"","html-keyboard-response","163","504019","0.0-90.0-1.0","null","<p></p>","null","","","","","","","","","","","","","","","","","","","","","","",""
"","do_trial","164","506673","0.0-91.0-0.0","91.69999998807907","","","","","","","","50","1,0,1","6","blank","302","null","0.4457185255275236","0.07936461354628116","0.5620928632670866","0","","","","","","","",""
"","html-keyboard-response","165","507689","0.0-91.0-1.0","null","<p></p>","null","","","","","","","","","","","","","","","","","","","","","","",""
"","do_trial","166","510704","0.0-92.0-0.0","446.5","","","","","","","","50","0,0,1","6","blank","303","null","0.33522657729521027","0.09205384234860278","0.4694256529962856","0","","","","","","","",""
"","html-keyboard-response","167","511708","0.0-92.0-1.0","null","<p></p>","null","","","","","","","","","","","","","","","","","","","","","","",""
"","do_recog","168","514233","0.0-93.0-0.0","1017.4000000357628","","","","","","","","54","","","","304","probe-141","","","","","1","[object Object]","45","1","1","","",""
"","html-keyboard-response","169","515246","0.0-93.0-1.0","null","<p></p>","null","","","","","","","","","","","","","","","","","","","","","","",""
"","do_trial","170","518663","0.0-94.0-0.0","844","","","","","","","","49","0,0,1","6","blank","305","null","0.45027192661200877","0.07519217319545217","0.6332117031693858","0","","","","","","","",""
"","html-keyboard-response","171","519668","0.0-94.0-1.0","null","<p></p>","null","","","","","","","","","","","","","","","","","","","","","","",""
"","do_trial","172","522790","0.0-95.0-0.0","551.1000000238419","","","","","","","","51","0,0,1","6","blank","306","null","0.45799220854515005","0.05866140519154438","0.6699791789538797","1","","","","","","","",""
"","html-keyboard-response","173","523805","0.0-95.0-1.0","null","<p></p>","null","","","","","","","","","","","","","","","","","","","","","","",""
"","do_trial","174","526538","0.0-96.0-0.0","164.0999999642372","","","","","","","","50","0,0,1","6","blank","307","null","0.32146242996970054","0.09419129714726662","0.6733265495058268","0","","","","","","","",""
"","html-keyboard-response","175","527545","0.0-96.0-1.0","null","<p></p>","null","","","","","","","","","","","","","","","","","","","","","","",""
"","break","176","544092","0.0-96.0-2.0","16546.5","<div class='center'><p>Time to take a quick break! You have 2 minutes to rest, but you can move on sooner if you'd like.</p><p> Press the <b>space bar</b> to continue.</p></div>","32","","","","","","","","","","","","","","","","","","","","","","",""
"","do_trial","177","547419","0.0-96.0-3.0","759.6000000238419","","","","","","","","50","0,0,1","6","blank","308","null","0.13172107868450636","0.1504716291944105","0.6107132000235983","0","","","","","","","",""
"","html-keyboard-response","178","548434","0.0-96.0-4.0","null","<p></p>","null","","","","","","","","","","","","","","","","","","","","","","",""
"","do_recog","179","551025","0.0-97.0-0.0","1073","","","","","","","","54","","","","309","probe-85","","","","","1","[object Object]","203","5","1","","",""
"","html-keyboard-response","180","552029","0.0-97.0-1.0","null","<p></p>","null","","","","","","","","","","","","","","","","","","","","","","",""
"","do_trial","181","554960","0.0-98.0-0.0","364.5","","","","","","","","49","0,1,1","6","blank","310","null","0.18590924384223403","0.19608919664513857","0.6420231891217973","0","","","","","","","",""
"","html-keyboard-response","182","555972","0.0-98.0-1.0","null","<p></p>","null","","","","","","","","","","","","","","","","","","","","","","",""
"","do_trial","183","558898","0.0-99.0-0.0","358.39999997615814","","","","","","","","51","0,0,0","6","blank","311","null","0.19587715569496303","0.22645568613391184","0.5882680686928484","0","","","","","","","",""
"","html-keyboard-response","184","559900","0.0-99.0-1.0","null","<p></p>","null","","","","","","","","","","","","","","","","","","","","","","",""
"","do_trial","185","562759","0.0-100.0-0.0","293.7999999523163","","","","","","","","50","0,0,1","6","blank","312","null","0.21999170274612506","0.11750303500070153","0.6232383164617813","0","","","","","","","",""
"","html-keyboard-response","186","563776","0.0-100.0-1.0","null","<p></p>","null","","","","","","","","","","","","","","","","","","","","","","",""
"","do_trial","187","566620","0.0-101.0-0.0","283.5","","","","","","","","49","1,0,1","6","blank","313","null","0.20093707381151013","0.08744754730021928","0.6774743790070583","1","","","","","","","",""
"","html-keyboard-response","188","567626","0.0-101.0-1.0","null","<p></p>","null","","","","","","","","","","","","","","","","","","","","","","",""
"","do_trial","189","570518","0.0-102.0-0.0","326.39999997615814","","","","","","","","51","1,0,0","6","blank","314","null","0.28392480340368587","0.06738564250147451","0.5919558885206813","0","","","","","","","",""
"","html-keyboard-response","190","571520","0.0-102.0-1.0","null","<p></p>","null","","","","","","","","","","","","","","","","","","","","","","",""
"","do_recog","191","573962","0.0-103.0-0.0","920.8000000119209","","","","","","","","53","","","","315","probe-70","","","","","1","[object Object]","126","3","1","","",""
"","html-keyboard-response","192","574968","0.0-103.0-1.0","null","<p></p>","null","","","","","","","","","","","","","","","","","","","","","","",""
"","do_trial","193","578043","0.0-104.0-0.0","511.4000000357628","","","","","","","","50","0,0,0","6","blank","316","null","0.45956724040630675","0.1357741252144596","0.5766564093395351","0","","","","","","","",""
"","html-keyboard-response","194","579061","0.0-104.0-1.0","null","<p></p>","null","","","","","","","","","","","","","","","","","","","","","","",""
"","do_trial","195","582055","0.0-105.0-0.0","424.89999997615814","","","","","","","","51","0,1,1","6","blank","317","null","0.19884484712154138","0.23162388004138315","0.6271859108199871","1","","","","","","","",""
"","html-keyboard-response","196","583071","0.0-105.0-1.0","null","<p></p>","null","","","","","","","","","","","","","","","","","","","","","","",""
"","do_trial","197","586220","0.0-106.0-0.0","581.7999999523163","","","","","","","","49","0,0,1","6","blank","318","null","0.3558217378564643","0.22671525771884665","0.7692354335851481","0","","","","","","","",""
"","html-keyboard-response","198","587229","0.0-106.0-1.0","null","<p></p>","null","","","","","","","","","","","","","","","","","","","","","","",""
"","do_trial","199","590150","0.0-107.0-0.0","349.0999999642372","","","","","","","","51","0,0,1","6","blank","319","null","0.3961846384160003","0.05334975973412849","0.5664668914607237","1","","","","","","","",""
"","html-keyboard-response","200","591167","0.0-107.0-1.0","null","<p></p>","null","","","","","","","","","","","","","","","","","","","","","","",""
"","do_trial","201","594062","0.0-108.0-0.0","321.39999997615814","","","","","","","","50","0,0,1","6","blank","320","null","0.3867356730746758","0.10829435501507187","0.6020121733481928","0","","","","","","","",""
"","html-keyboard-response","202","595077","0.0-108.0-1.0","null","<p></p>","null","","","","","","","","","","","","","","","","","","","","","","",""
"","do_recog","203","597654","0.0-109.0-0.0","1056.300000011921","","","","","","","","53","","","","321","probe-92","","","","","1","[object Object]","49","1","1","","",""
"","html-keyboard-response","204","598658","0.0-109.0-1.0","null","<p></p>","null","","","","","","","","","","","","","","","","","","","","","","",""
"","do_trial","205","601770","0.0-110.0-0.0","534.0999999642372","","","","","","","","50","1,0,1","6","blank","322","null","0.3651316390646088","0.1132910180798493","0.5872323590828378","0","","","","","","","",""
"","html-keyboard-response","206","602788","0.0-110.0-1.0","null","<p></p>","null","","","","","","","","","","","","","","","","","","","","","","",""
"","do_recog","207","605150","0.0-111.0-0.0","840.6999999880791","","","","","","","","54","","","","323","probe-105","","","","","1","[object Object]","164","4","1","","",""
"","html-keyboard-response","208","606164","0.0-111.0-1.0","null","<p></p>","null","","","","","","","","","","","","","","","","","","","","","","",""
"","do_trial","209","609346","0.0-112.0-0.0","609.6000000238419","","","","","","","","49","0,0,1","6","blank","324","null","0.3336084780815894","0.09636127779590618","0.5063884311085087","0","","","","","","","",""
"","html-keyboard-response","210","610358","0.0-112.0-1.0","null","<p></p>","null","","","","","","","","","","","","","","","","","","","","","","",""
"","do_recog","211","613228","0.0-113.0-0.0","1349","","","","","","","","53","","","","325","probe-155","","","","","1","[object Object]","83","2","1","","",""
"","html-keyboard-response","212","614245","0.0-113.0-1.0","null","<p></p>","null","","","","","","","","","","","","","","","","","","","","","","",""
"","do_trial","213","617641","0.0-114.0-0.0","844","","","","","","","","49","1,1,1","6","blank","326","null","0.31725007667752336","0.08195521189690512","0.5838751440388094","1","","","","","","","",""
"","html-keyboard-response","214","618644","0.0-114.0-1.0","null","<p></p>","null","","","","","","","","","","","","","","","","","","","","","","",""
"","do_trial","215","621703","0.0-115.0-0.0","480.69999998807907","","","","","","","","51","0,0,0","6","blank","327","null","0.4832425131804658","0.09150815492206661","0.4438379784872982","0","","","","","","","",""
"","html-keyboard-response","216","622719","0.0-115.0-1.0","null","<p></p>","null","","","","","","","","","","","","","","","","","","","","","","",""
"","do_recog","217","628731","0.0-116.0-0.0","null","","","","","","","","null","","","","328","probe-100","","","","","1","[object Object]","120","3","0","","",""
"","html-keyboard-response","218","629748","0.0-116.0-1.0","null","<p></p>","null","","","","","","","","","","","","","","","","","","","","","","",""
"","do_trial","219","632680","0.0-117.0-0.0","368.30000001192093","","","","","","","","50","0,0,1","6","blank","329","null","0.43583292065599977","0.13903340198414246","0.6204021653270084","0","","","","","","","",""
"","html-keyboard-response","220","633686","0.0-117.0-1.0","null","<p></p>","null","","","","","","","","","","","","","","","","","","","","","","",""
"","do_trial","221","636625","0.0-118.0-0.0","364.4000000357628","","","","","","","","51","0,0,0","6","blank","330","null","0.2662487579981736","0.09499676642202488","0.6947761901403517","0","","","","","","","",""
"","html-keyboard-response","222","637634","0.0-118.0-1.0","null","<p></p>","null","","","","","","","","","","","","","","","","","","","","","","",""
"","do_trial","223","640515","0.0-119.0-0.0","306.0999999642372","","","","","","","","49","1,0,1","6","blank","331","null","0.3446642639308384","0.12443610052585977","0.6532443382775904","1","","","","","","","",""
"","html-keyboard-response","224","641530","0.0-119.0-1.0","null","<p></p>","null","","","","","","","","","","","","","","","","","","","","","","",""
"","do_trial","225","644147","0.0-120.0-0.0","57.299999952316284","","","","","","","","49","1,0,1","6","blank","332","null","0.3125453384535463","0.17314520344259562","0.6455744873280151","1","","","","","","","",""
"","html-keyboard-response","226","645154","0.0-120.0-1.0","null","<p></p>","null","","","","","","","","","","","","","","","","","","","","","","",""
"","do_trial","227","647714","0.0-121.0-0.0","0.19999998807907104","","","","","","","","49","1,0,1","6","blank","333","null","0.36518899990529996","0.06491124621749482","0.7729730364055329","1","","","","","","","",""
"","html-keyboard-response","228","648724","0.0-121.0-1.0","null","<p></p>","null","","","","","","","","","","","","","","","","","","","","","","",""
"","do_trial","229","651288","0.0-122.0-0.0","0.30000001192092896","","","","","","","","49","0,0,1","6","blank","334","null","0.31804955789366285","0.05739318793871208","0.6485846722712855","0","","","","","","","",""
"","html-keyboard-response","230","652298","0.0-122.0-1.0","null","<p></p>","null","","","","","","","","","","","","","","","","","","","","","","",""
"","do_trial","231","655629","0.0-123.0-0.0","764.6999999880791","","","","","","","","50","0,0,0","6","blank","335","null","0.1443796641215291","0.06283733559439918","0.6284320132912136","0","","","","","","","",""
"","html-keyboard-response","232","656638","0.0-123.0-1.0","null","<p></p>","null","","","","","","","","","","","","","","","","","","","","","","",""
"","do_recog","233","659046","0.0-124.0-0.0","895.4000000357628","","","","","","","","54","","","","336","probe-40","","","","","1","[object Object]","128","3","1","","",""
"","html-keyboard-response","234","660063","0.0-124.0-1.0","null","<p></p>","null","","","","","","","","","","","","","","","","","","","","","","",""
"","do_trial","235","662933","0.0-125.0-0.0","301.30000001192093","","","","","","","","50","1,0,0","6","blank","337","null","0.13472628692368205","0.16982523572658909","0.6200534562158156","0","","","","","","","",""
"","html-keyboard-response","236","663948","0.0-125.0-1.0","null","<p></p>","null","","","","","","","","","","","","","","","","","","","","","","",""
"","do_recog","237","666384","0.0-126.0-0.0","922.8999999761581","","","","","","","","54","","","","338","probe-151","","","","","1","[object Object]","81","2","1","","",""
"","html-keyboard-response","238","667401","0.0-126.0-1.0","null","<p></p>","null","","","","","","","","","","","","","","","","","","","","","","",""
"","do_trial","239","670604","0.0-127.0-0.0","623.5","","","","","","","","49","0,0,1","6","blank","339","null","0.20196456971039184","0.27345762962933756","0.6012615984700937","0","","","","","","","",""
"","html-keyboard-response","240","671620","0.0-127.0-1.0","null","<p></p>","null","","","","","","","","","","","","","","","","","","","","","","",""
"","do_recog","241","673826","0.0-128.0-0.0","684.8000000119209","","","","","","","","54","","","","340","probe-58","","","","","1","[object Object]","125","3","1","","",""
"","html-keyboard-response","242","674840","0.0-128.0-1.0","null","<p></p>","null","","","","","","","","","","","","","","","","","","","","","","",""
"","do_trial","243","677912","0.0-129.0-0.0","519","","","","","","","","51","1,0,0","6","blank","341","null","0.3240292449090847","0.2229786823970879","0.547990640920443","0","","","","","","","",""
"","html-keyboard-response","244","678928","0.0-129.0-1.0","null","<p></p>","null","","","","","","","","","","","","","","","","","","","","","","",""
"","do_recog","245","681451","0.0-130.0-0.0","1006","","","","","","","","53","","","","342","probe-57","","","","","1","[object Object]","40","1","1","","",""
"","html-keyboard-response","246","682461","0.0-130.0-1.0","null","<p></p>","null","","","","","","","","","","","","","","","","","","","","","","",""
"","do_trial","247","685587","0.0-131.0-0.0","565.8999999761581","","","","","","","","49","1,0,1","6","blank","343","null","0.514448516108493","0.07461829764837985","0.5295813710401546","1","","","","","","","",""
"","html-keyboard-response","248","686601","0.0-131.0-1.0","null","<p></p>","null","","","","","","","","","","","","","","","","","","","","","","",""
"","do_recog","249","689269","0.0-132.0-0.0","1156.5","","","","","","","","53","","","","344","probe-49","","","","","1","[object Object]","161","4","1","","",""
"","html-keyboard-response","250","690281","0.0-132.0-1.0","null","<p></p>","null","","","","","","","","","","","","","","","","","","","","","","",""
"","do_trial","251","693783","0.0-133.0-0.0","940.8000000119209","","","","","","","","50","0,0,1","6","blank","345","null","0.4039080788202582","0.05700557773720629","0.7823185119168118","0","","","","","","","",""
"","html-keyboard-response","252","694786","0.0-133.0-1.0","null","<p></p>","null","","","","","","","","","","","","","","","","","","","","","","",""
"","do_trial","253","697756","0.0-134.0-0.0","411.80000001192093","","","","","","","","49","1,0,0","6","blank","346","null","0.36490151707384405","0.06486023072742125","0.7269140417932196","1","","","","","","","",""
"","html-keyboard-response","254","698773","0.0-134.0-1.0","null","<p></p>","null","","","","","","","","","","","","","","","","","","","","","","",""
"","do_trial","255","701917","0.0-135.0-0.0","590.8999999761581","","","","","","","","51","0,0,1","6","blank","347","null","0.4811556121738888","0.13102032251758458","0.5865610377949839","1","","","","","","","",""
"","html-keyboard-response","256","702926","0.0-135.0-1.0","null","<p></p>","null","","","","","","","","","","","","","","","","","","","","","","",""
"","break","257","720041","0.0-135.0-2.0","17112.69999998808","<div class='center'><p>Time to take a quick break! You have 2 minutes to rest, but you can move on sooner if you'd like.</p><p> Press the <b>space bar</b> to continue.</p></div>","32","","","","","","","","","","","","","","","","","","","","","","",""
"","do_trial","258","723279","0.0-135.0-3.0","675.2999999523163","","","","","","","","50","0,0,1","6","blank","348","null","0.4036714202809546","0.05375360992079536","0.6020105651902968","0","","","","","","","",""
"","html-keyboard-response","259","724293","0.0-135.0-4.0","null","<p></p>","null","","","","","","","","","","","","","","","","","","","","","","",""
"","do_trial","260","727185","0.0-136.0-0.0","328","","","","","","","","49","0,0,1","6","blank","349","null","0.2623444263158175","0.15779487288457453","0.6089393476447339","0","","","","","","","",""
"","html-keyboard-response","261","728201","0.0-136.0-1.0","null","<p></p>","null","","","","","","","","","","","","","","","","","","","","","","",""
"","do_recog","262","730391","0.0-137.0-0.0","679.5","","","","","","","","54","","","","350","probe-202","","","","","1","[object Object]","88","2","1","","",""
"","html-keyboard-response","263","731396","0.0-137.0-1.0","null","<p></p>","null","","","","","","","","","","","","","","","","","","","","","","",""
"","do_trial","264","734394","0.0-138.0-0.0","436.69999998807907","","","","","","","","51","0,0,0","6","blank","351","null","0.36688943872464974","0.08270943710481873","0.4018080693340798","0","","","","","","","",""
"","html-keyboard-response","265","735398","0.0-138.0-1.0","null","<p></p>","null","","","","","","","","","","","","","","","","","","","","","","",""
"","do_trial","266","738367","0.0-139.0-0.0","399.89999997615814","","","","","","","","49","0,0,0","6","blank","352","null","0.37607463409610864","0.07133981303653329","0.3944713550376268","0","","","","","","","",""
"","html-keyboard-response","267","739375","0.0-139.0-1.0","null","<p></p>","null","","","","","","","","","","","","","","","","","","","","","","",""
"","do_trial","268","742186","0.0-140.0-0.0","247","","","","","","","","50","0,0,1","6","blank","353","null","0.5159419479364393","0.10673831354581138","0.294107873176306","0","","","","","","","",""
"","html-keyboard-response","269","743201","0.0-140.0-1.0","null","<p></p>","null","","","","","","","","","","","","","","","","","","","","","","",""
"","do_trial","270","746050","0.0-141.0-0.0","298.4000000357628","","","","","","","","51","0,0,0","6","blank","354","null","0.5666210245019395","0.13737488946546686","0.3770122150846622","0","","","","","","","",""
"","html-keyboard-response","271","747066","0.0-141.0-1.0","null","<p></p>","null","","","","","","","","","","","","","","","","","","","","","","",""
"","do_trial","272","750351","0.0-142.0-0.0","716.1000000238419","","","","","","","","50","0,1,0","6","blank","355","null","0.48556463019795504","0.15916645264691337","0.3159066919519367","1","","","","","","","",""
"","html-keyboard-response","273","751353","0.0-142.0-1.0","null","<p></p>","null","","","","","","","","","","","","","","","","","","","","","","",""
"","do_recog","274","753644","0.0-143.0-0.0","770.5","","","","","","","","54","","","","356","probe-17","","","","","1","[object Object]","167","4","1","","",""
"","html-keyboard-response","275","754654","0.0-143.0-1.0","null","<p></p>","null","","","","","","","","","","","","","","","","","","","","","","",""
"","do_trial","276","757720","0.0-144.0-0.0","503.80000001192093","","","","","","","","50","1,0,1","6","blank","357","null","0.4923560112816396","0.11245314356470702","0.41644529174863876","0","","","","","","","",""
"","html-keyboard-response","277","758729","0.0-144.0-1.0","null","<p></p>","null","","","","","","","","","","","","","","","","","","","","","","",""
"","do_trial","278","761880","0.0-145.0-0.0","572.5999999642372","","","","","","","","49","1,0,1","6","blank","358","null","0.6162227253921909","0.057938233772098835","0.21517267945741622","1","","","","","","","",""
"","html-keyboard-response","279","762882","0.0-145.0-1.0","null","<p></p>","null","","","","","","","","","","","","","","","","","","","","","","",""
"","do_recog","280","765269","0.0-146.0-0.0","865.3000000119209","","","","","","","","54","","","","359","probe-74","","","","","1","[object Object]","206","5","1","","",""
"","html-keyboard-response","281","766280","0.0-146.0-1.0","null","<p></p>","null","","","","","","","","","","","","","","","","","","","","","","",""
"","do_trial","282","769336","0.0-147.0-0.0","490.69999998807907","","","","","","","","49","1,0,1","6","blank","360","null","0.5736722952818021","0.12765458634117735","0.18591397662418488","1","","","","","","","",""
"","html-keyboard-response","283","770351","0.0-147.0-1.0","null","<p></p>","null","","","","","","","","","","","","","","","","","","","","","","",""
"","do_trial","284","773210","0.0-148.0-0.0","301.5","","","","","","","","51","1,0,0","6","blank","361","null","0.5576639278370508","0.09014418606434649","0.2239377514946321","0","","","","","","","",""
"","html-keyboard-response","285","774228","0.0-148.0-1.0","null","<p></p>","null","","","","","","","","","","","","","","","","","","","","","","",""
"","do_trial","286","776867","0.0-149.0-0.0","79.40000003576279","","","","","","","","49","1,0,0","6","blank","362","null","0.6127444415089913","0.27047329494502564","0.20679355843344327","1","","","","","","","",""
"","html-keyboard-response","287","777871","0.0-149.0-1.0","null","<p></p>","null","","","","","","","","","","","","","","","","","","","","","","",""
"","do_trial","288","780649","0.0-150.0-0.0","215.19999998807907","","","","","","","","49","1,0,1","6","blank","363","null","0.6472354894904854","0.06683210938951734","0.20428883421977367","1","","","","","","","",""
"","html-keyboard-response","289","781666","0.0-150.0-1.0","null","<p></p>","null","","","","","","","","","","","","","","","","","","","","","","",""
"","do_recog","290","783947","0.0-151.0-0.0","758.5999999642372","","","","","","","","54","","","","364","probe-211","","","","","1","[object Object]","207","5","1","","",""
"","html-keyboard-response","291","784961","0.0-151.0-1.0","null","<p></p>","null","","","","","","","","","","","","","","","","","","","","","","",""
"","do_trial","292","787914","0.0-152.0-0.0","394.5","","","","","","","","49","0,0,0","6","blank","365","null","0.469384726791409","0.060070439726022114","0.17976423024023894","0","","","","","","","",""
"","html-keyboard-response","293","788918","0.0-152.0-1.0","null","<p></p>","null","","","","","","","","","","","","","","","","","","","","","","",""
"","do_recog","294","791132","0.0-153.0-0.0","693.6000000238419","","","","","","","","54","","","","366","probe-72","","","","","1","[object Object]","89","2","1","","",""
"","html-keyboard-response","295","792137","0.0-153.0-1.0","null","<p></p>","null","","","","","","","","","","","","","","","","","","","","","","",""
"","do_trial","296","795035","0.0-154.0-0.0","331.5","","","","","","","","50","0,0,0","6","blank","367","null","0.4320422528054669","0.13101310108874337","0.312817188285574","0","","","","","","","",""
"","html-keyboard-response","297","796046","0.0-154.0-1.0","null","<p></p>","null","","","","","","","","","","","","","","","","","","","","","","",""
"","do_recog","298","798247","0.0-155.0-0.0","678.1999999880791","","","","","","","","54","","","","368","probe-115","","","","","1","[object Object]","168","4","1","","",""
"","html-keyboard-response","299","799265","0.0-155.0-1.0","null","<p></p>","null","","","","","","","","","","","","","","","","","","","","","","",""
"","do_trial","300","802157","0.0-156.0-0.0","320.5","","","","","","","","49","1,0,0","6","blank","369","null","0.6640066465411627","0.08195777959134945","0.3139974031855201","1","","","","","","","",""
"","html-keyboard-response","301","803165","0.0-156.0-1.0","null","<p></p>","null","","","","","","","","","","","","","","","","","","","","","","",""
"","do_trial","302","806199","0.0-157.0-0.0","472.89999997615814","","","","","","","","50","1,0,1","6","blank","370","null","0.5842474882203575","0.11663108760861893","0.25243512301815335","0","","","","","","","",""
"","html-keyboard-response","303","807205","0.0-157.0-1.0","null","<p></p>","null","","","","","","","","","","","","","","","","","","","","","","",""
"","do_trial","304","810106","0.0-158.0-0.0","332.39999997615814","","","","","","","","49","1,0,0","6","blank","371","null","0.5713865469031907","0.053555114821365754","0.26822873102551037","1","","","","","","","",""
"","html-keyboard-response","305","811112","0.0-158.0-1.0","null","<p></p>","null","","","","","","","","","","","","","","","","","","","","","","",""
"","do_trial","306","813740","0.0-159.0-0.0","66.09999996423721","","","","","","","","49","1,0,0","6","blank","372","null","0.5892239031758715","0.1430575098876453","0.2735161222236673","1","","","","","","","",""
"","html-keyboard-response","307","814752","0.0-159.0-1.0","null","<p></p>","null","","","","","","","","","","","","","","","","","","","","","","",""
"","do_recog","308","817183","0.0-160.0-0.0","918.0999999642372","","","","","","","","54","","","","373","probe-55","","","","","1","[object Object]","165","4","1","","",""
"","html-keyboard-response","309","818195","0.0-160.0-1.0","null","<p></p>","null","","","","","","","","","","","","","","","","","","","","","","",""
"","do_trial","310","821237","0.0-161.0-0.0","472.0999999642372","","","","","","","","49","0,1,0","6","blank","374","null","0.6764838446925934","0.0702294321787543","0.2647943701132137","0","","","","","","","",""
"","html-keyboard-response","311","822248","0.0-161.0-1.0","null","<p></p>","null","","","","","","","","","","","","","","","","","","","","","","",""
"","do_recog","312","824421","0.0-162.0-0.0","651.6999999880791","","","","","","","","54","","","","375","probe-110","","","","","1","[object Object]","46","1","1","","",""
"","html-keyboard-response","313","825427","0.0-162.0-1.0","null","<p></p>","null","","","","","","","","","","","","","","","","","","","","","","",""
"","do_trial","314","828255","0.0-163.0-0.0","269.5","","","","","","","","49","1,0,1","6","blank","376","null","0.6630595480892864","0.08218254060410812","0.26326130449115587","1","","","","","","","",""
"","html-keyboard-response","315","829269","0.0-163.0-1.0","null","<p></p>","null","","","","","","","","","","","","","","","","","","","","","","",""
"","do_recog","316","831587","0.0-164.0-0.0","805.3000000119209","","","","","","","","53","","","","377","probe-39","","","","","1","[object Object]","82","2","1","","",""
"","html-keyboard-response","317","832593","0.0-164.0-1.0","null","<p></p>","null","","","","","","","","","","","","","","","","","","","","","","",""
"","do_trial","318","835664","0.0-165.0-0.0","508","","","","","","","","49","1,0,0","6","blank","378","null","0.5793633778122348","0.1767632028383364","0.22177667187783606","1","","","","","","","",""
"","html-keyboard-response","319","836670","0.0-165.0-1.0","null","<p></p>","null","","","","","","","","","","","","","","","","","","","","","","",""
"","do_trial","320","839239","0.0-166.0-0.0","0.19999998807907104","","","","","","","","49","0,0,0","6","blank","379","null","0.5354324667180242","0.21286056580206647","0.0988546143290248","0","","","","","","","",""
"","html-keyboard-response","321","840252","0.0-166.0-1.0","null","<p></p>","null","","","","","","","","","","","","","","","","","","","","","","",""
"","do_trial","322","843000","0.0-167.0-0.0","188.20000004768372","","","","","","","","50","0,0,0","6","blank","380","null","0.5841830518414876","0.24342819245080863","0.07007907344612171","0","","","","","","","",""
"","html-keyboard-response","323","844013","0.0-167.0-1.0","null","<p></p>","null","","","","","","","","","","","","","","","","","","","","","","",""
"","do_recog","324","846228","0.0-168.0-0.0","701.5999999642372","","","","","","","","54","","","","381","probe-84","","","","","1","[object Object]","43","1","1","","",""
"","html-keyboard-response","325","847244","0.0-168.0-1.0","null","<p></p>","null","","","","","","","","","","","","","","","","","","","","","","",""
"","do_trial","326","850165","0.0-169.0-0.0","356.60000002384186","","","","","","","","49","0,0,1","6","blank","382","null","0.6238723021311402","0.13985364836461694","0.05497994085074684","0","","","","","","","",""
"","html-keyboard-response","327","851171","0.0-169.0-1.0","null","<p></p>","null","","","","","","","","","","","","","","","","","","","","","","",""
"","do_recog","328","853483","0.0-170.0-0.0","799.6999999880791","","","","","","","","54","","","","383","probe-98","","","","","1","[object Object]","209","5","1","","",""
"","html-keyboard-response","329","854487","0.0-170.0-1.0","null","<p></p>","null","","","","","","","","","","","","","","","","","","","","","","",""
"","do_trial","330","857585","0.0-171.0-0.0","538.1000000238419","","","","","","","","49","0,0,0","6","blank","384","null","0.635223584733992","0.19125973999527074","0.12261717890397095","0","","","","","","","",""
"","html-keyboard-response","331","858601","0.0-171.0-1.0","null","<p></p>","null","","","","","","","","","","","","","","","","","","","","","","",""
"","do_trial","332","861372","0.0-172.0-0.0","204.4000000357628","","","","","","","","49","1,1,0","6","blank","385","null","0.4740761994007317","0.12235292808021164","0.21128528037313235","1","","","","","","","",""
"","html-keyboard-response","333","862379","0.0-172.0-1.0","null","<p></p>","null","","","","","","","","","","","","","","","","","","","","","","",""
"","do_recog","334","864567","0.0-173.0-0.0","667.1999999880791","","","","","","","","54","","","","386","probe-213","","","","","1","[object Object]","84","2","1","","",""
"","html-keyboard-response","335","865582","0.0-173.0-1.0","null","<p></p>","null","","","","","","","","","","","","","","","","","","","","","","",""
"","do_trial","336","868640","0.0-174.0-0.0","482.19999998807907","","","","","","","","50","1,0,0","6","blank","387","null","0.6419999743712472","0.17772159661789455","0.3767428387183888","0","","","","","","","",""
"","html-keyboard-response","337","869654","0.0-174.0-1.0","null","<p></p>","null","","","","","","","","","","","","","","","","","","","","","","",""
"","break","338","883363","0.0-174.0-2.0","13706.699999988079","<div class='center'><p>Time to take a quick break! You have 2 minutes to rest, but you can move on sooner if you'd like.</p><p> Press the <b>space bar</b> to continue.</p></div>","32","","","","","","","","","","","","","","","","","","","","","","",""
"","do_trial","339","887002","0.0-174.0-3.0","1064.0999999642372","","","","","","","","50","1,1,1","6","blank","388","null","0.6815976069850495","0.23741368023214185","0.46577801897617127","1","","","","","","","",""
"","html-keyboard-response","340","888019","0.0-174.0-4.0","null","<p></p>","null","","","","","","","","","","","","","","","","","","","","","","",""
"","do_trial","341","890778","0.0-175.0-0.0","197.80000001192093","","","","","","","","49","1,0,0","6","blank","389","null","0.7196104194864171","0.24013621577680774","0.22516820637388324","1","","","","","","","",""
"","html-keyboard-response","342","891795","0.0-175.0-1.0","null","<p></p>","null","","","","","","","","","","","","","","","","","","","","","","",""
"","do_trial","343","894540","0.0-176.0-0.0","170.30000001192093","","","","","","","","49","1,0,0","6","blank","390","null","0.521932253601937","0.19744515799244944","0.19172274615578744","1","","","","","","","",""
"","html-keyboard-response","344","895554","0.0-176.0-1.0","null","<p></p>","null","","","","","","","","","","","","","","","","","","","","","","",""
"","do_trial","345","898145","0.0-177.0-0.0","31.30000001192093","","","","","","","","50","1,1,0","6","blank","391","null","0.47512848851283684","0.2150524130016357","0.1749490691824466","1","","","","","","","",""
"","html-keyboard-response","346","899148","0.0-177.0-1.0","null","<p></p>","null","","","","","","","","","","","","","","","","","","","","","","",""
"","do_trial","347","901700","0.0-178.0-0.0","0.20000004768371582","","","","","","","","49","0,0,0","6","blank","392","null","0.6784510516376415","0.06866730678336358","0.20240115304114564","0","","","","","","","",""
"","html-keyboard-response","348","902703","0.0-178.0-1.0","null","<p></p>","null","","","","","","","","","","","","","","","","","","","","","","",""
"","do_trial","349","905426","0.0-179.0-0.0","150.0999999642372","","","","","","","","50","1,0,0","6","blank","393","null","0.48088643181125296","0.05023707480527507","0.20298090856194015","0","","","","","","","",""
"","html-keyboard-response","350","906433","0.0-179.0-1.0","null","<p></p>","null","","","","","","","","","","","","","","","","","","","","","","",""
"","do_recog","351","908698","0.0-180.0-0.0","746.6999999880791","","","","","","","","54","","","","394","probe-03","","","","","1","[object Object]","200","5","1","","",""
"","html-keyboard-response","352","909713","0.0-180.0-1.0","null","<p></p>","null","","","","","","","","","","","","","","","","","","","","","","",""
"","do_trial","353","912591","0.0-181.0-0.0","311","","","","","","","","51","0,0,0","6","blank","395","null","0.41210662155251404","0.20648375235030908","0.19002554282083942","0","","","","","","","",""
"","html-keyboard-response","354","913608","0.0-181.0-1.0","null","<p></p>","null","","","","","","","","","","","","","","","","","","","","","","",""
"","do_trial","355","916241","0.0-182.0-0.0","68.69999998807907","","","","","","","","49","0,0,0","6","blank","396","null","0.5181466776201551","0.08759883805567824","0.08205352498111265","0","","","","","","","",""
"","html-keyboard-response","356","917258","0.0-182.0-1.0","null","<p></p>","null","","","","","","","","","","","","","","","","","","","","","","",""
"","do_recog","357","919624","0.0-183.0-0.0","843.6999999880791","","","","","","","","54","","","","397","probe-59","","","","","1","[object Object]","127","3","1","","",""
"","html-keyboard-response","358","920634","0.0-183.0-1.0","null","<p></p>","null","","","","","","","","","","","","","","","","","","","","","","",""
"","do_trial","359","923621","0.0-184.0-0.0","413.19999998807907","","","","","","","","49","0,0,1","6","blank","398","null","0.5818512525723035","0.2384030689132581","0.18225208010336405","0","","","","","","","",""
"","html-keyboard-response","360","924638","0.0-184.0-1.0","null","<p></p>","null","","","","","","","","","","","","","","","","","","","","","","",""
"","do_trial","361","927420","0.0-185.0-0.0","233.30000001192093","","","","","","","","50","1,1,0","6","blank","399","null","0.5074377977131996","0.20458325756779944","0.26927799990919915","1","","","","","","","",""
"","html-keyboard-response","362","928435","0.0-185.0-1.0","null","<p></p>","null","","","","","","","","","","","","","","","","","","","","","","",""
"","do_recog","363","930728","0.0-186.0-0.0","780.1999999880791","","","","","","","","53","","","","400","probe-194","","","","","1","[object Object]","48","1","1","","",""
"","html-keyboard-response","364","931743","0.0-186.0-1.0","null","<p></p>","null","","","","","","","","","","","","","","","","","","","","","","",""
"","do_trial","365","934669","0.0-187.0-0.0","361.7000000476837","","","","","","","","50","0,0,0","6","blank","401","null","0.5215785890885086","0.21346273318949074","0.3649926871273449","0","","","","","","","",""
"","html-keyboard-response","366","935686","0.0-187.0-1.0","null","<p></p>","null","","","","","","","","","","","","","","","","","","","","","","",""
"","do_recog","367","937833","0.0-188.0-0.0","628.1000000238419","","","","","","","","54","","","","402","probe-24","","","","","1","[object Object]","121","3","1","","",""
"","html-keyboard-response","368","938840","0.0-188.0-1.0","null","<p></p>","null","","","","","","","","","","","","","","","","","","","","","","",""
"","do_trial","369","942249","0.0-189.0-0.0","845","","","","","","","","49","1,0,0","6","blank","403","null","0.417088228603051","0.2397676171322192","0.32522928077167323","1","","","","","","","",""
"","html-keyboard-response","370","943251","0.0-189.0-1.0","null","<p></p>","null","","","","","","","","","","","","","","","","","","","","","","",""
"","do_trial","371","946258","0.0-190.0-0.0","446.2000000476837","","","","","","","","49","0,0,1","6","blank","404","null","0.42172840555327534","0.1866419435927852","0.49640808383147955","0","","","","","","","",""
"","html-keyboard-response","372","947272","0.0-190.0-1.0","null","<p></p>","null","","","","","","","","","","","","","","","","","","","","","","",""
"","do_trial","373","950197","0.0-191.0-0.0","358.69999998807907","","","","","","","","50","1,0,1","6","blank","405","null","0.41352553019196253","0.1885564335651504","0.4681943892795943","0","","","","","","","",""
"","html-keyboard-response","374","951205","0.0-191.0-1.0","null","<p></p>","null","","","","","","","","","","","","","","","","","","","","","","",""
"","do_trial","375","954093","0.0-192.0-0.0","312.69999998807907","","","","","","","","51","0,0,0","6","blank","406","null","0.21366835660776143","0.20423384049698584","0.27960774410097883","0","","","","","","","",""
"","html-keyboard-response","376","955110","0.0-192.0-1.0","null","<p></p>","null","","","","","","","","","","","","","","","","","","","","","","",""
"","do_trial","377","957986","0.0-193.0-0.0","306.5","","","","","","","","49","0,1,0","6","blank","407","null","0.1686859997107453","0.3899712234820205","0.342347584483069","0","","","","","","","",""
"","html-keyboard-response","378","959001","0.0-193.0-1.0","null","<p></p>","null","","","","","","","","","","","","","","","","","","","","","","",""
"","do_trial","379","961846","0.0-194.0-0.0","278.7000000476837","","","","","","","","50","0,0,0","6","blank","408","null","0.06610362122609299","0.3898734818812201","0.18449094610117306","0","","","","","","","",""
"","html-keyboard-response","380","962849","0.0-194.0-1.0","null","<p></p>","null","","","","","","","","","","","","","","","","","","","","","","",""
"","do_recog","381","965113","0.0-195.0-0.0","748","","","","","","","","54","","","","409","probe-150","","","","","1","[object Object]","162","4","1","","",""
"","html-keyboard-response","382","966127","0.0-195.0-1.0","null","<p></p>","null","","","","","","","","","","","","","","","","","","","","","","",""
"","do_trial","383","969046","0.0-196.0-0.0","357.39999997615814","","","","","","","","49","1,0,0","6","blank","410","null","0.11370558912678737","0.509439515781599","0.29041357646775523","1","","","","","","","",""
"","html-keyboard-response","384","970061","0.0-196.0-1.0","null","<p></p>","null","","","","","","","","","","","","","","","","","","","","","","",""
"","do_recog","385","972463","0.0-197.0-0.0","893.8000000119209","","","","","","","","53","","","","411","probe-154","","","","","1","[object Object]","201","5","1","","",""
"","html-keyboard-response","386","973465","0.0-197.0-1.0","null","<p></p>","null","","","","","","","","","","","","","","","","","","","","","","",""
"","do_trial","387","976603","0.0-198.0-0.0","577.6000000238419","","","","","","","","50","0,0,0","6","blank","412","null","0.07877649275775037","0.41505296130133235","0.32809077355121985","0","","","","","","","",""
"","html-keyboard-response","388","977625","0.0-198.0-1.0","null","<p></p>","null","","","","","","","","","","","","","","","","","","","","","","",""
"","do_recog","389","979814","0.0-199.0-0.0","668.5","","","","","","","","54","","","","413","probe-136","","","","","1","[object Object]","169","4","1","","",""
"","html-keyboard-response","390","980816","0.0-199.0-1.0","null","<p></p>","null","","","","","","","","","","","","","","","","","","","","","","",""
"","do_trial","391","983714","0.0-200.0-0.0","325.5","","","","","","","","49","0,1,1","6","blank","414","null","0.10018595138929615","0.6416904318978712","0.2756393155522202","0","","","","","","","",""
"","html-keyboard-response","392","984725","0.0-200.0-1.0","null","<p></p>","null","","","","","","","","","","","","","","","","","","","","","","",""
"","do_recog","393","986811","0.0-201.0-0.0","563","","","","","","","","54","","","","415","probe-10","","","","","1","[object Object]","202","5","1","","",""
"","html-keyboard-response","394","987816","0.0-201.0-1.0","null","<p></p>","null","","","","","","","","","","","","","","","","","","","","","","",""
"","do_trial","395","990829","0.0-202.0-0.0","446","","","","","","","","49","0,1,0","6","blank","416","null","0.1708886049779826","0.7240260809952949","0.27834667785102557","0","","","","","","","",""
"","html-keyboard-response","396","991840","0.0-202.0-1.0","null","<p></p>","null","","","","","","","","","","","","","","","","","","","","","","",""
"","do_trial","397","994606","0.0-203.0-0.0","205","","","","","","","","50","0,1,0","6","blank","417","null","0.31446360669159623","0.5860210212731426","0.3612811423490977","1","","","","","","","",""
"","html-keyboard-response","398","995610","0.0-203.0-1.0","null","<p></p>","null","","","","","","","","","","","","","","","","","","","","","","",""
"","do_trial","399","998448","0.0-204.0-0.0","289","","","","","","","","51","1,1,0","6","blank","418","null","0.34297980119343513","0.6320141617253251","0.3033549864225203","0","","","","","","","",""
"","html-keyboard-response","400","999451","0.0-204.0-1.0","null","<p></p>","null","","","","","","","","","","","","","","","","","","","","","","",""
"","do_trial","401","1002319","0.0-205.0-0.0","287","","","","","","","","49","0,1,1","6","blank","419","null","0.35937748528858776","0.7657602744937664","0.2359464158284547","0","","","","","","","",""
"","html-keyboard-response","402","1003324","0.0-205.0-1.0","null","<p></p>","null","","","","","","","","","","","","","","","","","","","","","","",""
"","do_trial","403","1006128","0.0-206.0-0.0","248.5","","","","","","","","50","0,0,0","6","blank","420","null","0.14352626578621083","0.6156945073654378","0.1616759276088604","0","","","","","","","",""
"","html-keyboard-response","404","1007141","0.0-206.0-1.0","null","<p></p>","null","","","","","","","","","","","","","","","","","","","","","","",""
"","do_trial","405","1010052","0.0-207.0-0.0","357.19999998807907","","","","","","","","49","0,1,0","6","blank","421","null","0.22122532561969344","0.593899598859165","0.1794060528234891","0","","","","","","","",""
"","html-keyboard-response","406","1011055","0.0-207.0-1.0","null","<p></p>","null","","","","","","","","","","","","","","","","","","","","","","",""
"","do_trial","407","1013919","0.0-208.0-0.0","314.0999999642372","","","","","","","","50","1,1,1","6","blank","422","null","0.16044225314174074","0.5501141154189019","0.2358758540404371","1","","","","","","","",""
"","html-keyboard-response","408","1014925","0.0-208.0-1.0","null","<p></p>","null","","","","","","","","","","","","","","","","","","","","","","",""
"","do_recog","409","1017456","0.0-209.0-0.0","1010.5999999642372","","","","","","","","53","","","","423","probe-52","","","","","1","[object Object]","122","3","1","","",""
"","html-keyboard-response","410","1018462","0.0-209.0-1.0","null","<p></p>","null","","","","","","","","","","","","","","","","","","","","","","",""
"","do_trial","411","1021529","0.0-210.0-0.0","502","","","","","","","","50","0,0,0","6","blank","424","null","0.2252496601912612","0.516881724075998","0.30364260921856634","0","","","","","","","",""
"","html-keyboard-response","412","1022543","0.0-210.0-1.0","null","<p></p>","null","","","","","","","","","","","","","","","","","","","","","","",""
"","do_trial","413","1025533","0.0-211.0-0.0","428.19999998807907","","","","","","","","49","0,1,0","6","blank","425","null","0.1294819692154225","0.5452751046945707","0.31425003377000876","0","","","","","","","",""
"","html-keyboard-response","414","1026540","0.0-211.0-1.0","null","<p></p>","null","","","","","","","","","","","","","","","","","","","","","","",""
"","do_trial","415","1029418","0.0-212.0-0.0","308.2000000476837","","","","","","","","50","0,0,0","6","blank","426","null","0.08650823458708","0.4486776145840138","0.1743788942108926","0","","","","","","","",""
"","html-keyboard-response","416","1030429","0.0-212.0-1.0","null","<p></p>","null","","","","","","","","","","","","","","","","","","","","","","",""
"","do_trial","417","1033360","0.0-213.0-0.0","369.2999999523163","","","","","","","","49","0,1,0","6","blank","427","null","0.18578728680371548","0.6482141898516054","0.20599510829184134","0","","","","","","","",""
"","html-keyboard-response","418","1034371","0.0-213.0-1.0","null","<p></p>","null","","","","","","","","","","","","","","","","","","","","","","",""
"","break","419","1054468","0.0-213.0-2.0","20095.5","<div class='center'><p>Time to take a quick break! You have 2 minutes to rest, but you can move on sooner if you'd like.</p><p> Press the <b>space bar</b> to continue.</p></div>","32","","","","","","","","","","","","","","","","","","","","","","",""
"","do_trial","420","1057761","0.0-213.0-3.0","731.3999999761581","","","","","","","","50","0,1,0","6","blank","428","null","0.08774280262349975","0.7789551571265833","0.295763620243664","1","","","","","","","",""
"","html-keyboard-response","421","1058772","0.0-213.0-4.0","null","<p></p>","null","","","","","","","","","","","","","","","","","","","","","","",""
"","do_trial","422","1061626","0.0-214.0-0.0","291.9000000357628","","","","","","","","49","0,1,0","6","blank","429","null","0.16718695758670987","0.7091985181295363","0.30519635094218917","0","","","","","","","",""
"","html-keyboard-response","423","1062642","0.0-214.0-1.0","null","<p></p>","null","","","","","","","","","","","","","","","","","","","","","","",""
"","do_trial","424","1065492","0.0-215.0-0.0","274.19999998807907","","","","","","","","50","0,0,0","6","blank","430","null","0.26150367554114384","0.6777339082939605","0.4260008006451582","0","","","","","","","",""
"","html-keyboard-response","425","1066502","0.0-215.0-1.0","null","<p></p>","null","","","","","","","","","","","","","","","","","","","","","","",""
"","do_trial","426","1069472","0.0-216.0-0.0","413.4000000357628","","","","","","","","51","0,0,0","6","blank","431","null","0.3066704657074296","0.5236629852483374","0.3253853968139903","0","","","","","","","",""
"","html-keyboard-response","427","1070486","0.0-216.0-1.0","null","<p></p>","null","","","","","","","","","","","","","","","","","","","","","","",""
"","do_recog","428","1072620","0.0-217.0-0.0","619","","","","","","","","54","","","","432","probe-124","","","","","1","[object Object]","204","5","1","","",""
"","html-keyboard-response","429","1073624","0.0-217.0-1.0","null","<p></p>","null","","","","","","","","","","","","","","","","","","","","","","",""
"","do_trial","430","1076609","0.0-218.0-0.0","420.89999997615814","","","","","","","","49","0,0,1","6","blank","433","null","0.32882428674074904","0.45313679097495624","0.353433097841311","0","","","","","","","",""
"","html-keyboard-response","431","1077619","0.0-218.0-1.0","null","<p></p>","null","","","","","","","","","","","","","","","","","","","","","","",""
"","do_trial","432","1080576","0.0-219.0-0.0","399.2999999523163","","","","","","","","51","0,0,0","6","blank","434","null","0.12548397063256853","0.5053745445412265","0.28778032691345085","0","","","","","","","",""
"","html-keyboard-response","433","1081584","0.0-219.0-1.0","null","<p></p>","null","","","","","","","","","","","","","","","","","","","","","","",""
"","do_trial","434","1084686","0.0-220.0-0.0","541.6000000238419","","","","","","","","50","0,0,0","6","blank","435","null","0.21695572072264527","0.532488284733834","0.2618742875281976","0","","","","","","","",""
"","html-keyboard-response","435","1085689","0.0-220.0-1.0","null","<p></p>","null","","","","","","","","","","","","","","","","","","","","","","",""
"","do_trial","436","1088545","0.0-221.0-0.0","283.30000001192093","","","","","","","","49","0,0,0","6","blank","436","null","0.22956534131667364","0.5491976750439996","0.18859643062294246","0","","","","","","","",""
"","html-keyboard-response","437","1089561","0.0-221.0-1.0","null","<p></p>","null","","","","","","","","","","","","","","","","","","","","","","",""
"","do_recog","438","1091767","0.0-222.0-0.0","694.3999999761581","","","","","","","","54","","","","437","probe-131","","","","","1","[object Object]","163","4","1","","",""
"","html-keyboard-response","439","1092784","0.0-222.0-1.0","null","<p></p>","null","","","","","","","","","","","","","","","","","","","","","","",""
"","do_trial","440","1096144","0.0-223.0-0.0","793.6999999880791","","","","","","","","51","0,1,0","6","blank","438","null","0.3306994490199964","0.6191369038962681","0.21290814009234516","0","","","","","","","",""
"","html-keyboard-response","441","1097161","0.0-223.0-1.0","null","<p></p>","null","","","","","","","","","","","","","","","","","","","","","","",""
"","do_trial","442","1100159","0.0-224.0-0.0","433.69999998807907","","","","","","","","50","0,0,0","6","blank","439","null","0.15689090789144666","0.596256238841831","0.2844121061123524","0","","","","","","","",""
"","html-keyboard-response","443","1101170","0.0-224.0-1.0","null","<p></p>","null","","","","","","","","","","","","","","","","","","","","","","",""
"","do_trial","444","1103931","0.0-225.0-0.0","189.39999997615814","","","","","","","","49","0,1,0","6","blank","440","null","0.27620661437266486","0.6802845199588521","0.27964212259686017","0","","","","","","","",""
"","html-keyboard-response","445","1104941","0.0-225.0-1.0","null","<p></p>","null","","","","","","","","","","","","","","","","","","","","","","",""
"","do_trial","446","1107808","0.0-226.0-0.0","298.39999997615814","","","","","","","","51","0,0,0","6","blank","441","null","0.22186722762821628","0.5248982706800789","0.2659286831954796","0","","","","","","","",""
"","html-keyboard-response","447","1108815","0.0-226.0-1.0","null","<p></p>","null","","","","","","","","","","","","","","","","","","","","","","",""
"","do_trial","448","1111795","0.0-227.0-0.0","407.39999997615814","","","","","","","","50","1,0,0","6","blank","442","null","0.26767760166756627","0.5190716178240254","0.22700711739060184","0","","","","","","","",""
"","html-keyboard-response","449","1112806","0.0-227.0-1.0","null","<p></p>","null","","","","","","","","","","","","","","","","","","","","","","",""
"","do_recog","450","1115153","0.0-228.0-0.0","825.3000000119209","","","","","","","","54","","","","443","probe-112","","","","","1","[object Object]","123","3","1","","",""
"","html-keyboard-response","451","1116163","0.0-228.0-1.0","null","<p></p>","null","","","","","","","","","","","","","","","","","","","","","","",""
"","do_trial","452","1119271","0.0-229.0-0.0","539.3000000119209","","","","","","","","49","0,0,0","6","blank","444","null","0.18020580474860226","0.41213736459166217","0.26634779731326386","0","","","","","","","",""
"","html-keyboard-response","453","1120284","0.0-229.0-1.0","null","<p></p>","null","","","","","","","","","","","","","","","","","","","","","","",""
"","do_recog","454","1122849","0.0-230.0-0.0","1049.800000011921","","","","","","","","54","","","","445","probe-71","","","","","1","[object Object]","44","1","1","","",""
"","html-keyboard-response","455","1123855","0.0-230.0-1.0","null","<p></p>","null","","","","","","","","","","","","","","","","","","","","","","",""
"","do_trial","456","1126874","0.0-231.0-0.0","453","","","","","","","","51","0,1,1","6","blank","446","null","0.11829732995990508","0.44966197236827454","0.22898135486018467","1","","","","","","","",""
"","html-keyboard-response","457","1127886","0.0-231.0-1.0","null","<p></p>","null","","","","","","","","","","","","","","","","","","","","","","",""
"","do_trial","458","1130756","0.0-232.0-0.0","301.10000002384186","","","","","","","","51","0,0,0","6","blank","447","null","0.10644523234905258","0.530531969946201","0.3445015065359584","0","","","","","","","",""
"","html-keyboard-response","459","1131761","0.0-232.0-1.0","null","<p></p>","null","","","","","","","","","","","","","","","","","","","","","","",""
"","do_trial","460","1134677","0.0-233.0-0.0","340.80000001192093","","","","","","","","49","0,1,1","6","blank","448","null","0.10059607037321691","0.42046426090457445","0.28983100974857595","0","","","","","","","",""
"","html-keyboard-response","461","1135693","0.0-233.0-1.0","null","<p></p>","null","","","","","","","","","","","","","","","","","","","","","","",""
"","do_trial","462","1138698","0.0-234.0-0.0","428.0999999642372","","","","","","","","49","0,0,0","6","blank","449","null","0.1977483729855847","0.4494674464107056","0.286337034145095","0","","","","","","","",""
"","html-keyboard-response","463","1139706","0.0-234.0-1.0","null","<p></p>","null","","","","","","","","","","","","","","","","","","","","","","",""
"","do_trial","464","1142703","0.0-235.0-0.0","419.4000000357628","","","","","","","","49","0,1,0","6","blank","450","null","0.10940253207715113","0.42851967526083856","0.42628300920216555","0","","","","","","","",""
"","html-keyboard-response","465","1143708","0.0-235.0-1.0","null","<p></p>","null","","","","","","","","","","","","","","","","","","","","","","",""
"","do_trial","466","1146678","0.0-236.0-0.0","400.60000002384186","","","","","","","","50","1,0,0","6","blank","451","null","0.16822228570454326","0.43442524864605037","0.3013729688988073","0","","","","","","","",""
"","html-keyboard-response","467","1147683","0.0-236.0-1.0","null","<p></p>","null","","","","","","","","","","","","","","","","","","","","","","",""
"","do_trial","468","1150885","0.0-237.0-0.0","631.8999999761581","","","","","","","","50","1,0,1","6","blank","452","null","0.18644562617380397","0.37001304443093175","0.26455923618076","0","","","","","","","",""
"","html-keyboard-response","469","1151897","0.0-237.0-1.0","null","<p></p>","null","","","","","","","","","","","","","","","","","","","","","","",""
"","do_recog","470","1154852","0.0-238.0-0.0","1417.800000011921","","","","","","","","54","","","","453","probe-249","","","","","0","[object Object]","null","null","0","","",""
"","html-keyboard-response","471","1155862","0.0-238.0-1.0","null","<p></p>","null","","","","","","","","","","","","","","","","","","","","","","",""
"","do_trial","472","1159104","0.0-239.0-0.0","667.6000000238419","","","","","","","","51","0,0,0","6","blank","454","null","0.3389578594591142","0.45040919458908446","0.3085315446327569","0","","","","","","","",""
"","html-keyboard-response","473","1160121","0.0-239.0-1.0","null","<p></p>","null","","","","","","","","","","","","","","","","","","","","","","",""
"","do_trial","474","1163099","0.0-240.0-0.0","406.80000001192093","","","","","","","","50","0,0,1","6","blank","455","null","0.19669398460623208","0.35380856550371464","0.4238486388209388","0","","","","","","","",""
"","html-keyboard-response","475","1164106","0.0-240.0-1.0","null","<p></p>","null","","","","","","","","","","","","","","","","","","","","","","",""
"","do_recog","476","1166456","0.0-241.0-0.0","840.8000000119209","","","","","","","","53","","","","456","probe-251","","","","","0","[object Object]","null","null","0","","",""
"","html-keyboard-response","477","1167471","0.0-241.0-1.0","null","<p></p>","null","","","","","","","","","","","","","","","","","","","","","","",""
"","do_trial","478","1170303","0.0-242.0-0.0","268.69999998807907","","","","","","","","49","1,1,0","6","blank","457","null","0.3872085844590245","0.19904171070471663","0.408095956704089","1","","","","","","","",""
"","html-keyboard-response","479","1171314","0.0-242.0-1.0","null","<p></p>","null","","","","","","","","","","","","","","","","","","","","","","",""
"","do_recog","480","1173556","0.0-243.0-0.0","723.6000000238419","","","","","","","","54","","","","458","probe-248","","","","","0","[object Object]","null","null","0","","",""
"","html-keyboard-response","481","1174568","0.0-243.0-1.0","null","<p></p>","null","","","","","","","","","","","","","","","","","","","","","","",""
"","do_trial","482","1177188","0.0-244.0-0.0","44","","","","","","","","51","0,0,0","6","blank","459","null","0.555815649071774","0.2523529468546731","0.45482696469383344","0","","","","","","","",""
"","html-keyboard-response","483","1178206","0.0-244.0-1.0","null","<p></p>","null","","","","","","","","","","","","","","","","","","","","","","",""
"","do_trial","484","1181494","0.0-245.0-0.0","725.4000000357628","","","","","","","","50","0,0,0","6","blank","460","null","0.5811883938365963","0.10640169051611884","0.3823571946465894","0","","","","","","","",""
"","html-keyboard-response","485","1182504","0.0-245.0-1.0","null","<p></p>","null","","","","","","","","","","","","","","","","","","","","","","",""
"","do_trial","486","1185140","0.0-246.0-0.0","77.70000004768372","","","","","","","","49","0,1,0","6","blank","461","null","0.7114420086999185","0.1828598908216994","0.1875116242931399","0","","","","","","","",""
"","html-keyboard-response","487","1186156","0.0-246.0-1.0","null","<p></p>","null","","","","","","","","","","","","","","","","","","","","","","",""
"","do_trial","488","1189116","0.0-247.0-0.0","386.7999999523163","","","","","","","","51","1,0,0","6","blank","462","null","0.6738579290479824","0.06373119211364965","0.2043928852973589","0","","","","","","","",""
"","html-keyboard-response","489","1190120","0.0-247.0-1.0","null","<p></p>","null","","","","","","","","","","","","","","","","","","","","","","",""
"","do_trial","490","1194319","0.0-248.0-0.0","1646.3999999761581","","","","","","","","50","1,0,0","6","blank","463","null","0.580685102181998","0.051406549559888264","0.2099268733277339","0","","","","","","","",""
"","html-keyboard-response","491","1195336","0.0-248.0-1.0","null","<p></p>","null","","","","","","","","","","","","","","","","","","","","","","",""
"","do_trial","492","1199301","0.0-249.0-0.0","1405.5","","","","","","","","49","1,0,1","6","blank","464","null","0.5468738342827657","0.1088339427166897","0.4240019195151941","1","","","","","","","",""
"","html-keyboard-response","493","1200318","0.0-249.0-1.0","null","<p></p>","null","","","","","","","","","","","","","","","","","","","","","","",""
"","do_recog","494","1202817","0.0-250.0-0.0","981.1999999880791","","","","","","","","54","","","","465","probe-231","","","","","0","[object Object]","null","null","0","","",""
"","html-keyboard-response","495","1203827","0.0-250.0-1.0","null","<p></p>","null","","","","","","","","","","","","","","","","","","","","","","",""
"","do_trial","496","1206777","0.0-251.0-0.0","386.19999998807907","","","","","","","","50","0,0,1","6","blank","466","null","0.45712503837431734","0.22148764762236414","0.35821817825823377","0","","","","","","","",""
"","html-keyboard-response","497","1207794","0.0-251.0-1.0","null","<p></p>","null","","","","","","","","","","","","","","","","","","","","","","",""
"","do_trial","498","1210611","0.0-252.0-0.0","252.30000001192093","","","","","","","","51","1,0,0","6","blank","467","null","0.4918718296599318","0.290810203589347","0.42936494878170506","0","","","","","","","",""
"","html-keyboard-response","499","1211617","0.0-252.0-1.0","null","<p></p>","null","","","","","","","","","","","","","","","","","","","","","","",""
"","break","500","1226810","0.0-252.0-2.0","15191.400000035763","<div class='center'><p>Time to take a quick break! You have 2 minutes to rest, but you can move on sooner if you'd like.</p><p> Press the <b>space bar</b> to continue.</p></div>","32","","","","","","","","","","","","","","","","","","","","","","",""
"","do_trial","501","1230017","0.0-252.0-3.0","634.5","","","","","","","","49","1,0,1","6","blank","468","null","0.5780419769390897","0.14715405149143443","0.4130983828079643","1","","","","","","","",""
"","html-keyboard-response","502","1231029","0.0-252.0-4.0","null","<p></p>","null","","","","","","","","","","","","","","","","","","","","","","",""
"","do_trial","503","1233885","0.0-253.0-0.0","289.5999999642372","","","","","","","","51","1,1,0","6","blank","469","null","0.4485960343807382","0.18609258735060416","0.24357675086512717","0","","","","","","","",""
"","html-keyboard-response","504","1234893","0.0-253.0-1.0","null","<p></p>","null","","","","","","","","","","","","","","","","","","","","","","",""
"","do_recog","505","1237281","0.0-254.0-0.0","872.2000000476837","","","","","","","","54","","","","470","probe-239","","","","","0","[object Object]","null","null","0","","",""
"","html-keyboard-response","506","1238296","0.0-254.0-1.0","null","<p></p>","null","","","","","","","","","","","","","","","","","","","","","","",""
"","do_trial","507","1241237","0.0-255.0-0.0","372.80000001192093","","","","","","","","49","0,0,0","6","blank","471","null","0.5620704687294242","0.22762363474710445","0.21271424132537675","0","","","","","","","",""
"","html-keyboard-response","508","1242252","0.0-255.0-1.0","null","<p></p>","null","","","","","","","","","","","","","","","","","","","","","","",""
"","do_trial","509","1245271","0.0-256.0-0.0","449.4000000357628","","","","","","","","50","0,0,0","6","blank","472","null","0.6137022737017215","0.2779598848350588","0.2341892481437742","0","","","","","","","",""
"","html-keyboard-response","510","1246275","0.0-256.0-1.0","null","<p></p>","null","","","","","","","","","","","","","","","","","","","","","","",""
"","do_trial","511","1249224","0.0-257.0-0.0","380.19999998807907","","","","","","","","50","1,1,0","6","blank","473","null","0.6592027505424172","0.119392846437925","0.2032647991065129","1","","","","","","","",""
"","html-keyboard-response","512","1250232","0.0-257.0-1.0","null","<p></p>","null","","","","","","","","","","","","","","","","","","","","","","",""
"","do_trial","513","1253171","0.0-258.0-0.0","379.39999997615814","","","","","","","","49","0,0,1","6","blank","474","null","0.6009900612989162","0.14171008190828357","0.32428131490810985","0","","","","","","","",""
"","html-keyboard-response","514","1254187","0.0-258.0-1.0","null","<p></p>","null","","","","","","","","","","","","","","","","","","","","","","",""
"","do_trial","515","1257068","0.0-259.0-0.0","306.10000002384186","","","","","","","","51","1,0,0","6","blank","475","null","0.5241919597200387","0.21383634596419474","0.350743803793047","0","","","","","","","",""
"","html-keyboard-response","516","1258078","0.0-259.0-1.0","null","<p></p>","null","","","","","","","","","","","","","","","","","","","","","","",""
