"success","trial_type","trial_index","time_elapsed","internal_node_id","interactions","blur_events","focus_events","fullscreenenter_events","fullscreenexit_events","rt","stimulus","key_press","subject_id","participant_id","age","gender","prompt","response","choice_outcomes","context_n","context_img_id","trial_n","probe_img_id","pR_red","pR_white","pR_black","outcome","is_valid","image_to_show","probed_trial","probed_context","correct","probe","probed_trial_n","probed_context_n","context_im"
"true","fullscreen","0","11559","0.0-0.0","""event"",""trial"",""time""
""fullscreenenter"",""0"",""10575""
","
","
","""event"",""trial"",""time""
""fullscreenenter"",""0"",""10575""
","
","","","","","","","","","","","","","","","","","","","","","","","","","","",""
"","pavlovia","1","11567","0.0-1.0","""event"",""trial"",""time""
""fullscreenenter"",""0"",""10575""
","
","
","""event"",""trial"",""time""
""fullscreenenter"",""0"",""10575""
","
","","","","","","","","","","","","","","","","","","","","","","","","","","",""
"","welc_back","2","21623","0.0-2.0","""event"",""trial"",""time""
""fullscreenenter"",""0"",""10575""
","
","
","""event"",""trial"",""time""
""fullscreenenter"",""0"",""10575""
","
","null","run_exp/static/audio/clip_29_welcome_back.m4a","null","1034","965","16","Female","<div class='center'><p>Welcome to day 2!</p><p> Yesterday, you were the head captain of a pirate ship. You asked your fellow pirates to rob other ships of their gold across six different islands.</p></div>","","","","","","","","","","","","","","","","","","",""
"","html-keyboard-response","3","22721","0.0-3.0","""event"",""trial"",""time""
""fullscreenenter"",""0"",""10575""
","
","
","""event"",""trial"",""time""
""fullscreenenter"",""0"",""10575""
","
","1095.0999999940395","<div class='center'><p>Welcome to day 2!</p><p> Yesterday, you were the head captain of a pirate ship. You asked your fellow pirates to rob other ships of their gold across six different islands.</p><p><b>[Press the space bar to continue]</b></p></div>","32","","","","","","","","","","","","","","","","","","","","","","","",""
"","day_1_summary_goal","4","40198","0.0-4.0","""event"",""trial"",""time""
""fullscreenenter"",""0"",""10575""
","
","
","""event"",""trial"",""time""
""fullscreenenter"",""0"",""10575""
","
","null","run_exp/static/audio/clip_30_goal_of_game.m4a","null","","","","","<div class='center'><p>Today, like yesterday, you get to pick which pirate you want to rob the next ship.</p><p>If the pirate is successful in robbing a ship, you get gold coins that look like this: </p><p><img src='run_exp/static/images/tutorial/reward.png' height='150'></p><p> If they were not successful in robbing the ship, then you will get no gold coins and you'll see a big red x like this: </p><p><img src='run_exp/static/images/tutorial/reward_no.png' height='150'></p></div>","","","","","","","","","","","","","","","","","","",""
"","html-keyboard-response","5","41819","0.0-5.0","""event"",""trial"",""time""
""fullscreenenter"",""0"",""10575""
","
","
","""event"",""trial"",""time""
""fullscreenenter"",""0"",""10575""
","
","1618.2000000029802","<div class='center'><p>Today, like yesterday, you get to pick which pirate you want to rob the next ship.</p><p>If the pirate is successful in robbing a ship, you get gold coins that look like this: </p><p><img src='run_exp/static/images/tutorial/reward.png' height='150'></p><p> If they were not successful in robbing the ship, then you will get no gold coins and you'll see a big red x like this: </p><p><img src='run_exp/static/images/tutorial/reward_no.png' height='150'></p><p><b>[Press the space bar to continue]</b></p></div>","32","","","","","","","","","","","","","","","","","","","","","","","",""
"","day_1_summary_pick","6","56824","0.0-6.0","""event"",""trial"",""time""
""fullscreenenter"",""0"",""10575""
","
","
","""event"",""trial"",""time""
""fullscreenenter"",""0"",""10575""
","
","null","run_exp/static/audio/clip_31_how_to_pick_a_pirate.m4a","null","","","","","<div class='center'><p>Also, just like yesterday, you will use the 1,2,3 keys on your keyboard to pick a pirate. Press '1' to choose red beard, '2' to choose white beard, and '3' to choose black beard . You only have 3 seconds to pick a pirate, so please make a choice quickly!</p></div>","","","","","","","","","","","","","","","","","","",""
"","html-keyboard-response","7","59960","0.0-7.0","""event"",""trial"",""time""
""fullscreenenter"",""0"",""10575""
","
","
","""event"",""trial"",""time""
""fullscreenenter"",""0"",""10575""
","
","3134.300000011921","<div class='center'><p>Also, just like yesterday, you will use the 1,2,3 keys on your keyboard to pick a pirate. Press '1' to choose red beard, '2' to choose white beard, and '3' to choose black beard . You only have 3 seconds to pick a pirate, so please make a choice quickly!</p><p><b>[Press the space bar to continue]</b></p></div>","32","","","","","","","","","","","","","","","","","","","","","","","",""
"","test_phase_begin","8","90632","0.0-8.0","""event"",""trial"",""time""
""fullscreenenter"",""0"",""10575""
","
","
","""event"",""trial"",""time""
""fullscreenenter"",""0"",""10575""
","
","null","run_exp/static/audio/clip_32_final_place.m4a","null","","","","","<div class='center'><p>You’ve arrived at the final island of your journey! Unfortunately, it’s very foggy out, so you won’t be able to see it in the distance like the other islands you've visited.</p><p>You’ll still be deciding which pirate you want to rob a ship like before. However, because of the fog, you also won’t be able to see the ship.</p><p>This means you do not have to remember the ships you rob on this island.</p><p>Unlike yesterday, you won't be visiting multiple islands today. You will stay on this island for the entire game. This game will last ~30 minutes.</p></div>","","","","","","","","","","","","","","","","","","",""
"","html-keyboard-response","9","91885","0.0-9.0","""event"",""trial"",""time""
""fullscreenenter"",""0"",""10575""
","
","
","""event"",""trial"",""time""
""fullscreenenter"",""0"",""10575""
","
","1248.699999988079","<div class='center'><p>You’ve arrived at the final island of your journey! Unfortunately, it’s very foggy out, so you won’t be able to see it in the distance like the other islands you've visited.</p><p>You’ll still be deciding which pirate you want to rob a ship like before. However, because of the fog, you also won’t be able to see the ship.</p><p>This means you do not have to remember the ships you rob on this island.</p><p>Unlike yesterday, you won't be visiting multiple islands today. You will stay on this island for the entire game. This game will last ~30 minutes.</p><p><b>[Press the space bar to continue]</b></p></div>","32","","","","","","","","","","","","","","","","","","","","","","","",""
"","explain_probe_1","10","99920","0.0-10.0","""event"",""trial"",""time""
""fullscreenenter"",""0"",""10575""
","
","
","""event"",""trial"",""time""
""fullscreenenter"",""0"",""10575""
","
","null","run_exp/static/audio/clip_33_recognition_1.m4a","null","","","","","<div class='center'><p> Sometimes you’ll be shown a ship, and you will be asked if you saw this ship on a past island.</p><p> Here is an example of what you will see.</p><p><img src='run_exp/static/images/tutorial/example_recog_trial.png' height='500'></p></div>","","","","","","","","","","","","","","","","","","",""
"","html-keyboard-response","11","101188","0.0-11.0","""event"",""trial"",""time""
""fullscreenenter"",""0"",""10575""
","
","
","""event"",""trial"",""time""
""fullscreenenter"",""0"",""10575""
","
","1265.5","<div class='center'><p> Sometimes you’ll be shown a ship, and you will be asked if you saw this ship on a past island.</p><p> Here is an example of what you will see.</p><p><img src='run_exp/static/images/tutorial/example_recog_trial.png' height='500'></p><p><b>[Press the space bar to continue]</b></p></div>","32","","","","","","","","","","","","","","","","","","","","","","","",""
"","explain_probe_2","12","123140","0.0-12.0","""event"",""trial"",""time""
""fullscreenenter"",""0"",""10575""
","
","
","""event"",""trial"",""time""
""fullscreenenter"",""0"",""10575""
","
","null","run_exp/static/audio/clip_34_recognition_2.m4a","null","","","","","<div class='center'><p> You will press the 5, 6, 7, 8 keys on your keyboard to respond.</p><p>If you are sure you saw the ship, press <b>5</b> on your keyboard.</p><p> If you think you saw it before but aren't sure, then press <b>6</b>.</p><p> If you think you have <b>not</b> seen it before but aren't sure, then press <b>7</b>.</p><p> If you are sure you did <b>not</b> see the ship before, then press <b>8</b>.</p><p><img src='run_exp/static/images/tutorial/example_recog_trial.png' height='500'></p></div>","","","","","","","","","","","","","","","","","","",""
"","html-keyboard-response","13","124319","0.0-13.0","""event"",""trial"",""time""
""fullscreenenter"",""0"",""10575""
","
","
","""event"",""trial"",""time""
""fullscreenenter"",""0"",""10575""
","
","1176.3999999910593","<div class='center'><p> You will press the 5, 6, 7, 8 keys on your keyboard to respond.</p><p>If you are sure you saw the ship, press <b>5</b> on your keyboard.</p><p> If you think you saw it before but aren't sure, then press <b>6</b>.</p><p> If you think you have <b>not</b> seen it before but aren't sure, then press <b>7</b>.</p><p> If you are sure you did <b>not</b> see the ship before, then press <b>8</b>.</p><p><img src='run_exp/static/images/tutorial/example_recog_trial.png' height='500'></p><p><b>[Press the space bar to continue]</b></p></div>","32","","","","","","","","","","","","","","","","","","","","","","","",""
"","explain_outcome","14","141808","0.0-14.0","""event"",""trial"",""time""
""fullscreenenter"",""0"",""10575""
","
","
","""event"",""trial"",""time""
""fullscreenenter"",""0"",""10575""
","
","null","run_exp/static/audio/clip_35_recognition_3.m4a","null","","","","","<div class='center'><p> If you remember correctly, then you’ll get a gold coin like this: </p><p><img src='run_exp/static/images/tutorial/reward_small.png' height='200'></p><p>If you do not remember correctly, then you'll see a red x like this: </p><p><img src='run_exp/static/images/tutorial/reward_no.png' height='200'></p><p>Importantly, when you are shown a ship, take the time to remind yourself which island you saw it on. This will help you in the next part of the study.</p></div>","","","","","","","","","","","","","","","","","","",""
"","html-keyboard-response","15","144016","0.0-15.0","""event"",""trial"",""time""
""fullscreenenter"",""0"",""10575""
","
","
","""event"",""trial"",""time""
""fullscreenenter"",""0"",""10575""
","
","2202.9000000059605","<div class='center'><p> If you remember correctly, then you’ll get a gold coin like this: </p><p><img src='run_exp/static/images/tutorial/reward_small.png' height='200'></p><p>If you do not remember correctly, then you'll see a red x like this: </p><p><img src='run_exp/static/images/tutorial/reward_no.png' height='200'></p><p>Importantly, when you are shown a ship, take the time to remind yourself which island you saw it on. This will help you in the next part of the study.</p><p><b>[Press the space bar to continue]</b></p></div>","32","","","","","","","","","","","","","","","","","","","","","","","",""
"","begin_test_phase","16","160107","0.0-16.0","""event"",""trial"",""time""
""fullscreenenter"",""0"",""10575""
","
","
","""event"",""trial"",""time""
""fullscreenenter"",""0"",""10575""
","
","null","run_exp/static/audio/clip_36_begin_final.m4a","null","","","","","<div class='center'><p>Let's go over the important points again. Your job is to: </p><p>1. Pick the pirate who is best at robbing ships and will bring you back gold coins. </p><p>2. Correctly remember whether or not you saw a ship before. If you did see the ship before, remind yourself on which island you saw it. </p></div>","","","","","","","","","","","","","","","","","","",""
"","html-keyboard-response","17","161202","0.0-17.0","""event"",""trial"",""time""
""fullscreenenter"",""0"",""10575""
","
","
","""event"",""trial"",""time""
""fullscreenenter"",""0"",""10575""
","
","988","<div class='center'><p>Let's go over the important points again. Your job is to: </p><p>1. Pick the pirate who is best at robbing ships and will bring you back gold coins. </p><p>2. Correctly remember whether or not you saw a ship before. If you did see the ship before, remind yourself on which island you saw it. </p><p><b>[Press the space bar to continue]</b></p></div>","32","","","","","","","","","","","","","","","","","","","","","","","",""
"","do_welcome","18","165212","0.0-18.0","""event"",""trial"",""time""
""fullscreenenter"",""0"",""10575""
","
","
","""event"",""trial"",""time""
""fullscreenenter"",""0"",""10575""
","
","null","","","","","","","","null","","","","","","","","","","","","","","","","","",""
"","do_trial","19","169324","0.0-19.0-0.0","""event"",""trial"",""time""
""fullscreenenter"",""0"",""10575""
","
","
","""event"",""trial"",""time""
""fullscreenenter"",""0"",""10575""
","
","1545","","","","","","","","49","0,1,0","6","blank","230","null","0.18383814101202717","0.4126777025804566","0.26219720630224574","0","","","","","","","","",""
"","html-keyboard-response","20","170332","0.0-19.0-1.0","""event"",""trial"",""time""
""fullscreenenter"",""0"",""10575""
","
","
","""event"",""trial"",""time""
""fullscreenenter"",""0"",""10575""
","
","null","<p></p>","null","","","","","","","","","","","","","","","","","","","","","","","",""
"","do_trial","21","174133","0.0-20.0-0.0","""event"",""trial"",""time""
""fullscreenenter"",""0"",""10575""
","
","
","""event"",""trial"",""time""
""fullscreenenter"",""0"",""10575""
","
","1239.9000000059605","","","","","","","","50","1,0,0","6","blank","231","null","0.29413432637082393","0.46110579763519666","0.26790848034988385","0","","","","","","","","",""
"","html-keyboard-response","22","175135","0.0-20.0-1.0","""event"",""trial"",""time""
""fullscreenenter"",""0"",""10575""
","
","
","""event"",""trial"",""time""
""fullscreenenter"",""0"",""10575""
","
","null","<p></p>","null","","","","","","","","","","","","","","","","","","","","","","","",""
"","do_trial","23","178885","0.0-21.0-0.0","""event"",""trial"",""time""
""fullscreenenter"",""0"",""10575""
","
","
","""event"",""trial"",""time""
""fullscreenenter"",""0"",""10575""
","
","1189.4000000059605","","","","","","","","51","1,1,0","6","blank","232","null","0.33554876025684877","0.3708649857900063","0.12524767012293653","0","","","","","","","","",""
"","html-keyboard-response","24","179887","0.0-21.0-1.0","""event"",""trial"",""time""
""fullscreenenter"",""0"",""10575""
","
","
","""event"",""trial"",""time""
""fullscreenenter"",""0"",""10575""
","
","null","<p></p>","null","","","","","","","","","","","","","","","","","","","","","","","",""
"","do_trial","25","183530","0.0-22.0-0.0","""event"",""trial"",""time""
""fullscreenenter"",""0"",""10575""
","
","
","""event"",""trial"",""time""
""fullscreenenter"",""0"",""10575""
","
","1081.9000000059605","","","","","","","","49","0,1,0","6","blank","233","null","0.2749385719948817","0.5761908661469832","0.07144764049260292","0","","","","","","","","",""
"","html-keyboard-response","26","184533","0.0-22.0-1.0","""event"",""trial"",""time""
""fullscreenenter"",""0"",""10575""
","
","
","""event"",""trial"",""time""
""fullscreenenter"",""0"",""10575""
","
","null","<p></p>","null","","","","","","","","","","","","","","","","","","","","","","","",""
"","do_trial","27","187889","0.0-23.0-0.0","""event"",""trial"",""time""
""fullscreenenter"",""0"",""10575""
","
","
","""event"",""trial"",""time""
""fullscreenenter"",""0"",""10575""
","
","793.4000000059605","","","","","","","","50","0,0,0","6","blank","234","null","0.17796806075979887","0.5063885890938946","0.09562440356034449","0","","","","","","","","",""
"","html-keyboard-response","28","188892","0.0-23.0-1.0","""event"",""trial"",""time""
""fullscreenenter"",""0"",""10575""
","
","
","""event"",""trial"",""time""
""fullscreenenter"",""0"",""10575""
","
","null","<p></p>","null","","","","","","","","","","","","","","","","","","","","","","","",""
"","do_trial","29","191931","0.0-24.0-0.0","""event"",""trial"",""time""
""fullscreenenter"",""0"",""10575""
","
","
","""event"",""trial"",""time""
""fullscreenenter"",""0"",""10575""
","
","478.70000000298023","","","","","","","","51","1,0,1","6","blank","235","null","0.2535485053167563","0.6891100412375741","0.25680006211519346","1","","","","","","","","",""
"","html-keyboard-response","30","192933","0.0-24.0-1.0","""event"",""trial"",""time""
""fullscreenenter"",""0"",""10575""
","
","
","""event"",""trial"",""time""
""fullscreenenter"",""0"",""10575""
","
","null","<p></p>","null","","","","","","","","","","","","","","","","","","","","","","","",""
"","do_trial","31","196328","0.0-25.0-0.0","""event"",""trial"",""time""
""fullscreenenter"",""0"",""10575""
","
","
","""event"",""trial"",""time""
""fullscreenenter"",""0"",""10575""
","
","833.7999999970198","","","","","","","","49","0,1,0","6","blank","236","null","0.34769092654474953","0.7343826238277135","0.30920647792138667","0","","","","","","","","",""
"","html-keyboard-response","32","197330","0.0-25.0-1.0","""event"",""trial"",""time""
""fullscreenenter"",""0"",""10575""
","
","
","""event"",""trial"",""time""
""fullscreenenter"",""0"",""10575""
","
","null","<p></p>","null","","","","","","","","","","","","","","","","","","","","","","","",""
"","do_trial","33","200550","0.0-26.0-0.0","""event"",""trial"",""time""
""fullscreenenter"",""0"",""10575""
","
","
","""event"",""trial"",""time""
""fullscreenenter"",""0"",""10575""
","
","657.5999999940395","","","","","","","","50","0,1,0","6","blank","237","null","0.37561543890497506","0.6790442026666427","0.09008334011345494","1","","","","","","","","",""
"","html-keyboard-response","34","201553","0.0-26.0-1.0","""event"",""trial"",""time""
""fullscreenenter"",""0"",""10575""
","
","
","""event"",""trial"",""time""
""fullscreenenter"",""0"",""10575""
","
","null","<p></p>","null","","","","","","","","","","","","","","","","","","","","","","","",""
"","do_trial","35","204604","0.0-27.0-0.0","""event"",""trial"",""time""
""fullscreenenter"",""0"",""10575""
","
","
","""event"",""trial"",""time""
""fullscreenenter"",""0"",""10575""
","
","492.5","","","","","","","","51","0,1,1","6","blank","238","null","0.23002944053169105","0.7092633187008653","0.2707952369056763","1","","","","","","","","",""
"","html-keyboard-response","36","205606","0.0-27.0-1.0","""event"",""trial"",""time""
""fullscreenenter"",""0"",""10575""
","
","
","""event"",""trial"",""time""
""fullscreenenter"",""0"",""10575""
","
","null","<p></p>","null","","","","","","","","","","","","","","","","","","","","","","","",""
"","do_trial","37","208833","0.0-28.0-0.0","""event"",""trial"",""time""
""fullscreenenter"",""0"",""10575""
","
","
","""event"",""trial"",""time""
""fullscreenenter"",""0"",""10575""
","
","669.4000000059605","","","","","","","","49","1,1,0","6","blank","239","null","0.2955932940172809","0.684898032150497","0.21863067472525885","1","","","","","","","","",""
"","html-keyboard-response","38","209835","0.0-28.0-1.0","""event"",""trial"",""time""
""fullscreenenter"",""0"",""10575""
","
","
","""event"",""trial"",""time""
""fullscreenenter"",""0"",""10575""
","
","null","<p></p>","null","","","","","","","","","","","","","","","","","","","","","","","",""
"","do_trial","39","212639","0.0-29.0-0.0","""event"",""trial"",""time""
""fullscreenenter"",""0"",""10575""
","
","
","""event"",""trial"",""time""
""fullscreenenter"",""0"",""10575""
","
","245.5","","","","","","","","50","0,0,0","6","blank","240","null","0.1989791478105196","0.6101786029480816","0.24254373663800077","0","","","","","","","","",""
"","html-keyboard-response","40","213642","0.0-29.0-1.0","""event"",""trial"",""time""
""fullscreenenter"",""0"",""10575""
","
","
","""event"",""trial"",""time""
""fullscreenenter"",""0"",""10575""
","
","null","<p></p>","null","","","","","","","","","","","","","","","","","","","","","","","",""
"","do_recog","41","219652","0.0-30.0-0.0","""event"",""trial"",""time""
""fullscreenenter"",""0"",""10575""
","
","
","""event"",""trial"",""time""
""fullscreenenter"",""0"",""10575""
","
","null","","","","","","","","null","","","","241","probe-236","","","","","0","[object Object]","null","null","0","","","",""
"","html-keyboard-response","42","220655","0.0-30.0-1.0","""event"",""trial"",""time""
""fullscreenenter"",""0"",""10575""
","
","
","""event"",""trial"",""time""
""fullscreenenter"",""0"",""10575""
","
","null","<p></p>","null","","","","","","","","","","","","","","","","","","","","","","","",""
"","do_trial","43","224545","0.0-31.0-0.0","""event"",""trial"",""time""
""fullscreenenter"",""0"",""10575""
","
","
","""event"",""trial"",""time""
""fullscreenenter"",""0"",""10575""
","
","1330","","","","","","","","49","1,0,0","6","blank","242","null","0.1926102607479735","0.6297192233599092","0.23232354079352924","1","","","","","","","","",""
"","html-keyboard-response","44","225547","0.0-31.0-1.0","""event"",""trial"",""time""
""fullscreenenter"",""0"",""10575""
","
","
","""event"",""trial"",""time""
""fullscreenenter"",""0"",""10575""
","
","null","<p></p>","null","","","","","","","","","","","","","","","","","","","","","","","",""
"","do_trial","45","228767","0.0-32.0-0.0","""event"",""trial"",""time""
""fullscreenenter"",""0"",""10575""
","
","
","""event"",""trial"",""time""
""fullscreenenter"",""0"",""10575""
","
","659.8999999910593","","","","","","","","50","0,1,1","6","blank","243","null","0.164517925478083","0.5970836703112044","0.48406354993592277","1","","","","","","","","",""
"","html-keyboard-response","46","229769","0.0-32.0-1.0","""event"",""trial"",""time""
""fullscreenenter"",""0"",""10575""
","
","
","""event"",""trial"",""time""
""fullscreenenter"",""0"",""10575""
","
","null","<p></p>","null","","","","","","","","","","","","","","","","","","","","","","","",""
"","do_trial","47","233518","0.0-33.0-0.0","""event"",""trial"",""time""
""fullscreenenter"",""0"",""10575""
","
","
","""event"",""trial"",""time""
""fullscreenenter"",""0"",""10575""
","
","1190.1000000089407","","","","","","","","51","0,0,1","6","blank","244","null","0.26892008373159476","0.5685873088716374","0.6185742418702267","1","","","","","","","","",""
"","html-keyboard-response","48","234522","0.0-33.0-1.0","""event"",""trial"",""time""
""fullscreenenter"",""0"",""10575""
","
","
","""event"",""trial"",""time""
""fullscreenenter"",""0"",""10575""
","
","null","<p></p>","null","","","","","","","","","","","","","","","","","","","","","","","",""
"","do_trial","49","237916","0.0-34.0-0.0","""event"",""trial"",""time""
""fullscreenenter"",""0"",""10575""
","
","
","""event"",""trial"",""time""
""fullscreenenter"",""0"",""10575""
","
","833.3000000119209","","","","","","","","49","0,1,0","6","blank","245","null","0.1615602402441262","0.4736256918677128","0.6047558713917979","0","","","","","","","","",""
"","html-keyboard-response","50","238918","0.0-34.0-1.0","""event"",""trial"",""time""
""fullscreenenter"",""0"",""10575""
","
","
","""event"",""trial"",""time""
""fullscreenenter"",""0"",""10575""
","
","null","<p></p>","null","","","","","","","","","","","","","","","","","","","","","","","",""
"","do_trial","51","242102","0.0-35.0-0.0","""event"",""trial"",""time""
""fullscreenenter"",""0"",""10575""
","
","
","""event"",""trial"",""time""
""fullscreenenter"",""0"",""10575""
","
","625.8000000119209","","","","","","","","50","0,0,1","6","blank","246","null","0.1087928047724491","0.5460727774887149","0.5415500337096664","0","","","","","","","","",""
"","html-keyboard-response","52","243104","0.0-35.0-1.0","""event"",""trial"",""time""
""fullscreenenter"",""0"",""10575""
","
","
","""event"",""trial"",""time""
""fullscreenenter"",""0"",""10575""
","
","null","<p></p>","null","","","","","","","","","","","","","","","","","","","","","","","",""
"","do_trial","53","246230","0.0-36.0-0.0","""event"",""trial"",""time""
""fullscreenenter"",""0"",""10575""
","
","
","""event"",""trial"",""time""
""fullscreenenter"",""0"",""10575""
","
","568.2000000029802","","","","","","","","51","0,1,0","6","blank","247","null","0.15138541678170472","0.3595891685269945","0.4367520263574213","0","","","","","","","","",""
"","html-keyboard-response","54","247232","0.0-36.0-1.0","""event"",""trial"",""time""
""fullscreenenter"",""0"",""10575""
","
","
","""event"",""trial"",""time""
""fullscreenenter"",""0"",""10575""
","
","null","<p></p>","null","","","","","","","","","","","","","","","","","","","","","","","",""
"","do_recog","55","250945","0.0-37.0-0.0","""event"",""trial"",""time""
""fullscreenenter"",""0"",""10575""
","
","
","""event"",""trial"",""time""
""fullscreenenter"",""0"",""10575""
","
","2203.8999999910593","","","","","","","","56","","","","248","probe-01","","","","","1","[object Object]","36","0","0","","","",""
"","html-keyboard-response","56","251947","0.0-37.0-1.0","""event"",""trial"",""time""
""fullscreenenter"",""0"",""10575""
","
","
","""event"",""trial"",""time""
""fullscreenenter"",""0"",""10575""
","
","null","<p></p>","null","","","","","","","","","","","","","","","","","","","","","","","",""
"","do_trial","57","255336","0.0-38.0-0.0","""event"",""trial"",""time""
""fullscreenenter"",""0"",""10575""
","
","
","""event"",""trial"",""time""
""fullscreenenter"",""0"",""10575""
","
","829.6999999880791","","","","","","","","49","0,0,0","6","blank","249","null","0.21154179122676917","0.4228382357081522","0.5639606182239477","0","","","","","","","","",""
"","html-keyboard-response","58","256337","0.0-38.0-1.0","""event"",""trial"",""time""
""fullscreenenter"",""0"",""10575""
","
","
","""event"",""trial"",""time""
""fullscreenenter"",""0"",""10575""
","
","null","<p></p>","null","","","","","","","","","","","","","","","","","","","","","","","",""
"","do_recog","59","259611","0.0-39.0-0.0","""event"",""trial"",""time""
""fullscreenenter"",""0"",""10575""
","
","
","""event"",""trial"",""time""
""fullscreenenter"",""0"",""10575""
","
","1765.9000000059605","","","","","","","","56","","","","250","probe-225","","","","","1","[object Object]","31","0","0","","","",""
"","html-keyboard-response","60","260613","0.0-39.0-1.0","""event"",""trial"",""time""
""fullscreenenter"",""0"",""10575""
","
","
","""event"",""trial"",""time""
""fullscreenenter"",""0"",""10575""
","
","null","<p></p>","null","","","","","","","","","","","","","","","","","","","","","","","",""
"","do_trial","61","264275","0.0-40.0-0.0","""event"",""trial"",""time""
""fullscreenenter"",""0"",""10575""
","
","
","""event"",""trial"",""time""
""fullscreenenter"",""0"",""10575""
","
","1102.7999999970198","","","","","","","","49","0,1,1","6","blank","251","null","0.17242447083361015","0.4367243021467887","0.5403355975271146","0","","","","","","","","",""
"","html-keyboard-response","62","265277","0.0-40.0-1.0","""event"",""trial"",""time""
""fullscreenenter"",""0"",""10575""
","
","
","""event"",""trial"",""time""
""fullscreenenter"",""0"",""10575""
","
","null","<p></p>","null","","","","","","","","","","","","","","","","","","","","","","","",""
"","do_trial","63","268470","0.0-41.0-0.0","""event"",""trial"",""time""
""fullscreenenter"",""0"",""10575""
","
","
","""event"",""trial"",""time""
""fullscreenenter"",""0"",""10575""
","
","631.5999999940395","","","","","","","","50","1,1,0","6","blank","252","null","0.3451683964917081","0.2624072887586531","0.43028936970895354","1","","","","","","","","",""
"","html-keyboard-response","64","269471","0.0-41.0-1.0","""event"",""trial"",""time""
""fullscreenenter"",""0"",""10575""
","
","
","""event"",""trial"",""time""
""fullscreenenter"",""0"",""10575""
","
","null","<p></p>","null","","","","","","","","","","","","","","","","","","","","","","","",""
"","do_trial","65","273266","0.0-42.0-0.0","""event"",""trial"",""time""
""fullscreenenter"",""0"",""10575""
","
","
","""event"",""trial"",""time""
""fullscreenenter"",""0"",""10575""
","
","1235.7000000029802","","","","","","","","51","0,0,0","6","blank","253","null","0.23898948354896055","0.23263417564716377","0.7153651248374532","0","","","","","","","","",""
"","html-keyboard-response","66","274268","0.0-42.0-1.0","""event"",""trial"",""time""
""fullscreenenter"",""0"",""10575""
","
","
","""event"",""trial"",""time""
""fullscreenenter"",""0"",""10575""
","
","null","<p></p>","null","","","","","","","","","","","","","","","","","","","","","","","",""
"","do_trial","67","277563","0.0-43.0-0.0","""event"",""trial"",""time""
""fullscreenenter"",""0"",""10575""
","
","
","""event"",""trial"",""time""
""fullscreenenter"",""0"",""10575""
","
","738.5","","","","","","","","49","0,0,1","6","blank","254","null","0.20232980378453153","0.2958389746907193","0.6839192075917824","0","","","","","","","","",""
"","html-keyboard-response","68","278565","0.0-43.0-1.0","""event"",""trial"",""time""
""fullscreenenter"",""0"",""10575""
","
","
","""event"",""trial"",""time""
""fullscreenenter"",""0"",""10575""
","
","null","<p></p>","null","","","","","","","","","","","","","","","","","","","","","","","",""
"","do_recog","69","282098","0.0-44.0-0.0","""event"",""trial"",""time""
""fullscreenenter"",""0"",""10575""
","
","
","""event"",""trial"",""time""
""fullscreenenter"",""0"",""10575""
","
","2023.5","","","","","","","","56","","","","255","probe-115","","","","","1","[object Object]","196","4","0","","","",""
"","html-keyboard-response","70","283100","0.0-44.0-1.0","""event"",""trial"",""time""
""fullscreenenter"",""0"",""10575""
","
","
","""event"",""trial"",""time""
""fullscreenenter"",""0"",""10575""
","
","null","<p></p>","null","","","","","","","","","","","","","","","","","","","","","","","",""
"","do_trial","71","287683","0.0-45.0-0.0","""event"",""trial"",""time""
""fullscreenenter"",""0"",""10575""
","
","
","""event"",""trial"",""time""
""fullscreenenter"",""0"",""10575""
","
","2023.7000000029802","","","","","","","","49","0,0,1","6","blank","256","null","0.1343378442171926","0.29139571440878154","0.6382620777019711","0","","","","","","","","",""
"","html-keyboard-response","72","288686","0.0-45.0-1.0","""event"",""trial"",""time""
""fullscreenenter"",""0"",""10575""
","
","
","""event"",""trial"",""time""
""fullscreenenter"",""0"",""10575""
","
","null","<p></p>","null","","","","","","","","","","","","","","","","","","","","","","","",""
"","do_trial","73","291914","0.0-46.0-0.0","""event"",""trial"",""time""
""fullscreenenter"",""0"",""10575""
","
","
","""event"",""trial"",""time""
""fullscreenenter"",""0"",""10575""
","
","668.1000000089407","","","","","","","","50","0,0,1","6","blank","257","null","0.06355750214376762","0.22994493979642808","0.571977848109264","0","","","","","","","","",""
"","html-keyboard-response","74","292916","0.0-46.0-1.0","""event"",""trial"",""time""
""fullscreenenter"",""0"",""10575""
","
","
","""event"",""trial"",""time""
""fullscreenenter"",""0"",""10575""
","
","null","<p></p>","null","","","","","","","","","","","","","","","","","","","","","","","",""
"","do_recog","75","296838","0.0-47.0-0.0","""event"",""trial"",""time""
""fullscreenenter"",""0"",""10575""
","
","
","""event"",""trial"",""time""
""fullscreenenter"",""0"",""10575""
","
","2412.3999999910593","","","","","","","","53","","","","258","probe-174","","","","","1","[object Object]","75","1","1","","","",""
"","html-keyboard-response","76","297840","0.0-47.0-1.0","""event"",""trial"",""time""
""fullscreenenter"",""0"",""10575""
","
","
","""event"",""trial"",""time""
""fullscreenenter"",""0"",""10575""
","
","null","<p></p>","null","","","","","","","","","","","","","","","","","","","","","","","",""
"","do_trial","77","301171","0.0-48.0-0.0","""event"",""trial"",""time""
""fullscreenenter"",""0"",""10575""
","
","
","""event"",""trial"",""time""
""fullscreenenter"",""0"",""10575""
","
","770.8999999910593","","","","","","","","49","0,0,0","6","blank","259","null","0.15822523744424583","0.3274347695797368","0.4211795259967101","0","","","","","","","","",""
"","html-keyboard-response","78","302173","0.0-48.0-1.0","""event"",""trial"",""time""
""fullscreenenter"",""0"",""10575""
","
","
","""event"",""trial"",""time""
""fullscreenenter"",""0"",""10575""
","
","null","<p></p>","null","","","","","","","","","","","","","","","","","","","","","","","",""
"","do_trial","79","305134","0.0-49.0-0.0","""event"",""trial"",""time""
""fullscreenenter"",""0"",""10575""
","
","
","""event"",""trial"",""time""
""fullscreenenter"",""0"",""10575""
","
","401.6000000089407","","","","","","","","50","1,1,0","6","blank","260","null","0.13787450178479993","0.23407428414411321","0.331328600672795","1","","","","","","","","",""
"","html-keyboard-response","80","306136","0.0-49.0-1.0","""event"",""trial"",""time""
""fullscreenenter"",""0"",""10575""
","
","
","""event"",""trial"",""time""
""fullscreenenter"",""0"",""10575""
","
","null","<p></p>","null","","","","","","","","","","","","","","","","","","","","","","","",""
"","do_trial","81","309233","0.0-50.0-0.0","""event"",""trial"",""time""
""fullscreenenter"",""0"",""10575""
","
","
","""event"",""trial"",""time""
""fullscreenenter"",""0"",""10575""
","
","540","","","","","","","","51","0,0,1","6","blank","261","null","0.24958589109577525","0.3618377223966911","0.33936622180007947","1","","","","","","","","",""
"","html-keyboard-response","82","310236","0.0-50.0-1.0","""event"",""trial"",""time""
""fullscreenenter"",""0"",""10575""
","
","
","""event"",""trial"",""time""
""fullscreenenter"",""0"",""10575""
","
","null","<p></p>","null","","","","","","","","","","","","","","","","","","","","","","","",""
"","do_trial","83","313330","0.0-51.0-0.0","""event"",""trial"",""time""
""fullscreenenter"",""0"",""10575""
","
","
","""event"",""trial"",""time""
""fullscreenenter"",""0"",""10575""
","
","536","","","","","","","","49","1,0,1","6","blank","262","null","0.2854505426235661","0.43611081845353233","0.3957498782847729","1","","","","","","","","",""
"","html-keyboard-response","84","314337","0.0-51.0-1.0","""event"",""trial"",""time""
""fullscreenenter"",""0"",""10575""
","
","
","""event"",""trial"",""time""
""fullscreenenter"",""0"",""10575""
","
","null","<p></p>","null","","","","","","","","","","","","","","","","","","","","","","","",""
"","do_recog","85","317415","0.0-52.0-0.0","""event"",""trial"",""time""
""fullscreenenter"",""0"",""10575""
","
","
","""event"",""trial"",""time""
""fullscreenenter"",""0"",""10575""
","
","1568.2999999970198","","","","","","","","56","","","","263","probe-14","","","","","1","[object Object]","116","2","0","","","",""
"","html-keyboard-response","86","318417","0.0-52.0-1.0","""event"",""trial"",""time""
""fullscreenenter"",""0"",""10575""
","
","
","""event"",""trial"",""time""
""fullscreenenter"",""0"",""10575""
","
","null","<p></p>","null","","","","","","","","","","","","","","","","","","","","","","","",""
"","do_trial","87","321753","0.0-53.0-0.0","""event"",""trial"",""time""
""fullscreenenter"",""0"",""10575""
","
","
","""event"",""trial"",""time""
""fullscreenenter"",""0"",""10575""
","
","773.9000000059605","","","","","","","","49","0,0,1","6","blank","264","null","0.12482308616237604","0.3561244952416453","0.545868643749161","0","","","","","","","","",""
"","html-keyboard-response","88","322755","0.0-53.0-1.0","""event"",""trial"",""time""
""fullscreenenter"",""0"",""10575""
","
","
","""event"",""trial"",""time""
""fullscreenenter"",""0"",""10575""
","
","null","<p></p>","null","","","","","","","","","","","","","","","","","","","","","","","",""
"","do_trial","89","325969","0.0-54.0-0.0","""event"",""trial"",""time""
""fullscreenenter"",""0"",""10575""
","
","
","""event"",""trial"",""time""
""fullscreenenter"",""0"",""10575""
","
","656.1000000089407","","","","","","","","50","0,0,1","6","blank","265","null","0.11959638490458724","0.3656503689484196","0.56540121726068","0","","","","","","","","",""
"","html-keyboard-response","90","326971","0.0-54.0-1.0","""event"",""trial"",""time""
""fullscreenenter"",""0"",""10575""
","
","
","""event"",""trial"",""time""
""fullscreenenter"",""0"",""10575""
","
","null","<p></p>","null","","","","","","","","","","","","","","","","","","","","","","","",""
"","do_trial","91","329902","0.0-55.0-0.0","""event"",""trial"",""time""
""fullscreenenter"",""0"",""10575""
","
","
","""event"",""trial"",""time""
""fullscreenenter"",""0"",""10575""
","
","371.70000000298023","","","","","","","","51","0,0,0","6","blank","266","null","0.17092072458188234","0.30141060068565995","0.5423693397701131","0","","","","","","","","",""
"","html-keyboard-response","92","330904","0.0-55.0-1.0","""event"",""trial"",""time""
""fullscreenenter"",""0"",""10575""
","
","
","""event"",""trial"",""time""
""fullscreenenter"",""0"",""10575""
","
","null","<p></p>","null","","","","","","","","","","","","","","","","","","","","","","","",""
"","do_recog","93","334291","0.0-56.0-0.0","""event"",""trial"",""time""
""fullscreenenter"",""0"",""10575""
","
","
","""event"",""trial"",""time""
""fullscreenenter"",""0"",""10575""
","
","1876.7000000029802","","","","","","","","53","","","","267","probe-130","","","","","1","[object Object]","119","2","1","","","",""
"","html-keyboard-response","94","335293","0.0-56.0-1.0","""event"",""trial"",""time""
""fullscreenenter"",""0"",""10575""
","
","
","""event"",""trial"",""time""
""fullscreenenter"",""0"",""10575""
","
","null","<p></p>","null","","","","","","","","","","","","","","","","","","","","","","","",""
"","do_trial","95","338535","0.0-57.0-0.0","""event"",""trial"",""time""
""fullscreenenter"",""0"",""10575""
","
","
","""event"",""trial"",""time""
""fullscreenenter"",""0"",""10575""
","
","670.0999999940395","","","","","","","","49","0,0,0","6","blank","268","null","0.13852434857968543","0.32249527880812495","0.4310531598856384","0","","","","","","","","",""
"","html-keyboard-response","96","339536","0.0-57.0-1.0","""event"",""trial"",""time""
""fullscreenenter"",""0"",""10575""
","
","
","""event"",""trial"",""time""
""fullscreenenter"",""0"",""10575""
","
","null","<p></p>","null","","","","","","","","","","","","","","","","","","","","","","","",""
"","break","97","355915","0.0-58.0-0.0","""event"",""trial"",""time""
""fullscreenenter"",""0"",""10575""
","
","
","""event"",""trial"",""time""
""fullscreenenter"",""0"",""10575""
","
","16376.5","<div class='center'><p>Time to take a quick break! You have 2 minutes to rest, but you can move on sooner if you'd like.</p><p> Press the <b>space bar</b> to continue.</p></div>","32","","","","","","","","","","","","","","","","","","","","","","","",""
"","do_trial","98","360271","0.0-58.0-1.0","""event"",""trial"",""time""
""fullscreenenter"",""0"",""10575""
","
","
","""event"",""trial"",""time""
""fullscreenenter"",""0"",""10575""
","
","1797.2000000029802","","","","","","","","49","0,0,0","6","blank","269","null","0.15220661540593747","0.47087407929513775","0.44250898420280693","0","","","","","","","","",""
"","html-keyboard-response","99","361273","0.0-58.0-2.0","""event"",""trial"",""time""
""fullscreenenter"",""0"",""10575""
","
","
","""event"",""trial"",""time""
""fullscreenenter"",""0"",""10575""
","
","null","<p></p>","null","","","","","","","","","","","","","","","","","","","","","","","",""
"","do_trial","100","364530","0.0-59.0-0.0","""event"",""trial"",""time""
""fullscreenenter"",""0"",""10575""
","
","
","""event"",""trial"",""time""
""fullscreenenter"",""0"",""10575""
","
","699.5999999940395","","","","","","","","50","0,1,0","6","blank","270","null","0.17886598935667877","0.4915864252690406","0.48227161708479593","1","","","","","","","","",""
"","html-keyboard-response","101","365532","0.0-59.0-1.0","""event"",""trial"",""time""
""fullscreenenter"",""0"",""10575""
","
","
","""event"",""trial"",""time""
""fullscreenenter"",""0"",""10575""
","
","null","<p></p>","null","","","","","","","","","","","","","","","","","","","","","","","",""
"","do_trial","102","368869","0.0-60.0-0.0","""event"",""trial"",""time""
""fullscreenenter"",""0"",""10575""
","
","
","""event"",""trial"",""time""
""fullscreenenter"",""0"",""10575""
","
","777.2000000029802","","","","","","","","51","0,0,0","6","blank","271","null","0.2543407238460236","0.4097271001907877","0.6163178711091333","0","","","","","","","","",""
"","html-keyboard-response","103","369871","0.0-60.0-1.0","""event"",""trial"",""time""
""fullscreenenter"",""0"",""10575""
","
","
","""event"",""trial"",""time""
""fullscreenenter"",""0"",""10575""
","
","null","<p></p>","null","","","","","","","","","","","","","","","","","","","","","","","",""
"","do_trial","104","373049","0.0-61.0-0.0","""event"",""trial"",""time""
""fullscreenenter"",""0"",""10575""
","
","
","""event"",""trial"",""time""
""fullscreenenter"",""0"",""10575""
","
","618.5999999940395","","","","","","","","49","0,0,0","6","blank","272","null","0.16776688730826375","0.3544262937043958","0.46785607270126717","0","","","","","","","","",""
"","html-keyboard-response","105","374051","0.0-61.0-1.0","""event"",""trial"",""time""
""fullscreenenter"",""0"",""10575""
","
","
","""event"",""trial"",""time""
""fullscreenenter"",""0"",""10575""
","
","null","<p></p>","null","","","","","","","","","","","","","","","","","","","","","","","",""
"","do_trial","106","376930","0.0-62.0-0.0","""event"",""trial"",""time""
""fullscreenenter"",""0"",""10575""
","
","
","""event"",""trial"",""time""
""fullscreenenter"",""0"",""10575""
","
","320.3999999910593","","","","","","","","50","0,0,0","6","blank","273","null","0.2297137593722056","0.48451651872253726","0.5686503128381959","0","","","","","","","","",""
"","html-keyboard-response","107","377931","0.0-62.0-1.0","""event"",""trial"",""time""
""fullscreenenter"",""0"",""10575""
","
","
","""event"",""trial"",""time""
""fullscreenenter"",""0"",""10575""
","
","null","<p></p>","null","","","","","","","","","","","","","","","","","","","","","","","",""
"","do_recog","108","381616","0.0-63.0-0.0","""event"",""trial"",""time""
""fullscreenenter"",""0"",""10575""
","
","
","""event"",""trial"",""time""
""fullscreenenter"",""0"",""10575""
","
","2172.9000000059605","","","","","","","","53","","","","274","probe-136","","","","","1","[object Object]","78","1","1","","","",""
"","html-keyboard-response","109","382618","0.0-63.0-1.0","""event"",""trial"",""time""
""fullscreenenter"",""0"",""10575""
","
","
","""event"",""trial"",""time""
""fullscreenenter"",""0"",""10575""
","
","null","<p></p>","null","","","","","","","","","","","","","","","","","","","","","","","",""
"","do_trial","110","385965","0.0-64.0-0.0","""event"",""trial"",""time""
""fullscreenenter"",""0"",""10575""
","
","
","""event"",""trial"",""time""
""fullscreenenter"",""0"",""10575""
","
","787","","","","","","","","49","0,0,1","6","blank","275","null","0.33719472203837897","0.22180114622900352","0.6233941333761188","0","","","","","","","","",""
"","html-keyboard-response","111","386967","0.0-64.0-1.0","""event"",""trial"",""time""
""fullscreenenter"",""0"",""10575""
","
","
","""event"",""trial"",""time""
""fullscreenenter"",""0"",""10575""
","
","null","<p></p>","null","","","","","","","","","","","","","","","","","","","","","","","",""
"","do_recog","112","390155","0.0-65.0-0.0","""event"",""trial"",""time""
""fullscreenenter"",""0"",""10575""
","
","
","""event"",""trial"",""time""
""fullscreenenter"",""0"",""10575""
","
","1677.8999999910593","","","","","","","","53","","","","276","probe-215","","","","","1","[object Object]","113","2","1","","","",""
"","html-keyboard-response","113","391157","0.0-65.0-1.0","""event"",""trial"",""time""
""fullscreenenter"",""0"",""10575""
","
","
","""event"",""trial"",""time""
""fullscreenenter"",""0"",""10575""
","
","null","<p></p>","null","","","","","","","","","","","","","","","","","","","","","","","",""
"","do_trial","114","394502","0.0-66.0-0.0","""event"",""trial"",""time""
""fullscreenenter"",""0"",""10575""
","
","
","""event"",""trial"",""time""
""fullscreenenter"",""0"",""10575""
","
","785.9000000059605","","","","","","","","49","0,1,0","6","blank","277","null","0.31206889441927","0.1798871531783457","0.5741018524305799","0","","","","","","","","",""
"","html-keyboard-response","115","395504","0.0-66.0-1.0","""event"",""trial"",""time""
""fullscreenenter"",""0"",""10575""
","
","
","""event"",""trial"",""time""
""fullscreenenter"",""0"",""10575""
","
","null","<p></p>","null","","","","","","","","","","","","","","","","","","","","","","","",""
"","do_recog","116","398529","0.0-67.0-0.0","""event"",""trial"",""time""
""fullscreenenter"",""0"",""10575""
","
","
","""event"",""trial"",""time""
""fullscreenenter"",""0"",""10575""
","
","1516.8999999910593","","","","","","","","56","","","","278","probe-235","","","","","0","[object Object]","null","null","1","","","",""
"","html-keyboard-response","117","399531","0.0-67.0-1.0","""event"",""trial"",""time""
""fullscreenenter"",""0"",""10575""
","
","
","""event"",""trial"",""time""
""fullscreenenter"",""0"",""10575""
","
","null","<p></p>","null","","","","","","","","","","","","","","","","","","","","","","","",""
"","do_trial","118","402794","0.0-68.0-0.0","""event"",""trial"",""time""
""fullscreenenter"",""0"",""10575""
","
","
","""event"",""trial"",""time""
""fullscreenenter"",""0"",""10575""
","
","705.8000000119209","","","","","","","","49","0,0,0","6","blank","279","null","0.1872509800333956","0.1896902472940869","0.5940415071681526","0","","","","","","","","",""
"","html-keyboard-response","119","403796","0.0-68.0-1.0","""event"",""trial"",""time""
""fullscreenenter"",""0"",""10575""
","
","
","""event"",""trial"",""time""
""fullscreenenter"",""0"",""10575""
","
","null","<p></p>","null","","","","","","","","","","","","","","","","","","","","","","","",""
"","do_trial","120","406790","0.0-69.0-0.0","""event"",""trial"",""time""
""fullscreenenter"",""0"",""10575""
","
","
","""event"",""trial"",""time""
""fullscreenenter"",""0"",""10575""
","
","434.70000000298023","","","","","","","","50","1,0,1","6","blank","280","null","0.1610187823304281","0.1380758335854059","0.5534939375147075","0","","","","","","","","",""
"","html-keyboard-response","121","407792","0.0-69.0-1.0","""event"",""trial"",""time""
""fullscreenenter"",""0"",""10575""
","
","
","""event"",""trial"",""time""
""fullscreenenter"",""0"",""10575""
","
","null","<p></p>","null","","","","","","","","","","","","","","","","","","","","","","","",""
"","do_trial","122","410628","0.0-70.0-0.0","""event"",""trial"",""time""
""fullscreenenter"",""0"",""10575""
","
","
","""event"",""trial"",""time""
""fullscreenenter"",""0"",""10575""
","
","277.80000001192093","","","","","","","","51","1,0,1","6","blank","281","null","0.20929793878765512","0.13187190396426235","0.5779436049468677","1","","","","","","","","",""
"","html-keyboard-response","123","411630","0.0-70.0-1.0","""event"",""trial"",""time""
""fullscreenenter"",""0"",""10575""
","
","
","""event"",""trial"",""time""
""fullscreenenter"",""0"",""10575""
","
","null","<p></p>","null","","","","","","","","","","","","","","","","","","","","","","","",""
"","do_recog","124","415054","0.0-71.0-0.0","""event"",""trial"",""time""
""fullscreenenter"",""0"",""10575""
","
","
","""event"",""trial"",""time""
""fullscreenenter"",""0"",""10575""
","
","1912.9000000059605","","","","","","","","53","","","","282","probe-137","","","","","1","[object Object]","192","4","1","","","",""
"","html-keyboard-response","125","416057","0.0-71.0-1.0","""event"",""trial"",""time""
""fullscreenenter"",""0"",""10575""
","
","
","""event"",""trial"",""time""
""fullscreenenter"",""0"",""10575""
","
","null","<p></p>","null","","","","","","","","","","","","","","","","","","","","","","","",""
"","do_trial","126","419638","0.0-72.0-0.0","""event"",""trial"",""time""
""fullscreenenter"",""0"",""10575""
","
","
","""event"",""trial"",""time""
""fullscreenenter"",""0"",""10575""
","
","1024","","","","","","","","49","1,0,1","6","blank","283","null","0.18808690121191668","0.22549015384078078","0.5948548623670459","1","","","","","","","","",""
"","html-keyboard-response","127","420640","0.0-72.0-1.0","""event"",""trial"",""time""
""fullscreenenter"",""0"",""10575""
","
","
","""event"",""trial"",""time""
""fullscreenenter"",""0"",""10575""
","
","null","<p></p>","null","","","","","","","","","","","","","","","","","","","","","","","",""
"","do_trial","128","423798","0.0-73.0-0.0","""event"",""trial"",""time""
""fullscreenenter"",""0"",""10575""
","
","
","""event"",""trial"",""time""
""fullscreenenter"",""0"",""10575""
","
","599.2999999970198","","","","","","","","50","0,1,1","6","blank","284","null","0.13500990593908685","0.3000186127170254","0.7402885510350896","1","","","","","","","","",""
"","html-keyboard-response","129","424800","0.0-73.0-1.0","""event"",""trial"",""time""
""fullscreenenter"",""0"",""10575""
","
","
","""event"",""trial"",""time""
""fullscreenenter"",""0"",""10575""
","
","null","<p></p>","null","","","","","","","","","","","","","","","","","","","","","","","",""
"","do_trial","130","427990","0.0-74.0-0.0","""event"",""trial"",""time""
""fullscreenenter"",""0"",""10575""
","
","
","""event"",""trial"",""time""
""fullscreenenter"",""0"",""10575""
","
","628.7999999970198","","","","","","","","51","0,0,1","6","blank","285","null","0.09786676905934137","0.24838879763060306","0.8235572158871296","1","","","","","","","","",""
"","html-keyboard-response","131","428992","0.0-74.0-1.0","""event"",""trial"",""time""
""fullscreenenter"",""0"",""10575""
","
","
","""event"",""trial"",""time""
""fullscreenenter"",""0"",""10575""
","
","null","<p></p>","null","","","","","","","","","","","","","","","","","","","","","","","",""
"","do_trial","132","432254","0.0-75.0-0.0","""event"",""trial"",""time""
""fullscreenenter"",""0"",""10575""
","
","
","""event"",""trial"",""time""
""fullscreenenter"",""0"",""10575""
","
","702.3999999910593","","","","","","","","49","0,0,0","6","blank","286","null","0.16128893569377503","0.20532171582222244","0.6988350335421291","0","","","","","","","","",""
"","html-keyboard-response","133","433256","0.0-75.0-1.0","""event"",""trial"",""time""
""fullscreenenter"",""0"",""10575""
","
","
","""event"",""trial"",""time""
""fullscreenenter"",""0"",""10575""
","
","null","<p></p>","null","","","","","","","","","","","","","","","","","","","","","","","",""
"","do_trial","134","436208","0.0-76.0-0.0","""event"",""trial"",""time""
""fullscreenenter"",""0"",""10575""
","
","
","""event"",""trial"",""time""
""fullscreenenter"",""0"",""10575""
","
","392.59999999403954","","","","","","","","50","0,1,1","6","blank","287","null","0.07654814835017208","0.30774853334489005","0.6407556745289753","1","","","","","","","","",""
"","html-keyboard-response","135","437210","0.0-76.0-1.0","""event"",""trial"",""time""
""fullscreenenter"",""0"",""10575""
","
","
","""event"",""trial"",""time""
""fullscreenenter"",""0"",""10575""
","
","null","<p></p>","null","","","","","","","","","","","","","","","","","","","","","","","",""
"","do_recog","136","440355","0.0-77.0-0.0","""event"",""trial"",""time""
""fullscreenenter"",""0"",""10575""
","
","
","""event"",""trial"",""time""
""fullscreenenter"",""0"",""10575""
","
","1634.6000000089407","","","","","","","","56","","","","288","probe-244","","","","","0","[object Object]","null","null","1","","","",""
"","html-keyboard-response","137","441357","0.0-77.0-1.0","""event"",""trial"",""time""
""fullscreenenter"",""0"",""10575""
","
","
","""event"",""trial"",""time""
""fullscreenenter"",""0"",""10575""
","
","null","<p></p>","null","","","","","","","","","","","","","","","","","","","","","","","",""
"","do_trial","138","444794","0.0-78.0-0.0","""event"",""trial"",""time""
""fullscreenenter"",""0"",""10575""
","
","
","""event"",""trial"",""time""
""fullscreenenter"",""0"",""10575""
","
","878.5999999940395","","","","","","","","49","0,0,1","6","blank","289","null","0.18164664041072245","0.39967324380108893","0.8516417132476862","0","","","","","","","","",""
"","html-keyboard-response","139","445796","0.0-78.0-1.0","""event"",""trial"",""time""
""fullscreenenter"",""0"",""10575""
","
","
","""event"",""trial"",""time""
""fullscreenenter"",""0"",""10575""
","
","null","<p></p>","null","","","","","","","","","","","","","","","","","","","","","","","",""
"","do_recog","140","449295","0.0-79.0-0.0","""event"",""trial"",""time""
""fullscreenenter"",""0"",""10575""
","
","
","""event"",""trial"",""time""
""fullscreenenter"",""0"",""10575""
","
","1989.0999999940395","","","","","","","","53","","","","290","probe-51","","","","","1","[object Object]","117","2","1","","","",""
"","html-keyboard-response","141","450298","0.0-79.0-1.0","""event"",""trial"",""time""
""fullscreenenter"",""0"",""10575""
","
","
","""event"",""trial"",""time""
""fullscreenenter"",""0"",""10575""
","
","null","<p></p>","null","","","","","","","","","","","","","","","","","","","","","","","",""
"","do_trial","142","453954","0.0-80.0-0.0","""event"",""trial"",""time""
""fullscreenenter"",""0"",""10575""
","
","
","""event"",""trial"",""time""
""fullscreenenter"",""0"",""10575""
","
","1096.7000000029802","","","","","","","","49","0,1,1","6","blank","291","null","0.19280249608701186","0.34539814306046934","0.7931419415893224","0","","","","","","","","",""
"","html-keyboard-response","143","454957","0.0-80.0-1.0","""event"",""trial"",""time""
""fullscreenenter"",""0"",""10575""
","
","
","""event"",""trial"",""time""
""fullscreenenter"",""0"",""10575""
","
","null","<p></p>","null","","","","","","","","","","","","","","","","","","","","","","","",""
"","do_trial","144","457864","0.0-81.0-0.0","""event"",""trial"",""time""
""fullscreenenter"",""0"",""10575""
","
","
","""event"",""trial"",""time""
""fullscreenenter"",""0"",""10575""
","
","348.09999999403954","","","","","","","","50","0,0,1","6","blank","292","null","0.08639962997664129","0.5232314118202309","0.641651539652753","0","","","","","","","","",""
"","html-keyboard-response","145","458866","0.0-81.0-1.0","""event"",""trial"",""time""
""fullscreenenter"",""0"",""10575""
","
","
","""event"",""trial"",""time""
""fullscreenenter"",""0"",""10575""
","
","null","<p></p>","null","","","","","","","","","","","","","","","","","","","","","","","",""
"","do_trial","146","461714","0.0-82.0-0.0","""event"",""trial"",""time""
""fullscreenenter"",""0"",""10575""
","
","
","""event"",""trial"",""time""
""fullscreenenter"",""0"",""10575""
","
","291","","","","","","","","51","0,0,0","6","blank","293","null","0.08901255591131023","0.564864711000299","0.4605892248303058","0","","","","","","","","",""
"","html-keyboard-response","147","462716","0.0-82.0-1.0","""event"",""trial"",""time""
""fullscreenenter"",""0"",""10575""
","
","
","""event"",""trial"",""time""
""fullscreenenter"",""0"",""10575""
","
","null","<p></p>","null","","","","","","","","","","","","","","","","","","","","","","","",""
"","do_trial","148","465671","0.0-83.0-0.0","""event"",""trial"",""time""
""fullscreenenter"",""0"",""10575""
","
","
","""event"",""trial"",""time""
""fullscreenenter"",""0"",""10575""
","
","396.29999999701977","","","","","","","","49","0,1,0","6","blank","294","null","0.09088922149517392","0.5613833196101033","0.3937548582670263","0","","","","","","","","",""
"","html-keyboard-response","149","466673","0.0-83.0-1.0","""event"",""trial"",""time""
""fullscreenenter"",""0"",""10575""
","
","
","""event"",""trial"",""time""
""fullscreenenter"",""0"",""10575""
","
","null","<p></p>","null","","","","","","","","","","","","","","","","","","","","","","","",""
"","do_recog","150","472683","0.0-84.0-0.0","""event"",""trial"",""time""
""fullscreenenter"",""0"",""10575""
","
","
","""event"",""trial"",""time""
""fullscreenenter"",""0"",""10575""
","
","null","","","","","","","","null","","","","295","probe-75","","","","","1","[object Object]","37","0","0","","","",""
"","html-keyboard-response","151","473686","0.0-84.0-1.0","""event"",""trial"",""time""
""fullscreenenter"",""0"",""10575""
","
","
","""event"",""trial"",""time""
""fullscreenenter"",""0"",""10575""
","
","null","<p></p>","null","","","","","","","","","","","","","","","","","","","","","","","",""
"","do_trial","152","476918","0.0-85.0-0.0","""event"",""trial"",""time""
""fullscreenenter"",""0"",""10575""
","
","
","""event"",""trial"",""time""
""fullscreenenter"",""0"",""10575""
","
","673.5999999940395","","","","","","","","49","1,0,0","6","blank","296","null","0.1063876666868294","0.2946593289137694","0.39535146854668785","1","","","","","","","","",""
"","html-keyboard-response","153","477920","0.0-85.0-1.0","""event"",""trial"",""time""
""fullscreenenter"",""0"",""10575""
","
","
","""event"",""trial"",""time""
""fullscreenenter"",""0"",""10575""
","
","null","<p></p>","null","","","","","","","","","","","","","","","","","","","","","","","",""
"","do_trial","154","481261","0.0-86.0-0.0","""event"",""trial"",""time""
""fullscreenenter"",""0"",""10575""
","
","
","""event"",""trial"",""time""
""fullscreenenter"",""0"",""10575""
","
","779.1999999880791","","","","","","","","51","1,0,1","6","blank","297","null","0.5370532583575319","0.29211930397175256","0.38968025819475055","1","","","","","","","","",""
"","html-keyboard-response","155","482264","0.0-86.0-1.0","""event"",""trial"",""time""
""fullscreenenter"",""0"",""10575""
","
","
","""event"",""trial"",""time""
""fullscreenenter"",""0"",""10575""
","
","null","<p></p>","null","","","","","","","","","","","","","","","","","","","","","","","",""
"","do_trial","156","485622","0.0-87.0-0.0","""event"",""trial"",""time""
""fullscreenenter"",""0"",""10575""
","
","
","""event"",""trial"",""time""
""fullscreenenter"",""0"",""10575""
","
","800","","","","","","","","49","1,0,0","6","blank","298","null","0.48824663220904174","0.1860961011109129","0.35437156896107863","1","","","","","","","","",""
"","html-keyboard-response","157","486625","0.0-87.0-1.0","""event"",""trial"",""time""
""fullscreenenter"",""0"",""10575""
","
","
","""event"",""trial"",""time""
""fullscreenenter"",""0"",""10575""
","
","null","<p></p>","null","","","","","","","","","","","","","","","","","","","","","","","",""
"","do_trial","158","489666","0.0-88.0-0.0","""event"",""trial"",""time""
""fullscreenenter"",""0"",""10575""
","
","
","""event"",""trial"",""time""
""fullscreenenter"",""0"",""10575""
","
","481","","","","","","","","50","0,1,0","6","blank","299","null","0.4953317517220817","0.27399350244561166","0.24016967971417305","1","","","","","","","","",""
"","html-keyboard-response","159","490668","0.0-88.0-1.0","""event"",""trial"",""time""
""fullscreenenter"",""0"",""10575""
","
","
","""event"",""trial"",""time""
""fullscreenenter"",""0"",""10575""
","
","null","<p></p>","null","","","","","","","","","","","","","","","","","","","","","","","",""
"","do_trial","160","494014","0.0-89.0-0.0","""event"",""trial"",""time""
""fullscreenenter"",""0"",""10575""
","
","
","""event"",""trial"",""time""
""fullscreenenter"",""0"",""10575""
","
","788.2000000029802","","","","","","","","51","1,0,0","6","blank","300","null","0.5182411545710186","0.09262933258574671","0.2681661636394293","0","","","","","","","","",""
"","html-keyboard-response","161","495017","0.0-89.0-1.0","""event"",""trial"",""time""
""fullscreenenter"",""0"",""10575""
","
","
","""event"",""trial"",""time""
""fullscreenenter"",""0"",""10575""
","
","null","<p></p>","null","","","","","","","","","","","","","","","","","","","","","","","",""
"","do_trial","162","497985","0.0-90.0-0.0","""event"",""trial"",""time""
""fullscreenenter"",""0"",""10575""
","
","
","""event"",""trial"",""time""
""fullscreenenter"",""0"",""10575""
","
","407.20000000298023","","","","","","","","51","1,0,0","6","blank","301","null","0.4756610920418148","0.165759671718229","0.26524562697860876","0","","","","","","","","",""
"","html-keyboard-response","163","498987","0.0-90.0-1.0","""event"",""trial"",""time""
""fullscreenenter"",""0"",""10575""
","
","
","""event"",""trial"",""time""
""fullscreenenter"",""0"",""10575""
","
","null","<p></p>","null","","","","","","","","","","","","","","","","","","","","","","","",""
"","do_recog","164","502305","0.0-91.0-0.0","""event"",""trial"",""time""
""fullscreenenter"",""0"",""10575""
","
","
","""event"",""trial"",""time""
""fullscreenenter"",""0"",""10575""
","
","1807","","","","","","","","53","","","","302","probe-93","","","","","1","[object Object]","76","1","1","","","",""
"","html-keyboard-response","165","503307","0.0-91.0-1.0","""event"",""trial"",""time""
""fullscreenenter"",""0"",""10575""
","
","
","""event"",""trial"",""time""
""fullscreenenter"",""0"",""10575""
","
","null","<p></p>","null","","","","","","","","","","","","","","","","","","","","","","","",""
"","do_trial","166","506740","0.0-92.0-0.0","""event"",""trial"",""time""
""fullscreenenter"",""0"",""10575""
","
","
","""event"",""trial"",""time""
""fullscreenenter"",""0"",""10575""
","
","872","","","","","","","","51","1,0,1","6","blank","303","null","0.6225410751321805","0.2885890782469942","0.26959379097546177","1","","","","","","","","",""
"","html-keyboard-response","167","507742","0.0-92.0-1.0","""event"",""trial"",""time""
""fullscreenenter"",""0"",""10575""
","
","
","""event"",""trial"",""time""
""fullscreenenter"",""0"",""10575""
","
","null","<p></p>","null","","","","","","","","","","","","","","","","","","","","","","","",""
"","do_trial","168","510836","0.0-93.0-0.0","""event"",""trial"",""time""
""fullscreenenter"",""0"",""10575""
","
","
","""event"",""trial"",""time""
""fullscreenenter"",""0"",""10575""
","
","534.5999999940395","","","","","","","","49","1,1,0","6","blank","304","null","0.5522334244948323","0.22751789399878156","0.2791093734344152","1","","","","","","","","",""
"","html-keyboard-response","169","511838","0.0-93.0-1.0","""event"",""trial"",""time""
""fullscreenenter"",""0"",""10575""
","
","
","""event"",""trial"",""time""
""fullscreenenter"",""0"",""10575""
","
","null","<p></p>","null","","","","","","","","","","","","","","","","","","","","","","","",""
"","do_trial","170","514707","0.0-94.0-0.0","""event"",""trial"",""time""
""fullscreenenter"",""0"",""10575""
","
","
","""event"",""trial"",""time""
""fullscreenenter"",""0"",""10575""
","
","310.80000001192093","","","","","","","","49","1,0,0","6","blank","305","null","0.6159594290142084","0.07207633866939497","0.28477722146578033","1","","","","","","","","",""
"","html-keyboard-response","171","515709","0.0-94.0-1.0","""event"",""trial"",""time""
""fullscreenenter"",""0"",""10575""
","
","
","""event"",""trial"",""time""
""fullscreenenter"",""0"",""10575""
","
","null","<p></p>","null","","","","","","","","","","","","","","","","","","","","","","","",""
"","do_recog","172","518989","0.0-95.0-0.0","""event"",""trial"",""time""
""fullscreenenter"",""0"",""10575""
","
","
","""event"",""trial"",""time""
""fullscreenenter"",""0"",""10575""
","
","1770.4000000059605","","","","","","","","56","","","","306","probe-128","","","","","1","[object Object]","198","4","0","","","",""
"","html-keyboard-response","173","519991","0.0-95.0-1.0","""event"",""trial"",""time""
""fullscreenenter"",""0"",""10575""
","
","
","""event"",""trial"",""time""
""fullscreenenter"",""0"",""10575""
","
","null","<p></p>","null","","","","","","","","","","","","","","","","","","","","","","","",""
"","do_trial","174","523400","0.0-96.0-0.0","""event"",""trial"",""time""
""fullscreenenter"",""0"",""10575""
","
","
","""event"",""trial"",""time""
""fullscreenenter"",""0"",""10575""
","
","842.2000000029802","","","","","","","","49","1,0,1","6","blank","307","null","0.5950597873666787","0.09432894828628322","0.3770028443214591","1","","","","","","","","",""
"","html-keyboard-response","175","524402","0.0-96.0-1.0","""event"",""trial"",""time""
""fullscreenenter"",""0"",""10575""
","
","
","""event"",""trial"",""time""
""fullscreenenter"",""0"",""10575""
","
","null","<p></p>","null","","","","","","","","","","","","","","","","","","","","","","","",""
"","do_recog","176","528240","0.0-97.0-0.0","""event"",""trial"",""time""
""fullscreenenter"",""0"",""10575""
","
","
","""event"",""trial"",""time""
""fullscreenenter"",""0"",""10575""
","
","2327.5999999940395","","","","","","","","53","","","","308","probe-56","","","","","1","[object Object]","193","4","1","","","",""
"","html-keyboard-response","177","529242","0.0-97.0-1.0","""event"",""trial"",""time""
""fullscreenenter"",""0"",""10575""
","
","
","""event"",""trial"",""time""
""fullscreenenter"",""0"",""10575""
","
","null","<p></p>","null","","","","","","","","","","","","","","","","","","","","","","","",""
"","break","178","546911","0.0-98.0-0.0","""event"",""trial"",""time""
""fullscreenenter"",""0"",""10575""
","
","
","""event"",""trial"",""time""
""fullscreenenter"",""0"",""10575""
","
","17666.5","<div class='center'><p>Time to take a quick break! You have 2 minutes to rest, but you can move on sooner if you'd like.</p><p> Press the <b>space bar</b> to continue.</p></div>","32","","","","","","","","","","","","","","","","","","","","","","","",""
"","do_trial","179","551708","0.0-98.0-1.0","""event"",""trial"",""time""
""fullscreenenter"",""0"",""10575""
","
","
","""event"",""trial"",""time""
""fullscreenenter"",""0"",""10575""
","
","2235.9000000059605","","","","","","","","49","0,0,0","6","blank","309","null","0.6319647744875542","0.12733529816493971","0.2758321499611583","0","","","","","","","","",""
"","html-keyboard-response","180","552710","0.0-98.0-2.0","""event"",""trial"",""time""
""fullscreenenter"",""0"",""10575""
","
","
","""event"",""trial"",""time""
""fullscreenenter"",""0"",""10575""
","
","null","<p></p>","null","","","","","","","","","","","","","","","","","","","","","","","",""
"","do_trial","181","555725","0.0-99.0-0.0","""event"",""trial"",""time""
""fullscreenenter"",""0"",""10575""
","
","
","""event"",""trial"",""time""
""fullscreenenter"",""0"",""10575""
","
","453.90000000596046","","","","","","","","50","0,0,0","6","blank","310","null","0.6557153112571129","0.12265851170842391","0.3118189030149298","0","","","","","","","","",""
"","html-keyboard-response","182","556727","0.0-99.0-1.0","""event"",""trial"",""time""
""fullscreenenter"",""0"",""10575""
","
","
","""event"",""trial"",""time""
""fullscreenenter"",""0"",""10575""
","
","null","<p></p>","null","","","","","","","","","","","","","","","","","","","","","","","",""
"","do_trial","183","559803","0.0-100.0-0.0","""event"",""trial"",""time""
""fullscreenenter"",""0"",""10575""
","
","
","""event"",""trial"",""time""
""fullscreenenter"",""0"",""10575""
","
","516.8999999910593","","","","","","","","51","1,0,1","6","blank","311","null","0.7466888075491878","0.09934030171837475","0.3562801072753609","1","","","","","","","","",""
"","html-keyboard-response","184","560805","0.0-100.0-1.0","""event"",""trial"",""time""
""fullscreenenter"",""0"",""10575""
","
","
","""event"",""trial"",""time""
""fullscreenenter"",""0"",""10575""
","
","null","<p></p>","null","","","","","","","","","","","","","","","","","","","","","","","",""
"","do_trial","185","563828","0.0-101.0-0.0","""event"",""trial"",""time""
""fullscreenenter"",""0"",""10575""
","
","
","""event"",""trial"",""time""
""fullscreenenter"",""0"",""10575""
","
","463.20000000298023","","","","","","","","49","1,0,1","6","blank","312","null","0.6721778600146834","0.06943174264596846","0.4663693436597113","1","","","","","","","","",""
"","html-keyboard-response","186","564831","0.0-101.0-1.0","""event"",""trial"",""time""
""fullscreenenter"",""0"",""10575""
","
","
","""event"",""trial"",""time""
""fullscreenenter"",""0"",""10575""
","
","null","<p></p>","null","","","","","","","","","","","","","","","","","","","","","","","",""
"","do_trial","187","567766","0.0-102.0-0.0","""event"",""trial"",""time""
""fullscreenenter"",""0"",""10575""
","
","
","""event"",""trial"",""time""
""fullscreenenter"",""0"",""10575""
","
","375.5","","","","","","","","50","1,0,1","6","blank","313","null","0.7035843912690055","0.140355462479264","0.5316767324833441","0","","","","","","","","",""
"","html-keyboard-response","188","568768","0.0-102.0-1.0","""event"",""trial"",""time""
""fullscreenenter"",""0"",""10575""
","
","
","""event"",""trial"",""time""
""fullscreenenter"",""0"",""10575""
","
","null","<p></p>","null","","","","","","","","","","","","","","","","","","","","","","","",""
"","do_recog","189","572158","0.0-103.0-0.0","""event"",""trial"",""time""
""fullscreenenter"",""0"",""10575""
","
","
","""event"",""trial"",""time""
""fullscreenenter"",""0"",""10575""
","
","1881.5999999940395","","","","","","","","53","","","","314","probe-213","","","","","1","[object Object]","190","4","1","","","",""
"","html-keyboard-response","190","573160","0.0-103.0-1.0","""event"",""trial"",""time""
""fullscreenenter"",""0"",""10575""
","
","
","""event"",""trial"",""time""
""fullscreenenter"",""0"",""10575""
","
","null","<p></p>","null","","","","","","","","","","","","","","","","","","","","","","","",""
"","do_trial","191","576458","0.0-104.0-0.0","""event"",""trial"",""time""
""fullscreenenter"",""0"",""10575""
","
","
","""event"",""trial"",""time""
""fullscreenenter"",""0"",""10575""
","
","739.2999999970198","","","","","","","","49","1,1,1","6","blank","315","null","0.6508297841158605","0.22778357866716042","0.4311096906276029","1","","","","","","","","",""
"","html-keyboard-response","192","577460","0.0-104.0-1.0","""event"",""trial"",""time""
""fullscreenenter"",""0"",""10575""
","
","
","""event"",""trial"",""time""
""fullscreenenter"",""0"",""10575""
","
","null","<p></p>","null","","","","","","","","","","","","","","","","","","","","","","","",""
"","do_trial","193","580597","0.0-105.0-0.0","""event"",""trial"",""time""
""fullscreenenter"",""0"",""10575""
","
","
","""event"",""trial"",""time""
""fullscreenenter"",""0"",""10575""
","
","578.2000000029802","","","","","","","","50","1,0,0","6","blank","316","null","0.6490868464572092","0.2543948967859689","0.3120698073653271","0","","","","","","","","",""
"","html-keyboard-response","194","581599","0.0-105.0-1.0","""event"",""trial"",""time""
""fullscreenenter"",""0"",""10575""
","
","
","""event"",""trial"",""time""
""fullscreenenter"",""0"",""10575""
","
","null","<p></p>","null","","","","","","","","","","","","","","","","","","","","","","","",""
"","do_trial","195","584463","0.0-106.0-0.0","""event"",""trial"",""time""
""fullscreenenter"",""0"",""10575""
","
","
","""event"",""trial"",""time""
""fullscreenenter"",""0"",""10575""
","
","305.1000000089407","","","","","","","","51","1,0,0","6","blank","317","null","0.5986172681412114","0.13482350398706175","0.35551432010320405","0","","","","","","","","",""
"","html-keyboard-response","196","585465","0.0-106.0-1.0","""event"",""trial"",""time""
""fullscreenenter"",""0"",""10575""
","
","
","""event"",""trial"",""time""
""fullscreenenter"",""0"",""10575""
","
","null","<p></p>","null","","","","","","","","","","","","","","","","","","","","","","","",""
"","do_trial","197","588573","0.0-107.0-0.0","""event"",""trial"",""time""
""fullscreenenter"",""0"",""10575""
","
","
","""event"",""trial"",""time""
""fullscreenenter"",""0"",""10575""
","
","548.5999999940395","","","","","","","","49","1,0,0","6","blank","318","null","0.5743852204940076","0.2280127488492285","0.10734699929007942","1","","","","","","","","",""
"","html-keyboard-response","198","589575","0.0-107.0-1.0","""event"",""trial"",""time""
""fullscreenenter"",""0"",""10575""
","
","
","""event"",""trial"",""time""
""fullscreenenter"",""0"",""10575""
","
","null","<p></p>","null","","","","","","","","","","","","","","","","","","","","","","","",""
"","do_trial","199","593089","0.0-108.0-0.0","""event"",""trial"",""time""
""fullscreenenter"",""0"",""10575""
","
","
","""event"",""trial"",""time""
""fullscreenenter"",""0"",""10575""
","
","955.3999999910593","","","","","","","","50","1,0,0","6","blank","319","null","0.5435436606812553","0.22730765119674168","0.24133835510979332","0","","","","","","","","",""
"","html-keyboard-response","200","594091","0.0-108.0-1.0","""event"",""trial"",""time""
""fullscreenenter"",""0"",""10575""
","
","
","""event"",""trial"",""time""
""fullscreenenter"",""0"",""10575""
","
","null","<p></p>","null","","","","","","","","","","","","","","","","","","","","","","","",""
"","do_trial","201","597324","0.0-109.0-0.0","""event"",""trial"",""time""
""fullscreenenter"",""0"",""10575""
","
","
","""event"",""trial"",""time""
""fullscreenenter"",""0"",""10575""
","
","672.9000000059605","","","","","","","","51","1,1,0","6","blank","320","null","0.5511567709764532","0.27821319964102903","0.27875998704771726","0","","","","","","","","",""
"","html-keyboard-response","202","598327","0.0-109.0-1.0","""event"",""trial"",""time""
""fullscreenenter"",""0"",""10575""
","
","
","""event"",""trial"",""time""
""fullscreenenter"",""0"",""10575""
","
","null","<p></p>","null","","","","","","","","","","","","","","","","","","","","","","","",""
"","do_recog","203","601538","0.0-110.0-0.0","""event"",""trial"",""time""
""fullscreenenter"",""0"",""10575""
","
","
","""event"",""trial"",""time""
""fullscreenenter"",""0"",""10575""
","
","1701.199999988079","","","","","","","","53","","","","321","probe-55","","","","","1","[object Object]","79","1","1","","","",""
"","html-keyboard-response","204","602540","0.0-110.0-1.0","""event"",""trial"",""time""
""fullscreenenter"",""0"",""10575""
","
","
","""event"",""trial"",""time""
""fullscreenenter"",""0"",""10575""
","
","null","<p></p>","null","","","","","","","","","","","","","","","","","","","","","","","",""
"","do_trial","205","606057","0.0-111.0-0.0","""event"",""trial"",""time""
""fullscreenenter"",""0"",""10575""
","
","
","""event"",""trial"",""time""
""fullscreenenter"",""0"",""10575""
","
","958.6000000089407","","","","","","","","49","1,0,0","6","blank","322","null","0.6581329662942719","0.2570060831758546","0.46727299206245826","1","","","","","","","","",""
"","html-keyboard-response","206","607060","0.0-111.0-1.0","""event"",""trial"",""time""
""fullscreenenter"",""0"",""10575""
","
","
","""event"",""trial"",""time""
""fullscreenenter"",""0"",""10575""
","
","null","<p></p>","null","","","","","","","","","","","","","","","","","","","","","","","",""
"","do_recog","207","610331","0.0-112.0-0.0","""event"",""trial"",""time""
""fullscreenenter"",""0"",""10575""
","
","
","""event"",""trial"",""time""
""fullscreenenter"",""0"",""10575""
","
","1761","","","","","","","","53","","","","323","probe-221","","","","","1","[object Object]","156","3","1","","","",""
"","html-keyboard-response","208","611334","0.0-112.0-1.0","""event"",""trial"",""time""
""fullscreenenter"",""0"",""10575""
","
","
","""event"",""trial"",""time""
""fullscreenenter"",""0"",""10575""
","
","null","<p></p>","null","","","","","","","","","","","","","","","","","","","","","","","",""
"","do_trial","209","614541","0.0-113.0-0.0","""event"",""trial"",""time""
""fullscreenenter"",""0"",""10575""
","
","
","""event"",""trial"",""time""
""fullscreenenter"",""0"",""10575""
","
","646.8999999910593","","","","","","","","49","0,1,0","6","blank","324","null","0.6786138804057956","0.20198671336287985","0.6223784081357115","0","","","","","","","","",""
"","html-keyboard-response","210","615544","0.0-113.0-1.0","""event"",""trial"",""time""
""fullscreenenter"",""0"",""10575""
","
","
","""event"",""trial"",""time""
""fullscreenenter"",""0"",""10575""
","
","null","<p></p>","null","","","","","","","","","","","","","","","","","","","","","","","",""
"","do_trial","211","618519","0.0-114.0-0.0","""event"",""trial"",""time""
""fullscreenenter"",""0"",""10575""
","
","
","""event"",""trial"",""time""
""fullscreenenter"",""0"",""10575""
","
","416.6000000089407","","","","","","","","50","1,0,0","6","blank","325","null","0.6100629712406186","0.12366833043613079","0.42722104295893354","0","","","","","","","","",""
"","html-keyboard-response","212","619522","0.0-114.0-1.0","""event"",""trial"",""time""
""fullscreenenter"",""0"",""10575""
","
","
","""event"",""trial"",""time""
""fullscreenenter"",""0"",""10575""
","
","null","<p></p>","null","","","","","","","","","","","","","","","","","","","","","","","",""
"","do_trial","213","622354","0.0-115.0-0.0","""event"",""trial"",""time""
""fullscreenenter"",""0"",""10575""
","
","
","""event"",""trial"",""time""
""fullscreenenter"",""0"",""10575""
","
","274.29999999701977","","","","","","","","51","1,0,0","6","blank","326","null","0.5880983558255933","0.10704165385635386","0.3137044581984795","0","","","","","","","","",""
"","html-keyboard-response","214","623356","0.0-115.0-1.0","""event"",""trial"",""time""
""fullscreenenter"",""0"",""10575""
","
","
","""event"",""trial"",""time""
""fullscreenenter"",""0"",""10575""
","
","null","<p></p>","null","","","","","","","","","","","","","","","","","","","","","","","",""
"","do_trial","215","626249","0.0-116.0-0.0","""event"",""trial"",""time""
""fullscreenenter"",""0"",""10575""
","
","
","""event"",""trial"",""time""
""fullscreenenter"",""0"",""10575""
","
","334.29999999701977","","","","","","","","49","0,0,0","6","blank","327","null","0.4883200035753753","0.07339927016447237","0.12661276265339877","0","","","","","","","","",""
"","html-keyboard-response","216","627251","0.0-116.0-1.0","""event"",""trial"",""time""
""fullscreenenter"",""0"",""10575""
","
","
","""event"",""trial"",""time""
""fullscreenenter"",""0"",""10575""
","
","null","<p></p>","null","","","","","","","","","","","","","","","","","","","","","","","",""
"","do_trial","217","630482","0.0-117.0-0.0","""event"",""trial"",""time""
""fullscreenenter"",""0"",""10575""
","
","
","""event"",""trial"",""time""
""fullscreenenter"",""0"",""10575""
","
","671","","","","","","","","50","1,0,1","6","blank","328","null","0.5860508215896768","0.15163496532076717","0.2617604624435844","0","","","","","","","","",""
"","html-keyboard-response","218","631484","0.0-117.0-1.0","""event"",""trial"",""time""
""fullscreenenter"",""0"",""10575""
","
","
","""event"",""trial"",""time""
""fullscreenenter"",""0"",""10575""
","
","null","<p></p>","null","","","","","","","","","","","","","","","","","","","","","","","",""
"","do_trial","219","634723","0.0-118.0-0.0","""event"",""trial"",""time""
""fullscreenenter"",""0"",""10575""
","
","
","""event"",""trial"",""time""
""fullscreenenter"",""0"",""10575""
","
","678.7999999970198","","","","","","","","51","0,0,1","6","blank","329","null","0.5687075945332686","0.0854991213957656","0.2651201340130428","1","","","","","","","","",""
"","html-keyboard-response","220","635725","0.0-118.0-1.0","""event"",""trial"",""time""
""fullscreenenter"",""0"",""10575""
","
","
","""event"",""trial"",""time""
""fullscreenenter"",""0"",""10575""
","
","null","<p></p>","null","","","","","","","","","","","","","","","","","","","","","","","",""
"","do_recog","221","639067","0.0-119.0-0.0","""event"",""trial"",""time""
""fullscreenenter"",""0"",""10575""
","
","
","""event"",""trial"",""time""
""fullscreenenter"",""0"",""10575""
","
","1832.5","","","","","","","","56","","","","330","probe-250","","","","","0","[object Object]","null","null","1","","","",""
"","html-keyboard-response","222","640069","0.0-119.0-1.0","""event"",""trial"",""time""
""fullscreenenter"",""0"",""10575""
","
","
","""event"",""trial"",""time""
""fullscreenenter"",""0"",""10575""
","
","null","<p></p>","null","","","","","","","","","","","","","","","","","","","","","","","",""
"","do_trial","223","643155","0.0-120.0-0.0","""event"",""trial"",""time""
""fullscreenenter"",""0"",""10575""
","
","
","""event"",""trial"",""time""
""fullscreenenter"",""0"",""10575""
","
","525.9000000059605","","","","","","","","49","1,0,0","6","blank","331","null","0.5807755805075921","0.1278469340503263","0.3113922112847943","1","","","","","","","","",""
"","html-keyboard-response","224","644157","0.0-120.0-1.0","""event"",""trial"",""time""
""fullscreenenter"",""0"",""10575""
","
","
","""event"",""trial"",""time""
""fullscreenenter"",""0"",""10575""
","
","null","<p></p>","null","","","","","","","","","","","","","","","","","","","","","","","",""
"","do_recog","225","647439","0.0-121.0-0.0","""event"",""trial"",""time""
""fullscreenenter"",""0"",""10575""
","
","
","""event"",""trial"",""time""
""fullscreenenter"",""0"",""10575""
","
","1770.5999999940395","","","","","","","","53","","","","332","probe-10","","","","","1","[object Object]","35","0","1","","","",""
"","html-keyboard-response","226","648441","0.0-121.0-1.0","""event"",""trial"",""time""
""fullscreenenter"",""0"",""10575""
","
","
","""event"",""trial"",""time""
""fullscreenenter"",""0"",""10575""
","
","null","<p></p>","null","","","","","","","","","","","","","","","","","","","","","","","",""
"","do_trial","227","652087","0.0-122.0-0.0","""event"",""trial"",""time""
""fullscreenenter"",""0"",""10575""
","
","
","""event"",""trial"",""time""
""fullscreenenter"",""0"",""10575""
","
","1088.2000000029802","","","","","","","","49","0,0,0","6","blank","333","null","0.6425778143129857","0.05676756999632865","0.2549073259650242","0","","","","","","","","",""
"","html-keyboard-response","228","653091","0.0-122.0-1.0","""event"",""trial"",""time""
""fullscreenenter"",""0"",""10575""
","
","
","""event"",""trial"",""time""
""fullscreenenter"",""0"",""10575""
","
","null","<p></p>","null","","","","","","","","","","","","","","","","","","","","","","","",""
"","do_trial","229","656076","0.0-123.0-0.0","""event"",""trial"",""time""
""fullscreenenter"",""0"",""10575""
","
","
","""event"",""trial"",""time""
""fullscreenenter"",""0"",""10575""
","
","426.5","","","","","","","","50","1,0,0","6","blank","334","null","0.5945993977949076","0.12515560007092363","0.33208798862226935","0","","","","","","","","",""
"","html-keyboard-response","230","657079","0.0-123.0-1.0","""event"",""trial"",""time""
""fullscreenenter"",""0"",""10575""
","
","
","""event"",""trial"",""time""
""fullscreenenter"",""0"",""10575""
","
","null","<p></p>","null","","","","","","","","","","","","","","","","","","","","","","","",""
"","do_trial","231","660810","0.0-124.0-0.0","""event"",""trial"",""time""
""fullscreenenter"",""0"",""10575""
","
","
","""event"",""trial"",""time""
""fullscreenenter"",""0"",""10575""
","
","1172.9000000059605","","","","","","","","51","0,1,0","6","blank","335","null","0.8162325326174841","0.14358485506189017","0.37527842277818246","0","","","","","","","","",""
"","html-keyboard-response","232","661813","0.0-124.0-1.0","""event"",""trial"",""time""
""fullscreenenter"",""0"",""10575""
","
","
","""event"",""trial"",""time""
""fullscreenenter"",""0"",""10575""
","
","null","<p></p>","null","","","","","","","","","","","","","","","","","","","","","","","",""
"","do_trial","233","664804","0.0-125.0-0.0","""event"",""trial"",""time""
""fullscreenenter"",""0"",""10575""
","
","
","""event"",""trial"",""time""
""fullscreenenter"",""0"",""10575""
","
","431.3999999910593","","","","","","","","49","1,0,1","6","blank","336","null","0.6038051296311373","0.07091553127963286","0.3059277703683477","1","","","","","","","","",""
"","html-keyboard-response","234","665806","0.0-125.0-1.0","""event"",""trial"",""time""
""fullscreenenter"",""0"",""10575""
","
","
","""event"",""trial"",""time""
""fullscreenenter"",""0"",""10575""
","
","null","<p></p>","null","","","","","","","","","","","","","","","","","","","","","","","",""
"","do_trial","235","668848","0.0-126.0-0.0","""event"",""trial"",""time""
""fullscreenenter"",""0"",""10575""
","
","
","""event"",""trial"",""time""
""fullscreenenter"",""0"",""10575""
","
","482.90000000596046","","","","","","","","50","1,0,1","6","blank","337","null","0.6808986723070676","0.069890624474987","0.3770412213817065","0","","","","","","","","",""
"","html-keyboard-response","236","669851","0.0-126.0-1.0","""event"",""trial"",""time""
""fullscreenenter"",""0"",""10575""
","
","
","""event"",""trial"",""time""
""fullscreenenter"",""0"",""10575""
","
","null","<p></p>","null","","","","","","","","","","","","","","","","","","","","","","","",""
"","do_trial","237","673501","0.0-127.0-0.0","""event"",""trial"",""time""
""fullscreenenter"",""0"",""10575""
","
","
","""event"",""trial"",""time""
""fullscreenenter"",""0"",""10575""
","
","1092.7999999970198","","","","","","","","51","1,0,1","6","blank","338","null","0.4285467019485053","0.11044864919997771","0.37632216956477155","1","","","","","","","","",""
"","html-keyboard-response","238","674504","0.0-127.0-1.0","""event"",""trial"",""time""
""fullscreenenter"",""0"",""10575""
","
","
","""event"",""trial"",""time""
""fullscreenenter"",""0"",""10575""
","
","null","<p></p>","null","","","","","","","","","","","","","","","","","","","","","","","",""
"","do_recog","239","680514","0.0-128.0-0.0","""event"",""trial"",""time""
""fullscreenenter"",""0"",""10575""
","
","
","""event"",""trial"",""time""
""fullscreenenter"",""0"",""10575""
","
","null","","","","","","","","null","","","","339","probe-65","","","","","1","[object Object]","32","0","0","","","",""
"","html-keyboard-response","240","681516","0.0-128.0-1.0","""event"",""trial"",""time""
""fullscreenenter"",""0"",""10575""
","
","
","""event"",""trial"",""time""
""fullscreenenter"",""0"",""10575""
","
","null","<p></p>","null","","","","","","","","","","","","","","","","","","","","","","","",""
"","do_trial","241","685318","0.0-129.0-0.0","""event"",""trial"",""time""
""fullscreenenter"",""0"",""10575""
","
","
","""event"",""trial"",""time""
""fullscreenenter"",""0"",""10575""
","
","1242.9000000059605","","","","","","","","49","0,0,0","6","blank","340","null","0.5366305566769842","0.06715871585663642","0.18329711684320948","0","","","","","","","","",""
"","html-keyboard-response","242","686321","0.0-129.0-1.0","""event"",""trial"",""time""
""fullscreenenter"",""0"",""10575""
","
","
","""event"",""trial"",""time""
""fullscreenenter"",""0"",""10575""
","
","null","<p></p>","null","","","","","","","","","","","","","","","","","","","","","","","",""
"","do_recog","243","689570","0.0-130.0-0.0","""event"",""trial"",""time""
""fullscreenenter"",""0"",""10575""
","
","
","""event"",""trial"",""time""
""fullscreenenter"",""0"",""10575""
","
","1740.2000000029802","","","","","","","","53","","","","341","probe-62","","","","","1","[object Object]","70","1","1","","","",""
"","html-keyboard-response","244","690572","0.0-130.0-1.0","""event"",""trial"",""time""
""fullscreenenter"",""0"",""10575""
","
","
","""event"",""trial"",""time""
""fullscreenenter"",""0"",""10575""
","
","null","<p></p>","null","","","","","","","","","","","","","","","","","","","","","","","",""
"","do_trial","245","694100","0.0-131.0-0.0","""event"",""trial"",""time""
""fullscreenenter"",""0"",""10575""
","
","
","""event"",""trial"",""time""
""fullscreenenter"",""0"",""10575""
","
","966.2000000029802","","","","","","","","49","1,0,0","6","blank","342","null","0.4975262704141369","0.06708506357179929","0.28057394225262466","1","","","","","","","","",""
"","html-keyboard-response","246","695102","0.0-131.0-1.0","""event"",""trial"",""time""
""fullscreenenter"",""0"",""10575""
","
","
","""event"",""trial"",""time""
""fullscreenenter"",""0"",""10575""
","
","null","<p></p>","null","","","","","","","","","","","","","","","","","","","","","","","",""
"","do_recog","247","698107","0.0-132.0-0.0","""event"",""trial"",""time""
""fullscreenenter"",""0"",""10575""
","
","
","""event"",""trial"",""time""
""fullscreenenter"",""0"",""10575""
","
","1494.7000000029802","","","","","","","","53","","","","343","probe-26","","","","","1","[object Object]","199","4","1","","","",""
"","html-keyboard-response","248","699109","0.0-132.0-1.0","""event"",""trial"",""time""
""fullscreenenter"",""0"",""10575""
","
","
","""event"",""trial"",""time""
""fullscreenenter"",""0"",""10575""
","
","null","<p></p>","null","","","","","","","","","","","","","","","","","","","","","","","",""
"","do_trial","249","702941","0.0-133.0-0.0","""event"",""trial"",""time""
""fullscreenenter"",""0"",""10575""
","
","
","""event"",""trial"",""time""
""fullscreenenter"",""0"",""10575""
","
","1272.7000000029802","","","","","","","","49","0,0,0","6","blank","344","null","0.5240165326881674","0.1712450121908173","0.22058612730309002","0","","","","","","","","",""
"","html-keyboard-response","250","703943","0.0-133.0-1.0","""event"",""trial"",""time""
""fullscreenenter"",""0"",""10575""
","
","
","""event"",""trial"",""time""
""fullscreenenter"",""0"",""10575""
","
","null","<p></p>","null","","","","","","","","","","","","","","","","","","","","","","","",""
"","do_recog","251","707690","0.0-134.0-0.0","""event"",""trial"",""time""
""fullscreenenter"",""0"",""10575""
","
","
","""event"",""trial"",""time""
""fullscreenenter"",""0"",""10575""
","
","2236.5999999940395","","","","","","","","53","","","","345","probe-29","","","","","1","[object Object]","154","3","1","","","",""
"","html-keyboard-response","252","708692","0.0-134.0-1.0","""event"",""trial"",""time""
""fullscreenenter"",""0"",""10575""
","
","
","""event"",""trial"",""time""
""fullscreenenter"",""0"",""10575""
","
","null","<p></p>","null","","","","","","","","","","","","","","","","","","","","","","","",""
"","do_trial","253","712116","0.0-135.0-0.0","""event"",""trial"",""time""
""fullscreenenter"",""0"",""10575""
","
","
","""event"",""trial"",""time""
""fullscreenenter"",""0"",""10575""
","
","864.0999999940395","","","","","","","","49","0,0,0","6","blank","346","null","0.5908722121442879","0.20451987665717933","0.05192158476961382","0","","","","","","","","",""
"","html-keyboard-response","254","713118","0.0-135.0-1.0","""event"",""trial"",""time""
""fullscreenenter"",""0"",""10575""
","
","
","""event"",""trial"",""time""
""fullscreenenter"",""0"",""10575""
","
","null","<p></p>","null","","","","","","","","","","","","","","","","","","","","","","","",""
"","do_recog","255","716078","0.0-136.0-0.0","""event"",""trial"",""time""
""fullscreenenter"",""0"",""10575""
","
","
","""event"",""trial"",""time""
""fullscreenenter"",""0"",""10575""
","
","1449.7000000029802","","","","","","","","53","","","","347","probe-127","","","","","1","[object Object]","197","4","1","","","",""
"","html-keyboard-response","256","717080","0.0-136.0-1.0","""event"",""trial"",""time""
""fullscreenenter"",""0"",""10575""
","
","
","""event"",""trial"",""time""
""fullscreenenter"",""0"",""10575""
","
","null","<p></p>","null","","","","","","","","","","","","","","","","","","","","","","","",""
"","do_trial","257","720655","0.0-137.0-0.0","""event"",""trial"",""time""
""fullscreenenter"",""0"",""10575""
","
","
","""event"",""trial"",""time""
""fullscreenenter"",""0"",""10575""
","
","1014.7999999970198","","","","","","","","50","1,1,0","6","blank","348","null","0.5542234456350315","0.28872458814121543","0.0984428640607063","1","","","","","","","","",""
"","html-keyboard-response","258","721657","0.0-137.0-1.0","""event"",""trial"",""time""
""fullscreenenter"",""0"",""10575""
","
","
","""event"",""trial"",""time""
""fullscreenenter"",""0"",""10575""
","
","null","<p></p>","null","","","","","","","","","","","","","","","","","","","","","","","",""
"","break","259","740980","0.0-138.0-0.0","""event"",""trial"",""time""
""fullscreenenter"",""0"",""10575""
","
","
","""event"",""trial"",""time""
""fullscreenenter"",""0"",""10575""
","
","19320.5","<div class='center'><p>Time to take a quick break! You have 2 minutes to rest, but you can move on sooner if you'd like.</p><p> Press the <b>space bar</b> to continue.</p></div>","32","","","","","","","","","","","","","","","","","","","","","","","",""
"","do_trial","260","745266","0.0-138.0-1.0","""event"",""trial"",""time""
""fullscreenenter"",""0"",""10575""
","
","
","""event"",""trial"",""time""
""fullscreenenter"",""0"",""10575""
","
","1727.5","","","","","","","","50","1,1,0","6","blank","349","null","0.37942192545657305","0.5251317818580474","0.12308176217956311","1","","","","","","","","",""
"","html-keyboard-response","261","746268","0.0-138.0-2.0","""event"",""trial"",""time""
""fullscreenenter"",""0"",""10575""
","
","
","""event"",""trial"",""time""
""fullscreenenter"",""0"",""10575""
","
","null","<p></p>","null","","","","","","","","","","","","","","","","","","","","","","","",""
"","do_trial","262","749734","0.0-139.0-0.0","""event"",""trial"",""time""
""fullscreenenter"",""0"",""10575""
","
","
","""event"",""trial"",""time""
""fullscreenenter"",""0"",""10575""
","
","907.2000000029802","","","","","","","","51","1,0,0","6","blank","350","null","0.35006199692281925","0.5313328065245062","0.05235936923134056","0","","","","","","","","",""
"","html-keyboard-response","263","750736","0.0-139.0-1.0","""event"",""trial"",""time""
""fullscreenenter"",""0"",""10575""
","
","
","""event"",""trial"",""time""
""fullscreenenter"",""0"",""10575""
","
","null","<p></p>","null","","","","","","","","","","","","","","","","","","","","","","","",""
"","do_trial","264","753972","0.0-140.0-0.0","""event"",""trial"",""time""
""fullscreenenter"",""0"",""10575""
","
","
","""event"",""trial"",""time""
""fullscreenenter"",""0"",""10575""
","
","677.7000000029802","","","","","","","","49","0,1,0","6","blank","351","null","0.25223788411538606","0.6235198538205081","0.06571964193902481","0","","","","","","","","",""
"","html-keyboard-response","265","754974","0.0-140.0-1.0","""event"",""trial"",""time""
""fullscreenenter"",""0"",""10575""
","
","
","""event"",""trial"",""time""
""fullscreenenter"",""0"",""10575""
","
","null","<p></p>","null","","","","","","","","","","","","","","","","","","","","","","","",""
"","do_trial","266","757897","0.0-141.0-0.0","""event"",""trial"",""time""
""fullscreenenter"",""0"",""10575""
","
","
","""event"",""trial"",""time""
""fullscreenenter"",""0"",""10575""
","
","363.20000000298023","","","","","","","","50","0,0,0","6","blank","352","null","0.259309941115391","0.729546999506762","0.17750061811478537","0","","","","","","","","",""
"","html-keyboard-response","267","758899","0.0-141.0-1.0","""event"",""trial"",""time""
""fullscreenenter"",""0"",""10575""
","
","
","""event"",""trial"",""time""
""fullscreenenter"",""0"",""10575""
","
","null","<p></p>","null","","","","","","","","","","","","","","","","","","","","","","","",""
"","do_trial","268","762503","0.0-142.0-0.0","""event"",""trial"",""time""
""fullscreenenter"",""0"",""10575""
","
","
","""event"",""trial"",""time""
""fullscreenenter"",""0"",""10575""
","
","1041","","","","","","","","51","0,1,1","6","blank","353","null","0.28632801967677635","0.7358855465771259","0.2309835815754481","1","","","","","","","","",""
"","html-keyboard-response","269","763505","0.0-142.0-1.0","""event"",""trial"",""time""
""fullscreenenter"",""0"",""10575""
","
","
","""event"",""trial"",""time""
""fullscreenenter"",""0"",""10575""
","
","null","<p></p>","null","","","","","","","","","","","","","","","","","","","","","","","",""
"","do_recog","270","766711","0.0-143.0-0.0","""event"",""trial"",""time""
""fullscreenenter"",""0"",""10575""
","
","
","""event"",""trial"",""time""
""fullscreenenter"",""0"",""10575""
","
","1696.0999999940395","","","","","","","","53","","","","354","probe-66","","","","","1","[object Object]","155","3","1","","","",""
"","html-keyboard-response","271","767713","0.0-143.0-1.0","""event"",""trial"",""time""
""fullscreenenter"",""0"",""10575""
","
","
","""event"",""trial"",""time""
""fullscreenenter"",""0"",""10575""
","
","null","<p></p>","null","","","","","","","","","","","","","","","","","","","","","","","",""
"","do_trial","272","771129","0.0-144.0-0.0","""event"",""trial"",""time""
""fullscreenenter"",""0"",""10575""
","
","
","""event"",""trial"",""time""
""fullscreenenter"",""0"",""10575""
","
","854.8000000119209","","","","","","","","49","0,1,0","6","blank","355","null","0.3632134613999572","0.6925762449599298","0.1683001008219733","0","","","","","","","","",""
"","html-keyboard-response","273","772131","0.0-144.0-1.0","""event"",""trial"",""time""
""fullscreenenter"",""0"",""10575""
","
","
","""event"",""trial"",""time""
""fullscreenenter"",""0"",""10575""
","
","null","<p></p>","null","","","","","","","","","","","","","","","","","","","","","","","",""
"","do_recog","274","775693","0.0-145.0-0.0","""event"",""trial"",""time""
""fullscreenenter"",""0"",""10575""
","
","
","""event"",""trial"",""time""
""fullscreenenter"",""0"",""10575""
","
","2049.2999999970198","","","","","","","","53","","","","356","probe-100","","","","","1","[object Object]","159","3","1","","","",""
"","html-keyboard-response","275","776695","0.0-145.0-1.0","""event"",""trial"",""time""
""fullscreenenter"",""0"",""10575""
","
","
","""event"",""trial"",""time""
""fullscreenenter"",""0"",""10575""
","
","null","<p></p>","null","","","","","","","","","","","","","","","","","","","","","","","",""
