"success","trial_type","trial_index","time_elapsed","internal_node_id","rt","stimulus","key_press","subject_id","participant_id","age","gender","prompt","response","choice_outcomes","context_n","context_img_id","trial_n","probe_img_id","pR_red","pR_white","pR_black","outcome","is_valid","image_to_show","probed_trial","probed_context","correct","probe","probed_trial_n","probed_context_n","context_im"
"true","fullscreen","0","18984","0.0-0.0","","","","","","","","","","","","","","","","","","","","","","","","","","",""
"","pavlovia","1","18992","0.0-1.0","","","","","","","","","","","","","","","","","","","","","","","","","","",""
"","welc_back","2","31746","0.0-2.0","null","run_exp/static/audio/clip_29_welcome_back.m4a","null","122","147","9","Female","<div class='center'><p>Welcome to day 2!</p><p> Yesterday, you were the head captain of a pirate ship. You and your fellow pirates robbed ships for their gold and traveled to six different islands .</p></div>","","","","","","","","","","","","","","","","","","",""
"","html-keyboard-response","3","32853","0.0-3.0","1104.4000000059605","<div class='center'><p>Welcome to day 2!</p><p> Yesterday, you were the head captain of a pirate ship. You and your fellow pirates robbed ships for their gold and traveled to six different islands .</p><p><b>[Press the space bar to continue]</b></p></div>","32","","","","","","","","","","","","","","","","","","","","","","","",""
"","day_1_summary_goal","4","52830","0.0-4.0","null","run_exp/static/audio/clip_30_goal_of_game.m4a","null","","","","","<div class='center'><p>Today, like yesterday, you get to pick which pirate you want to rob the next ship.</p><p>If the pirate is successful in robbing a ship, you get gold coins that look like this: </p><p><img src='run_exp/static/images/tutorial/reward.png' height='150'></p><p> If they were not successful in robbing the ship, then you will get no gold coins and you'll see a big red x like this: </p><p><img src='run_exp/static/images/tutorial/reward_no.png' height='150'></p></div>","","","","","","","","","","","","","","","","","","",""
"","html-keyboard-response","5","53823","0.0-5.0","991.0999999940395","<div class='center'><p>Today, like yesterday, you get to pick which pirate you want to rob the next ship.</p><p>If the pirate is successful in robbing a ship, you get gold coins that look like this: </p><p><img src='run_exp/static/images/tutorial/reward.png' height='150'></p><p> If they were not successful in robbing the ship, then you will get no gold coins and you'll see a big red x like this: </p><p><img src='run_exp/static/images/tutorial/reward_no.png' height='150'></p><p><b>[Press the space bar to continue]</b></p></div>","32","","","","","","","","","","","","","","","","","","","","","","","",""
"","day_1_summary_pick","6","71661","0.0-6.0","null","run_exp/static/audio/clip_31_how_to_pick_a_pirate.m4a","null","","","","","<div class='center'><p>Also, just like yesterday, you will use the 1,2,3 keys on your keyboard to pick a pirate. Press '1' to choose red beard, '2' to choose white beard, and '3' to choose black beard . You only have 3 seconds to pick a pirate, so please make a choice quickly!</p></div>","","","","","","","","","","","","","","","","","","",""
"","html-keyboard-response","7","72205","0.0-7.0","543.2000000029802","<div class='center'><p>Also, just like yesterday, you will use the 1,2,3 keys on your keyboard to pick a pirate. Press '1' to choose red beard, '2' to choose white beard, and '3' to choose black beard . You only have 3 seconds to pick a pirate, so please make a choice quickly!</p><p><b>[Press the space bar to continue]</b></p></div>","32","","","","","","","","","","","","","","","","","","","","","","","",""
"","test_phase_begin","8","105470","0.0-8.0","null","run_exp/static/audio/clip_32_final_place.m4a","null","","","","","<div class='center'><p>You’ve arrived at the final island of your journey! Unfortunately, it’s very foggy out, so you won’t be able to see it in the distance like the other islands you've visited.</p><p>You’ll still be deciding which pirate you want to rob a ship like before. However, because of the fog, you also won’t be able to see the ship.</p><p>This means you do not have to remember the ships you rob on this island.</p><p>Unlike yesterday, you won't be visiting multiple islands today. You will stay on this island for the entire game. This game will last ~30 minutes.</p></div>","","","","","","","","","","","","","","","","","","",""
"","html-keyboard-response","9","106314","0.0-9.0","841.7999999970198","<div class='center'><p>You’ve arrived at the final island of your journey! Unfortunately, it’s very foggy out, so you won’t be able to see it in the distance like the other islands you've visited.</p><p>You’ll still be deciding which pirate you want to rob a ship like before. However, because of the fog, you also won’t be able to see the ship.</p><p>This means you do not have to remember the ships you rob on this island.</p><p>Unlike yesterday, you won't be visiting multiple islands today. You will stay on this island for the entire game. This game will last ~30 minutes.</p><p><b>[Press the space bar to continue]</b></p></div>","32","","","","","","","","","","","","","","","","","","","","","","","",""
"","explain_probe_1","10","115734","0.0-10.0","null","run_exp/static/audio/clip_33_recognition_1.m4a","null","","","","","<div class='center'><p> Sometimes you’ll be shown a ship, and you will be asked if you saw this ship on a past island.</p><p> Here is an example of what you will see.</p><p><img src='run_exp/static/images/tutorial/example_recog_trial.png' height='500'></p></div>","","","","","","","","","","","","","","","","","","",""
"","html-keyboard-response","11","117477","0.0-11.0","1741.2000000029802","<div class='center'><p> Sometimes you’ll be shown a ship, and you will be asked if you saw this ship on a past island.</p><p> Here is an example of what you will see.</p><p><img src='run_exp/static/images/tutorial/example_recog_trial.png' height='500'></p><p><b>[Press the space bar to continue]</b></p></div>","32","","","","","","","","","","","","","","","","","","","","","","","",""
"","explain_probe_2","12","144295","0.0-12.0","null","run_exp/static/audio/clip_34_recognition_2.m4a","null","","","","","<div class='center'><p> You will press the 5, 6, 7, 8 keys on your keyboard to respond.</p><p>If you are very sure saw the ship, press <b>5</b> on your keyboard.</p><p> If you think you  saw it before but are not sure, then press <b>6</b>.</p><p> If you think you have <b>not</b> seen it before but are not sure, then press <b>7</b>.</p><p> If you are sure you did <b>not</b> see the ship before, then press <b>8</b>.</p><p><img src='run_exp/static/images/tutorial/example_recog_trial.png' height='500'></p></div>","","","","","","","","","","","","","","","","","","",""
"","html-keyboard-response","13","259315","0.0-13.0","115017.09999999404","<div class='center'><p> You will press the 5, 6, 7, 8 keys on your keyboard to respond.</p><p>If you are very sure saw the ship, press <b>5</b> on your keyboard.</p><p> If you think you  saw it before but are not sure, then press <b>6</b>.</p><p> If you think you have <b>not</b> seen it before but are not sure, then press <b>7</b>.</p><p> If you are sure you did <b>not</b> see the ship before, then press <b>8</b>.</p><p><img src='run_exp/static/images/tutorial/example_recog_trial.png' height='500'></p><p><b>[Press the space bar to continue]</b></p></div>","32","","","","","","","","","","","","","","","","","","","","","","","",""
"","explain_outcome","14","280938","0.0-14.0","null","run_exp/static/audio/clip_35_recognition_3.m4a","null","","","","","<div class='center'><p> If you remember correctly, then you’ll get a gold coin like this: </p><p><img src='run_exp/static/images/tutorial/reward_small.png' height='200'></p><p>If you do not remember correctly, then you'll see a red x like this: </p><p><img src='run_exp/static/images/tutorial/reward_no.png' height='200'></p><p>Importantly, when you are shown a ship, take the time to remind yourself which island you saw it on. This will help you in the next part of the study.</p></div>","","","","","","","","","","","","","","","","","","",""
"","html-keyboard-response","15","282056","0.0-15.0","1116.7999999970198","<div class='center'><p> If you remember correctly, then you’ll get a gold coin like this: </p><p><img src='run_exp/static/images/tutorial/reward_small.png' height='200'></p><p>If you do not remember correctly, then you'll see a red x like this: </p><p><img src='run_exp/static/images/tutorial/reward_no.png' height='200'></p><p>Importantly, when you are shown a ship, take the time to remind yourself which island you saw it on. This will help you in the next part of the study.</p><p><b>[Press the space bar to continue]</b></p></div>","32","","","","","","","","","","","","","","","","","","","","","","","",""
"","begin_test_phase","16","306573","0.0-16.0","null","run_exp/static/audio/clip_36_begin_final.m4a","null","","","","","<div class='center'><p>Let's go over the important points again. Your job is to: </p><p>1. Pick the pirate who is best at robbing ships and will bring you back gold coins. </p><p>2. Correctly remember whether or not you saw a ship before. If you did see the ship before, remind yourself on which island you saw the ship. </p></div>","","","","","","","","","","","","","","","","","","",""
"","html-keyboard-response","17","306640","0.0-17.0","0.29999999701976776","<div class='center'><p>Let's go over the important points again. Your job is to: </p><p>1. Pick the pirate who is best at robbing ships and will bring you back gold coins. </p><p>2. Correctly remember whether or not you saw a ship before. If you did see the ship before, remind yourself on which island you saw the ship. </p><p><b>[Press the space bar to continue]</b></p></div>","32","","","","","","","","","","","","","","","","","","","","","","","",""
"","do_welcome","18","310646","0.0-18.0","null","","","","","","","","null","","","","","","","","","","","","","","","","","",""
"","do_trial","19","315571","0.0-19.0-0.0","2369.5","","","","","","","","49","0,1,1","6","blank","230","null","0.09734732333151243","0.3857069550878919","0.5255457168381765","0","","","","","","","","",""
"","html-keyboard-response","20","316576","0.0-19.0-1.0","null","<p></p>","null","","","","","","","","","","","","","","","","","","","","","","","",""
"","do_trial","21","321658","0.0-20.0-0.0","2514.5","","","","","","","","51","1,0,1","6","blank","231","null","0.19779033291634174","0.46594568046708545","0.4990522144964122","1","","","","","","","","",""
"","html-keyboard-response","22","322660","0.0-20.0-1.0","null","<p></p>","null","","","","","","","","","","","","","","","","","","","","","","","",""
"","do_trial","23","326520","0.0-21.0-0.0","1313.7000000029802","","","","","","","","50","0,0,1","6","blank","232","null","0.24754362554830664","0.4732946914278435","0.5829606121449623","0","","","","","","","","",""
"","html-keyboard-response","24","327523","0.0-21.0-1.0","null","<p></p>","null","","","","","","","","","","","","","","","","","","","","","","","",""
"","do_trial","25","330402","0.0-22.0-0.0","330.5","","","","","","","","49","0,0,0","6","blank","233","null","0.2594435259680582","0.5511135324496881","0.6390296292498239","0","","","","","","","","",""
"","html-keyboard-response","26","331408","0.0-22.0-1.0","null","<p></p>","null","","","","","","","","","","","","","","","","","","","","","","","",""
"","do_trial","27","334305","0.0-23.0-0.0","350.1000000089407","","","","","","","","51","0,1,1","6","blank","234","null","0.3219607706410353","0.43523531691631206","0.5869614967010942","1","","","","","","","","",""
"","html-keyboard-response","28","335306","0.0-23.0-1.0","null","<p></p>","null","","","","","","","","","","","","","","","","","","","","","","","",""
"","do_trial","29","338217","0.0-24.0-0.0","362.1000000089407","","","","","","","","51","0,0,1","6","blank","235","null","0.20023357305109485","0.4228740670737313","0.5552713939419684","1","","","","","","","","",""
"","html-keyboard-response","30","339222","0.0-24.0-1.0","null","<p></p>","null","","","","","","","","","","","","","","","","","","","","","","","",""
"","do_trial","31","342338","0.0-25.0-0.0","573.2999999970198","","","","","","","","51","1,0,1","6","blank","236","null","0.19231962574678094","0.2880439076765084","0.5479537887130943","1","","","","","","","","",""
"","html-keyboard-response","32","343344","0.0-25.0-1.0","null","<p></p>","null","","","","","","","","","","","","","","","","","","","","","","","",""
"","do_trial","33","346275","0.0-26.0-0.0","380.79999999701977","","","","","","","","51","0,1,0","6","blank","237","null","0.24922966806253324","0.24980011402923588","0.4624134837444941","0","","","","","","","","",""
"","html-keyboard-response","34","347277","0.0-26.0-1.0","null","<p></p>","null","","","","","","","","","","","","","","","","","","","","","","","",""
"","do_trial","35","350728","0.0-27.0-0.0","892.2999999970198","","","","","","","","49","0,0,1","6","blank","238","null","0.17612584161839462","0.35085431808458917","0.6138403122214837","0","","","","","","","","",""
"","html-keyboard-response","36","351735","0.0-27.0-1.0","null","<p></p>","null","","","","","","","","","","","","","","","","","","","","","","","",""
"","do_trial","37","354877","0.0-28.0-0.0","591.5","","","","","","","","50","0,0,1","6","blank","239","null","0.12011845205933062","0.2336266279276407","0.5149981873776617","0","","","","","","","","",""
"","html-keyboard-response","38","355883","0.0-28.0-1.0","null","<p></p>","null","","","","","","","","","","","","","","","","","","","","","","","",""
"","do_trial","39","358818","0.0-29.0-0.0","385.40000000596046","","","","","","","","51","1,1,0","6","blank","240","null","0.1676435425043509","0.3567543851234756","0.48982411894630296","0","","","","","","","","",""
"","html-keyboard-response","40","359823","0.0-29.0-1.0","null","<p></p>","null","","","","","","","","","","","","","","","","","","","","","","","",""
"","do_trial","41","363341","0.0-30.0-0.0","973.9000000059605","","","","","","","","51","0,0,1","6","blank","241","null","0.2494501651171955","0.2198589386197878","0.5597160914042297","1","","","","","","","","",""
"","html-keyboard-response","42","364346","0.0-30.0-1.0","null","<p></p>","null","","","","","","","","","","","","","","","","","","","","","","","",""
"","do_trial","43","367416","0.0-31.0-0.0","522.6999999880791","","","","","","","","51","1,0,1","6","blank","242","null","0.46245219003860216","0.15949410303876085","0.2682928862118346","1","","","","","","","","",""
"","html-keyboard-response","44","368422","0.0-31.0-1.0","null","<p></p>","null","","","","","","","","","","","","","","","","","","","","","","","",""
"","do_recog","45","374434","0.0-32.0-0.0","null","","","","","","","","null","","","","243","probe-87","","","","","1","[object Object]","205","5","0","","","",""
"","html-keyboard-response","46","375436","0.0-32.0-1.0","null","<p></p>","null","","","","","","","","","","","","","","","","","","","","","","","",""
"","do_trial","47","379373","0.0-33.0-0.0","1388.6000000089407","","","","","","","","51","0,0,0","6","blank","244","null","0.5362414080947976","0.13208114954129715","0.1557113256202077","0","","","","","","","","",""
"","html-keyboard-response","48","380377","0.0-33.0-1.0","null","<p></p>","null","","","","","","","","","","","","","","","","","","","","","","","",""
"","do_trial","49","384183","0.0-34.0-0.0","1260","","","","","","","","49","1,0,0","6","blank","245","null","0.5558508862180491","0.2685713340528445","0.24189644934250745","1","","","","","","","","",""
"","html-keyboard-response","50","385184","0.0-34.0-1.0","null","<p></p>","null","","","","","","","","","","","","","","","","","","","","","","","",""
"","do_recog","51","391196","0.0-35.0-0.0","null","","","","","","","","null","","","","246","probe-173","","","","","1","[object Object]","89","2","0","","","",""
"","html-keyboard-response","52","392198","0.0-35.0-1.0","null","<p></p>","null","","","","","","","","","","","","","","","","","","","","","","","",""
"","do_trial","53","396356","0.0-36.0-0.0","1609.8999999910593","","","","","","","","49","1,0,0","6","blank","247","null","0.4154870283170013","0.20337429559881465","0.2906747018022685","1","","","","","","","","",""
"","html-keyboard-response","54","397360","0.0-36.0-1.0","null","<p></p>","null","","","","","","","","","","","","","","","","","","","","","","","",""
"","do_trial","55","400871","0.0-37.0-0.0","958.7999999970198","","","","","","","","49","0,0,1","6","blank","248","null","0.5385349452310891","0.30772399989444316","0.2835369091828019","0","","","","","","","","",""
"","html-keyboard-response","56","401876","0.0-37.0-1.0","null","<p></p>","null","","","","","","","","","","","","","","","","","","","","","","","",""
"","do_trial","57","406247","0.0-38.0-0.0","1820","","","","","","","","51","0,0,0","6","blank","249","null","0.45307270314489656","0.42388277330231233","0.22837821789345103","0","","","","","","","","",""
"","html-keyboard-response","58","407252","0.0-38.0-1.0","null","<p></p>","null","","","","","","","","","","","","","","","","","","","","","","","",""
"","do_trial","59","410830","0.0-39.0-0.0","1025.5999999940395","","","","","","","","50","0,1,0","6","blank","250","null","0.5421613942612483","0.37403344494794455","0.26649029629684756","1","","","","","","","","",""
"","html-keyboard-response","60","411833","0.0-39.0-1.0","null","<p></p>","null","","","","","","","","","","","","","","","","","","","","","","","",""
"","do_recog","61","417849","0.0-40.0-0.0","null","","","","","","","","null","","","","251","probe-03","","","","","1","[object Object]","49","1","0","","","",""
"","html-keyboard-response","62","418854","0.0-40.0-1.0","null","<p></p>","null","","","","","","","","","","","","","","","","","","","","","","","",""
"","do_trial","63","422477","0.0-41.0-0.0","1070.6000000089407","","","","","","","","49","1,0,0","6","blank","252","null","0.47097086963404855","0.2809415554647037","0.17746594990499553","1","","","","","","","","",""
"","html-keyboard-response","64","423479","0.0-41.0-1.0","null","<p></p>","null","","","","","","","","","","","","","","","","","","","","","","","",""
"","do_trial","65","426539","0.0-42.0-0.0","514.7000000029802","","","","","","","","49","1,0,0","6","blank","253","null","0.532575824735225","0.31265134790451643","0.15910265950308033","1","","","","","","","","",""
"","html-keyboard-response","66","427545","0.0-42.0-1.0","null","<p></p>","null","","","","","","","","","","","","","","","","","","","","","","","",""
"","do_trial","67","430842","0.0-43.0-0.0","750.7999999970198","","","","","","","","49","0,1,0","6","blank","254","null","0.6246242428878771","0.3521696573787603","0.07502380426252833","0","","","","","","","","",""
"","html-keyboard-response","68","431848","0.0-43.0-1.0","null","<p></p>","null","","","","","","","","","","","","","","","","","","","","","","","",""
"","do_recog","69","435769","0.0-44.0-0.0","2407.7999999970198","","","","","","","","56","","","","255","probe-203","","","","","1","[object Object]","169","4","0","","","",""
"","html-keyboard-response","70","436771","0.0-44.0-1.0","null","<p></p>","null","","","","","","","","","","","","","","","","","","","","","","","",""
"","do_trial","71","440285","0.0-45.0-0.0","960.1000000089407","","","","","","","","49","1,0,0","6","blank","256","null","0.647651488798981","0.11058889284002024","0.10300231069511236","1","","","","","","","","",""
"","html-keyboard-response","72","441287","0.0-45.0-1.0","null","<p></p>","null","","","","","","","","","","","","","","","","","","","","","","","",""
"","do_trial","73","445103","0.0-46.0-0.0","1269.2000000029802","","","","","","","","49","0,0,0","6","blank","257","null","0.5177526492035541","0.0898290024323977","0.11213781552216939","0","","","","","","","","",""
"","html-keyboard-response","74","446108","0.0-46.0-1.0","null","<p></p>","null","","","","","","","","","","","","","","","","","","","","","","","",""
"","do_trial","75","449142","0.0-47.0-0.0","485.6000000089407","","","","","","","","50","1,0,0","6","blank","258","null","0.3829348176840614","0.2888033024366323","0.17826343769666708","0","","","","","","","","",""
"","html-keyboard-response","76","450147","0.0-47.0-1.0","null","<p></p>","null","","","","","","","","","","","","","","","","","","","","","","","",""
"","do_recog","77","454458","0.0-48.0-0.0","2800.9000000059605","","","","","","","","53","","","","259","probe-82","","","","","1","[object Object]","126","3","1","","","",""
"","html-keyboard-response","78","455459","0.0-48.0-1.0","null","<p></p>","null","","","","","","","","","","","","","","","","","","","","","","","",""
"","do_trial","79","458806","0.0-49.0-0.0","792.5999999940395","","","","","","","","50","1,0,0","6","blank","260","null","0.4102692021523686","0.30786360513221916","0.06151186270827207","0","","","","","","","","",""
"","html-keyboard-response","80","459810","0.0-49.0-1.0","null","<p></p>","null","","","","","","","","","","","","","","","","","","","","","","","",""
"","do_trial","81","462771","0.0-50.0-0.0","414","","","","","","","","51","0,0,0","6","blank","261","null","0.42169131517758074","0.2498832581228209","0.09812511244817308","0","","","","","","","","",""
"","html-keyboard-response","82","463775","0.0-50.0-1.0","null","<p></p>","null","","","","","","","","","","","","","","","","","","","","","","","",""
"","do_recog","83","467984","0.0-51.0-0.0","2696.9000000059605","","","","","","","","56","","","","262","probe-89","","","","","1","[object Object]","46","1","0","","","",""
"","html-keyboard-response","84","468988","0.0-51.0-1.0","null","<p></p>","null","","","","","","","","","","","","","","","","","","","","","","","",""
"","do_trial","85","472335","0.0-52.0-0.0","799.2999999970198","","","","","","","","49","1,1,0","6","blank","263","null","0.4259941433759842","0.3672066246942176","0.20910603888933288","1","","","","","","","","",""
"","html-keyboard-response","86","473337","0.0-52.0-1.0","null","<p></p>","null","","","","","","","","","","","","","","","","","","","","","","","",""
"","do_recog","87","477595","0.0-53.0-0.0","2745.5999999940395","","","","","","","","53","","","","264","probe-138","","","","","1","[object Object]","123","3","1","","","",""
"","html-keyboard-response","88","478599","0.0-53.0-1.0","null","<p></p>","null","","","","","","","","","","","","","","","","","","","","","","","",""
"","do_trial","89","482200","0.0-54.0-0.0","1054.7999999970198","","","","","","","","49","1,0,0","6","blank","265","null","0.46438125817345927","0.34055203041689863","0.21000743749147383","1","","","","","","","","",""
"","html-keyboard-response","90","483203","0.0-54.0-1.0","null","<p></p>","null","","","","","","","","","","","","","","","","","","","","","","","",""
"","do_trial","91","486625","0.0-55.0-0.0","872.2000000029802","","","","","","","","50","0,0,0","6","blank","266","null","0.47211904406803656","0.37294979399808287","0.1018979397685126","0","","","","","","","","",""
"","html-keyboard-response","92","487632","0.0-55.0-1.0","null","<p></p>","null","","","","","","","","","","","","","","","","","","","","","","","",""
"","do_trial","93","490546","0.0-56.0-0.0","360.20000000298023","","","","","","","","51","0,0,0","6","blank","267","null","0.4131489206076177","0.4431413489274808","0.10116451573481833","0","","","","","","","","",""
"","html-keyboard-response","94","491550","0.0-56.0-1.0","null","<p></p>","null","","","","","","","","","","","","","","","","","","","","","","","",""
"","do_trial","95","494415","0.0-57.0-0.0","316.20000000298023","","","","","","","","49","0,1,0","6","blank","268","null","0.5243854457707694","0.5556345808836786","0.11479440330064467","0","","","","","","","","",""
"","html-keyboard-response","96","495418","0.0-57.0-1.0","null","<p></p>","null","","","","","","","","","","","","","","","","","","","","","","","",""
"","break","97","500163","0.0-57.0-2.0","4743.70000000298","<div class='center'><p>Time to take a quick break! You have 2 minutes to rest, but you can move on sooner if you'd like.</p><p> Press the <b>space bar</b> to continue.</p></div>","32","","","","","","","","","","","","","","","","","","","","","","","",""
"","do_trial","98","503758","0.0-57.0-3.0","1053.7999999970198","","","","","","","","49","0,0,0","6","blank","269","null","0.48196507081671036","0.3423482187266326","0.1760621251120282","0","","","","","","","","",""
"","html-keyboard-response","99","504764","0.0-57.0-4.0","null","<p></p>","null","","","","","","","","","","","","","","","","","","","","","","","",""
"","do_trial","100","508020","0.0-58.0-0.0","708.2999999970198","","","","","","","","51","0,1,0","6","blank","270","null","0.40867513343290035","0.3850131089432348","0.06959814760576973","0","","","","","","","","",""
"","html-keyboard-response","101","509025","0.0-58.0-1.0","null","<p></p>","null","","","","","","","","","","","","","","","","","","","","","","","",""
"","do_recog","102","513510","0.0-59.0-0.0","2975.5999999940395","","","","","","","","53","","","","271","probe-99","","","","","1","[object Object]","128","3","1","","","",""
"","html-keyboard-response","103","514515","0.0-59.0-1.0","null","<p></p>","null","","","","","","","","","","","","","","","","","","","","","","","",""
"","do_trial","104","518632","0.0-60.0-0.0","1570.2999999970198","","","","","","","","50","1,1,0","6","blank","272","null","0.5371850466606631","0.24348246920536354","0.059877734219686084","1","","","","","","","","",""
"","html-keyboard-response","105","519638","0.0-60.0-1.0","null","<p></p>","null","","","","","","","","","","","","","","","","","","","","","","","",""
"","do_trial","106","522618","0.0-61.0-0.0","429.09999999403954","","","","","","","","50","0,0,1","6","blank","273","null","0.4884437629877267","0.3463574032994587","0.10101902784007628","0","","","","","","","","",""
"","html-keyboard-response","107","523620","0.0-61.0-1.0","null","<p></p>","null","","","","","","","","","","","","","","","","","","","","","","","",""
"","do_trial","108","526530","0.0-62.0-0.0","360.8999999910593","","","","","","","","51","0,0,0","6","blank","274","null","0.5084876000598831","0.20262358535701058","0.07473832200744665","0","","","","","","","","",""
"","html-keyboard-response","109","527533","0.0-62.0-1.0","null","<p></p>","null","","","","","","","","","","","","","","","","","","","","","","","",""
"","do_trial","110","530550","0.0-63.0-0.0","469","","","","","","","","49","0,0,1","6","blank","275","null","0.5257482527260899","0.12950555825830962","0.06967271775001996","0","","","","","","","","",""
"","html-keyboard-response","111","531552","0.0-63.0-1.0","null","<p></p>","null","","","","","","","","","","","","","","","","","","","","","","","",""
"","do_trial","112","535449","0.0-64.0-0.0","1349.2999999970198","","","","","","","","50","0,1,0","6","blank","276","null","0.5521130386238243","0.3341645543654401","0.1287508399083509","1","","","","","","","","",""
"","html-keyboard-response","113","536454","0.0-64.0-1.0","null","<p></p>","null","","","","","","","","","","","","","","","","","","","","","","","",""
"","do_trial","114","540257","0.0-65.0-0.0","1249.6000000089407","","","","","","","","50","1,0,0","6","blank","277","null","0.5264552758180611","0.3475215468052564","0.17411469094326046","0","","","","","","","","",""
"","html-keyboard-response","115","541263","0.0-65.0-1.0","null","<p></p>","null","","","","","","","","","","","","","","","","","","","","","","","",""
"","do_recog","116","545734","0.0-66.0-0.0","2958.2000000029802","","","","","","","","53","","","","278","probe-13","","","","","1","[object Object]","162","4","1","","","",""
"","html-keyboard-response","117","546739","0.0-66.0-1.0","null","<p></p>","null","","","","","","","","","","","","","","","","","","","","","","","",""
"","do_trial","118","550119","0.0-67.0-0.0","819.4000000059605","","","","","","","","49","0,0,0","6","blank","279","null","0.4808662307231731","0.3942005734051925","0.06340322656919258","0","","","","","","","","",""
"","html-keyboard-response","119","551120","0.0-67.0-1.0","null","<p></p>","null","","","","","","","","","","","","","","","","","","","","","","","",""
"","do_trial","120","554367","0.0-68.0-0.0","696.5999999940395","","","","","","","","51","0,0,0","6","blank","280","null","0.5880814432282396","0.2832599315008874","0.16708318926522592","0","","","","","","","","",""
"","html-keyboard-response","121","555373","0.0-68.0-1.0","null","<p></p>","null","","","","","","","","","","","","","","","","","","","","","","","",""
"","do_trial","122","558861","0.0-69.0-0.0","938.1000000089407","","","","","","","","50","1,0,0","6","blank","281","null","0.6683573530058969","0.2829280583271962","0.11276039266045547","0","","","","","","","","",""
"","html-keyboard-response","123","559867","0.0-69.0-1.0","null","<p></p>","null","","","","","","","","","","","","","","","","","","","","","","","",""
"","do_trial","124","562999","0.0-70.0-0.0","582.7000000029802","","","","","","","","51","0,0,0","6","blank","282","null","0.6551499131280285","0.277253426004858","0.06902279774860447","0","","","","","","","","",""
"","html-keyboard-response","125","564005","0.0-70.0-1.0","null","<p></p>","null","","","","","","","","","","","","","","","","","","","","","","","",""
"","do_trial","126","567330","0.0-71.0-0.0","776.0999999940395","","","","","","","","50","1,0,0","6","blank","283","null","0.7293702670579622","0.06751534776781772","0.17845082048167474","0","","","","","","","","",""
"","html-keyboard-response","127","568336","0.0-71.0-1.0","null","<p></p>","null","","","","","","","","","","","","","","","","","","","","","","","",""
"","do_trial","128","571404","0.0-72.0-0.0","520.9000000059605","","","","","","","","49","1,0,0","6","blank","284","null","0.8802084873089421","0.23353719230189107","0.07228154347002748","1","","","","","","","","",""
"","html-keyboard-response","129","572407","0.0-72.0-1.0","null","<p></p>","null","","","","","","","","","","","","","","","","","","","","","","","",""
"","do_trial","130","575956","0.0-73.0-0.0","997.4000000059605","","","","","","","","50","0,1,0","6","blank","285","null","0.6548103355363353","0.16721348779692896","0.0734531026900668","1","","","","","","","","",""
"","html-keyboard-response","131","576957","0.0-73.0-1.0","null","<p></p>","null","","","","","","","","","","","","","","","","","","","","","","","",""
"","do_recog","132","580804","0.0-74.0-0.0","2337.7999999970198","","","","","","","","56","","","","286","probe-200","","","","","1","[object Object]","122","3","0","","","",""
"","html-keyboard-response","133","581808","0.0-74.0-1.0","null","<p></p>","null","","","","","","","","","","","","","","","","","","","","","","","",""
"","do_trial","134","584999","0.0-75.0-0.0","641","","","","","","","","49","1,0,0","6","blank","287","null","0.6637081357107159","0.12918319330492664","0.08098278885960188","1","","","","","","","","",""
"","html-keyboard-response","135","586005","0.0-75.0-1.0","null","<p></p>","null","","","","","","","","","","","","","","","","","","","","","","","",""
"","do_trial","136","589081","0.0-76.0-0.0","530.2000000029802","","","","","","","","49","1,0,0","6","blank","288","null","0.6107583570394904","0.22050151603113183","0.07875622051865185","1","","","","","","","","",""
"","html-keyboard-response","137","590083","0.0-76.0-1.0","null","<p></p>","null","","","","","","","","","","","","","","","","","","","","","","","",""
"","do_trial","138","593226","0.0-77.0-0.0","590.2999999970198","","","","","","","","49","1,0,0","6","blank","289","null","0.6322977247791021","0.0921692324002444","0.11460019845123327","1","","","","","","","","",""
"","html-keyboard-response","139","594232","0.0-77.0-1.0","null","<p></p>","null","","","","","","","","","","","","","","","","","","","","","","","",""
"","do_recog","140","598588","0.0-78.0-0.0","2845","","","","","","","","56","","","","290","probe-179","","","","","1","[object Object]","40","1","0","","","",""
"","html-keyboard-response","141","599590","0.0-78.0-1.0","null","<p></p>","null","","","","","","","","","","","","","","","","","","","","","","","",""
"","do_trial","142","602671","0.0-79.0-0.0","530.7000000029802","","","","","","","","49","0,0,0","6","blank","291","null","0.7375314168948461","0.15867578321582143","0.0567818679874225","0","","","","","","","","",""
"","html-keyboard-response","143","603672","0.0-79.0-1.0","null","<p></p>","null","","","","","","","","","","","","","","","","","","","","","","","",""
"","do_trial","144","606620","0.0-80.0-0.0","398.6000000089407","","","","","","","","50","1,1,0","6","blank","292","null","0.7353252801798573","0.17608664467415067","0.10908651240584614","1","","","","","","","","",""
"","html-keyboard-response","145","607622","0.0-80.0-1.0","null","<p></p>","null","","","","","","","","","","","","","","","","","","","","","","","",""
"","do_trial","146","610801","0.0-81.0-0.0","632.3000000119209","","","","","","","","50","1,0,0","6","blank","293","null","0.49658131711251946","0.17177768414516933","0.1834675085708262","0","","","","","","","","",""
"","html-keyboard-response","147","611804","0.0-81.0-1.0","null","<p></p>","null","","","","","","","","","","","","","","","","","","","","","","","",""
"","do_recog","148","615200","0.0-82.0-0.0","1887.9000000059605","","","","","","","","56","","","","294","probe-39","","","","","1","[object Object]","200","5","0","","","",""
"","html-keyboard-response","149","616202","0.0-82.0-1.0","null","<p></p>","null","","","","","","","","","","","","","","","","","","","","","","","",""
"","do_trial","150","619448","0.0-83.0-0.0","694.7999999970198","","","","","","","","49","0,1,0","6","blank","295","null","0.3310106172433347","0.3217452758153268","0.23391871553869387","0","","","","","","","","",""
"","html-keyboard-response","151","620454","0.0-83.0-1.0","null","<p></p>","null","","","","","","","","","","","","","","","","","","","","","","","",""
"","do_recog","152","624421","0.0-84.0-0.0","2457.3999999910593","","","","","","","","53","","","","296","probe-172","","","","","1","[object Object]","127","3","1","","","",""
"","html-keyboard-response","153","625428","0.0-84.0-1.0","null","<p></p>","null","","","","","","","","","","","","","","","","","","","","","","","",""
"","do_trial","154","629249","0.0-85.0-0.0","1271.5999999940395","","","","","","","","50","0,0,0","6","blank","297","null","0.3265313571579718","0.5306247366459999","0.1108803764670262","0","","","","","","","","",""
"","html-keyboard-response","155","630254","0.0-85.0-1.0","null","<p></p>","null","","","","","","","","","","","","","","","","","","","","","","","",""
"","do_trial","156","633401","0.0-86.0-0.0","599.2000000029802","","","","","","","","49","0,1,1","6","blank","298","null","0.25542531136203733","0.4870866730227826","0.13265139307222046","0","","","","","","","","",""
"","html-keyboard-response","157","634406","0.0-86.0-1.0","null","<p></p>","null","","","","","","","","","","","","","","","","","","","","","","","",""
"","do_trial","158","637413","0.0-87.0-0.0","449.69999998807907","","","","","","","","51","0,1,0","6","blank","299","null","0.2180393858742991","0.5305278545189849","0.05287299404056046","0","","","","","","","","",""
"","html-keyboard-response","159","638418","0.0-87.0-1.0","null","<p></p>","null","","","","","","","","","","","","","","","","","","","","","","","",""
"","do_trial","160","641322","0.0-88.0-0.0","357.09999999403954","","","","","","","","50","1,0,0","6","blank","300","null","0.13028163835085474","0.6654788456836538","0.12172654897115774","0","","","","","","","","",""
"","html-keyboard-response","161","642326","0.0-88.0-1.0","null","<p></p>","null","","","","","","","","","","","","","","","","","","","","","","","",""
"","do_trial","162","645262","0.0-89.0-0.0","386.19999998807907","","","","","","","","49","1,0,0","6","blank","301","null","0.25436472354855655","0.6144804952004382","0.08901453743988066","1","","","","","","","","",""
"","html-keyboard-response","163","646268","0.0-89.0-1.0","null","<p></p>","null","","","","","","","","","","","","","","","","","","","","","","","",""
"","do_trial","164","649240","0.0-90.0-0.0","424.40000000596046","","","","","","","","49","1,1,0","6","blank","302","null","0.383407419967312","0.5734020530053748","0.1540325221838052","1","","","","","","","","",""
"","html-keyboard-response","165","650246","0.0-90.0-1.0","null","<p></p>","null","","","","","","","","","","","","","","","","","","","","","","","",""
"","do_recog","166","654107","0.0-91.0-0.0","2353.2000000029802","","","","","","","","53","","","","303","probe-85","","","","","1","[object Object]","201","5","1","","","",""
"","html-keyboard-response","167","655111","0.0-91.0-1.0","null","<p></p>","null","","","","","","","","","","","","","","","","","","","","","","","",""
"","do_trial","168","659449","0.0-92.0-0.0","1781.300000011921","","","","","","","","49","1,1,0","6","blank","304","null","0.4324950797859404","0.5946508667102101","0.05532190019829344","1","","","","","","","","",""
"","html-keyboard-response","169","660455","0.0-92.0-1.0","null","<p></p>","null","","","","","","","","","","","","","","","","","","","","","","","",""
"","do_recog","170","664539","0.0-93.0-0.0","2573.3999999910593","","","","","","","","56","","","","305","probe-132","","","","","1","[object Object]","121","3","0","","","",""
"","html-keyboard-response","171","665543","0.0-93.0-1.0","null","<p></p>","null","","","","","","","","","","","","","","","","","","","","","","","",""
"","do_trial","172","669273","0.0-94.0-0.0","1184.1000000089407","","","","","","","","49","0,0,0","6","blank","306","null","0.40662821062236454","0.49329127403248985","0.17363412067781508","0","","","","","","","","",""
"","html-keyboard-response","173","670278","0.0-94.0-1.0","null","<p></p>","null","","","","","","","","","","","","","","","","","","","","","","","",""
"","do_trial","174","673193","0.0-95.0-0.0","361.09999999403954","","","","","","","","50","1,1,0","6","blank","307","null","0.32893577058452733","0.5355157978585132","0.15332915735324706","1","","","","","","","","",""
"","html-keyboard-response","175","674198","0.0-95.0-1.0","null","<p></p>","null","","","","","","","","","","","","","","","","","","","","","","","",""
"","break","176","692759","0.0-96.0-0.0","18559","<div class='center'><p>Time to take a quick break! You have 2 minutes to rest, but you can move on sooner if you'd like.</p><p> Press the <b>space bar</b> to continue.</p></div>","32","","","","","","","","","","","","","","","","","","","","","","","",""
"","do_recog","177","697030","0.0-96.0-1.0","2757.2000000029802","","","","","","","","53","","","","308","probe-111","","","","","1","[object Object]","203","5","1","","","",""
"","html-keyboard-response","178","698033","0.0-96.0-2.0","null","<p></p>","null","","","","","","","","","","","","","","","","","","","","","","","",""
"","do_trial","179","702455","0.0-97.0-0.0","1871.2999999970198","","","","","","","","49","0,1,0","6","blank","309","null","0.20044492539614658","0.5636205416062416","0.07199984803245603","0","","","","","","","","",""
"","html-keyboard-response","180","703461","0.0-97.0-1.0","null","<p></p>","null","","","","","","","","","","","","","","","","","","","","","","","",""
"","do_trial","181","709517","0.0-98.0-0.0","null","","","","","","","","null","0,1,0","6","blank","310","null","0.13499826661850778","0.5159872226229658","0.08454754448919802","","","","","","","","","",""
"","html-keyboard-response","182","710523","0.0-98.0-1.0","null","<p></p>","null","","","","","","","","","","","","","","","","","","","","","","","",""
"","do_trial","183","714442","0.0-99.0-0.0","1368.2000000029802","","","","","","","","50","0,1,0","6","blank","311","null","0.1594684013670679","0.5270063385593682","0.06836547447750767","1","","","","","","","","",""
"","html-keyboard-response","184","715444","0.0-99.0-1.0","null","<p></p>","null","","","","","","","","","","","","","","","","","","","","","","","",""
"","do_trial","185","718401","0.0-100.0-0.0","408.19999998807907","","","","","","","","50","1,0,0","6","blank","312","null","0.1911017752093249","0.4712338346554136","0.06488721400808814","0","","","","","","","","",""
"","html-keyboard-response","186","719408","0.0-100.0-1.0","null","<p></p>","null","","","","","","","","","","","","","","","","","","","","","","","",""
"","do_trial","187","722332","0.0-101.0-0.0","369.09999999403954","","","","","","","","49","0,1,0","6","blank","313","null","0.27700776081396955","0.6122113894005805","0.07050613895006895","0","","","","","","","","",""
"","html-keyboard-response","188","723339","0.0-101.0-1.0","null","<p></p>","null","","","","","","","","","","","","","","","","","","","","","","","",""
"","do_trial","189","726108","0.0-102.0-0.0","218.79999999701977","","","","","","","","51","0,0,0","6","blank","314","null","0.21400856243162492","0.5373344638917765","0.11861493437106335","0","","","","","","","","",""
"","html-keyboard-response","190","727110","0.0-102.0-1.0","null","<p></p>","null","","","","","","","","","","","","","","","","","","","","","","","",""
"","do_recog","191","731415","0.0-103.0-0.0","2795.5999999940395","","","","","","","","56","","","","315","probe-225","","","","","1","[object Object]","165","4","0","","","",""
"","html-keyboard-response","192","732420","0.0-103.0-1.0","null","<p></p>","null","","","","","","","","","","","","","","","","","","","","","","","",""
"","do_trial","193","736754","0.0-104.0-0.0","1783.5","","","","","","","","51","1,0,0","6","blank","316","null","0.25178417527616065","0.5997540895128626","0.06450178900542315","0","","","","","","","","",""
"","html-keyboard-response","194","737760","0.0-104.0-1.0","null","<p></p>","null","","","","","","","","","","","","","","","","","","","","","","","",""
"","do_recog","195","741586","0.0-105.0-0.0","2313.7000000029802","","","","","","","","56","","","","317","probe-107","","","","","1","[object Object]","204","5","0","","","",""
"","html-keyboard-response","196","742588","0.0-105.0-1.0","null","<p></p>","null","","","","","","","","","","","","","","","","","","","","","","","",""
"","do_trial","197","746122","0.0-106.0-0.0","993.7000000029802","","","","","","","","50","1,0,0","6","blank","318","null","0.3321660621941448","0.5142583756520623","0.11064987499502266","0","","","","","","","","",""
"","html-keyboard-response","198","747128","0.0-106.0-1.0","null","<p></p>","null","","","","","","","","","","","","","","","","","","","","","","","",""
"","do_recog","199","750815","0.0-107.0-0.0","2174.4000000059605","","","","","","","","53","","","","319","probe-10","","","","","1","[object Object]","208","5","1","","","",""
"","html-keyboard-response","200","751820","0.0-107.0-1.0","null","<p></p>","null","","","","","","","","","","","","","","","","","","","","","","","",""
"","do_trial","201","755407","0.0-108.0-0.0","1022.7000000029802","","","","","","","","51","0,0,0","6","blank","320","null","0.18456182575174268","0.5322494069300276","0.24715137471116172","0","","","","","","","","",""
"","html-keyboard-response","202","756414","0.0-108.0-1.0","null","<p></p>","null","","","","","","","","","","","","","","","","","","","","","","","",""
"","do_recog","203","760702","0.0-109.0-0.0","2769.9000000059605","","","","","","","","56","","","","321","probe-156","","","","","1","[object Object]","207","5","0","","","",""
"","html-keyboard-response","204","761705","0.0-109.0-1.0","null","<p></p>","null","","","","","","","","","","","","","","","","","","","","","","","",""
"","do_trial","205","765690","0.0-110.0-0.0","1421.5999999940395","","","","","","","","50","0,1,0","6","blank","322","null","0.30997423481030867","0.715429191881852","0.08490722611604319","1","","","","","","","","",""
"","html-keyboard-response","206","766696","0.0-110.0-1.0","null","<p></p>","null","","","","","","","","","","","","","","","","","","","","","","","",""
"","do_recog","207","772714","0.0-111.0-0.0","null","","","","","","","","null","","","","323","probe-86","","","","","1","[object Object]","166","4","0","","","",""
"","html-keyboard-response","208","773720","0.0-111.0-1.0","null","<p></p>","null","","","","","","","","","","","","","","","","","","","","","","","",""
"","do_trial","209","776885","0.0-112.0-0.0","617","","","","","","","","50","0,1,0","6","blank","324","null","0.15495581526171948","0.70346198874804","0.09381521828633492","1","","","","","","","","",""
"","html-keyboard-response","210","777889","0.0-112.0-1.0","null","<p></p>","null","","","","","","","","","","","","","","","","","","","","","","","",""
"","do_trial","211","780853","0.0-113.0-0.0","417.09999999403954","","","","","","","","50","1,1,0","6","blank","325","null","0.3122281156205528","0.8361386185183755","0.07418202224395555","1","","","","","","","","",""
"","html-keyboard-response","212","781854","0.0-113.0-1.0","null","<p></p>","null","","","","","","","","","","","","","","","","","","","","","","","",""
"","do_trial","213","784880","0.0-114.0-0.0","481.6000000089407","","","","","","","","50","0,1,0","6","blank","326","null","0.37679302197699777","0.903652113275065","0.07472438146042","1","","","","","","","","",""
"","html-keyboard-response","214","785885","0.0-114.0-1.0","null","<p></p>","null","","","","","","","","","","","","","","","","","","","","","","","",""
"","do_trial","215","788970","0.0-115.0-0.0","528.6000000089407","","","","","","","","50","1,1,0","6","blank","327","null","0.40161113275033344","0.6745953002439071","0.1798959186753639","1","","","","","","","","",""
"","html-keyboard-response","216","789976","0.0-115.0-1.0","null","<p></p>","null","","","","","","","","","","","","","","","","","","","","","","","",""
"","do_trial","217","792997","0.0-116.0-0.0","470.09999999403954","","","","","","","","50","0,0,0","6","blank","328","null","0.28256816948493946","0.5754283507222258","0.073483648633622","0","","","","","","","","",""
"","html-keyboard-response","218","794002","0.0-116.0-1.0","null","<p></p>","null","","","","","","","","","","","","","","","","","","","","","","","",""
"","do_trial","219","796937","0.0-117.0-0.0","387.6000000089407","","","","","","","","50","0,1,0","6","blank","329","null","0.18562448426026748","0.6029606462984765","0.07100249759975535","1","","","","","","","","",""
"","html-keyboard-response","220","797942","0.0-117.0-1.0","null","<p></p>","null","","","","","","","","","","","","","","","","","","","","","","","",""
"","do_recog","221","801479","0.0-118.0-0.0","2023.3999999910593","","","","","","","","53","","","","330","probe-227","","","","","1","[object Object]","88","2","1","","","",""
"","html-keyboard-response","222","802484","0.0-118.0-1.0","null","<p></p>","null","","","","","","","","","","","","","","","","","","","","","","","",""
"","do_trial","223","805662","0.0-119.0-0.0","628.2999999970198","","","","","","","","50","0,1,0","6","blank","331","null","0.11227868965646973","0.6123394003931921","0.10497537778979255","1","","","","","","","","",""
"","html-keyboard-response","224","806667","0.0-119.0-1.0","null","<p></p>","null","","","","","","","","","","","","","","","","","","","","","","","",""
"","do_recog","225","810236","0.0-120.0-0.0","2057.0999999940395","","","","","","","","56","","","","332","probe-07","","","","","1","[object Object]","129","3","0","","","",""
"","html-keyboard-response","226","811239","0.0-120.0-1.0","null","<p></p>","null","","","","","","","","","","","","","","","","","","","","","","","",""
"","do_trial","227","814658","0.0-121.0-0.0","863.1000000089407","","","","","","","","50","0,1,0","6","blank","333","null","0.23154773067406328","0.5681642179259984","0.134667474507577","1","","","","","","","","",""
"","html-keyboard-response","228","815665","0.0-121.0-1.0","null","<p></p>","null","","","","","","","","","","","","","","","","","","","","","","","",""
"","do_trial","229","818744","0.0-122.0-0.0","526.5","","","","","","","","50","0,1,0","6","blank","334","null","0.2172311438638527","0.5283960146206275","0.14955597807254345","1","","","","","","","","",""
"","html-keyboard-response","230","819750","0.0-122.0-1.0","null","<p></p>","null","","","","","","","","","","","","","","","","","","","","","","","",""
"","do_trial","231","822649","0.0-123.0-0.0","348.70000000298023","","","","","","","","50","0,0,0","6","blank","335","null","0.33658763631780453","0.4877364562568266","0.10499329111637193","0","","","","","","","","",""
"","html-keyboard-response","232","823653","0.0-123.0-1.0","null","<p></p>","null","","","","","","","","","","","","","","","","","","","","","","","",""
"","do_trial","233","826632","0.0-124.0-0.0","432.79999999701977","","","","","","","","51","0,1,0","6","blank","336","null","0.4258746481986208","0.5398584353569634","0.2041332052756178","0","","","","","","","","",""
"","html-keyboard-response","234","827635","0.0-124.0-1.0","null","<p></p>","null","","","","","","","","","","","","","","","","","","","","","","","",""
"","do_trial","235","830589","0.0-125.0-0.0","405","","","","","","","","49","0,1,0","6","blank","337","null","0.4166726984926874","0.6416189038407094","0.2756367715294515","0","","","","","","","","",""
"","html-keyboard-response","236","831593","0.0-125.0-1.0","null","<p></p>","null","","","","","","","","","","","","","","","","","","","","","","","",""
"","do_recog","237","835774","0.0-126.0-0.0","2670.9000000059605","","","","","","","","54","","","","338","probe-133","","","","","1","[object Object]","168","4","1","","","",""
"","html-keyboard-response","238","836779","0.0-126.0-1.0","null","<p></p>","null","","","","","","","","","","","","","","","","","","","","","","","",""
"","do_trial","239","840490","0.0-127.0-0.0","1159.0999999940395","","","","","","","","50","0,1,0","6","blank","339","null","0.2642807641189572","0.6145700246735936","0.12612169550736071","1","","","","","","","","",""
"","html-keyboard-response","240","841493","0.0-127.0-1.0","null","<p></p>","null","","","","","","","","","","","","","","","","","","","","","","","",""
"","do_trial","241","844431","0.0-128.0-0.0","390.70000000298023","","","","","","","","50","1,1,0","6","blank","340","null","0.4011605463603578","0.7091214728143767","0.21219638909101157","1","","","","","","","","",""
"","html-keyboard-response","242","845434","0.0-128.0-1.0","null","<p></p>","null","","","","","","","","","","","","","","","","","","","","","","","",""
"","do_trial","243","848364","0.0-129.0-0.0","379.1000000089407","","","","","","","","50","1,1,1","6","blank","341","null","0.5075506241102903","0.6847211091093047","0.21301025221986053","1","","","","","","","","",""
"","html-keyboard-response","244","849366","0.0-129.0-1.0","null","<p></p>","null","","","","","","","","","","","","","","","","","","","","","","","",""
"","do_trial","245","852267","0.0-130.0-0.0","354","","","","","","","","50","1,1,0","6","blank","342","null","0.36932891951639396","0.7121099422408875","0.12871565354870412","1","","","","","","","","",""
"","html-keyboard-response","246","853269","0.0-130.0-1.0","null","<p></p>","null","","","","","","","","","","","","","","","","","","","","","","","",""
"","do_trial","247","856247","0.0-131.0-0.0","430.5","","","","","","","","50","0,1,0","6","blank","343","null","0.2946933832243889","0.6568383567615645","0.07421008728812264","1","","","","","","","","",""
"","html-keyboard-response","248","857250","0.0-131.0-1.0","null","<p></p>","null","","","","","","","","","","","","","","","","","","","","","","","",""
"","do_trial","249","860147","0.0-132.0-0.0","344.59999999403954","","","","","","","","50","1,0,0","6","blank","344","null","0.21522767185652686","0.5265419809960942","0.09196670221460851","0","","","","","","","","",""
"","html-keyboard-response","250","861151","0.0-132.0-1.0","null","<p></p>","null","","","","","","","","","","","","","","","","","","","","","","","",""
"","do_trial","251","864110","0.0-133.0-0.0","407","","","","","","","","50","0,0,0","6","blank","345","null","0.0690544583851758","0.4635557388122242","0.10642846234675116","0","","","","","","","","",""
"","html-keyboard-response","252","865115","0.0-133.0-1.0","null","<p></p>","null","","","","","","","","","","","","","","","","","","","","","","","",""
"","do_recog","253","869256","0.0-134.0-0.0","2630.2000000029802","","","","","","","","54","","","","346","probe-48","","","","","1","[object Object]","163","4","1","","","",""
"","html-keyboard-response","254","870261","0.0-134.0-1.0","null","<p></p>","null","","","","","","","","","","","","","","","","","","","","","","","",""
"","do_trial","255","873220","0.0-135.0-0.0","410.19999998807907","","","","","","","","50","0,0,0","6","blank","347","null","0.21413574751382747","0.39933775528759186","0.14999921078939737","0","","","","","","","","",""
"","html-keyboard-response","256","874222","0.0-135.0-1.0","null","<p></p>","null","","","","","","","","","","","","","","","","","","","","","","","",""
"","break","257","883279","0.0-135.0-2.0","9055.70000000298","<div class='center'><p>Time to take a quick break! You have 2 minutes to rest, but you can move on sooner if you'd like.</p><p> Press the <b>space bar</b> to continue.</p></div>","32","","","","","","","","","","","","","","","","","","","","","","","",""
"","do_trial","258","886534","0.0-135.0-3.0","707.7999999970198","","","","","","","","50","0,0,0","6","blank","348","null","0.4679566823145308","0.205723619041303","0.12186656918531555","0","","","","","","","","",""
"","html-keyboard-response","259","887535","0.0-135.0-4.0","null","<p></p>","null","","","","","","","","","","","","","","","","","","","","","","","",""
"","do_trial","260","891409","0.0-136.0-0.0","1323.300000011921","","","","","","","","51","1,0,0","6","blank","349","null","0.5320862780962085","0.05649671913575327","0.07095904136563098","0","","","","","","","","",""
"","html-keyboard-response","261","892412","0.0-136.0-1.0","null","<p></p>","null","","","","","","","","","","","","","","","","","","","","","","","",""
"","do_recog","262","896906","0.0-137.0-0.0","2981.2999999970198","","","","","","","","54","","","","350","probe-240","","","","","0","[object Object]","null","null","0","","","",""
"","html-keyboard-response","263","897911","0.0-137.0-1.0","null","<p></p>","null","","","","","","","","","","","","","","","","","","","","","","","",""
"","do_trial","264","901055","0.0-138.0-0.0","593.5","","","","","","","","50","1,0,0","6","blank","351","null","0.6388747873185215","0.0684009703294386","0.15551699777296382","0","","","","","","","","",""
"","html-keyboard-response","265","902057","0.0-138.0-1.0","null","<p></p>","null","","","","","","","","","","","","","","","","","","","","","","","",""
"","do_recog","266","905601","0.0-139.0-0.0","2034.199999988079","","","","","","","","54","","","","352","probe-67","","","","","1","[object Object]","209","5","1","","","",""
"","html-keyboard-response","267","906606","0.0-139.0-1.0","null","<p></p>","null","","","","","","","","","","","","","","","","","","","","","","","",""
"","do_trial","268","909541","0.0-140.0-0.0","389.3999999910593","","","","","","","","49","1,0,0","6","blank","353","null","0.7208352597416061","0.1601790292025368","0.14887681879987158","1","","","","","","","","",""
"","html-keyboard-response","269","910546","0.0-140.0-1.0","null","<p></p>","null","","","","","","","","","","","","","","","","","","","","","","","",""
"","do_trial","270","913388","0.0-141.0-0.0","295.70000000298023","","","","","","","","49","1,0,0","6","blank","354","null","0.7778244442765491","0.16189060087243484","0.13976874062311395","1","","","","","","","","",""
"","html-keyboard-response","271","914393","0.0-141.0-1.0","null","<p></p>","null","","","","","","","","","","","","","","","","","","","","","","","",""
"","do_trial","272","917271","0.0-142.0-0.0","326.5","","","","","","","","49","1,0,0","6","blank","355","null","0.6968751746780565","0.19894889484674694","0.12802862500656537","1","","","","","","","","",""
"","html-keyboard-response","273","918275","0.0-142.0-1.0","null","<p></p>","null","","","","","","","","","","","","","","","","","","","","","","","",""
"","do_trial","274","921325","0.0-143.0-0.0","497.20000000298023","","","","","","","","49","1,0,0","6","blank","356","null","0.5209811400688809","0.1414026856766254","0.2879118722895519","1","","","","","","","","",""
"","html-keyboard-response","275","922330","0.0-143.0-1.0","null","<p></p>","null","","","","","","","","","","","","","","","","","","","","","","","",""
"","do_trial","276","925268","0.0-144.0-0.0","380.20000000298023","","","","","","","","49","1,1,0","6","blank","357","null","0.6136691851600221","0.15853363053067487","0.2790472232671987","1","","","","","","","","",""
"","html-keyboard-response","277","926270","0.0-144.0-1.0","null","<p></p>","null","","","","","","","","","","","","","","","","","","","","","","","",""
"","do_trial","278","929141","0.0-145.0-0.0","318.5","","","","","","","","50","1,1,0","6","blank","358","null","0.6987352545102118","0.1442656175777631","0.2506022529036681","1","","","","","","","","",""
"","html-keyboard-response","279","930146","0.0-145.0-1.0","null","<p></p>","null","","","","","","","","","","","","","","","","","","","","","","","",""
"","do_recog","280","933779","0.0-146.0-0.0","2122","","","","","","","","54","","","","359","probe-220","","","","","1","[object Object]","80","2","1","","","",""
"","html-keyboard-response","281","934785","0.0-146.0-1.0","null","<p></p>","null","","","","","","","","","","","","","","","","","","","","","","","",""
"","do_trial","282","937803","0.0-147.0-0.0","468.6000000089407","","","","","","","","50","1,0,0","6","blank","360","null","0.554980661873538","0.06490146276873379","0.2094959016858605","0","","","","","","","","",""
"","html-keyboard-response","283","938808","0.0-147.0-1.0","null","<p></p>","null","","","","","","","","","","","","","","","","","","","","","","","",""
"","do_recog","284","944822","0.0-148.0-0.0","null","","","","","","","","null","","","","361","probe-54","","","","","1","[object Object]","124","3","0","","","",""
"","html-keyboard-response","285","945827","0.0-148.0-1.0","null","<p></p>","null","","","","","","","","","","","","","","","","","","","","","","","",""
"","do_trial","286","948812","0.0-149.0-0.0","428.29999999701977","","","","","","","","50","0,1,0","6","blank","362","null","0.6075232076137824","0.07299657485514742","0.19842092979510503","1","","","","","","","","",""
"","html-keyboard-response","287","949815","0.0-149.0-1.0","null","<p></p>","null","","","","","","","","","","","","","","","","","","","","","","","",""
"","do_trial","288","953077","0.0-150.0-0.0","709.7000000029802","","","","","","","","50","1,0,0","6","blank","363","null","0.7643380298282463","0.05024983977469255","0.13117983029172486","0","","","","","","","","",""
"","html-keyboard-response","289","954082","0.0-150.0-1.0","null","<p></p>","null","","","","","","","","","","","","","","","","","","","","","","","",""
"","do_recog","290","960096","0.0-151.0-0.0","null","","","","","","","","null","","","","364","probe-113","","","","","1","[object Object]","47","1","0","","","",""
"","html-keyboard-response","291","961102","0.0-151.0-1.0","null","<p></p>","null","","","","","","","","","","","","","","","","","","","","","","","",""
"","do_trial","292","964185","0.0-152.0-0.0","533.7999999970198","","","","","","","","50","0,0,0","6","blank","365","null","0.7146919377334945","0.10993889370610165","0.19737577221539776","0","","","","","","","","",""
"","html-keyboard-response","293","965190","0.0-152.0-1.0","null","<p></p>","null","","","","","","","","","","","","","","","","","","","","","","","",""
"","do_recog","294","969042","0.0-153.0-0.0","2340.7999999970198","","","","","","","","54","","","","366","probe-70","","","","","1","[object Object]","85","2","1","","","",""
"","html-keyboard-response","295","970048","0.0-153.0-1.0","null","<p></p>","null","","","","","","","","","","","","","","","","","","","","","","","",""
"","do_trial","296","973264","0.0-154.0-0.0","667.7000000029802","","","","","","","","49","0,0,0","6","blank","367","null","0.5513161617458812","0.14722668399342415","0.14566374883661617","0","","","","","","","","",""
"","html-keyboard-response","297","974269","0.0-154.0-1.0","null","<p></p>","null","","","","","","","","","","","","","","","","","","","","","","","",""
"","do_trial","298","977877","0.0-155.0-0.0","1057.7000000029802","","","","","","","","50","1,0,0","6","blank","368","null","0.5810735940082855","0.21778231509714885","0.2069951066473032","0","","","","","","","","",""
"","html-keyboard-response","299","978883","0.0-155.0-1.0","null","<p></p>","null","","","","","","","","","","","","","","","","","","","","","","","",""
"","do_trial","300","981886","0.0-156.0-0.0","451.3999999910593","","","","","","","","51","0,0,1","6","blank","369","null","0.6969901250107517","0.0788680207065007","0.3073246604840951","1","","","","","","","","",""
"","html-keyboard-response","301","982889","0.0-156.0-1.0","null","<p></p>","null","","","","","","","","","","","","","","","","","","","","","","","",""
"","do_recog","302","986695","0.0-157.0-0.0","2295.7000000029802","","","","","","","","54","","","","370","probe-176","","","","","1","[object Object]","86","2","1","","","",""
"","html-keyboard-response","303","987698","0.0-157.0-1.0","null","<p></p>","null","","","","","","","","","","","","","","","","","","","","","","","",""
"","do_trial","304","991218","0.0-158.0-0.0","969.6000000089407","","","","","","","","51","1,0,0","6","blank","371","null","0.6669921543522788","0.09623357992355351","0.24122112665764525","0","","","","","","","","",""
"","html-keyboard-response","305","992223","0.0-158.0-1.0","null","<p></p>","null","","","","","","","","","","","","","","","","","","","","","","","",""
"","do_trial","306","995755","0.0-159.0-0.0","974.2000000029802","","","","","","","","51","1,0,1","6","blank","372","null","0.7021877858073876","0.16136629494667312","0.406043415867533","1","","","","","","","","",""
"","html-keyboard-response","307","996760","0.0-159.0-1.0","null","<p></p>","null","","","","","","","","","","","","","","","","","","","","","","","",""
"","do_trial","308","999457","0.0-160.0-0.0","146.5","","","","","","","","49","1,0,0","6","blank","373","null","0.630289603525797","0.11169682716749474","0.40641640841579213","1","","","","","","","","",""
"","html-keyboard-response","309","1000459","0.0-160.0-1.0","null","<p></p>","null","","","","","","","","","","","","","","","","","","","","","","","",""
"","do_recog","310","1003999","0.0-161.0-0.0","2030.699999988079","","","","","","","","54","","","","374","probe-46","","","","","1","[object Object]","83","2","1","","","",""
"","html-keyboard-response","311","1005000","0.0-161.0-1.0","null","<p></p>","null","","","","","","","","","","","","","","","","","","","","","","","",""
"","do_trial","312","1009387","0.0-162.0-0.0","1837.9000000059605","","","","","","","","51","0,0,0","6","blank","375","null","0.5761853235755919","0.05018516152192846","0.30738511901706694","0","","","","","","","","",""
"","html-keyboard-response","313","1010392","0.0-162.0-1.0","null","<p></p>","null","","","","","","","","","","","","","","","","","","","","","","","",""
"","do_recog","314","1013987","0.0-163.0-0.0","2083.0999999940395","","","","","","","","53","","","","376","probe-122","","","","","1","[object Object]","125","3","1","","","",""
"","html-keyboard-response","315","1014992","0.0-163.0-1.0","null","<p></p>","null","","","","","","","","","","","","","","","","","","","","","","","",""
"","do_trial","316","1017924","0.0-164.0-0.0","381.8999999910593","","","","","","","","49","0,0,0","6","blank","377","null","0.724973197409471","0.17207636367198206","0.3119046478212197","0","","","","","","","","",""
"","html-keyboard-response","317","1018930","0.0-164.0-1.0","null","<p></p>","null","","","","","","","","","","","","","","","","","","","","","","","",""
"","do_trial","318","1021787","0.0-165.0-0.0","308.59999999403954","","","","","","","","50","1,0,0","6","blank","378","null","0.6046426579357411","0.23230463883088098","0.32261911161458556","0","","","","","","","","",""
"","html-keyboard-response","319","1022792","0.0-165.0-1.0","null","<p></p>","null","","","","","","","","","","","","","","","","","","","","","","","",""
"","do_trial","320","1025700","0.0-166.0-0.0","361.59999999403954","","","","","","","","50","0,0,0","6","blank","379","null","0.6557293554511173","0.1957450871212629","0.23751196906310015","0","","","","","","","","",""
"","html-keyboard-response","321","1026705","0.0-166.0-1.0","null","<p></p>","null","","","","","","","","","","","","","","","","","","","","","","","",""
"","do_trial","322","1029600","0.0-167.0-0.0","341.40000000596046","","","","","","","","49","0,0,1","6","blank","380","null","0.5633616821786275","0.11894532234044544","0.35455251213928973","0","","","","","","","","",""
"","html-keyboard-response","323","1030605","0.0-167.0-1.0","null","<p></p>","null","","","","","","","","","","","","","","","","","","","","","","","",""
"","do_trial","324","1033662","0.0-168.0-0.0","502.29999999701977","","","","","","","","51","1,0,0","6","blank","381","null","0.5164088374735484","0.13831333864469744","0.24595865547210582","0","","","","","","","","",""
"","html-keyboard-response","325","1034667","0.0-168.0-1.0","null","<p></p>","null","","","","","","","","","","","","","","","","","","","","","","","",""
"","do_recog","326","1038051","0.0-169.0-0.0","1871.7000000029802","","","","","","","","53","","","","382","probe-102","","","","","1","[object Object]","41","1","1","","","",""
"","html-keyboard-response","327","1039057","0.0-169.0-1.0","null","<p></p>","null","","","","","","","","","","","","","","","","","","","","","","","",""
"","do_trial","328","1042551","0.0-170.0-0.0","942.5","","","","","","","","51","1,0,1","6","blank","383","null","0.509635919492695","0.29535759065125206","0.3552636166693587","1","","","","","","","","",""
"","html-keyboard-response","329","1043557","0.0-170.0-1.0","null","<p></p>","null","","","","","","","","","","","","","","","","","","","","","","","",""
"","do_trial","330","1046920","0.0-171.0-0.0","814.9000000059605","","","","","","","","51","0,0,0","6","blank","384","null","0.5438377334236775","0.19295398776975375","0.40873202900830136","0","","","","","","","","",""
"","html-keyboard-response","331","1047926","0.0-171.0-1.0","null","<p></p>","null","","","","","","","","","","","","","","","","","","","","","","","",""
"","do_recog","332","1051422","0.0-172.0-0.0","1984.7000000029802","","","","","","","","54","","","","385","probe-249","","","","","0","[object Object]","null","null","0","","","",""
"","html-keyboard-response","333","1052425","0.0-172.0-1.0","null","<p></p>","null","","","","","","","","","","","","","","","","","","","","","","","",""
"","do_trial","334","1056514","0.0-173.0-0.0","1537.5","","","","","","","","50","0,0,1","6","blank","386","null","0.4744386969411598","0.14479551202404095","0.43670416933327316","0","","","","","","","","",""
"","html-keyboard-response","335","1057520","0.0-173.0-1.0","null","<p></p>","null","","","","","","","","","","","","","","","","","","","","","","","",""
"","break","336","1066756","0.0-174.0-0.0","9234.20000000298","<div class='center'><p>Time to take a quick break! You have 2 minutes to rest, but you can move on sooner if you'd like.</p><p> Press the <b>space bar</b> to continue.</p></div>","32","","","","","","","","","","","","","","","","","","","","","","","",""
"","do_recog","337","1070740","0.0-174.0-1.0","2476","","","","","","","","56","","","","387","probe-135","","","","","1","[object Object]","45","1","0","","","",""
"","html-keyboard-response","338","1071742","0.0-174.0-2.0","null","<p></p>","null","","","","","","","","","","","","","","","","","","","","","","","",""
"","do_trial","339","1075300","0.0-175.0-0.0","1004.4000000059605","","","","","","","","50","0,0,0","6","blank","388","null","0.5200331957281952","0.17337179970509461","0.3557696525234706","0","","","","","","","","",""
"","html-keyboard-response","340","1076302","0.0-175.0-1.0","null","<p></p>","null","","","","","","","","","","","","","","","","","","","","","","","",""
"","do_trial","341","1079530","0.0-176.0-0.0","677.0999999940395","","","","","","","","49","0,0,1","6","blank","389","null","0.578743570151788","0.16256534669747244","0.399287151883461","0","","","","","","","","",""
"","html-keyboard-response","342","1080535","0.0-176.0-1.0","null","<p></p>","null","","","","","","","","","","","","","","","","","","","","","","","",""
"","do_trial","343","1083845","0.0-177.0-0.0","751.9000000059605","","","","","","","","51","1,1,0","6","blank","390","null","0.6247421298271413","0.15754028510910864","0.3959461354628238","0","","","","","","","","",""
"","html-keyboard-response","344","1084850","0.0-177.0-1.0","null","<p></p>","null","","","","","","","","","","","","","","","","","","","","","","","",""
"","do_recog","345","1088670","0.0-178.0-0.0","2308.4000000059605","","","","","","","","54","","","","391","probe-210","","","","","1","[object Object]","87","2","1","","","",""
"","html-keyboard-response","346","1089675","0.0-178.0-1.0","null","<p></p>","null","","","","","","","","","","","","","","","","","","","","","","","",""
"","do_trial","347","1093535","0.0-179.0-0.0","1306.6000000089407","","","","","","","","50","0,0,0","6","blank","392","null","0.6873421304771803","0.2348201955391334","0.41318823141357186","0","","","","","","","","",""
"","html-keyboard-response","348","1094539","0.0-179.0-1.0","null","<p></p>","null","","","","","","","","","","","","","","","","","","","","","","","",""
"","do_recog","349","1098846","0.0-180.0-0.0","2794.7000000029802","","","","","","","","55","","","","393","probe-204","","","","","1","[object Object]","82","2","0","","","",""
"","html-keyboard-response","350","1099853","0.0-180.0-1.0","null","<p></p>","null","","","","","","","","","","","","","","","","","","","","","","","",""
"","do_trial","351","1103933","0.0-181.0-0.0","1532.9000000059605","","","","","","","","50","1,0,0","6","blank","394","null","0.6579802071071529","0.24590264526207634","0.3718992773116784","0","","","","","","","","",""
"","html-keyboard-response","352","1104939","0.0-181.0-1.0","null","<p></p>","null","","","","","","","","","","","","","","","","","","","","","","","",""
"","do_trial","353","1107704","0.0-182.0-0.0","214.5","","","","","","","","50","1,0,0","6","blank","395","null","0.6508447295845244","0.40765508384884763","0.4951938456404165","0","","","","","","","","",""
"","html-keyboard-response","354","1108709","0.0-182.0-1.0","null","<p></p>","null","","","","","","","","","","","","","","","","","","","","","","","",""
"","do_trial","355","1111261","0.0-183.0-0.0","0.20000000298023224","","","","","","","","50","1,0,0","6","blank","396","null","0.6128572221850115","0.15566492174033947","0.389220857569034","0","","","","","","","","",""
"","html-keyboard-response","356","1112267","0.0-183.0-1.0","null","<p></p>","null","","","","","","","","","","","","","","","","","","","","","","","",""
"","do_recog","357","1116276","0.0-184.0-0.0","2496.2999999970198","","","","","","","","53","","","","397","probe-212","","","","","1","[object Object]","81","2","1","","","",""
"","html-keyboard-response","358","1117281","0.0-184.0-1.0","null","<p></p>","null","","","","","","","","","","","","","","","","","","","","","","","",""
"","do_trial","359","1121402","0.0-185.0-0.0","1566.3999999910593","","","","","","","","49","1,0,1","6","blank","398","null","0.4934188314894081","0.18387707459541516","0.4336660800243073","1","","","","","","","","",""
"","html-keyboard-response","360","1122406","0.0-185.0-1.0","null","<p></p>","null","","","","","","","","","","","","","","","","","","","","","","","",""
"","do_trial","361","1125894","0.0-186.0-0.0","940","","","","","","","","50","1,0,1","6","blank","399","null","0.752516227931327","0.09432410883446338","0.43486077416012964","0","","","","","","","","",""
"","html-keyboard-response","362","1126900","0.0-186.0-1.0","null","<p></p>","null","","","","","","","","","","","","","","","","","","","","","","","",""
"","do_recog","363","1130602","0.0-187.0-0.0","2192.7000000029802","","","","","","","","53","","","","400","probe-121","","","","","1","[object Object]","167","4","1","","","",""
"","html-keyboard-response","364","1131603","0.0-187.0-1.0","null","<p></p>","null","","","","","","","","","","","","","","","","","","","","","","","",""
"","do_trial","365","1134776","0.0-188.0-0.0","621.5","","","","","","","","50","1,0,0","6","blank","401","null","0.7439482753005285","0.10072616902813501","0.40192442761513647","0","","","","","","","","",""
"","html-keyboard-response","366","1135782","0.0-188.0-1.0","null","<p></p>","null","","","","","","","","","","","","","","","","","","","","","","","",""
"","do_trial","367","1138713","0.0-189.0-0.0","377.59999999403954","","","","","","","","49","1,0,0","6","blank","402","null","0.7098615883721412","0.25596240261130904","0.4976987925542808","1","","","","","","","","",""
"","html-keyboard-response","368","1139719","0.0-189.0-1.0","null","<p></p>","null","","","","","","","","","","","","","","","","","","","","","","","",""
"","do_trial","369","1142626","0.0-190.0-0.0","356.29999999701977","","","","","","","","49","1,1,0","6","blank","403","null","0.38048536913067416","0.298183821076702","0.4227582568591883","1","","","","","","","","",""
"","html-keyboard-response","370","1143631","0.0-190.0-1.0","null","<p></p>","null","","","","","","","","","","","","","","","","","","","","","","","",""
"","do_trial","371","1146811","0.0-191.0-0.0","629.5999999940395","","","","","","","","49","0,1,1","6","blank","404","null","0.2698265715928702","0.3855746309567919","0.4827466384734125","0","","","","","","","","",""
"","html-keyboard-response","372","1147815","0.0-191.0-1.0","null","<p></p>","null","","","","","","","","","","","","","","","","","","","","","","","",""
"","do_trial","373","1150682","0.0-192.0-0.0","318.70000000298023","","","","","","","","51","0,0,0","6","blank","405","null","0.08211937995920146","0.45165179488650903","0.44771214123433467","0","","","","","","","","",""
"","html-keyboard-response","374","1151684","0.0-192.0-1.0","null","<p></p>","null","","","","","","","","","","","","","","","","","","","","","","","",""
"","do_trial","375","1155081","0.0-193.0-0.0","847.7999999970198","","","","","","","","50","0,1,1","6","blank","406","null","0.10582348568990456","0.3277678925828121","0.5728554218575859","1","","","","","","","","",""
"","html-keyboard-response","376","1156084","0.0-193.0-1.0","null","<p></p>","null","","","","","","","","","","","","","","","","","","","","","","","",""
"","do_recog","377","1159250","0.0-194.0-0.0","1656.9000000059605","","","","","","","","54","","","","407","probe-124","","","","","1","[object Object]","160","4","1","","","",""
"","html-keyboard-response","378","1160253","0.0-194.0-1.0","null","<p></p>","null","","","","","","","","","","","","","","","","","","","","","","","",""
"","do_trial","379","1163797","0.0-195.0-0.0","992.9000000059605","","","","","","","","50","0,0,0","6","blank","408","null","0.11262095491761887","0.4429885444448261","0.598453361107441","0","","","","","","","","",""
"","html-keyboard-response","380","1164803","0.0-195.0-1.0","null","<p></p>","null","","","","","","","","","","","","","","","","","","","","","","","",""
"","do_trial","381","1168703","0.0-196.0-0.0","1352.2999999970198","","","","","","","","50","0,1,0","6","blank","409","null","0.0553516288916531","0.5577187477401211","0.3916466949794519","1","","","","","","","","",""
"","html-keyboard-response","382","1169705","0.0-196.0-1.0","null","<p></p>","null","","","","","","","","","","","","","","","","","","","","","","","",""
"","do_trial","383","1172859","0.0-197.0-0.0","606.9000000059605","","","","","","","","49","0,1,0","6","blank","410","null","0.19371813836789634","0.644982990172908","0.38509470180359395","0","","","","","","","","",""
"","html-keyboard-response","384","1173865","0.0-197.0-1.0","null","<p></p>","null","","","","","","","","","","","","","","","","","","","","","","","",""
"","do_trial","385","1178042","0.0-198.0-0.0","1623.7000000029802","","","","","","","","50","1,1,1","6","blank","411","null","0.057174270067375695","0.6074221546525552","0.39036426634704596","1","","","","","","","","",""
"","html-keyboard-response","386","1179043","0.0-198.0-1.0","null","<p></p>","null","","","","","","","","","","","","","","","","","","","","","","","",""
"","do_trial","387","1182435","0.0-199.0-0.0","842.9000000059605","","","","","","","","50","0,1,1","6","blank","412","null","0.09486449824553389","0.6187248679988059","0.3494386990844861","1","","","","","","","","",""
"","html-keyboard-response","388","1183442","0.0-199.0-1.0","null","<p></p>","null","","","","","","","","","","","","","","","","","","","","","","","",""
"","do_recog","389","1187864","0.0-200.0-0.0","2909","","","","","","","","53","","","","413","probe-01","","","","","1","[object Object]","206","5","1","","","",""
"","html-keyboard-response","390","1188869","0.0-200.0-1.0","null","<p></p>","null","","","","","","","","","","","","","","","","","","","","","","","",""
"","do_trial","391","1192280","0.0-201.0-0.0","860.2000000029802","","","","","","","","50","0,0,0","6","blank","414","null","0.06190362222650595","0.7748562346256457","0.2599551356138875","0","","","","","","","","",""
"","html-keyboard-response","392","1193284","0.0-201.0-1.0","null","<p></p>","null","","","","","","","","","","","","","","","","","","","","","","","",""
"","do_recog","393","1197553","0.0-202.0-0.0","2756.7000000029802","","","","","","","","54","","","","415","probe-202","","","","","1","[object Object]","161","4","1","","","",""
"","html-keyboard-response","394","1198560","0.0-202.0-1.0","null","<p></p>","null","","","","","","","","","","","","","","","","","","","","","","","",""
"","do_trial","395","1202225","0.0-203.0-0.0","1114.7999999970198","","","","","","","","50","0,1,1","6","blank","416","null","0.05772484172008344","0.6214718913347617","0.32815370645504305","1","","","","","","","","",""
"","html-keyboard-response","396","1203230","0.0-203.0-1.0","null","<p></p>","null","","","","","","","","","","","","","","","","","","","","","","","",""
"","do_trial","397","1206846","0.0-204.0-0.0","1065.7000000029802","","","","","","","","50","0,1,0","6","blank","417","null","0.09198804767097503","0.6583638433008259","0.27658496787533876","1","","","","","","","","",""
"","html-keyboard-response","398","1207848","0.0-204.0-1.0","null","<p></p>","null","","","","","","","","","","","","","","","","","","","","","","","",""
"","do_trial","399","1211859","0.0-205.0-0.0","1461","","","","","","","","51","0,1,0","6","blank","418","null","0.11110695433193675","0.6889877006913285","0.22768536474283052","0","","","","","","","","",""
"","html-keyboard-response","400","1212864","0.0-205.0-1.0","null","<p></p>","null","","","","","","","","","","","","","","","","","","","","","","","",""
"","do_recog","401","1217115","0.0-206.0-0.0","2736.2999999970198","","","","","","","","53","","","","419","probe-105","","","","","1","[object Object]","202","5","1","","","",""
"","html-keyboard-response","402","1218119","0.0-206.0-1.0","null","<p></p>","null","","","","","","","","","","","","","","","","","","","","","","","",""
"","do_trial","403","1222012","0.0-207.0-0.0","1341.2000000029802","","","","","","","","50","0,1,0","6","blank","420","null","0.05408695992569097","0.5484260903935001","0.19388415095597183","1","","","","","","","","",""
"","html-keyboard-response","404","1223017","0.0-207.0-1.0","null","<p></p>","null","","","","","","","","","","","","","","","","","","","","","","","",""
"","do_trial","405","1226077","0.0-208.0-0.0","512.2999999970198","","","","","","","","50","0,0,0","6","blank","421","null","0.17107480319137522","0.48910177345739575","0.16260028161755788","0","","","","","","","","",""
"","html-keyboard-response","406","1227082","0.0-208.0-1.0","null","<p></p>","null","","","","","","","","","","","","","","","","","","","","","","","",""
"","do_trial","407","1230132","0.0-209.0-0.0","502.29999999701977","","","","","","","","49","0,0,0","6","blank","422","null","0.05339291439327088","0.4870865079308487","0.22422820203278634","0","","","","","","","","",""
"","html-keyboard-response","408","1231138","0.0-209.0-1.0","null","<p></p>","null","","","","","","","","","","","","","","","","","","","","","","","",""
"","do_trial","409","1234231","0.0-210.0-0.0","538","","","","","","","","51","0,0,1","6","blank","423","null","0.09667129149862631","0.599934804761151","0.3614727057459733","1","","","","","","","","",""
"","html-keyboard-response","410","1235233","0.0-210.0-1.0","null","<p></p>","null","","","","","","","","","","","","","","","","","","","","","","","",""
"","do_trial","411","1238405","0.0-211.0-0.0","622.1000000089407","","","","","","","","51","0,1,1","6","blank","424","null","0.0716505949470905","0.6214155829251952","0.26614936403291034","1","","","","","","","","",""
"","html-keyboard-response","412","1239409","0.0-211.0-1.0","null","<p></p>","null","","","","","","","","","","","","","","","","","","","","","","","",""
"","do_trial","413","1242545","0.0-212.0-0.0","579.8999999910593","","","","","","","","50","0,0,0","6","blank","425","null","0.06126250197036145","0.5813422176223573","0.15033505170260958","0","","","","","","","","",""
"","html-keyboard-response","414","1243547","0.0-212.0-1.0","null","<p></p>","null","","","","","","","","","","","","","","","","","","","","","","","",""
"","break","415","1254380","0.0-213.0-0.0","10830.70000000298","<div class='center'><p>Time to take a quick break! You have 2 minutes to rest, but you can move on sooner if you'd like.</p><p> Press the <b>space bar</b> to continue.</p></div>","32","","","","","","","","","","","","","","","","","","","","","","","",""
"","do_recog","416","1257620","0.0-213.0-1.0","1729.5","","","","","","","","53","","","","426","probe-143","","","","","1","[object Object]","44","1","1","","","",""
"","html-keyboard-response","417","1258621","0.0-213.0-2.0","null","<p></p>","null","","","","","","","","","","","","","","","","","","","","","","","",""
"","do_trial","418","1262301","0.0-214.0-0.0","1127","","","","","","","","51","0,1,1","6","blank","427","null","0.06005501971779852","0.5285613382789078","0.24913677300623913","1","","","","","","","","",""
"","html-keyboard-response","419","1263306","0.0-214.0-1.0","null","<p></p>","null","","","","","","","","","","","","","","","","","","","","","","","",""
"","do_trial","420","1266201","0.0-215.0-0.0","343.70000000298023","","","","","","","","51","0,0,0","6","blank","428","null","0.06774095892135142","0.4972010290452396","0.19321207085571318","0","","","","","","","","",""
"","html-keyboard-response","421","1267206","0.0-215.0-1.0","null","<p></p>","null","","","","","","","","","","","","","","","","","","","","","","","",""
"","do_trial","422","1270955","0.0-216.0-0.0","1198.5999999940395","","","","","","","","50","0,0,0","6","blank","429","null","0.09349484442177033","0.36700527431530505","0.24391513882825588","0","","","","","","","","",""
"","html-keyboard-response","423","1271960","0.0-216.0-1.0","null","<p></p>","null","","","","","","","","","","","","","","","","","","","","","","","",""
"","do_trial","424","1274938","0.0-217.0-0.0","424.29999999701977","","","","","","","","49","0,0,0","6","blank","430","null","0.1572494631712807","0.43929481278979665","0.1542049939847995","0","","","","","","","","",""
"","html-keyboard-response","425","1275944","0.0-217.0-1.0","null","<p></p>","null","","","","","","","","","","","","","","","","","","","","","","","",""
"","do_trial","426","1278834","0.0-218.0-0.0","343.5","","","","","","","","49","0,1,0","6","blank","431","null","0.12213624048859326","0.535708467775865","0.18047821906520364","0","","","","","","","","",""
"","html-keyboard-response","427","1279837","0.0-218.0-1.0","null","<p></p>","null","","","","","","","","","","","","","","","","","","","","","","","",""
"","do_trial","428","1282955","0.0-219.0-0.0","564.5999999940395","","","","","","","","50","0,0,0","6","blank","432","null","0.15877493763359776","0.47471030904015576","0.15171337754216344","0","","","","","","","","",""
"","html-keyboard-response","429","1283957","0.0-219.0-1.0","null","<p></p>","null","","","","","","","","","","","","","","","","","","","","","","","",""
"","do_recog","430","1287016","0.0-220.0-0.0","1546.4000000059605","","","","","","","","54","","","","433","probe-55","","","","","1","[object Object]","120","3","1","","","",""
"","html-keyboard-response","431","1288021","0.0-220.0-1.0","null","<p></p>","null","","","","","","","","","","","","","","","","","","","","","","","",""
"","do_trial","432","1291459","0.0-221.0-0.0","887.9000000059605","","","","","","","","51","0,0,0","6","blank","434","null","0.2264778902811773","0.5307482400866901","0.3399221929993884","0","","","","","","","","",""
"","html-keyboard-response","433","1292464","0.0-221.0-1.0","null","<p></p>","null","","","","","","","","","","","","","","","","","","","","","","","",""
"","do_recog","434","1295684","0.0-222.0-0.0","1709.4000000059605","","","","","","","","54","","","","435","probe-207","","","","","1","[object Object]","42","1","1","","","",""
"","html-keyboard-response","435","1296686","0.0-222.0-1.0","null","<p></p>","null","","","","","","","","","","","","","","","","","","","","","","","",""
"","do_trial","436","1300227","0.0-223.0-0.0","990","","","","","","","","51","0,0,1","6","blank","436","null","0.2304730259710302","0.6028178111706769","0.37017111942268616","1","","","","","","","","",""
"","html-keyboard-response","437","1301229","0.0-223.0-1.0","null","<p></p>","null","","","","","","","","","","","","","","","","","","","","","","","",""
"","do_recog","438","1304060","0.0-224.0-0.0","1317.9000000059605","","","","","","","","54","","","","437","probe-158","","","","","1","[object Object]","48","1","1","","","",""
"","html-keyboard-response","439","1305066","0.0-224.0-1.0","null","<p></p>","null","","","","","","","","","","","","","","","","","","","","","","","",""
"","do_trial","440","1308633","0.0-225.0-0.0","1018.4000000059605","","","","","","","","51","0,0,0","6","blank","438","null","0.15222244288272263","0.5929523783154045","0.3397906121971222","0","","","","","","","","",""
"","html-keyboard-response","441","1309635","0.0-225.0-1.0","null","<p></p>","null","","","","","","","","","","","","","","","","","","","","","","","",""
"","do_recog","442","1313490","0.0-226.0-0.0","2346.2999999970198","","","","","","","","56","","","","439","probe-65","","","","","1","[object Object]","84","2","0","","","",""
"","html-keyboard-response","443","1314495","0.0-226.0-1.0","null","<p></p>","null","","","","","","","","","","","","","","","","","","","","","","","",""
"","do_trial","444","1318079","0.0-227.0-0.0","1037.7999999970198","","","","","","","","51","0,1,1","6","blank","440","null","0.1218360967283406","0.6538669053850323","0.38222518367880276","1","","","","","","","","",""
"","html-keyboard-response","445","1319084","0.0-227.0-1.0","null","<p></p>","null","","","","","","","","","","","","","","","","","","","","","","","",""
"","do_trial","446","1321995","0.0-228.0-0.0","358.79999999701977","","","","","","","","51","0,1,1","6","blank","441","null","0.13966095482530833","0.7268708063762656","0.24009787732752727","1","","","","","","","","",""
"","html-keyboard-response","447","1323000","0.0-228.0-1.0","null","<p></p>","null","","","","","","","","","","","","","","","","","","","","","","","",""
"","do_trial","448","1326090","0.0-229.0-0.0","539.7999999970198","","","","","","","","51","0,0,0","6","blank","442","null","0.05884431541574087","0.6716289303005184","0.1344546800934992","0","","","","","","","","",""
"","html-keyboard-response","449","1327095","0.0-229.0-1.0","null","<p></p>","null","","","","","","","","","","","","","","","","","","","","","","","",""
"","do_trial","450","1330122","0.0-230.0-0.0","476.29999999701977","","","","","","","","50","0,1,0","6","blank","443","null","0.1077638759220423","0.67116275299851","0.20947271574531318","1","","","","","","","","",""
"","html-keyboard-response","451","1331126","0.0-230.0-1.0","null","<p></p>","null","","","","","","","","","","","","","","","","","","","","","","","",""
"","do_recog","452","1334479","0.0-231.0-0.0","1843.5","","","","","","","","55","","","","444","probe-98","","","","","1","[object Object]","164","4","0","","","",""
"","html-keyboard-response","453","1335481","0.0-231.0-1.0","null","<p></p>","null","","","","","","","","","","","","","","","","","","","","","","","",""
"","do_trial","454","1338146","0.0-232.0-0.0","119","","","","","","","","50","0,1,0","6","blank","445","null","0.20941994381309365","0.5541800705268787","0.2687396950867839","1","","","","","","","","",""
"","html-keyboard-response","455","1339152","0.0-232.0-1.0","null","<p></p>","null","","","","","","","","","","","","","","","","","","","","","","","",""
"","do_recog","456","1342547","0.0-233.0-0.0","1885.5999999940395","","","","","","","","53","","","","446","probe-04","","","","","1","[object Object]","43","1","1","","","",""
"","html-keyboard-response","457","1343553","0.0-233.0-1.0","null","<p></p>","null","","","","","","","","","","","","","","","","","","","","","","","",""
"","do_trial","458","1346702","0.0-234.0-0.0","602.7999999970198","","","","","","","","49","0,0,1","6","blank","447","null","0.23717271999191825","0.6678401640715186","0.4648850310537057","0","","","","","","","","",""
"","html-keyboard-response","459","1347704","0.0-234.0-1.0","null","<p></p>","null","","","","","","","","","","","","","","","","","","","","","","","",""
"","do_trial","460","1350629","0.0-235.0-0.0","373.70000000298023","","","","","","","","50","1,0,0","6","blank","448","null","0.16300468343305496","0.5041237033876849","0.5162663793494783","0","","","","","","","","",""
"","html-keyboard-response","461","1351631","0.0-235.0-1.0","null","<p></p>","null","","","","","","","","","","","","","","","","","","","","","","","",""
"","do_trial","462","1354610","0.0-236.0-0.0","433.70000000298023","","","","","","","","51","0,0,0","6","blank","449","null","0.1765954055915485","0.5628197754325671","0.6320709077713856","0","","","","","","","","",""
"","html-keyboard-response","463","1355616","0.0-236.0-1.0","null","<p></p>","null","","","","","","","","","","","","","","","","","","","","","","","",""
"","do_recog","464","1359666","0.0-237.0-0.0","2536.5","","","","","","","","56","","","","450","probe-255","","","","","0","[object Object]","null","null","1","","","",""
"","html-keyboard-response","465","1360669","0.0-237.0-1.0","null","<p></p>","null","","","","","","","","","","","","","","","","","","","","","","","",""
"","do_trial","466","1364382","0.0-238.0-0.0","1158.5","","","","","","","","51","1,1,1","6","blank","451","null","0.13679094455317897","0.6295397278530165","0.5904802272877125","1","","","","","","","","",""
"","html-keyboard-response","467","1365386","0.0-238.0-1.0","null","<p></p>","null","","","","","","","","","","","","","","","","","","","","","","","",""
"","do_recog","468","1369298","0.0-239.0-0.0","2398.699999988079","","","","","","","","54","","","","452","probe-237","","","","","0","[object Object]","null","null","0","","","",""
"","html-keyboard-response","469","1370302","0.0-239.0-1.0","null","<p></p>","null","","","","","","","","","","","","","","","","","","","","","","","",""
"","do_trial","470","1373426","0.0-240.0-0.0","574.0999999940395","","","","","","","","49","0,1,0","6","blank","453","null","0.16087592100143583","0.6156638938039154","0.3658770467832673","0","","","","","","","","",""
"","html-keyboard-response","471","1374431","0.0-240.0-1.0","null","<p></p>","null","","","","","","","","","","","","","","","","","","","","","","","",""
"","do_trial","472","1378302","0.0-241.0-0.0","1320.7999999970198","","","","","","","","50","0,0,1","6","blank","454","null","0.12242850043922515","0.5622665128649734","0.289831387198615","0","","","","","","","","",""
"","html-keyboard-response","473","1379307","0.0-241.0-1.0","null","<p></p>","null","","","","","","","","","","","","","","","","","","","","","","","",""
"","do_trial","474","1382727","0.0-242.0-0.0","866.5999999940395","","","","","","","","51","0,1,1","6","blank","455","null","0.0975702256910117","0.5357844828673307","0.34788926708318746","1","","","","","","","","",""
"","html-keyboard-response","475","1383729","0.0-242.0-1.0","null","<p></p>","null","","","","","","","","","","","","","","","","","","","","","","","",""
"","do_trial","476","1386810","0.0-243.0-0.0","526.9000000059605","","","","","","","","50","0,0,1","6","blank","456","null","0.40923126046752556","0.45632299214264377","0.30641647520494053","0","","","","","","","","",""
"","html-keyboard-response","477","1387812","0.0-243.0-1.0","null","<p></p>","null","","","","","","","","","","","","","","","","","","","","","","","",""
"","do_trial","478","1391019","0.0-244.0-0.0","658.5","","","","","","","","51","0,0,0","6","blank","457","null","0.4036531879591051","0.36671475752767857","0.3754136891066774","0","","","","","","","","",""
"","html-keyboard-response","479","1392022","0.0-244.0-1.0","null","<p></p>","null","","","","","","","","","","","","","","","","","","","","","","","",""
"","do_trial","480","1395070","0.0-245.0-0.0","500.79999999701977","","","","","","","","50","1,0,0","6","blank","458","null","0.47876248822574047","0.24051947976534344","0.41715169780902983","0","","","","","","","","",""
"","html-keyboard-response","481","1396076","0.0-245.0-1.0","null","<p></p>","null","","","","","","","","","","","","","","","","","","","","","","","",""
"","do_recog","482","1399572","0.0-246.0-0.0","1984.9000000059605","","","","","","","","55","","","","459","probe-246","","","","","0","[object Object]","null","null","1","","","",""
"","html-keyboard-response","483","1400577","0.0-246.0-1.0","null","<p></p>","null","","","","","","","","","","","","","","","","","","","","","","","",""
"","do_trial","484","1403672","0.0-247.0-0.0","548.4000000059605","","","","","","","","50","0,0,1","6","blank","460","null","0.6094729359137794","0.1189947216720139","0.40639459251690113","0","","","","","","","","",""
"","html-keyboard-response","485","1404678","0.0-247.0-1.0","null","<p></p>","null","","","","","","","","","","","","","","","","","","","","","","","",""
"","do_trial","486","1407779","0.0-248.0-0.0","549.2999999970198","","","","","","","","51","0,0,0","6","blank","461","null","0.5785770847305103","0.12146573698632365","0.3269030668323903","0","","","","","","","","",""
"","html-keyboard-response","487","1408784","0.0-248.0-1.0","null","<p></p>","null","","","","","","","","","","","","","","","","","","","","","","","",""
"","do_trial","488","1411902","0.0-249.0-0.0","565.6999999880791","","","","","","","","49","1,0,1","6","blank","462","null","0.4826989017115959","0.07790269785485483","0.31538142790375456","1","","","","","","","","",""
"","html-keyboard-response","489","1412908","0.0-249.0-1.0","null","<p></p>","null","","","","","","","","","","","","","","","","","","","","","","","",""
"","do_trial","490","1416319","0.0-250.0-0.0","855.7000000029802","","","","","","","","49","1,1,0","6","blank","463","null","0.4470930152437102","0.08803839124818408","0.2702670953968143","1","","","","","","","","",""
"","html-keyboard-response","491","1417325","0.0-250.0-1.0","null","<p></p>","null","","","","","","","","","","","","","","","","","","","","","","","",""
"","do_recog","492","1421690","0.0-251.0-0.0","2856.5999999940395","","","","","","","","56","","","","464","probe-232","","","","","0","[object Object]","null","null","1","","","",""
"","html-keyboard-response","493","1422692","0.0-251.0-1.0","null","<p></p>","null","","","","","","","","","","","","","","","","","","","","","","","",""
"","do_trial","494","1426730","0.0-252.0-0.0","1490","","","","","","","","51","0,0,0","6","blank","465","null","0.5101498879322997","0.1526545781273096","0.3447035975639671","0","","","","","","","","",""
"","html-keyboard-response","495","1427731","0.0-252.0-1.0","null","<p></p>","null","","","","","","","","","","","","","","","","","","","","","","","",""
"","break","496","1441747","0.0-252.0-2.0","14014","<div class='center'><p>Time to take a quick break! You have 2 minutes to rest, but you can move on sooner if you'd like.</p><p> Press the <b>space bar</b> to continue.</p></div>","32","","","","","","","","","","","","","","","","","","","","","","","",""
"","do_trial","497","1445672","0.0-252.0-3.0","1378.0999999940395","","","","","","","","51","0,0,1","6","blank","466","null","0.3993766660759177","0.06135111875283858","0.23789405879647285","1","","","","","","","","",""
"","html-keyboard-response","498","1446676","0.0-252.0-4.0","null","<p></p>","null","","","","","","","","","","","","","","","","","","","","","","","",""
"","do_trial","499","1450330","0.0-253.0-0.0","1105.5999999940395","","","","","","","","50","0,0,0","6","blank","467","null","0.47201268481848313","0.1366404910360625","0.3208484876992331","0","","","","","","","","",""
"","html-keyboard-response","500","1451334","0.0-253.0-1.0","null","<p></p>","null","","","","","","","","","","","","","","","","","","","","","","","",""
"","do_trial","501","1454913","0.0-254.0-0.0","1031.7000000029802","","","","","","","","51","1,0,0","6","blank","468","null","0.4675068437518218","0.10902255415848139","0.3527900889850498","0","","","","","","","","",""
"","html-keyboard-response","502","1455918","0.0-254.0-1.0","null","<p></p>","null","","","","","","","","","","","","","","","","","","","","","","","",""
"","do_trial","503","1458967","0.0-255.0-0.0","503.29999999701977","","","","","","","","50","1,0,0","6","blank","469","null","0.5537581093956309","0.16314418228689498","0.3282277037243796","0","","","","","","","","",""
"","html-keyboard-response","504","1459971","0.0-255.0-1.0","null","<p></p>","null","","","","","","","","","","","","","","","","","","","","","","","",""
"","do_trial","505","1463103","0.0-256.0-0.0","577","","","","","","","","49","1,0,1","6","blank","470","null","0.7330221003332964","0.08533310128396002","0.19438739759286633","1","","","","","","","","",""
"","html-keyboard-response","506","1464109","0.0-256.0-1.0","null","<p></p>","null","","","","","","","","","","","","","","","","","","","","","","","",""
