success,trial_type,trial_index,time_elapsed,internal_node_id,rt,stimulus,subject_id,key_press,response,choice_outcomes,context_n,context_img_id,trial_n,probe_img_id,pR_red,pR_white,pR_black,outcome,is_valid,image_to_show,probed_trial,probed_context,correct,context_id
TRUE,fullscreen,0,10347,0.0-0.0,,,,,,,,,,,,,,,,,,,,
,pavlovia,1,10352,0.0-1.0,,,,,,,,,,,,,,,,,,,,
,html-keyboard-response,2,20085,0.0-2.0,9731.6,"<div class='center'><p>Like yesterday,as the head captain of the ship, you have one important things to do: </p><b><p> Pick the pirate who you think will be most successful at robbing the next ship.</p></b><p>This is important in determining how much bonus money you’ll win.</p><br><p>The game will start by showing you the pirates. First pick a pirate using the <b> 1, 2, 3 </b> buttons on your keyboard. </p><p> Press <b>'1'</b> to choose red beard, <b>'2'</b> to choose white beard, and <b>'3'</b> to choose black beard</p><p> You only have 3 seconds to pick a pirate, so please make a choice quickly! If you are too slow, you’ll have to wait a bit during the time out.</p><p> Don’t feel rushed, but please do try to make a choice every time.</p><p>How good a pirate is at robbing a ship will change depending on the place they are in and how good the defenses are of the ship.</p><p><b>[Press the space bar to begin the practice game]</b></p></div>",61662bcd6c7cea0cdb59abf8,32,,,,,,,,,,,,,,,,
,html-keyboard-response,3,30778,0.0-3.0,10693.1,"<div class='center'><p>You’ve arrived at the final island of your journey! Unfortunately, it’s very foggy out, so you won’t be able to see it in the distance like the previous islands you've visited.</p><p>You’ll still be deciding which pirate you want to rob a ship like before. However, because of the fog, you also won’t be able to see the ship.</p><p>This means you do not have to remember the ships you rob on this island.</p><p><b>[Press the space bar to continue]</b></p></div>",,32,,,,,,,,,,,,,,,,
,html-keyboard-response,4,39251,0.0-4.0,8471.7,"<div class='center'><p> Sometimes you’ll be shown a ship, and you will be asked if you saw this ship on a past island.</p><p> Here is an example of what you will see.</p><p><b>[Press the space bar to continue]</b></p><p><img src='run_exp/static/images/tutorial/example_recog_trial.png' height='500'></p></div>",,32,,,,,,,,,,,,,,,,
,html-keyboard-response,5,46223,0.0-5.0,6970.8,"<div class='center'><p> You will press the 5, 6, 7, 8 buttons on your keyboard to respond.</p><p>If you are very sure saw the ship, press <b>5</b> on your keyboard.</p><p> If you think you  saw it before but are not sure, then press <b>6</b>.</p><p> If you think you have not seen it before but are not sure, then press <b>7</b>.</p><p> If you are sure you did not see the ship before, then press <b>8</b>.</p><p><b>[Press the space bar to continue]</b></p><p><img src='run_exp/static/images/tutorial/example_recog_trial.png' height='500'></p></div>",,32,,,,,,,,,,,,,,,,
,html-keyboard-response,6,52389,0.0-6.0,6164.4,"<div class='center'><p> If you remember correctly, then you’ll get a gold coin like this: </p><p><img src='run_exp/static/images/tutorial/reward_small.png' height='200'></p><p>If you do not remember correctly, then you'll see a red x like this: </p><p><img src='run_exp/static/images/tutorial/reward_no.png' height='200'></p><p>Importantly, when you are shown a ship, take the time to remind yourself which island you saw it on. This will help you in the next part of the study.</p><p><b>[Press the space bar to continue]</b></p></div>",,32,,,,,,,,,,,,,,,,
,html-keyboard-response,7,57814,0.0-7.0,5423.4,"<div class='center'><p>Let's go over the important points again. Your job is to: </p><p>1. Pick the pirate who is best at robbing ships and will bring you back gold coins. </p><p>2. Correctly remember whether or not you saw a ship before. If you did see the ship before, remind yourself on which island you saw the ship. </p><p><b>[Press the space bar to begin the next part of the study]</b></p></div>",,32,,,,,,,,,,,,,,,,
,do_welcome,8,59327,0.0-8.0,null,,,,null,,,,,,,,,,,,,,,
,do_trial,9,62872,0.0-9.0-0.0,989.1,,,,49,"0,1,0",6,blank,230,null,0.264358541,0.503122475,0.328487738,0,,,,,,
,html-keyboard-response,10,63877,0.0-9.0-1.0,null,<p></p>,,null,,,,,,,,,,,,,,,,
,do_trial,11,66821,0.0-10.0-0.0,390.4,,,,50,"0,0,0",6,blank,231,null,0.137656051,0.51423724,0.235064929,0,,,,,,
,html-keyboard-response,12,67826,0.0-10.0-1.0,null,<p></p>,,null,,,,,,,,,,,,,,,,
,do_trial,13,70687,0.0-11.0-0.0,313,,,,51,"0,0,0",6,blank,232,null,0.089796258,0.426479946,0.253639495,0,,,,,,
,html-keyboard-response,14,71693,0.0-11.0-1.0,null,<p></p>,,null,,,,,,,,,,,,,,,,
,do_trial,15,74541,0.0-12.0-0.0,294.6,,,,49,"0,0,0",6,blank,233,null,0.080861036,0.638911105,0.314675576,0,,,,,,
,html-keyboard-response,16,75546,0.0-12.0-1.0,null,<p></p>,,null,,,,,,,,,,,,,,,,
,do_trial,17,78345,0.0-13.0-0.0,244.9,,,,50,"1,1,1",6,blank,234,null,0.179821141,0.646356643,0.35360335,1,,,,,,
,html-keyboard-response,18,79351,0.0-13.0-1.0,null,<p></p>,,null,,,,,,,,,,,,,,,,
,do_trial,19,82176,0.0-14.0-0.0,276.3,,,,50,"0,0,1",6,blank,235,null,0.277360312,0.627064163,0.385611094,0,,,,,,
,html-keyboard-response,20,83183,0.0-14.0-1.0,null,<p></p>,,null,,,,,,,,,,,,,,,,
,do_trial,21,85789,0.0-15.0-0.0,54.19999999,,,,51,"0,1,0",6,blank,236,null,0.275301166,0.619279018,0.488267865,0,,,,,,
,html-keyboard-response,22,86794,0.0-15.0-1.0,null,<p></p>,,null,,,,,,,,,,,,,,,,
,do_trial,23,89670,0.0-16.0-0.0,321.9,,,,51,"0,0,0",6,blank,237,null,0.31573024,0.551027164,0.392690064,0,,,,,,
,html-keyboard-response,24,90676,0.0-16.0-1.0,null,<p></p>,,null,,,,,,,,,,,,,,,,
,do_trial,25,93630,0.0-17.0-0.0,405.2,,,,50,"0,1,1",6,blank,238,null,0.097794135,0.507776523,0.621030005,1,,,,,,
,html-keyboard-response,26,94636,0.0-17.0-1.0,null,<p></p>,,null,,,,,,,,,,,,,,,,
,do_trial,27,97483,0.0-18.0-0.0,293.9,,,,50,"0,1,1",6,blank,239,null,0.068145531,0.543143377,0.551671955,1,,,,,,
,html-keyboard-response,28,98489,0.0-18.0-1.0,null,<p></p>,,null,,,,,,,,,,,,,,,,
,do_trial,29,101324,0.0-19.0-0.0,286.3,,,,50,"1,0,0",6,blank,240,null,0.12904422,0.616087495,0.582693114,0,,,,,,
,html-keyboard-response,30,102331,0.0-19.0-1.0,null,<p></p>,,null,,,,,,,,,,,,,,,,
,do_trial,31,105150,0.0-20.0-0.0,269,,,,50,"0,1,0",6,blank,241,null,0.222995603,0.622143746,0.576628857,1,,,,,,
,html-keyboard-response,32,106155,0.0-20.0-1.0,null,<p></p>,,null,,,,,,,,,,,,,,,,
,do_recog,33,112173,0.0-21.0-0.0,null,,,,null,,,,242,probe-146,,,,,1,[object Object],206,5,0,
,html-keyboard-response,34,113180,0.0-21.0-1.0,null,<p></p>,,null,,,,,,,,,,,,,,,,
,do_trial,35,116513,0.0-22.0-0.0,779.8,,,,50,"0,0,0",6,blank,243,null,0.365243928,0.490309676,0.593687053,0,,,,,,
,html-keyboard-response,36,117519,0.0-22.0-1.0,null,<p></p>,,null,,,,,,,,,,,,,,,,
,do_trial,37,120445,0.0-23.0-0.0,377.7,,,,50,"1,0,0",6,blank,244,null,0.483315052,0.369868569,0.594047472,0,,,,,,
,html-keyboard-response,38,121451,0.0-23.0-1.0,null,<p></p>,,null,,,,,,,,,,,,,,,,
,do_trial,39,124271,0.0-24.0-0.0,269.8,,,,50,"0,0,1",6,blank,245,null,0.348149296,0.170922736,0.637958265,0,,,,,,
,html-keyboard-response,40,125277,0.0-24.0-1.0,null,<p></p>,,null,,,,,,,,,,,,,,,,
,do_trial,41,128195,0.0-25.0-0.0,366.1,,,,49,"0,0,1",6,blank,246,null,0.364236071,0.05222691,0.567622278,0,,,,,,
,html-keyboard-response,42,129200,0.0-25.0-1.0,null,<p></p>,,null,,,,,,,,,,,,,,,,
,do_trial,43,132009,0.0-26.0-0.0,259.9,,,,50,"0,0,1",6,blank,247,null,0.35823758,0.094909875,0.688308514,0,,,,,,
,html-keyboard-response,44,133015,0.0-26.0-1.0,null,<p></p>,,null,,,,,,,,,,,,,,,,
,do_trial,45,135840,0.0-27.0-0.0,273,,,,50,"1,0,1",6,blank,248,null,0.270867745,0.182194986,0.757844154,0,,,,,,
,html-keyboard-response,46,136846,0.0-27.0-1.0,null,<p></p>,,null,,,,,,,,,,,,,,,,
,do_recog,47,140324,0.0-28.0-0.0,1968.6,,,,56,,,,249,probe-25,,,,,1,[object Object],48,1,0,
,html-keyboard-response,48,141329,0.0-28.0-1.0,null,<p></p>,,null,,,,,,,,,,,,,,,,
,do_trial,49,144669,0.0-29.0-0.0,790.9,,,,50,"0,0,1",6,blank,250,null,0.212508886,0.100612279,0.721759846,0,,,,,,
,html-keyboard-response,50,145671,0.0-29.0-1.0,null,<p></p>,,null,,,,,,,,,,,,,,,,
,do_trial,51,148658,0.0-30.0-0.0,433.4,,,,51,"1,0,1",6,blank,251,null,0.371576865,0.059434964,0.519343301,1,,,,,,
,html-keyboard-response,52,149664,0.0-30.0-1.0,null,<p></p>,,null,,,,,,,,,,,,,,,,
,do_trial,53,152551,0.0-31.0-0.0,337.6,,,,51,"1,0,1",6,blank,252,null,0.407973298,0.079789546,0.612882653,1,,,,,,
,html-keyboard-response,54,153555,0.0-31.0-1.0,null,<p></p>,,null,,,,,,,,,,,,,,,,
,do_trial,55,156421,0.0-32.0-0.0,318.6,,,,51,"0,0,0",6,blank,253,null,0.322421098,0.193097836,0.566547685,0,,,,,,
,html-keyboard-response,56,157425,0.0-32.0-1.0,null,<p></p>,,null,,,,,,,,,,,,,,,,
,do_recog,57,161054,0.0-33.0-0.0,2120.8,,,,56,,,,254,probe-174,,,,,1,[object Object],169,4,0,
,html-keyboard-response,58,162057,0.0-33.0-1.0,null,<p></p>,,null,,,,,,,,,,,,,,,,
,do_trial,59,165387,0.0-34.0-0.0,781.6,,,,51,"0,0,1",6,blank,255,null,0.262727538,0.134770825,0.450611972,1,,,,,,
,html-keyboard-response,60,166392,0.0-34.0-1.0,null,<p></p>,,null,,,,,,,,,,,,,,,,
,do_trial,61,169349,0.0-35.0-0.0,403.8,,,,51,"0,0,0",6,blank,256,null,0.147661445,0.254684808,0.402486977,0,,,,,,
,html-keyboard-response,62,170353,0.0-35.0-1.0,null,<p></p>,,null,,,,,,,,,,,,,,,,
,do_trial,63,173205,0.0-36.0-0.0,305.7,,,,51,"0,0,1",6,blank,257,null,0.07367357,0.217330192,0.563034757,1,,,,,,
,html-keyboard-response,64,174210,0.0-36.0-1.0,null,<p></p>,,null,,,,,,,,,,,,,,,,
,do_trial,65,177071,0.0-37.0-0.0,317.4,,,,51,"1,0,0",6,blank,258,null,0.146735886,0.101583576,0.611048293,0,,,,,,
,html-keyboard-response,66,178073,0.0-37.0-1.0,null,<p></p>,,null,,,,,,,,,,,,,,,,
,do_trial,67,180957,0.0-38.0-0.0,343.3,,,,51,"0,0,1",6,blank,259,null,0.168867551,0.179410131,0.626415143,1,,,,,,
,html-keyboard-response,68,181963,0.0-38.0-1.0,null,<p></p>,,null,,,,,,,,,,,,,,,,
,do_trial,69,184948,0.0-39.0-0.0,431.4,,,,51,"0,0,0",6,blank,260,null,0.196302138,0.303822812,0.610337701,0,,,,,,
,html-keyboard-response,70,185957,0.0-39.0-1.0,null,<p></p>,,null,,,,,,,,,,,,,,,,
,do_recog,71,189567,0.0-40.0-0.0,2102.3,,,,53,,,,261,probe-166,,,,,1,[object Object],120,3,1,
,html-keyboard-response,72,190571,0.0-40.0-1.0,null,<p></p>,,null,,,,,,,,,,,,,,,,
,do_trial,73,194025,0.0-41.0-0.0,904.9,,,,51,"0,0,1",6,blank,262,null,0.386627397,0.363045372,0.602630144,1,,,,,,
,html-keyboard-response,74,195031,0.0-41.0-1.0,null,<p></p>,,null,,,,,,,,,,,,,,,,
,do_trial,75,198147,0.0-42.0-0.0,568.4,,,,51,"0,1,1",6,blank,263,null,0.275427409,0.356634178,0.662059219,1,,,,,,
,html-keyboard-response,76,199153,0.0-42.0-1.0,null,<p></p>,,null,,,,,,,,,,,,,,,,
,do_trial,77,202204,0.0-43.0-0.0,497.5,,,,51,"1,1,1",6,blank,264,null,0.341108353,0.15510608,0.648939175,1,,,,,,
,html-keyboard-response,78,203210,0.0-43.0-1.0,null,<p></p>,,null,,,,,,,,,,,,,,,,
,do_recog,79,207082,0.0-44.0-0.0,2360.8,,,,55,,,,265,probe-198,,,,,1,[object Object],40,1,0,
,html-keyboard-response,80,208084,0.0-44.0-1.0,null,<p></p>,,null,,,,,,,,,,,,,,,,
,do_trial,81,211035,0.0-45.0-0.0,398.5,,,,51,"0,0,1",6,blank,266,null,0.22441121,0.250112435,0.539268832,1,,,,,,
,html-keyboard-response,82,212041,0.0-45.0-1.0,null,<p></p>,,null,,,,,,,,,,,,,,,,
,do_recog,83,215405,0.0-46.0-0.0,1854.1,,,,54,,,,267,probe-162,,,,,1,[object Object],209,5,1,
,html-keyboard-response,84,216411,0.0-46.0-1.0,null,<p></p>,,null,,,,,,,,,,,,,,,,
,do_trial,85,219479,0.0-47.0-0.0,517.7,,,,51,"0,0,0",6,blank,268,null,0.24780023,0.099820001,0.47598421,0,,,,,,
,html-keyboard-response,86,220481,0.0-47.0-1.0,null,<p></p>,,null,,,,,,,,,,,,,,,,
,do_trial,87,223513,0.0-48.0-0.0,483.8,,,,50,"0,0,1",6,blank,269,null,0.310312464,0.086307705,0.590134532,0,,,,,,
,html-keyboard-response,88,224519,0.0-48.0-1.0,null,<p></p>,,null,,,,,,,,,,,,,,,,
,do_trial,89,227368,0.0-49.0-0.0,297.7,,,,51,"0,0,1",6,blank,270,null,0.322247473,0.070497635,0.690098653,1,,,,,,
,html-keyboard-response,90,228374,0.0-49.0-1.0,null,<p></p>,,null,,,,,,,,,,,,,,,,
,do_recog,91,231799,0.0-50.0-0.0,1913.4,,,,55,,,,271,probe-04,,,,,1,[object Object],203,5,0,
,html-keyboard-response,92,232805,0.0-50.0-1.0,null,<p></p>,,null,,,,,,,,,,,,,,,,
,do_trial,93,235823,0.0-51.0-0.0,467.7,,,,51,"0,0,0",6,blank,272,null,0.177653224,0.052193746,0.652139809,0,,,,,,
,html-keyboard-response,94,236829,0.0-51.0-1.0,null,<p></p>,,null,,,,,,,,,,,,,,,,
,do_trial,95,240040,0.0-52.0-0.0,662.7,,,,50,"0,0,0",6,blank,273,null,0.157062188,0.068266601,0.630094929,0,,,,,,
,html-keyboard-response,96,241046,0.0-52.0-1.0,null,<p></p>,,null,,,,,,,,,,,,,,,,
,do_trial,97,244818,0.0-53.0-0.0,1218.7,,,,50,"0,0,1",6,blank,274,null,0.189923597,0.080569023,0.717227957,0,,,,,,
,html-keyboard-response,98,245823,0.0-53.0-1.0,null,<p></p>,,null,,,,,,,,,,,,,,,,
,do_trial,99,248758,0.0-54.0-0.0,384.7,,,,49,"0,0,1",6,blank,275,null,0.224934236,0.167821583,0.651081739,0,,,,,,
,html-keyboard-response,100,249764,0.0-54.0-1.0,null,<p></p>,,null,,,,,,,,,,,,,,,,
,do_trial,101,252746,0.0-55.0-0.0,428.8,,,,51,"0,0,0",6,blank,276,null,0.136228073,0.203893275,0.587273975,0,,,,,,
,html-keyboard-response,102,253752,0.0-55.0-1.0,null,<p></p>,,null,,,,,,,,,,,,,,,,
,do_trial,103,256634,0.0-56.0-0.0,329.5,,,,50,"1,0,0",6,blank,277,null,0.068316522,0.050810636,0.535664985,0,,,,,,
,html-keyboard-response,104,257640,0.0-56.0-1.0,null,<p></p>,,null,,,,,,,,,,,,,,,,
,do_recog,105,261352,0.0-57.0-0.0,2201.7,,,,54,,,,278,probe-81,,,,,1,[object Object],43,1,1,
,html-keyboard-response,106,262358,0.0-57.0-1.0,null,<p></p>,,null,,,,,,,,,,,,,,,,
,do_trial,107,265837,0.0-58.0-0.0,924.9,,,,49,"0,0,0",6,blank,279,null,0.124731326,0.099666684,0.612006938,0,,,,,,
,html-keyboard-response,108,266843,0.0-58.0-1.0,null,<p></p>,,null,,,,,,,,,,,,,,,,
,do_recog,109,270116,0.0-59.0-0.0,1763.8,,,,55,,,,280,probe-40,,,,,1,[object Object],86,2,0,
,html-keyboard-response,110,271122,0.0-59.0-1.0,null,<p></p>,,null,,,,,,,,,,,,,,,,
,do_trial,111,274146,0.0-60.0-0.0,470.7,,,,50,"0,0,1",6,blank,281,null,0.220783,0.135800693,0.420665388,0,,,,,,
,html-keyboard-response,112,275152,0.0-60.0-1.0,null,<p></p>,,null,,,,,,,,,,,,,,,,
,do_trial,113,278062,0.0-61.0-0.0,359.2,,,,51,"1,0,1",6,blank,282,null,0.359991064,0.092211395,0.44845645,1,,,,,,
,html-keyboard-response,114,279067,0.0-61.0-1.0,null,<p></p>,,null,,,,,,,,,,,,,,,,
,do_trial,115,281994,0.0-62.0-0.0,373.8,,,,51,"0,0,1",6,blank,283,null,0.253146145,0.234004421,0.654925802,1,,,,,,
,html-keyboard-response,116,283001,0.0-62.0-1.0,null,<p></p>,,null,,,,,,,,,,,,,,,,
,do_trial,117,285985,0.0-63.0-0.0,432.3,,,,51,"0,0,1",6,blank,284,null,0.344266527,0.159099512,0.699782897,1,,,,,,
,html-keyboard-response,118,286986,0.0-63.0-1.0,null,<p></p>,,null,,,,,,,,,,,,,,,,
,do_recog,119,290702,0.0-64.0-0.0,2206.5,,,,53,,,,285,probe-228,,,,,1,[object Object],128,3,1,
,html-keyboard-response,120,291708,0.0-64.0-1.0,null,<p></p>,,null,,,,,,,,,,,,,,,,
,do_trial,121,295045,0.0-65.0-0.0,784.1,,,,49,"0,1,0",6,blank,286,null,0.325300358,0.191500257,0.693872226,0,,,,,,
,html-keyboard-response,122,296052,0.0-65.0-1.0,null,<p></p>,,null,,,,,,,,,,,,,,,,
,do_recog,123,299297,0.0-66.0-0.0,1731.8,,,,54,,,,287,probe-141,,,,,1,[object Object],122,3,1,
,html-keyboard-response,124,300302,0.0-66.0-1.0,null,<p></p>,,null,,,,,,,,,,,,,,,,
,do_trial,125,303797,0.0-67.0-0.0,944.6,,,,49,"1,0,1",6,blank,288,null,0.310754719,0.097905628,0.732001951,1,,,,,,
,html-keyboard-response,126,304803,0.0-67.0-1.0,null,<p></p>,,null,,,,,,,,,,,,,,,,
,do_recog,127,307977,0.0-68.0-0.0,1665.7,,,,54,,,,289,probe-36,,,,,1,[object Object],80,2,1,
,html-keyboard-response,128,308983,0.0-68.0-1.0,null,<p></p>,,null,,,,,,,,,,,,,,,,
,do_trial,129,312037,0.0-69.0-0.0,506.3,,,,49,"0,0,0",6,blank,290,null,0.257588897,0.145976116,0.626835774,0,,,,,,
,html-keyboard-response,130,313044,0.0-69.0-1.0,null,<p></p>,,null,,,,,,,,,,,,,,,,
,do_recog,131,316307,0.0-70.0-0.0,1751.9,,,,56,,,,291,probe-133,,,,,1,[object Object],168,4,0,
,html-keyboard-response,132,317312,0.0-70.0-1.0,null,<p></p>,,null,,,,,,,,,,,,,,,,
,do_trial,133,320293,0.0-71.0-0.0,430.7,,,,50,"0,0,0",6,blank,292,null,0.391377101,0.228891379,0.600820819,0,,,,,,
,html-keyboard-response,134,321300,0.0-71.0-1.0,null,<p></p>,,null,,,,,,,,,,,,,,,,
,do_trial,135,324290,0.0-72.0-0.0,437.4,,,,51,"0,0,1",6,blank,293,null,0.508718724,0.213980021,0.645070223,1,,,,,,
,html-keyboard-response,136,325294,0.0-72.0-1.0,null,<p></p>,,null,,,,,,,,,,,,,,,,
,do_trial,137,328307,0.0-73.0-0.0,465,,,,51,"0,0,1",6,blank,294,null,0.535107021,0.188237582,0.76338525,1,,,,,,
,html-keyboard-response,138,329310,0.0-73.0-1.0,null,<p></p>,,null,,,,,,,,,,,,,,,,
,do_trial,139,332418,0.0-74.0-0.0,557.2,,,,51,"1,0,0",6,blank,295,null,0.685108245,0.16226513,0.586115599,0,,,,,,
,html-keyboard-response,140,333423,0.0-74.0-1.0,null,<p></p>,,null,,,,,,,,,,,,,,,,
,do_trial,141,336613,0.0-75.0-0.0,637.8,,,,50,"1,1,0",6,blank,296,null,0.743359865,0.173687975,0.163624895,1,,,,,,
,html-keyboard-response,142,337619,0.0-75.0-1.0,null,<p></p>,,null,,,,,,,,,,,,,,,,
,do_recog,143,341100,0.0-76.0-0.0,1971.2,,,,56,,,,297,probe-182,,,,,1,[object Object],81,2,0,
,html-keyboard-response,144,342105,0.0-76.0-1.0,null,<p></p>,,null,,,,,,,,,,,,,,,,
,do_trial,145,345486,0.0-77.0-0.0,829.6,,,,49,"0,0,0",6,blank,298,null,0.603361478,0.283901334,0.130394459,0,,,,,,
,html-keyboard-response,146,346491,0.0-77.0-1.0,null,<p></p>,,null,,,,,,,,,,,,,,,,
,do_trial,147,349499,0.0-78.0-0.0,458.3,,,,50,"1,0,0",6,blank,299,null,0.672050404,0.298721278,0.142994811,0,,,,,,
,html-keyboard-response,148,350501,0.0-78.0-1.0,null,<p></p>,,null,,,,,,,,,,,,,,,,
,do_trial,149,353536,0.0-79.0-0.0,483.6,,,,50,"1,1,0",6,blank,300,null,0.63710006,0.281676091,0.058863935,1,,,,,,
,html-keyboard-response,150,354539,0.0-79.0-1.0,null,<p></p>,,null,,,,,,,,,,,,,,,,
,do_trial,151,357488,0.0-80.0-0.0,397,,,,50,"1,0,0",6,blank,301,null,0.633995724,0.288926055,0.090349902,0,,,,,,
,html-keyboard-response,152,358495,0.0-80.0-1.0,null,<p></p>,,null,,,,,,,,,,,,,,,,
,do_trial,153,361449,0.0-81.0-0.0,405.8,,,,50,"1,0,0",6,blank,302,null,0.767804824,0.48779512,0.054279714,0,,,,,,
,html-keyboard-response,154,362455,0.0-81.0-1.0,null,<p></p>,,null,,,,,,,,,,,,,,,,
,do_trial,155,365681,0.0-82.0-0.0,675.9,,,,50,"1,1,1",6,blank,303,null,0.717141718,0.384751637,0.247774641,1,,,,,,
,html-keyboard-response,156,366688,0.0-82.0-1.0,null,<p></p>,,null,,,,,,,,,,,,,,,,
,do_trial,157,369785,0.0-83.0-0.0,544.6,,,,50,"0,0,0",6,blank,304,null,0.719885162,0.240508786,0.119971491,0,,,,,,
,html-keyboard-response,158,370791,0.0-83.0-1.0,null,<p></p>,,null,,,,,,,,,,,,,,,,
,do_recog,159,373991,0.0-84.0-0.0,1688.4,,,,54,,,,305,probe-02,,,,,1,[object Object],201,5,1,
,html-keyboard-response,160,374998,0.0-84.0-1.0,null,<p></p>,,null,,,,,,,,,,,,,,,,
,do_trial,161,378066,0.0-85.0-0.0,520.4,,,,49,"0,0,0",6,blank,306,null,0.70447807,0.320077989,0.127757671,0,,,,,,
,html-keyboard-response,162,379071,0.0-85.0-1.0,null,<p></p>,,null,,,,,,,,,,,,,,,,
,do_trial,163,382090,0.0-86.0-0.0,463.9,,,,51,"0,1,0",6,blank,307,null,0.534610568,0.308460238,0.101668851,0,,,,,,
,html-keyboard-response,164,383093,0.0-86.0-1.0,null,<p></p>,,null,,,,,,,,,,,,,,,,
,do_trial,165,386057,0.0-87.0-0.0,423.6,,,,51,"0,1,0",6,blank,308,null,0.567100813,0.328678065,0.10607417,0,,,,,,
,html-keyboard-response,166,387062,0.0-87.0-1.0,null,<p></p>,,null,,,,,,,,,,,,,,,,
,do_recog,167,390343,0.0-88.0-0.0,1768.5,,,,53,,,,309,probe-188,,,,,1,[object Object],167,4,1,
,html-keyboard-response,168,391349,0.0-88.0-1.0,null,<p></p>,,null,,,,,,,,,,,,,,,,
,do_trial,169,394471,0.0-89.0-0.0,571,,,,49,"1,0,0",6,blank,310,null,0.58507756,0.347603742,0.119052379,1,,,,,,
,html-keyboard-response,170,395472,0.0-89.0-1.0,null,<p></p>,,null,,,,,,,,,,,,,,,,
,do_trial,171,398673,0.0-90.0-0.0,664.7,,,,49,"1,0,1",6,blank,311,null,0.769052328,0.344324619,0.07557105,1,,,,,,
,html-keyboard-response,172,399677,0.0-90.0-1.0,null,<p></p>,,null,,,,,,,,,,,,,,,,
,do_trial,173,402342,0.0-91.0-0.0,117,,,,49,"0,1,0",6,blank,312,null,0.583866061,0.337283552,0.083515661,0,,,,,,
,html-keyboard-response,174,403346,0.0-91.0-1.0,null,<p></p>,,null,,,,,,,,,,,,,,,,
,do_trial,175,406415,0.0-92.0-0.0,531.4,,,,49,"1,0,0",6,blank,313,null,0.562842161,0.342320371,0.162143509,1,,,,,,
,html-keyboard-response,176,407419,0.0-92.0-1.0,null,<p></p>,,null,,,,,,,,,,,,,,,,
,do_recog,177,410483,0.0-93.0-0.0,1561.2,,,,53,,,,314,probe-30,,,,,1,[object Object],49,1,1,
,html-keyboard-response,178,411487,0.0-93.0-1.0,null,<p></p>,,null,,,,,,,,,,,,,,,,
,do_trial,179,414804,0.0-94.0-0.0,775.9,,,,51,"1,1,0",6,blank,315,null,0.524819957,0.417885646,0.139606142,0,,,,,,
,html-keyboard-response,180,415810,0.0-94.0-1.0,null,<p></p>,,null,,,,,,,,,,,,,,,,
,do_trial,181,419232,0.0-95.0-0.0,868.5,,,,51,"1,1,0",6,blank,316,null,0.494688163,0.330209852,0.1124459,0,,,,,,
,html-keyboard-response,182,420238,0.0-95.0-1.0,null,<p></p>,,null,,,,,,,,,,,,,,,,
,do_trial,183,423478,0.0-96.0-0.0,689.6,,,,50,"0,0,0",6,blank,317,null,0.519032494,0.363440024,0.080938201,0,,,,,,
,html-keyboard-response,184,424483,0.0-96.0-1.0,null,<p></p>,,null,,,,,,,,,,,,,,,,
,do_recog,185,427907,0.0-97.0-0.0,1915.7,,,,56,,,,318,probe-164,,,,,1,[object Object],84,2,0,
,html-keyboard-response,186,428913,0.0-97.0-1.0,null,<p></p>,,null,,,,,,,,,,,,,,,,
,do_trial,187,432118,0.0-98.0-0.0,651.4,,,,50,"0,0,0",6,blank,319,null,0.409561391,0.263594686,0.129936498,0,,,,,,
,html-keyboard-response,188,433121,0.0-98.0-1.0,null,<p></p>,,null,,,,,,,,,,,,,,,,
,do_recog,189,436268,0.0-99.0-0.0,1637.4,,,,54,,,,320,probe-98,,,,,1,[object Object],160,4,1,
,html-keyboard-response,190,437271,0.0-99.0-1.0,null,<p></p>,,null,,,,,,,,,,,,,,,,
,do_trial,191,440379,0.0-100.0-0.0,556.9,,,,49,"0,0,0",6,blank,321,null,0.520008152,0.224921731,0.112351109,0,,,,,,
,html-keyboard-response,192,441385,0.0-100.0-1.0,null,<p></p>,,null,,,,,,,,,,,,,,,,
,do_recog,193,444861,0.0-101.0-0.0,1963.1,,,,55,,,,322,probe-192,,,,,1,[object Object],129,3,0,
,html-keyboard-response,194,445864,0.0-101.0-1.0,null,<p></p>,,null,,,,,,,,,,,,,,,,
,do_trial,195,449048,0.0-102.0-0.0,634,,,,49,"1,1,0",6,blank,323,null,0.560364067,0.336719015,0.118311736,1,,,,,,
,html-keyboard-response,196,450054,0.0-102.0-1.0,null,<p></p>,,null,,,,,,,,,,,,,,,,
,do_recog,197,453132,0.0-103.0-0.0,1570.6,,,,55,,,,324,probe-235,,,,,0,[object Object],null,null,1,
,html-keyboard-response,198,454134,0.0-103.0-1.0,null,<p></p>,,null,,,,,,,,,,,,,,,,
,do_trial,199,457504,0.0-104.0-0.0,822.1,,,,49,"1,0,0",6,blank,325,null,0.69935911,0.273671624,0.084019357,1,,,,,,
,html-keyboard-response,200,458506,0.0-104.0-1.0,null,<p></p>,,null,,,,,,,,,,,,,,,,
,do_trial,201,461615,0.0-105.0-0.0,558,,,,49,"1,0,0",6,blank,326,null,0.745293148,0.361298724,0.1952395,1,,,,,,
,html-keyboard-response,202,462617,0.0-105.0-1.0,null,<p></p>,,null,,,,,,,,,,,,,,,,
,do_trial,203,465775,0.0-106.0-0.0,607.9,,,,49,"0,0,0",6,blank,327,null,0.711722385,0.320952866,0.232956311,0,,,,,,
,html-keyboard-response,204,466781,0.0-106.0-1.0,null,<p></p>,,null,,,,,,,,,,,,,,,,
,do_trial,205,469709,0.0-107.0-0.0,375,,,,49,"0,0,0",6,blank,328,null,0.823267709,0.371982628,0.137777435,0,,,,,,
,html-keyboard-response,206,470715,0.0-107.0-1.0,null,<p></p>,,null,,,,,,,,,,,,,,,,
,do_trial,207,473657,0.0-108.0-0.0,390.9,,,,50,"1,1,0",6,blank,329,null,0.648039832,0.305707252,0.117931742,1,,,,,,
,html-keyboard-response,208,474664,0.0-108.0-1.0,null,<p></p>,,null,,,,,,,,,,,,,,,,
,do_recog,209,478379,0.0-109.0-0.0,2203.5,,,,53,,,,330,probe-191,,,,,1,[object Object],202,5,1,
,html-keyboard-response,210,479383,0.0-109.0-1.0,null,<p></p>,,null,,,,,,,,,,,,,,,,
,do_trial,211,482364,0.0-110.0-0.0,431.9,,,,50,"0,1,0",6,blank,331,null,0.708037077,0.393272235,0.052404383,1,,,,,,
,html-keyboard-response,212,483370,0.0-110.0-1.0,null,<p></p>,,null,,,,,,,,,,,,,,,,
,do_recog,213,486831,0.0-111.0-0.0,1948.8,,,,53,,,,332,probe-138,,,,,1,[object Object],124,3,1,
,html-keyboard-response,214,487837,0.0-111.0-1.0,null,<p></p>,,null,,,,,,,,,,,,,,,,
,do_trial,215,490808,0.0-112.0-0.0,420.2,,,,50,"0,1,0",6,blank,333,null,0.57839378,0.408959579,0.072254864,1,,,,,,
,html-keyboard-response,216,491813,0.0-112.0-1.0,null,<p></p>,,null,,,,,,,,,,,,,,,,
,do_trial,217,494799,0.0-113.0-0.0,437.4,,,,50,"0,1,0",6,blank,334,null,0.530698314,0.396321313,0.182405596,1,,,,,,
,html-keyboard-response,218,495804,0.0-113.0-1.0,null,<p></p>,,null,,,,,,,,,,,,,,,,
,do_recog,219,498894,0.0-114.0-0.0,1577.2,,,,56,,,,335,probe-87,,,,,1,[object Object],88,2,0,
,html-keyboard-response,220,499900,0.0-114.0-1.0,null,<p></p>,,null,,,,,,,,,,,,,,,,
,do_trial,221,502943,0.0-115.0-0.0,495.3,,,,50,"0,0,0",6,blank,336,null,0.52387616,0.308957575,0.119937624,0,,,,,,
,html-keyboard-response,222,503948,0.0-115.0-1.0,null,<p></p>,,null,,,,,,,,,,,,,,,,
,do_trial,223,506902,0.0-116.0-0.0,397.8,,,,50,"0,0,0",6,blank,337,null,0.390498811,0.318163379,0.056241372,0,,,,,,
,html-keyboard-response,224,507909,0.0-116.0-1.0,null,<p></p>,,null,,,,,,,,,,,,,,,,
,do_trial,225,511290,0.0-117.0-0.0,828.9,,,,50,"1,0,0",6,blank,338,null,0.378219468,0.44397245,0.086219625,0,,,,,,
,html-keyboard-response,226,512297,0.0-117.0-1.0,null,<p></p>,,null,,,,,,,,,,,,,,,,
,do_recog,227,515644,0.0-118.0-0.0,1834.9,,,,53,,,,339,probe-143,,,,,1,[object Object],126,3,1,
,html-keyboard-response,228,516650,0.0-118.0-1.0,null,<p></p>,,null,,,,,,,,,,,,,,,,
,do_trial,229,520091,0.0-119.0-0.0,890.9,,,,50,"1,1,0",6,blank,340,null,0.445721849,0.38516938,0.050506892,1,,,,,,
,html-keyboard-response,230,521092,0.0-119.0-1.0,null,<p></p>,,null,,,,,,,,,,,,,,,,
,do_recog,231,523913,0.0-120.0-0.0,1309.1,,,,53,,,,341,probe-126,,,,,1,[object Object],42,1,1,
,html-keyboard-response,232,524915,0.0-120.0-1.0,null,<p></p>,,null,,,,,,,,,,,,,,,,
,do_trial,233,527812,0.0-121.0-0.0,349.7,,,,50,"0,1,0",6,blank,342,null,0.413670343,0.329263554,0.065900577,1,,,,,,
,html-keyboard-response,234,528817,0.0-121.0-1.0,null,<p></p>,,null,,,,,,,,,,,,,,,,
,do_trial,235,531798,0.0-122.0-0.0,427.1,,,,50,"1,0,0",6,blank,343,null,0.43462822,0.331407212,0.227148395,0,,,,,,
,html-keyboard-response,236,532805,0.0-122.0-1.0,null,<p></p>,,null,,,,,,,,,,,,,,,,
,do_recog,237,535357,0.0-123.0-0.0,1039.3,,,,53,,,,344,probe-208,,,,,1,[object Object],89,2,1,
,html-keyboard-response,238,536363,0.0-123.0-1.0,null,<p></p>,,null,,,,,,,,,,,,,,,,
,do_trial,239,539296,0.0-124.0-0.0,380.9,,,,50,"0,1,0",6,blank,345,null,0.441679731,0.346967115,0.29840351,1,,,,,,
,html-keyboard-response,240,540299,0.0-124.0-1.0,null,<p></p>,,null,,,,,,,,,,,,,,,,
,do_trial,241,543215,0.0-125.0-0.0,367.8,,,,50,"0,1,1",6,blank,346,null,0.521993127,0.434259837,0.212894066,1,,,,,,
,html-keyboard-response,242,544221,0.0-125.0-1.0,null,<p></p>,,null,,,,,,,,,,,,,,,,
,do_trial,243,547127,0.0-126.0-0.0,352.2,,,,50,"1,0,1",6,blank,347,null,0.380972729,0.420657524,0.2792498,0,,,,,,
,html-keyboard-response,244,548130,0.0-126.0-1.0,null,<p></p>,,null,,,,,,,,,,,,,,,,
,do_trial,245,551077,0.0-127.0-0.0,392.6,,,,50,"0,0,0",6,blank,348,null,0.349323051,0.339015251,0.06993669,0,,,,,,
,html-keyboard-response,246,552081,0.0-127.0-1.0,null,<p></p>,,null,,,,,,,,,,,,,,,,
,do_trial,247,554977,0.0-128.0-0.0,342.7,,,,50,"0,0,0",6,blank,349,null,0.355857603,0.329811973,0.216634199,0,,,,,,
,html-keyboard-response,248,555979,0.0-128.0-1.0,null,<p></p>,,null,,,,,,,,,,,,,,,,
,do_trial,249,558917,0.0-129.0-0.0,384.7,,,,50,"1,0,0",6,blank,350,null,0.348942289,0.496413869,0.18527376,0,,,,,,
,html-keyboard-response,250,559919,0.0-129.0-1.0,null,<p></p>,,null,,,,,,,,,,,,,,,,
,do_trial,251,562924,0.0-130.0-0.0,452.6,,,,50,"0,1,1",6,blank,351,null,0.318420088,0.627893284,0.312833728,1,,,,,,
,html-keyboard-response,252,563928,0.0-130.0-1.0,null,<p></p>,,null,,,,,,,,,,,,,,,,
,do_recog,253,566570,0.0-131.0-0.0,1129.2,,,,53,,,,352,probe-194,,,,,1,[object Object],127,3,1,
,html-keyboard-response,254,567576,0.0-131.0-1.0,null,<p></p>,,null,,,,,,,,,,,,,,,,
,do_trial,255,570552,0.0-132.0-0.0,423.2,,,,50,"1,0,0",6,blank,353,null,0.213114612,0.732429701,0.428421662,0,,,,,,
,html-keyboard-response,256,571557,0.0-132.0-1.0,null,<p></p>,,null,,,,,,,,,,,,,,,,
,do_trial,257,574557,0.0-133.0-0.0,449.2,,,,50,"0,1,0",6,blank,354,null,0.13879725,0.708391007,0.349672267,1,,,,,,
,html-keyboard-response,258,575563,0.0-133.0-1.0,null,<p></p>,,null,,,,,,,,,,,,,,,,
,do_trial,259,580331,0.0-134.0-0.0,2217,,,,50,"0,0,0",6,blank,355,null,0.09765854,0.542919282,0.328150596,0,,,,,,
,html-keyboard-response,260,581337,0.0-134.0-1.0,null,<p></p>,,null,,,,,,,,,,,,,,,,
,do_trial,261,584787,0.0-135.0-0.0,896.3,,,,50,"0,1,0",6,blank,356,null,0.068922024,0.522335123,0.355926268,1,,,,,,
,html-keyboard-response,262,585793,0.0-135.0-1.0,null,<p></p>,,null,,,,,,,,,,,,,,,,
,do_trial,263,589133,0.0-136.0-0.0,790.9,,,,50,"0,1,0",6,blank,357,null,0.080350967,0.493077201,0.431107797,1,,,,,,
,html-keyboard-response,264,590139,0.0-136.0-1.0,null,<p></p>,,null,,,,,,,,,,,,,,,,
,do_trial,265,593428,0.0-137.0-0.0,736,,,,50,"0,1,1",6,blank,358,null,0.083249997,0.645606111,0.476649012,1,,,,,,
,html-keyboard-response,266,594434,0.0-137.0-1.0,null,<p></p>,,null,,,,,,,,,,,,,,,,
,do_recog,267,597420,0.0-138.0-0.0,1478.4,,,,53,,,,359,probe-206,,,,,1,[object Object],85,2,1,
,html-keyboard-response,268,598423,0.0-138.0-1.0,null,<p></p>,,null,,,,,,,,,,,,,,,,
,do_trial,269,601830,0.0-139.0-0.0,855,,,,50,"0,1,0",6,blank,360,null,0.127771419,0.596132638,0.462490539,1,,,,,,
,html-keyboard-response,270,602834,0.0-139.0-1.0,null,<p></p>,,null,,,,,,,,,,,,,,,,
,do_trial,271,606246,0.0-140.0-0.0,863.3,,,,50,"0,0,0",6,blank,361,null,0.106129008,0.673336321,0.434142724,0,,,,,,
,html-keyboard-response,272,607251,0.0-140.0-1.0,null,<p></p>,,null,,,,,,,,,,,,,,,,
,do_trial,273,610417,0.0-141.0-0.0,616.9,,,,50,"1,1,1",6,blank,362,null,0.137909525,0.552336067,0.365502842,1,,,,,,
,html-keyboard-response,274,611423,0.0-141.0-1.0,null,<p></p>,,null,,,,,,,,,,,,,,,,
,do_trial,275,614371,0.0-142.0-0.0,395.6,,,,50,"1,0,0",6,blank,363,null,0.187546519,0.39045472,0.29690923,0,,,,,,
,html-keyboard-response,276,615377,0.0-142.0-1.0,null,<p></p>,,null,,,,,,,,,,,,,,,,
,do_recog,277,617887,0.0-143.0-0.0,997.5,,,,53,,,,364,probe-155,,,,,1,[object Object],47,1,1,
,html-keyboard-response,278,618893,0.0-143.0-1.0,null,<p></p>,,null,,,,,,,,,,,,,,,,
,do_trial,279,621894,0.0-144.0-0.0,447.8,,,,50,"0,1,1",6,blank,365,null,0.205819187,0.512496612,0.432565255,1,,,,,,
,html-keyboard-response,280,622896,0.0-144.0-1.0,null,<p></p>,,null,,,,,,,,,,,,,,,,
,do_recog,281,625737,0.0-145.0-0.0,1331.8,,,,53,,,,366,probe-229,,,,,1,[object Object],45,1,1,
,html-keyboard-response,282,626739,0.0-145.0-1.0,null,<p></p>,,null,,,,,,,,,,,,,,,,
,do_trial,283,629800,0.0-146.0-0.0,511.7,,,,50,"0,1,1",6,blank,367,null,0.318396592,0.62553063,0.429156735,1,,,,,,
,html-keyboard-response,284,630803,0.0-146.0-1.0,null,<p></p>,,null,,,,,,,,,,,,,,,,
,do_trial,285,633965,0.0-147.0-0.0,608.4,,,,50,"0,0,1",6,blank,368,null,0.280075164,0.695354838,0.448274714,0,,,,,,
,html-keyboard-response,286,634971,0.0-147.0-1.0,null,<p></p>,,null,,,,,,,,,,,,,,,,
,do_trial,287,638004,0.0-148.0-0.0,481.8,,,,50,"1,1,0",6,blank,369,null,0.201377415,0.499365415,0.359976258,1,,,,,,
,html-keyboard-response,288,639010,0.0-148.0-1.0,null,<p></p>,,null,,,,,,,,,,,,,,,,
,do_recog,289,641677,0.0-149.0-0.0,1154.3,,,,53,,,,370,probe-186,,,,,1,[object Object],125,3,1,
,html-keyboard-response,290,642683,0.0-149.0-1.0,null,<p></p>,,null,,,,,,,,,,,,,,,,
,do_trial,291,647965,0.0-150.0-0.0,2732.6,,,,50,"1,1,0",6,blank,371,null,0.050199889,0.583404133,0.237182884,1,,,,,,
,html-keyboard-response,292,648966,0.0-150.0-1.0,null,<p></p>,,null,,,,,,,,,,,,,,,,
,do_trial,293,652343,0.0-151.0-0.0,820.6,,,,50,"0,1,0",6,blank,372,null,0.09928978,0.702635305,0.098350165,1,,,,,,
,html-keyboard-response,294,653345,0.0-151.0-1.0,null,<p></p>,,null,,,,,,,,,,,,,,,,
,do_trial,295,656258,0.0-152.0-0.0,361.5,,,,50,"0,1,0",6,blank,373,null,0.112108686,0.786268225,0.121004127,1,,,,,,
,html-keyboard-response,296,657261,0.0-152.0-1.0,null,<p></p>,,null,,,,,,,,,,,,,,,,
,do_trial,297,660270,0.0-153.0-0.0,456.9,,,,50,"1,1,0",6,blank,374,null,0.236507817,0.769986517,0.194452341,1,,,,,,
,html-keyboard-response,298,661274,0.0-153.0-1.0,null,<p></p>,,null,,,,,,,,,,,,,,,,
,do_recog,299,663769,0.0-154.0-0.0,983,,,,53,,,,375,probe-66,,,,,1,[object Object],200,5,1,
,html-keyboard-response,300,664770,0.0-154.0-1.0,null,<p></p>,,null,,,,,,,,,,,,,,,,
,do_trial,301,667710,0.0-155.0-0.0,390.9,,,,50,"0,0,0",6,blank,376,null,0.064856032,0.881084377,0.29886877,0,,,,,,
,html-keyboard-response,302,668712,0.0-155.0-1.0,null,<p></p>,,null,,,,,,,,,,,,,,,,
,do_trial,303,671727,0.0-156.0-0.0,462.6,,,,50,"1,1,0",6,blank,377,null,0.166769551,0.831235732,0.243306053,1,,,,,,
,html-keyboard-response,304,672730,0.0-156.0-1.0,null,<p></p>,,null,,,,,,,,,,,,,,,,
,do_recog,305,675360,0.0-157.0-0.0,1120.1,,,,53,,,,378,probe-79,,,,,1,[object Object],162,4,1,
,html-keyboard-response,306,676366,0.0-157.0-1.0,null,<p></p>,,null,,,,,,,,,,,,,,,,
,do_trial,307,679514,0.0-158.0-0.0,600,,,,50,"0,0,0",6,blank,379,null,0.139167422,0.545774059,0.372787492,0,,,,,,
,html-keyboard-response,308,680520,0.0-158.0-1.0,null,<p></p>,,null,,,,,,,,,,,,,,,,
,do_trial,309,683942,0.0-159.0-0.0,873.8,,,,50,"0,0,1",6,blank,380,null,0.162828448,0.409599469,0.360798327,0,,,,,,
,html-keyboard-response,310,684948,0.0-159.0-1.0,null,<p></p>,,null,,,,,,,,,,,,,,,,
,do_trial,311,688205,0.0-160.0-0.0,709.4,,,,50,"0,1,0",6,blank,381,null,0.075345104,0.593209916,0.374928485,1,,,,,,
,html-keyboard-response,312,689211,0.0-160.0-1.0,null,<p></p>,,null,,,,,,,,,,,,,,,,
,do_trial,313,692575,0.0-161.0-0.0,815.7,,,,50,"0,1,1",6,blank,382,null,0.106288661,0.588085783,0.475303155,1,,,,,,
,html-keyboard-response,314,693581,0.0-161.0-1.0,null,<p></p>,,null,,,,,,,,,,,,,,,,
,do_recog,315,696196,0.0-162.0-0.0,1102.6,,,,53,,,,383,probe-48,,,,,1,[object Object],205,5,1,
,html-keyboard-response,316,697199,0.0-162.0-1.0,null,<p></p>,,null,,,,,,,,,,,,,,,,
,do_trial,317,700259,0.0-163.0-0.0,512.1,,,,50,"0,0,0",6,blank,384,null,0.055368196,0.614764863,0.306943643,0,,,,,,
,html-keyboard-response,318,701265,0.0-163.0-1.0,null,<p></p>,,null,,,,,,,,,,,,,,,,
,do_recog,319,703921,0.0-164.0-0.0,1147.1,,,,53,,,,385,probe-60,,,,,1,[object Object],123,3,1,
,html-keyboard-response,320,704923,0.0-164.0-1.0,null,<p></p>,,null,,,,,,,,,,,,,,,,
,do_trial,321,707970,0.0-165.0-0.0,493.2,,,,50,"0,1,1",6,blank,386,null,0.124637394,0.621571227,0.339589754,1,,,,,,
,html-keyboard-response,322,708976,0.0-165.0-1.0,null,<p></p>,,null,,,,,,,,,,,,,,,,
,do_recog,323,711752,0.0-166.0-0.0,1264,,,,53,,,,387,probe-172,,,,,1,[object Object],82,2,1,
,html-keyboard-response,324,712757,0.0-166.0-1.0,null,<p></p>,,null,,,,,,,,,,,,,,,,
,do_trial,325,715862,0.0-167.0-0.0,553,,,,50,"1,0,0",6,blank,388,null,0.230715755,0.602520215,0.253710912,0,,,,,,
,html-keyboard-response,326,716865,0.0-167.0-1.0,null,<p></p>,,null,,,,,,,,,,,,,,,,
,do_trial,327,719885,0.0-168.0-0.0,467.5,,,,50,"0,1,0",6,blank,389,null,0.207977145,0.64264604,0.132418954,1,,,,,,
,html-keyboard-response,328,720887,0.0-168.0-1.0,null,<p></p>,,null,,,,,,,,,,,,,,,,
,do_recog,329,724823,0.0-169.0-0.0,2424.1,,,,56,,,,390,probe-35,,,,,1,[object Object],87,2,0,
,html-keyboard-response,330,725829,0.0-169.0-1.0,null,<p></p>,,null,,,,,,,,,,,,,,,,
,do_trial,331,729012,0.0-170.0-0.0,627.9,,,,50,"0,1,0",6,blank,391,null,0.076731004,0.580955126,0.19495606,1,,,,,,
,html-keyboard-response,332,730018,0.0-170.0-1.0,null,<p></p>,,null,,,,,,,,,,,,,,,,
,do_recog,333,732750,0.0-171.0-0.0,1221.9,,,,53,,,,392,probe-06,,,,,1,[object Object],44,1,1,
,html-keyboard-response,334,733754,0.0-171.0-1.0,null,<p></p>,,null,,,,,,,,,,,,,,,,
,do_trial,335,738494,0.0-172.0-0.0,2192.1,,,,50,"0,0,0",6,blank,393,null,0.095320136,0.575561651,0.200938315,0,,,,,,
,html-keyboard-response,336,739496,0.0-172.0-1.0,null,<p></p>,,null,,,,,,,,,,,,,,,,
,do_trial,337,743610,0.0-173.0-0.0,1559.9,,,,50,"0,1,0",6,blank,394,null,0.071084112,0.48086996,0.325923556,1,,,,,,
,html-keyboard-response,338,744614,0.0-173.0-1.0,null,<p></p>,,null,,,,,,,,,,,,,,,,
,do_trial,339,748147,0.0-174.0-0.0,984.3,,,,50,"0,1,1",6,blank,395,null,0.137570305,0.530987884,0.388300183,1,,,,,,
,html-keyboard-response,340,749150,0.0-174.0-1.0,null,<p></p>,,null,,,,,,,,,,,,,,,,
,do_trial,341,752364,0.0-175.0-0.0,664.1,,,,50,"0,1,0",6,blank,396,null,0.155772271,0.469685672,0.329437475,1,,,,,,
,html-keyboard-response,342,753370,0.0-175.0-1.0,null,<p></p>,,null,,,,,,,,,,,,,,,,
,do_trial,343,756561,0.0-176.0-0.0,638.8,,,,50,"0,0,0",6,blank,397,null,0.115404977,0.63689446,0.215129049,0,,,,,,
,html-keyboard-response,344,757567,0.0-176.0-1.0,null,<p></p>,,null,,,,,,,,,,,,,,,,
,do_trial,345,760983,0.0-177.0-0.0,864.9,,,,50,"0,1,0",6,blank,398,null,0.152316443,0.599063987,0.315917884,1,,,,,,
,html-keyboard-response,346,761990,0.0-177.0-1.0,null,<p></p>,,null,,,,,,,,,,,,,,,,
,do_recog,347,764767,0.0-178.0-0.0,1264.7,,,,53,,,,399,probe-52,,,,,1,[object Object],166,4,1,
,html-keyboard-response,348,765772,0.0-178.0-1.0,null,<p></p>,,null,,,,,,,,,,,,,,,,
,do_trial,349,768807,0.0-179.0-0.0,485.6,,,,50,"0,0,0",6,blank,400,null,0.165785394,0.498484043,0.452458266,0,,,,,,
,html-keyboard-response,350,769814,0.0-179.0-1.0,null,<p></p>,,null,,,,,,,,,,,,,,,,
,do_trial,351,772790,0.0-180.0-0.0,423.1,,,,50,"0,0,0",6,blank,401,null,0.146347356,0.308801895,0.553772182,0,,,,,,
,html-keyboard-response,352,773796,0.0-180.0-1.0,null,<p></p>,,null,,,,,,,,,,,,,,,,
,do_trial,353,776864,0.0-181.0-0.0,516.7,,,,50,"1,0,1",6,blank,402,null,0.105719976,0.363775632,0.6377625,0,,,,,,
,html-keyboard-response,354,777870,0.0-181.0-1.0,null,<p></p>,,null,,,,,,,,,,,,,,,,
,do_trial,355,781227,0.0-182.0-0.0,806.7,,,,50,"0,0,0",6,blank,403,null,0.068550191,0.340665541,0.580586171,0,,,,,,
,html-keyboard-response,356,782231,0.0-182.0-1.0,null,<p></p>,,null,,,,,,,,,,,,,,,,
,do_trial,357,785283,0.0-183.0-0.0,504.7,,,,50,"1,1,1",6,blank,404,null,0.172818436,0.370408543,0.574831457,1,,,,,,
,html-keyboard-response,358,786290,0.0-183.0-1.0,null,<p></p>,,null,,,,,,,,,,,,,,,,
,do_recog,359,789731,0.0-184.0-0.0,1931.4,,,,53,,,,405,probe-14,,,,,1,[object Object],207,5,1,
,html-keyboard-response,360,790733,0.0-184.0-1.0,null,<p></p>,,null,,,,,,,,,,,,,,,,
,do_trial,361,794402,0.0-185.0-0.0,1117.5,,,,50,"0,1,0",6,blank,406,null,0.11441728,0.265989832,0.52025665,1,,,,,,
,html-keyboard-response,362,795408,0.0-185.0-1.0,null,<p></p>,,null,,,,,,,,,,,,,,,,
,do_trial,363,798553,0.0-186.0-0.0,590.6,,,,50,"0,0,0",6,blank,407,null,0.205119728,0.387325584,0.516123214,0,,,,,,
,html-keyboard-response,364,799559,0.0-186.0-1.0,null,<p></p>,,null,,,,,,,,,,,,,,,,
,do_trial,365,802551,0.0-187.0-0.0,439.2,,,,50,"0,1,0",6,blank,408,null,0.25205525,0.359047829,0.415968199,1,,,,,,
,html-keyboard-response,366,803557,0.0-187.0-1.0,null,<p></p>,,null,,,,,,,,,,,,,,,,
,do_trial,367,806600,0.0-188.0-0.0,490,,,,50,"0,0,0",6,blank,409,null,0.263800746,0.374611152,0.437052395,0,,,,,,
,html-keyboard-response,368,807607,0.0-188.0-1.0,null,<p></p>,,null,,,,,,,,,,,,,,,,
,do_recog,369,810256,0.0-189.0-0.0,1137.9,,,,53,,,,410,probe-108,,,,,1,[object Object],208,5,1,
,html-keyboard-response,370,811262,0.0-189.0-1.0,null,<p></p>,,null,,,,,,,,,,,,,,,,
,do_trial,371,814610,0.0-190.0-0.0,797,,,,50,"0,0,0",6,blank,411,null,0.129572185,0.501331701,0.596850481,0,,,,,,
,html-keyboard-response,372,815616,0.0-190.0-1.0,null,<p></p>,,null,,,,,,,,,,,,,,,,
,do_trial,373,819198,0.0-191.0-0.0,1032.7,,,,50,"1,1,0",6,blank,412,null,0.123408778,0.352922707,0.592820139,1,,,,,,
,html-keyboard-response,374,820204,0.0-191.0-1.0,null,<p></p>,,null,,,,,,,,,,,,,,,,
,do_trial,375,824324,0.0-192.0-0.0,1567.1,,,,50,"0,0,0",6,blank,413,null,0.127942412,0.454196827,0.525542962,0,,,,,,
,html-keyboard-response,376,825331,0.0-192.0-1.0,null,<p></p>,,null,,,,,,,,,,,,,,,,
,do_trial,377,828181,0.0-193.0-0.0,296.7,,,,50,"1,1,1",6,blank,414,null,0.07060553,0.361988546,0.641149818,1,,,,,,
,html-keyboard-response,378,829183,0.0-193.0-1.0,null,<p></p>,,null,,,,,,,,,,,,,,,,
,do_recog,379,831873,0.0-194.0-0.0,1181.6,,,,53,,,,415,probe-197,,,,,1,[object Object],83,2,1,
,html-keyboard-response,380,832879,0.0-194.0-1.0,null,<p></p>,,null,,,,,,,,,,,,,,,,
,do_trial,381,835943,0.0-195.0-0.0,514.5,,,,50,"0,1,0",6,blank,416,null,0.129684173,0.37092656,0.520729448,1,,,,,,
,html-keyboard-response,382,836944,0.0-195.0-1.0,null,<p></p>,,null,,,,,,,,,,,,,,,,
,do_trial,383,840315,0.0-196.0-0.0,818.9,,,,50,"0,0,0",6,blank,417,null,0.102212627,0.207207539,0.612384183,0,,,,,,
,html-keyboard-response,384,841321,0.0-196.0-1.0,null,<p></p>,,null,,,,,,,,,,,,,,,,
,do_recog,385,843872,0.0-197.0-0.0,1046.9,,,,53,,,,418,probe-190,,,,,1,[object Object],163,4,1,
,html-keyboard-response,386,844877,0.0-197.0-1.0,null,<p></p>,,null,,,,,,,,,,,,,,,,
,do_trial,387,848711,0.0-198.0-0.0,1283.4,,,,50,"1,0,0",6,blank,419,null,0.200238364,0.270405214,0.551971113,0,,,,,,
,html-keyboard-response,388,849717,0.0-198.0-1.0,null,<p></p>,,null,,,,,,,,,,,,,,,,
,do_trial,389,852770,0.0-199.0-0.0,505.1,,,,50,"0,0,1",6,blank,420,null,0.126601898,0.33536987,0.50099584,0,,,,,,
,html-keyboard-response,390,853777,0.0-199.0-1.0,null,<p></p>,,null,,,,,,,,,,,,,,,,
,do_trial,391,856912,0.0-200.0-0.0,584,,,,50,"0,0,1",6,blank,421,null,0.061766697,0.363283025,0.43402968,0,,,,,,
,html-keyboard-response,392,857918,0.0-200.0-1.0,null,<p></p>,,null,,,,,,,,,,,,,,,,
,do_recog,393,860757,0.0-201.0-0.0,1326.1,,,,53,,,,422,probe-22,,,,,1,[object Object],41,1,1,
,html-keyboard-response,394,861763,0.0-201.0-1.0,null,<p></p>,,null,,,,,,,,,,,,,,,,
,do_trial,395,865314,0.0-202.0-0.0,1001,,,,50,"0,0,1",6,blank,423,null,0.07174617,0.540712679,0.609722028,0,,,,,,
,html-keyboard-response,396,866316,0.0-202.0-1.0,null,<p></p>,,null,,,,,,,,,,,,,,,,
,do_recog,397,869175,0.0-203.0-0.0,1346.5,,,,53,,,,424,probe-49,,,,,1,[object Object],121,3,1,
,html-keyboard-response,398,870182,0.0-203.0-1.0,null,<p></p>,,null,,,,,,,,,,,,,,,,
,do_trial,399,873105,0.0-204.0-0.0,369.8,,,,50,"0,0,1",6,blank,425,null,0.152201599,0.466237975,0.704922328,0,,,,,,
,html-keyboard-response,400,874111,0.0-204.0-1.0,null,<p></p>,,null,,,,,,,,,,,,,,,,
,do_trial,401,877107,0.0-205.0-0.0,446.4,,,,50,"0,0,0",6,blank,426,null,0.193613916,0.377028833,0.58833882,0,,,,,,
,html-keyboard-response,402,878114,0.0-205.0-1.0,null,<p></p>,,null,,,,,,,,,,,,,,,,
,do_trial,403,881499,0.0-206.0-0.0,832.8,,,,50,"0,1,0",6,blank,427,null,0.236359242,0.385608958,0.468896921,1,,,,,,
,html-keyboard-response,404,882505,0.0-206.0-1.0,null,<p></p>,,null,,,,,,,,,,,,,,,,
,do_trial,405,885563,0.0-207.0-0.0,508.6,,,,50,"0,0,0",6,blank,428,null,0.190003858,0.298318914,0.525946951,0,,,,,,
,html-keyboard-response,406,886569,0.0-207.0-1.0,null,<p></p>,,null,,,,,,,,,,,,,,,,
,do_trial,407,889575,0.0-208.0-0.0,452.2,,,,50,"1,0,1",6,blank,429,null,0.23479655,0.283293521,0.667814789,0,,,,,,
,html-keyboard-response,408,890581,0.0-208.0-1.0,null,<p></p>,,null,,,,,,,,,,,,,,,,
,do_recog,409,893221,0.0-209.0-0.0,1127.3,,,,53,,,,430,probe-86,,,,,1,[object Object],164,4,1,
,html-keyboard-response,410,894227,0.0-209.0-1.0,null,<p></p>,,null,,,,,,,,,,,,,,,,
,do_trial,411,898080,0.0-210.0-0.0,1299.4,,,,50,"1,1,1",6,blank,431,null,0.130913559,0.217316524,0.726283922,1,,,,,,
,html-keyboard-response,412,899087,0.0-210.0-1.0,null,<p></p>,,null,,,,,,,,,,,,,,,,
,do_recog,413,901788,0.0-211.0-0.0,1188,,,,53,,,,432,probe-114,,,,,1,[object Object],165,4,1,
,html-keyboard-response,414,902794,0.0-211.0-1.0,null,<p></p>,,null,,,,,,,,,,,,,,,,
,do_trial,415,906327,0.0-212.0-0.0,980.6,,,,50,"0,0,1",6,blank,433,null,0.102995753,0.223969318,0.691605476,0,,,,,,
,html-keyboard-response,416,907334,0.0-212.0-1.0,null,<p></p>,,null,,,,,,,,,,,,,,,,
,do_trial,417,910781,0.0-213.0-0.0,896.3,,,,50,"0,0,1",6,blank,434,null,0.096474389,0.268933619,0.712604108,0,,,,,,
,html-keyboard-response,418,911782,0.0-213.0-1.0,null,<p></p>,,null,,,,,,,,,,,,,,,,
,do_recog,419,914423,0.0-214.0-0.0,1130.3,,,,53,,,,435,probe-03,,,,,1,[object Object],161,4,1,
,html-keyboard-response,420,915428,0.0-214.0-1.0,null,<p></p>,,null,,,,,,,,,,,,,,,,
,do_trial,421,918585,0.0-215.0-0.0,603.4,,,,50,"1,0,1",6,blank,436,null,0.190287972,0.341327615,0.649136885,0,,,,,,
,html-keyboard-response,422,919587,0.0-215.0-1.0,null,<p></p>,,null,,,,,,,,,,,,,,,,
,do_trial,423,922600,0.0-216.0-0.0,465.7,,,,50,"0,0,1",6,blank,437,null,0.328692139,0.393969812,0.702398407,0,,,,,,
,html-keyboard-response,424,923605,0.0-216.0-1.0,null,<p></p>,,null,,,,,,,,,,,,,,,,
,do_trial,425,926574,0.0-217.0-0.0,416.6,,,,50,"1,0,0",6,blank,438,null,0.143622291,0.330787868,0.54292687,0,,,,,,
,html-keyboard-response,426,927580,0.0-217.0-1.0,null,<p></p>,,null,,,,,,,,,,,,,,,,
,do_trial,427,930633,0.0-218.0-0.0,504.7,,,,50,"0,1,0",6,blank,439,null,0.055879846,0.271413054,0.543031022,1,,,,,,
,html-keyboard-response,428,931640,0.0-218.0-1.0,null,<p></p>,,null,,,,,,,,,,,,,,,,
,do_trial,429,934747,0.0-219.0-0.0,557.9,,,,50,"0,1,0",6,blank,440,null,0.140854495,0.357506425,0.575485988,1,,,,,,
,html-keyboard-response,430,935750,0.0-219.0-1.0,null,<p></p>,,null,,,,,,,,,,,,,,,,
,do_trial,431,939024,0.0-220.0-0.0,719.5,,,,50,"0,0,1",6,blank,441,null,0.17644664,0.288406601,0.623951755,0,,,,,,
,html-keyboard-response,432,940030,0.0-220.0-1.0,null,<p></p>,,null,,,,,,,,,,,,,,,,
,do_recog,433,942786,0.0-221.0-0.0,1243,,,,53,,,,442,probe-24,,,,,1,[object Object],46,1,1,
,html-keyboard-response,434,943792,0.0-221.0-1.0,null,<p></p>,,null,,,,,,,,,,,,,,,,
,do_trial,435,947228,0.0-222.0-0.0,886.4,,,,50,"0,1,0",6,blank,443,null,0.138674751,0.35474955,0.577078999,1,,,,,,
,html-keyboard-response,436,948234,0.0-222.0-1.0,null,<p></p>,,null,,,,,,,,,,,,,,,,
,do_trial,437,951360,0.0-223.0-0.0,575.8,,,,50,"0,0,0",6,blank,444,null,0.099846672,0.39090915,0.565347603,0,,,,,,
,html-keyboard-response,438,952366,0.0-223.0-1.0,null,<p></p>,,null,,,,,,,,,,,,,,,,
,do_trial,439,955580,0.0-224.0-0.0,664.5,,,,50,"1,0,1",6,blank,445,null,0.247864892,0.452388539,0.389312071,0,,,,,,
,html-keyboard-response,440,956585,0.0-224.0-1.0,null,<p></p>,,null,,,,,,,,,,,,,,,,
,do_trial,441,959830,0.0-225.0-0.0,693.9,,,,50,"1,0,1",6,blank,446,null,0.232002982,0.440371633,0.529432453,0,,,,,,
,html-keyboard-response,442,960837,0.0-225.0-1.0,null,<p></p>,,null,,,,,,,,,,,,,,,,
,do_trial,443,963683,0.0-226.0-0.0,297.7,,,,50,"0,1,1",6,blank,447,null,0.157082806,0.438601015,0.705128674,1,,,,,,
,html-keyboard-response,444,964690,0.0-226.0-1.0,null,<p></p>,,null,,,,,,,,,,,,,,,,
,do_recog,445,967488,0.0-227.0-0.0,1287.8,,,,53,,,,448,probe-54,,,,,1,[object Object],204,5,1,
,html-keyboard-response,446,968494,0.0-227.0-1.0,null,<p></p>,,null,,,,,,,,,,,,,,,,
,do_trial,447,971548,0.0-228.0-0.0,504.1,,,,50,"1,0,1",6,blank,449,null,0.260886462,0.298351896,0.726718518,0,,,,,,
,html-keyboard-response,448,972554,0.0-228.0-1.0,null,<p></p>,,null,,,,,,,,,,,,,,,,
,do_recog,449,978567,0.0-229.0-0.0,null,,,,null,,,,450,probe-241,,,,,0,[object Object],null,null,0,
,html-keyboard-response,450,979573,0.0-229.0-1.0,null,<p></p>,,null,,,,,,,,,,,,,,,,
,do_trial,451,982461,0.0-230.0-0.0,333.5,,,,50,"1,1,1",6,blank,451,null,0.247377012,0.344700456,0.655622302,1,,,,,,
,html-keyboard-response,452,983464,0.0-230.0-1.0,null,<p></p>,,null,,,,,,,,,,,,,,,,
,do_recog,453,986150,0.0-231.0-0.0,1174.8,,,,53,,,,452,probe-244,,,,,0,[object Object],null,null,0,
,html-keyboard-response,454,987154,0.0-231.0-1.0,null,<p></p>,,null,,,,,,,,,,,,,,,,
,do_trial,455,991630,0.0-232.0-0.0,1923.5,,,,50,"0,0,0",6,blank,453,null,0.187505772,0.287034127,0.637615469,0,,,,,,
,html-keyboard-response,456,992637,0.0-232.0-1.0,null,<p></p>,,null,,,,,,,,,,,,,,,,
,do_trial,457,996038,0.0-233.0-0.0,847.6,,,,50,"1,0,0",6,blank,454,null,0.170996072,0.394411132,0.648416164,0,,,,,,
,html-keyboard-response,458,997042,0.0-233.0-1.0,null,<p></p>,,null,,,,,,,,,,,,,,,,
,do_trial,459,1000017,0.0-234.0-0.0,422.1,,,,50,"0,0,1",6,blank,455,null,0.217906161,0.514860944,0.67823009,0,,,,,,
,html-keyboard-response,460,1001023,0.0-234.0-1.0,null,<p></p>,,null,,,,,,,,,,,,,,,,
,do_trial,461,1003990,0.0-235.0-0.0,417.3,,,,49,"0,0,1",6,blank,456,null,0.351612307,0.499898207,0.374497861,0,,,,,,
,html-keyboard-response,462,1004996,0.0-235.0-1.0,null,<p></p>,,null,,,,,,,,,,,,,,,,
,do_trial,463,1007930,0.0-236.0-0.0,385.8,,,,50,"0,1,0",6,blank,457,null,0.320176703,0.512391885,0.34228355,1,,,,,,
,html-keyboard-response,464,1008936,0.0-236.0-1.0,null,<p></p>,,null,,,,,,,,,,,,,,,,
,do_recog,465,1011471,0.0-237.0-0.0,1026.5,,,,53,,,,458,probe-248,,,,,0,[object Object],null,null,0,
,html-keyboard-response,466,1012478,0.0-237.0-1.0,null,<p></p>,,null,,,,,,,,,,,,,,,,
,do_trial,467,1015516,0.0-238.0-0.0,486.2,,,,50,"0,1,1",6,blank,459,null,0.390011531,0.496617538,0.156638332,1,,,,,,
,html-keyboard-response,468,1016522,0.0-238.0-1.0,null,<p></p>,,null,,,,,,,,,,,,,,,,
,do_recog,469,1019131,0.0-239.0-0.0,1096.3,,,,53,,,,460,probe-239,,,,,0,[object Object],null,null,0,
,html-keyboard-response,470,1020137,0.0-239.0-1.0,null,<p></p>,,null,,,,,,,,,,,,,,,,
,do_trial,471,1023150,0.0-240.0-0.0,459.4,,,,50,"0,1,0",6,blank,461,null,0.262647617,0.65968101,0.05718786,1,,,,,,
,html-keyboard-response,472,1024156,0.0-240.0-1.0,null,<p></p>,,null,,,,,,,,,,,,,,,,
,do_trial,473,1027177,0.0-241.0-0.0,467.9,,,,50,"0,1,0",6,blank,462,null,0.354702314,0.581779348,0.073971057,1,,,,,,
,html-keyboard-response,474,1028184,0.0-241.0-1.0,null,<p></p>,,null,,,,,,,,,,,,,,,,
,do_trial,475,1031431,0.0-242.0-0.0,697,,,,50,"0,0,0",6,blank,463,null,0.203517868,0.610107004,0.057767978,0,,,,,,
,html-keyboard-response,476,1032438,0.0-242.0-1.0,null,<p></p>,,null,,,,,,,,,,,,,,,,
,do_trial,477,1035511,0.0-243.0-0.0,523.6,,,,50,"0,1,0",6,blank,464,null,0.208696731,0.437876302,0.073112758,1,,,,,,
,html-keyboard-response,478,1036517,0.0-243.0-1.0,null,<p></p>,,null,,,,,,,,,,,,,,,,
,do_trial,479,1039729,0.0-244.0-0.0,658.9,,,,50,"0,1,0",6,blank,465,null,0.29196121,0.460597235,0.133876788,1,,,,,,
,html-keyboard-response,480,1040735,0.0-244.0-1.0,null,<p></p>,,null,,,,,,,,,,,,,,,,
,do_trial,481,1043958,0.0-245.0-0.0,669.9,,,,50,"1,0,0",6,blank,466,null,0.265994804,0.521180096,0.084365352,0,,,,,,
,html-keyboard-response,482,1044963,0.0-245.0-1.0,null,<p></p>,,null,,,,,,,,,,,,,,,,
,do_recog,483,1047660,0.0-246.0-0.0,1188.7,,,,55,,,,467,probe-237,,,,,0,[object Object],null,null,1,
,html-keyboard-response,484,1048667,0.0-246.0-1.0,null,<p></p>,,null,,,,,,,,,,,,,,,,
,do_trial,485,1051758,0.0-247.0-0.0,538.8,,,,50,"0,0,0",6,blank,468,null,0.284087532,0.4213408,0.122585517,0,,,,,,
,html-keyboard-response,486,1052761,0.0-247.0-1.0,null,<p></p>,,null,,,,,,,,,,,,,,,,
,do_recog,487,1055926,0.0-248.0-0.0,1652.9,,,,55,,,,469,probe-234,,,,,0,[object Object],null,null,1,
,html-keyboard-response,488,1056932,0.0-248.0-1.0,null,<p></p>,,null,,,,,,,,,,,,,,,,
,do_trial,489,1060043,0.0-249.0-0.0,557.9,,,,50,"0,0,0",6,blank,470,null,0.267181769,0.37260389,0.086001834,0,,,,,,
,html-keyboard-response,490,1061050,0.0-249.0-1.0,null,<p></p>,,null,,,,,,,,,,,,,,,,
,do_recog,491,1063958,0.0-250.0-0.0,1398.7,,,,56,,,,471,probe-247,,,,,0,[object Object],null,null,1,
,html-keyboard-response,492,1064963,0.0-250.0-1.0,null,<p></p>,,null,,,,,,,,,,,,,,,,
,do_trial,493,1068081,0.0-251.0-0.0,565.4,,,,50,"1,1,0",6,blank,472,null,0.296195283,0.626438378,0.104812066,1,,,,,,
,html-keyboard-response,494,1069088,0.0-251.0-1.0,null,<p></p>,,null,,,,,,,,,,,,,,,,
,do_trial,495,1072537,0.0-252.0-0.0,900.1,,,,50,"0,0,0",6,blank,473,null,0.214200912,0.675225078,0.052935689,0,,,,,,
,html-keyboard-response,496,1073540,0.0-252.0-1.0,null,<p></p>,,null,,,,,,,,,,,,,,,,
,do_recog,497,1076878,0.0-253.0-0.0,1826.2,,,,53,,,,474,probe-238,,,,,0,[object Object],null,null,0,
,html-keyboard-response,498,1077883,0.0-253.0-1.0,null,<p></p>,,null,,,,,,,,,,,,,,,,
,do_trial,499,1081089,0.0-254.0-0.0,656.5,,,,50,"0,1,0",6,blank,475,null,0.256595094,0.670914101,0.097228098,1,,,,,,
,html-keyboard-response,500,1082096,0.0-254.0-1.0,null,<p></p>,,null,,,,,,,,,,,,,,,,
,do_trial,501,1085183,0.0-255.0-0.0,531.9,,,,50,"0,1,0",6,blank,476,null,0.166142506,0.644654693,0.118873721,1,,,,,,
,html-keyboard-response,502,1086188,0.0-255.0-1.0,null,<p></p>,,null,,,,,,,,,,,,,,,,
,do_trial,503,1089255,0.0-256.0-0.0,515.9,,,,50,"0,1,0",6,blank,477,null,0.134395348,0.618767238,0.054613314,1,,,,,,
,html-keyboard-response,504,1090258,0.0-256.0-1.0,null,<p></p>,,null,,,,,,,,,,,,,,,,
,do_trial,505,1093436,0.0-257.0-0.0,627.3,,,,50,"1,0,0",6,blank,478,null,0.117373696,0.519227429,0.08425539,0,,,,,,
,html-keyboard-response,506,1094438,0.0-257.0-1.0,null,<p></p>,,null,,,,,,,,,,,,,,,,
,do_recog,507,1097514,0.0-258.0-0.0,1567.8,,,,55,,,,479,probe-232,,,,,0,[object Object],null,null,1,
,html-keyboard-response,508,1098518,0.0-258.0-1.0,null,<p></p>,,null,,,,,,,,,,,,,,,,
,do_pick_best_pirate,509,1102214,0.0-259.0-0.0,2686.9,,,,50,,,,,,,,,,,,,,,
,do_pick_best_pirate,510,1106291,0.0-260.0-0.0,3066.6,,,,50,,,,,,,,,,,,,,,
,do_pick_best_pirate,511,1108789,0.0-261.0-0.0,1491.9,,,,51,,,,,,,,,,,,,,,
,do_pick_best_pirate,512,1111149,0.0-262.0-0.0,1350.4,,,,49,,,,,,,,,,,,,,,
,do_pick_best_pirate,513,1113406,0.0-263.0-0.0,1251.7,,,,51,,,,,,,,,,,,,,,
,do_pick_best_pirate,514,1116344,0.0-264.0-0.0,1930.3,,,,50,,,,,,,,,,,,,,,
,html-keyboard-response,515,1121545,0.0-265.0-0.0,5199.3,<p>You are all done with the experiment!</p><p> You made $15 plus $2 in bonus payment!</p><p>Thank you for participating. You will recieve your payment within 3 days.<p><b>[Press the space bar to end the experiment]</b></p></div>,,32,,,,,,,,,,,,,,,,