"success","trial_type","trial_index","time_elapsed","internal_node_id","interactions","blur_events","focus_events","fullscreenenter_events","fullscreenexit_events","rt","stimulus","key_press","subject_id","participant_id","age","gender","prompt","response","choice_outcomes","context_n","context_img_id","trial_n","probe_img_id","pR_red","pR_white","pR_black","outcome","is_valid","image_to_show","probed_trial","probed_context","correct","probe","probed_trial_n","probed_context_n","context_im"
"true","fullscreen","0","3522","0.0-0.0","""event"",""trial"",""time""
""fullscreenenter"",""0"",""2538""
","
","
","""event"",""trial"",""time""
""fullscreenenter"",""0"",""2538""
","
","","","","","","","","","","","","","","","","","","","","","","","","","","",""
"","pavlovia","1","3529","0.0-1.0","""event"",""trial"",""time""
""fullscreenenter"",""0"",""2538""
","
","
","""event"",""trial"",""time""
""fullscreenenter"",""0"",""2538""
","
","","","","","","","","","","","","","","","","","","","","","","","","","","",""
"","welc_back","2","13314","0.0-2.0","""event"",""trial"",""time""
""fullscreenenter"",""0"",""2538""
","
","
","""event"",""trial"",""time""
""fullscreenenter"",""0"",""2538""
","
","null","run_exp/static/audio/clip_29_welcome_back.m4a","null","420","337","25","Male","<div class='center'><p>Welcome to day 2!</p><p> Yesterday, you were the head captain of a pirate ship. You asked your fellow pirates to rob other ships of their gold across six different islands.</p></div>","","","","","","","","","","","","","","","","","","",""
"","html-keyboard-response","3","14302","0.0-3.0","""event"",""trial"",""time""
""fullscreenenter"",""0"",""2538""
""fullscreenexit"",""4"",""22823""
""blur"",""4"",""25090""
""focus"",""4"",""26337""
","""event"",""trial"",""time""
""blur"",""4"",""25090""
","""event"",""trial"",""time""
""focus"",""4"",""26337""
","""event"",""trial"",""time""
""fullscreenenter"",""0"",""2538""
","""event"",""trial"",""time""
""fullscreenexit"",""4"",""22823""
","987.1999999992549","<div class='center'><p>Welcome to day 2!</p><p> Yesterday, you were the head captain of a pirate ship. You asked your fellow pirates to rob other ships of their gold across six different islands.</p><p><b>[Press the space bar to continue]</b></p></div>","32","","","","","","","","","","","","","","","","","","","","","","","",""
"","day_1_summary_goal","4","31494","0.0-4.0","""event"",""trial"",""time""
""fullscreenenter"",""0"",""2538""
""fullscreenexit"",""4"",""22823""
""blur"",""4"",""25090""
""focus"",""4"",""26337""
","""event"",""trial"",""time""
""blur"",""4"",""25090""
","""event"",""trial"",""time""
""focus"",""4"",""26337""
","""event"",""trial"",""time""
""fullscreenenter"",""0"",""2538""
","""event"",""trial"",""time""
""fullscreenexit"",""4"",""22823""
","null","run_exp/static/audio/clip_30_goal_of_game.m4a","null","","","","","<div class='center'><p>Today, like yesterday, you get to pick which pirate you want to rob the next ship.</p><p>If the pirate is successful in robbing a ship, you get gold coins that look like this: </p><p><img src='run_exp/static/images/tutorial/reward.png' height='150'></p><p> If they were not successful in robbing the ship, then you will get no gold coins and you'll see a big red x like this: </p><p><img src='run_exp/static/images/tutorial/reward_no.png' height='150'></p></div>","","","","","","","","","","","","","","","","","","",""
"","html-keyboard-response","5","32304","0.0-5.0","""event"",""trial"",""time""
""fullscreenenter"",""0"",""2538""
""fullscreenexit"",""4"",""22823""
""blur"",""4"",""25090""
""focus"",""4"",""26337""
""blur"",""6"",""34870""
""focus"",""6"",""37086""
""blur"",""6"",""44223""
""focus"",""6"",""45874""
","""event"",""trial"",""time""
""blur"",""4"",""25090""
""blur"",""6"",""34870""
""blur"",""6"",""44223""
","""event"",""trial"",""time""
""focus"",""4"",""26337""
""focus"",""6"",""37086""
""focus"",""6"",""45874""
","""event"",""trial"",""time""
""fullscreenenter"",""0"",""2538""
","""event"",""trial"",""time""
""fullscreenexit"",""4"",""22823""
","808.3000000007451","<div class='center'><p>Today, like yesterday, you get to pick which pirate you want to rob the next ship.</p><p>If the pirate is successful in robbing a ship, you get gold coins that look like this: </p><p><img src='run_exp/static/images/tutorial/reward.png' height='150'></p><p> If they were not successful in robbing the ship, then you will get no gold coins and you'll see a big red x like this: </p><p><img src='run_exp/static/images/tutorial/reward_no.png' height='150'></p><p><b>[Press the space bar to continue]</b></p></div>","32","","","","","","","","","","","","","","","","","","","","","","","",""
"","day_1_summary_pick","6","46994","0.0-6.0","""event"",""trial"",""time""
""fullscreenenter"",""0"",""2538""
""fullscreenexit"",""4"",""22823""
""blur"",""4"",""25090""
""focus"",""4"",""26337""
""blur"",""6"",""34870""
""focus"",""6"",""37086""
""blur"",""6"",""44223""
""focus"",""6"",""45874""
","""event"",""trial"",""time""
""blur"",""4"",""25090""
""blur"",""6"",""34870""
""blur"",""6"",""44223""
","""event"",""trial"",""time""
""focus"",""4"",""26337""
""focus"",""6"",""37086""
""focus"",""6"",""45874""
","""event"",""trial"",""time""
""fullscreenenter"",""0"",""2538""
","""event"",""trial"",""time""
""fullscreenexit"",""4"",""22823""
","null","run_exp/static/audio/clip_31_how_to_pick_a_pirate.m4a","null","","","","","<div class='center'><p>Also, just like yesterday, you will use the 1,2,3 keys on your keyboard to pick a pirate. Press '1' to choose red beard, '2' to choose white beard, and '3' to choose black beard . You only have 3 seconds to pick a pirate, so please make a choice quickly!</p></div>","","","","","","","","","","","","","","","","","","",""
"","html-keyboard-response","7","47953","0.0-7.0","""event"",""trial"",""time""
""fullscreenenter"",""0"",""2538""
""fullscreenexit"",""4"",""22823""
""blur"",""4"",""25090""
""focus"",""4"",""26337""
""blur"",""6"",""34870""
""focus"",""6"",""37086""
""blur"",""6"",""44223""
""focus"",""6"",""45874""
","""event"",""trial"",""time""
""blur"",""4"",""25090""
""blur"",""6"",""34870""
""blur"",""6"",""44223""
","""event"",""trial"",""time""
""focus"",""4"",""26337""
""focus"",""6"",""37086""
""focus"",""6"",""45874""
","""event"",""trial"",""time""
""fullscreenenter"",""0"",""2538""
","""event"",""trial"",""time""
""fullscreenexit"",""4"",""22823""
","957","<div class='center'><p>Also, just like yesterday, you will use the 1,2,3 keys on your keyboard to pick a pirate. Press '1' to choose red beard, '2' to choose white beard, and '3' to choose black beard . You only have 3 seconds to pick a pirate, so please make a choice quickly!</p><p><b>[Press the space bar to continue]</b></p></div>","32","","","","","","","","","","","","","","","","","","","","","","","",""
"","test_phase_begin","8","78335","0.0-8.0","""event"",""trial"",""time""
""fullscreenenter"",""0"",""2538""
""fullscreenexit"",""4"",""22823""
""blur"",""4"",""25090""
""focus"",""4"",""26337""
""blur"",""6"",""34870""
""focus"",""6"",""37086""
""blur"",""6"",""44223""
""focus"",""6"",""45874""
","""event"",""trial"",""time""
""blur"",""4"",""25090""
""blur"",""6"",""34870""
""blur"",""6"",""44223""
","""event"",""trial"",""time""
""focus"",""4"",""26337""
""focus"",""6"",""37086""
""focus"",""6"",""45874""
","""event"",""trial"",""time""
""fullscreenenter"",""0"",""2538""
","""event"",""trial"",""time""
""fullscreenexit"",""4"",""22823""
","null","run_exp/static/audio/clip_32_final_place.m4a","null","","","","","<div class='center'><p>You’ve arrived at the final island of your journey! Unfortunately, it’s very foggy out, so you won’t be able to see it in the distance like the other islands you've visited.</p><p>You’ll still be deciding which pirate you want to rob a ship like before. However, because of the fog, you also won’t be able to see the ship.</p><p>This means you do not have to remember the ships you rob on this island.</p><p>Unlike yesterday, you won't be visiting multiple islands today. You will stay on this island for the entire game. This game will last ~30 minutes.</p></div>","","","","","","","","","","","","","","","","","","",""
"","html-keyboard-response","9","78800","0.0-9.0","""event"",""trial"",""time""
""fullscreenenter"",""0"",""2538""
""fullscreenexit"",""4"",""22823""
""blur"",""4"",""25090""
""focus"",""4"",""26337""
""blur"",""6"",""34870""
""focus"",""6"",""37086""
""blur"",""6"",""44223""
""focus"",""6"",""45874""
","""event"",""trial"",""time""
""blur"",""4"",""25090""
""blur"",""6"",""34870""
""blur"",""6"",""44223""
","""event"",""trial"",""time""
""focus"",""4"",""26337""
""focus"",""6"",""37086""
""focus"",""6"",""45874""
","""event"",""trial"",""time""
""fullscreenenter"",""0"",""2538""
","""event"",""trial"",""time""
""fullscreenexit"",""4"",""22823""
","463.5","<div class='center'><p>You’ve arrived at the final island of your journey! Unfortunately, it’s very foggy out, so you won’t be able to see it in the distance like the other islands you've visited.</p><p>You’ll still be deciding which pirate you want to rob a ship like before. However, because of the fog, you also won’t be able to see the ship.</p><p>This means you do not have to remember the ships you rob on this island.</p><p>Unlike yesterday, you won't be visiting multiple islands today. You will stay on this island for the entire game. This game will last ~30 minutes.</p><p><b>[Press the space bar to continue]</b></p></div>","32","","","","","","","","","","","","","","","","","","","","","","","",""
"","explain_probe_1","10","86515","0.0-10.0","""event"",""trial"",""time""
""fullscreenenter"",""0"",""2538""
""fullscreenexit"",""4"",""22823""
""blur"",""4"",""25090""
""focus"",""4"",""26337""
""blur"",""6"",""34870""
""focus"",""6"",""37086""
""blur"",""6"",""44223""
""focus"",""6"",""45874""
","""event"",""trial"",""time""
""blur"",""4"",""25090""
""blur"",""6"",""34870""
""blur"",""6"",""44223""
","""event"",""trial"",""time""
""focus"",""4"",""26337""
""focus"",""6"",""37086""
""focus"",""6"",""45874""
","""event"",""trial"",""time""
""fullscreenenter"",""0"",""2538""
","""event"",""trial"",""time""
""fullscreenexit"",""4"",""22823""
","null","run_exp/static/audio/clip_33_recognition_1.m4a","null","","","","","<div class='center'><p> Sometimes you’ll be shown a ship, and you will be asked if you saw this ship on a past island.</p><p> Here is an example of what you will see.</p><p><img src='run_exp/static/images/tutorial/example_recog_trial.png' height='500'></p></div>","","","","","","","","","","","","","","","","","","",""
"","html-keyboard-response","11","89167","0.0-11.0","""event"",""trial"",""time""
""fullscreenenter"",""0"",""2538""
""fullscreenexit"",""4"",""22823""
""blur"",""4"",""25090""
""focus"",""4"",""26337""
""blur"",""6"",""34870""
""focus"",""6"",""37086""
""blur"",""6"",""44223""
""focus"",""6"",""45874""
","""event"",""trial"",""time""
""blur"",""4"",""25090""
""blur"",""6"",""34870""
""blur"",""6"",""44223""
","""event"",""trial"",""time""
""focus"",""4"",""26337""
""focus"",""6"",""37086""
""focus"",""6"",""45874""
","""event"",""trial"",""time""
""fullscreenenter"",""0"",""2538""
","""event"",""trial"",""time""
""fullscreenexit"",""4"",""22823""
","2650.099999997765","<div class='center'><p> Sometimes you’ll be shown a ship, and you will be asked if you saw this ship on a past island.</p><p> Here is an example of what you will see.</p><p><img src='run_exp/static/images/tutorial/example_recog_trial.png' height='500'></p><p><b>[Press the space bar to continue]</b></p></div>","32","","","","","","","","","","","","","","","","","","","","","","","",""
"","explain_probe_2","12","110874","0.0-12.0","""event"",""trial"",""time""
""fullscreenenter"",""0"",""2538""
""fullscreenexit"",""4"",""22823""
""blur"",""4"",""25090""
""focus"",""4"",""26337""
""blur"",""6"",""34870""
""focus"",""6"",""37086""
""blur"",""6"",""44223""
""focus"",""6"",""45874""
","""event"",""trial"",""time""
""blur"",""4"",""25090""
""blur"",""6"",""34870""
""blur"",""6"",""44223""
","""event"",""trial"",""time""
""focus"",""4"",""26337""
""focus"",""6"",""37086""
""focus"",""6"",""45874""
","""event"",""trial"",""time""
""fullscreenenter"",""0"",""2538""
","""event"",""trial"",""time""
""fullscreenexit"",""4"",""22823""
","null","run_exp/static/audio/clip_34_recognition_2.m4a","null","","","","","<div class='center'><p> You will press the 5, 6, 7, 8 keys on your keyboard to respond.</p><p>If you are sure you saw the ship, press <b>5</b> on your keyboard.</p><p> If you think you saw it before but aren't sure, then press <b>6</b>.</p><p> If you think you have <b>not</b> seen it before but aren't sure, then press <b>7</b>.</p><p> If you are sure you did <b>not</b> see the ship before, then press <b>8</b>.</p><p><img src='run_exp/static/images/tutorial/example_recog_trial.png' height='500'></p></div>","","","","","","","","","","","","","","","","","","",""
"","html-keyboard-response","13","112112","0.0-13.0","""event"",""trial"",""time""
""fullscreenenter"",""0"",""2538""
""fullscreenexit"",""4"",""22823""
""blur"",""4"",""25090""
""focus"",""4"",""26337""
""blur"",""6"",""34870""
""focus"",""6"",""37086""
""blur"",""6"",""44223""
""focus"",""6"",""45874""
","""event"",""trial"",""time""
""blur"",""4"",""25090""
""blur"",""6"",""34870""
""blur"",""6"",""44223""
","""event"",""trial"",""time""
""focus"",""4"",""26337""
""focus"",""6"",""37086""
""focus"",""6"",""45874""
","""event"",""trial"",""time""
""fullscreenenter"",""0"",""2538""
","""event"",""trial"",""time""
""fullscreenexit"",""4"",""22823""
","1236.5","<div class='center'><p> You will press the 5, 6, 7, 8 keys on your keyboard to respond.</p><p>If you are sure you saw the ship, press <b>5</b> on your keyboard.</p><p> If you think you saw it before but aren't sure, then press <b>6</b>.</p><p> If you think you have <b>not</b> seen it before but aren't sure, then press <b>7</b>.</p><p> If you are sure you did <b>not</b> see the ship before, then press <b>8</b>.</p><p><img src='run_exp/static/images/tutorial/example_recog_trial.png' height='500'></p><p><b>[Press the space bar to continue]</b></p></div>","32","","","","","","","","","","","","","","","","","","","","","","","",""
"","explain_outcome","14","129295","0.0-14.0","""event"",""trial"",""time""
""fullscreenenter"",""0"",""2538""
""fullscreenexit"",""4"",""22823""
""blur"",""4"",""25090""
""focus"",""4"",""26337""
""blur"",""6"",""34870""
""focus"",""6"",""37086""
""blur"",""6"",""44223""
""focus"",""6"",""45874""
","""event"",""trial"",""time""
""blur"",""4"",""25090""
""blur"",""6"",""34870""
""blur"",""6"",""44223""
","""event"",""trial"",""time""
""focus"",""4"",""26337""
""focus"",""6"",""37086""
""focus"",""6"",""45874""
","""event"",""trial"",""time""
""fullscreenenter"",""0"",""2538""
","""event"",""trial"",""time""
""fullscreenexit"",""4"",""22823""
","null","run_exp/static/audio/clip_35_recognition_3.m4a","null","","","","","<div class='center'><p> If you remember correctly, then you’ll get a gold coin like this: </p><p><img src='run_exp/static/images/tutorial/reward_small.png' height='200'></p><p>If you do not remember correctly, then you'll see a red x like this: </p><p><img src='run_exp/static/images/tutorial/reward_no.png' height='200'></p><p>Importantly, when you are shown a ship, take the time to remind yourself which island you saw it on. This will help you in the next part of the study.</p></div>","","","","","","","","","","","","","","","","","","",""
"","html-keyboard-response","15","132947","0.0-15.0","""event"",""trial"",""time""
""fullscreenenter"",""0"",""2538""
""fullscreenexit"",""4"",""22823""
""blur"",""4"",""25090""
""focus"",""4"",""26337""
""blur"",""6"",""34870""
""focus"",""6"",""37086""
""blur"",""6"",""44223""
""focus"",""6"",""45874""
","""event"",""trial"",""time""
""blur"",""4"",""25090""
""blur"",""6"",""34870""
""blur"",""6"",""44223""
","""event"",""trial"",""time""
""focus"",""4"",""26337""
""focus"",""6"",""37086""
""focus"",""6"",""45874""
","""event"",""trial"",""time""
""fullscreenenter"",""0"",""2538""
","""event"",""trial"",""time""
""fullscreenexit"",""4"",""22823""
","3650.400000002235","<div class='center'><p> If you remember correctly, then you’ll get a gold coin like this: </p><p><img src='run_exp/static/images/tutorial/reward_small.png' height='200'></p><p>If you do not remember correctly, then you'll see a red x like this: </p><p><img src='run_exp/static/images/tutorial/reward_no.png' height='200'></p><p>Importantly, when you are shown a ship, take the time to remind yourself which island you saw it on. This will help you in the next part of the study.</p><p><b>[Press the space bar to continue]</b></p></div>","32","","","","","","","","","","","","","","","","","","","","","","","",""
"","begin_test_phase","16","148755","0.0-16.0","""event"",""trial"",""time""
""fullscreenenter"",""0"",""2538""
""fullscreenexit"",""4"",""22823""
""blur"",""4"",""25090""
""focus"",""4"",""26337""
""blur"",""6"",""34870""
""focus"",""6"",""37086""
""blur"",""6"",""44223""
""focus"",""6"",""45874""
","""event"",""trial"",""time""
""blur"",""4"",""25090""
""blur"",""6"",""34870""
""blur"",""6"",""44223""
","""event"",""trial"",""time""
""focus"",""4"",""26337""
""focus"",""6"",""37086""
""focus"",""6"",""45874""
","""event"",""trial"",""time""
""fullscreenenter"",""0"",""2538""
","""event"",""trial"",""time""
""fullscreenexit"",""4"",""22823""
","null","run_exp/static/audio/clip_36_begin_final.m4a","null","","","","","<div class='center'><p>Let's go over the important points again. Your job is to: </p><p>1. Pick the pirate who is best at robbing ships and will bring you back gold coins. </p><p>2. Correctly remember whether or not you saw a ship before. If you did see the ship before, remind yourself on which island you saw it. </p></div>","","","","","","","","","","","","","","","","","","",""
"","html-keyboard-response","17","150315","0.0-17.0","""event"",""trial"",""time""
""fullscreenenter"",""0"",""2538""
""fullscreenexit"",""4"",""22823""
""blur"",""4"",""25090""
""focus"",""4"",""26337""
""blur"",""6"",""34870""
""focus"",""6"",""37086""
""blur"",""6"",""44223""
""focus"",""6"",""45874""
","""event"",""trial"",""time""
""blur"",""4"",""25090""
""blur"",""6"",""34870""
""blur"",""6"",""44223""
","""event"",""trial"",""time""
""focus"",""4"",""26337""
""focus"",""6"",""37086""
""focus"",""6"",""45874""
","""event"",""trial"",""time""
""fullscreenenter"",""0"",""2538""
","""event"",""trial"",""time""
""fullscreenexit"",""4"",""22823""
","1526.300000000745","<div class='center'><p>Let's go over the important points again. Your job is to: </p><p>1. Pick the pirate who is best at robbing ships and will bring you back gold coins. </p><p>2. Correctly remember whether or not you saw a ship before. If you did see the ship before, remind yourself on which island you saw it. </p><p><b>[Press the space bar to continue]</b></p></div>","32","","","","","","","","","","","","","","","","","","","","","","","",""
"","do_welcome","18","154324","0.0-18.0","""event"",""trial"",""time""
""fullscreenenter"",""0"",""2538""
""fullscreenexit"",""4"",""22823""
""blur"",""4"",""25090""
""focus"",""4"",""26337""
""blur"",""6"",""34870""
""focus"",""6"",""37086""
""blur"",""6"",""44223""
""focus"",""6"",""45874""
","""event"",""trial"",""time""
""blur"",""4"",""25090""
""blur"",""6"",""34870""
""blur"",""6"",""44223""
","""event"",""trial"",""time""
""focus"",""4"",""26337""
""focus"",""6"",""37086""
""focus"",""6"",""45874""
","""event"",""trial"",""time""
""fullscreenenter"",""0"",""2538""
","""event"",""trial"",""time""
""fullscreenexit"",""4"",""22823""
","null","","","","","","","","null","","","","","","","","","","","","","","","","","",""
"","do_trial","19","160385","0.0-19.0-0.0","""event"",""trial"",""time""
""fullscreenenter"",""0"",""2538""
""fullscreenexit"",""4"",""22823""
""blur"",""4"",""25090""
""focus"",""4"",""26337""
""blur"",""6"",""34870""
""focus"",""6"",""37086""
""blur"",""6"",""44223""
""focus"",""6"",""45874""
","""event"",""trial"",""time""
""blur"",""4"",""25090""
""blur"",""6"",""34870""
""blur"",""6"",""44223""
","""event"",""trial"",""time""
""focus"",""4"",""26337""
""focus"",""6"",""37086""
""focus"",""6"",""45874""
","""event"",""trial"",""time""
""fullscreenenter"",""0"",""2538""
","""event"",""trial"",""time""
""fullscreenexit"",""4"",""22823""
","null","","","","","","","","null","1,0,1","6","blank","230","null","0.32525918621211375","0.06844226325956852","0.5527453206180781","","","","","","","","","",""
"","html-keyboard-response","20","161394","0.0-19.0-1.0","""event"",""trial"",""time""
""fullscreenenter"",""0"",""2538""
""fullscreenexit"",""4"",""22823""
""blur"",""4"",""25090""
""focus"",""4"",""26337""
""blur"",""6"",""34870""
""focus"",""6"",""37086""
""blur"",""6"",""44223""
""focus"",""6"",""45874""
","""event"",""trial"",""time""
""blur"",""4"",""25090""
""blur"",""6"",""34870""
""blur"",""6"",""44223""
","""event"",""trial"",""time""
""focus"",""4"",""26337""
""focus"",""6"",""37086""
""focus"",""6"",""45874""
","""event"",""trial"",""time""
""fullscreenenter"",""0"",""2538""
","""event"",""trial"",""time""
""fullscreenexit"",""4"",""22823""
","null","<p></p>","null","","","","","","","","","","","","","","","","","","","","","","","",""
"","do_trial","21","164395","0.0-20.0-0.0","""event"",""trial"",""time""
""fullscreenenter"",""0"",""2538""
""fullscreenexit"",""4"",""22823""
""blur"",""4"",""25090""
""focus"",""4"",""26337""
""blur"",""6"",""34870""
""focus"",""6"",""37086""
""blur"",""6"",""44223""
""focus"",""6"",""45874""
","""event"",""trial"",""time""
""blur"",""4"",""25090""
""blur"",""6"",""34870""
""blur"",""6"",""44223""
","""event"",""trial"",""time""
""focus"",""4"",""26337""
""focus"",""6"",""37086""
""focus"",""6"",""45874""
","""event"",""trial"",""time""
""fullscreenenter"",""0"",""2538""
","""event"",""trial"",""time""
""fullscreenexit"",""4"",""22823""
","463.30000000074506","","","","","","","","49","0,0,1","6","blank","231","null","0.3389198476906797","0.25040799894169213","0.48210702810436395","0","","","","","","","","",""
"","html-keyboard-response","22","165408","0.0-20.0-1.0","""event"",""trial"",""time""
""fullscreenenter"",""0"",""2538""
""fullscreenexit"",""4"",""22823""
""blur"",""4"",""25090""
""focus"",""4"",""26337""
""blur"",""6"",""34870""
""focus"",""6"",""37086""
""blur"",""6"",""44223""
""focus"",""6"",""45874""
","""event"",""trial"",""time""
""blur"",""4"",""25090""
""blur"",""6"",""34870""
""blur"",""6"",""44223""
","""event"",""trial"",""time""
""focus"",""4"",""26337""
""focus"",""6"",""37086""
""focus"",""6"",""45874""
","""event"",""trial"",""time""
""fullscreenenter"",""0"",""2538""
","""event"",""trial"",""time""
""fullscreenexit"",""4"",""22823""
","null","<p></p>","null","","","","","","","","","","","","","","","","","","","","","","","",""
"","do_trial","23","168576","0.0-21.0-0.0","""event"",""trial"",""time""
""fullscreenenter"",""0"",""2538""
""fullscreenexit"",""4"",""22823""
""blur"",""4"",""25090""
""focus"",""4"",""26337""
""blur"",""6"",""34870""
""focus"",""6"",""37086""
""blur"",""6"",""44223""
""focus"",""6"",""45874""
","""event"",""trial"",""time""
""blur"",""4"",""25090""
""blur"",""6"",""34870""
""blur"",""6"",""44223""
","""event"",""trial"",""time""
""focus"",""4"",""26337""
""focus"",""6"",""37086""
""focus"",""6"",""45874""
","""event"",""trial"",""time""
""fullscreenenter"",""0"",""2538""
","""event"",""trial"",""time""
""fullscreenexit"",""4"",""22823""
","630.6999999992549","","","","","","","","50","0,0,1","6","blank","232","null","0.19266846965164136","0.14637879382735228","0.6547643378995136","0","","","","","","","","",""
"","html-keyboard-response","24","169591","0.0-21.0-1.0","""event"",""trial"",""time""
""fullscreenenter"",""0"",""2538""
""fullscreenexit"",""4"",""22823""
""blur"",""4"",""25090""
""focus"",""4"",""26337""
""blur"",""6"",""34870""
""focus"",""6"",""37086""
""blur"",""6"",""44223""
""focus"",""6"",""45874""
","""event"",""trial"",""time""
""blur"",""4"",""25090""
""blur"",""6"",""34870""
""blur"",""6"",""44223""
","""event"",""trial"",""time""
""focus"",""4"",""26337""
""focus"",""6"",""37086""
""focus"",""6"",""45874""
","""event"",""trial"",""time""
""fullscreenenter"",""0"",""2538""
","""event"",""trial"",""time""
""fullscreenexit"",""4"",""22823""
","null","<p></p>","null","","","","","","","","","","","","","","","","","","","","","","","",""
"","do_trial","25","172444","0.0-22.0-0.0","""event"",""trial"",""time""
""fullscreenenter"",""0"",""2538""
""fullscreenexit"",""4"",""22823""
""blur"",""4"",""25090""
""focus"",""4"",""26337""
""blur"",""6"",""34870""
""focus"",""6"",""37086""
""blur"",""6"",""44223""
""focus"",""6"",""45874""
","""event"",""trial"",""time""
""blur"",""4"",""25090""
""blur"",""6"",""34870""
""blur"",""6"",""44223""
","""event"",""trial"",""time""
""focus"",""4"",""26337""
""focus"",""6"",""37086""
""focus"",""6"",""45874""
","""event"",""trial"",""time""
""fullscreenenter"",""0"",""2538""
","""event"",""trial"",""time""
""fullscreenexit"",""4"",""22823""
","318.79999999701977","","","","","","","","50","0,0,1","6","blank","233","null","0.24431948451189237","0.13284501533225526","0.6879453584065773","0","","","","","","","","",""
"","html-keyboard-response","26","173461","0.0-22.0-1.0","""event"",""trial"",""time""
""fullscreenenter"",""0"",""2538""
""fullscreenexit"",""4"",""22823""
""blur"",""4"",""25090""
""focus"",""4"",""26337""
""blur"",""6"",""34870""
""focus"",""6"",""37086""
""blur"",""6"",""44223""
""focus"",""6"",""45874""
","""event"",""trial"",""time""
""blur"",""4"",""25090""
""blur"",""6"",""34870""
""blur"",""6"",""44223""
","""event"",""trial"",""time""
""focus"",""4"",""26337""
""focus"",""6"",""37086""
""focus"",""6"",""45874""
","""event"",""trial"",""time""
""fullscreenenter"",""0"",""2538""
","""event"",""trial"",""time""
""fullscreenexit"",""4"",""22823""
","null","<p></p>","null","","","","","","","","","","","","","","","","","","","","","","","",""
"","do_trial","27","176517","0.0-23.0-0.0","""event"",""trial"",""time""
""fullscreenenter"",""0"",""2538""
""fullscreenexit"",""4"",""22823""
""blur"",""4"",""25090""
""focus"",""4"",""26337""
""blur"",""6"",""34870""
""focus"",""6"",""37086""
""blur"",""6"",""44223""
""focus"",""6"",""45874""
","""event"",""trial"",""time""
""blur"",""4"",""25090""
""blur"",""6"",""34870""
""blur"",""6"",""44223""
","""event"",""trial"",""time""
""focus"",""4"",""26337""
""focus"",""6"",""37086""
""focus"",""6"",""45874""
","""event"",""trial"",""time""
""fullscreenenter"",""0"",""2538""
","""event"",""trial"",""time""
""fullscreenexit"",""4"",""22823""
","517.1999999992549","","","","","","","","50","1,0,1","6","blank","234","null","0.2912468266883533","0.2426786016147161","0.6570018289325925","0","","","","","","","","",""
"","html-keyboard-response","28","177528","0.0-23.0-1.0","""event"",""trial"",""time""
""fullscreenenter"",""0"",""2538""
""fullscreenexit"",""4"",""22823""
""blur"",""4"",""25090""
""focus"",""4"",""26337""
""blur"",""6"",""34870""
""focus"",""6"",""37086""
""blur"",""6"",""44223""
""focus"",""6"",""45874""
","""event"",""trial"",""time""
""blur"",""4"",""25090""
""blur"",""6"",""34870""
""blur"",""6"",""44223""
","""event"",""trial"",""time""
""focus"",""4"",""26337""
""focus"",""6"",""37086""
""focus"",""6"",""45874""
","""event"",""trial"",""time""
""fullscreenenter"",""0"",""2538""
","""event"",""trial"",""time""
""fullscreenexit"",""4"",""22823""
","null","<p></p>","null","","","","","","","","","","","","","","","","","","","","","","","",""
"","do_trial","29","180522","0.0-24.0-0.0","""event"",""trial"",""time""
""fullscreenenter"",""0"",""2538""
""fullscreenexit"",""4"",""22823""
""blur"",""4"",""25090""
""focus"",""4"",""26337""
""blur"",""6"",""34870""
""focus"",""6"",""37086""
""blur"",""6"",""44223""
""focus"",""6"",""45874""
","""event"",""trial"",""time""
""blur"",""4"",""25090""
""blur"",""6"",""34870""
""blur"",""6"",""44223""
","""event"",""trial"",""time""
""focus"",""4"",""26337""
""focus"",""6"",""37086""
""focus"",""6"",""45874""
","""event"",""trial"",""time""
""fullscreenenter"",""0"",""2538""
","""event"",""trial"",""time""
""fullscreenexit"",""4"",""22823""
","448.9000000022352","","","","","","","","51","1,0,0","6","blank","235","null","0.2412935120143591","0.14197068933228088","0.6070178232309412","0","","","","","","","","",""
"","html-keyboard-response","30","181539","0.0-24.0-1.0","""event"",""trial"",""time""
""fullscreenenter"",""0"",""2538""
""fullscreenexit"",""4"",""22823""
""blur"",""4"",""25090""
""focus"",""4"",""26337""
""blur"",""6"",""34870""
""focus"",""6"",""37086""
""blur"",""6"",""44223""
""focus"",""6"",""45874""
","""event"",""trial"",""time""
""blur"",""4"",""25090""
""blur"",""6"",""34870""
""blur"",""6"",""44223""
","""event"",""trial"",""time""
""focus"",""4"",""26337""
""focus"",""6"",""37086""
""focus"",""6"",""45874""
","""event"",""trial"",""time""
""fullscreenenter"",""0"",""2538""
","""event"",""trial"",""time""
""fullscreenexit"",""4"",""22823""
","null","<p></p>","null","","","","","","","","","","","","","","","","","","","","","","","",""
"","do_trial","31","184190","0.0-25.0-0.0","""event"",""trial"",""time""
""fullscreenenter"",""0"",""2538""
""fullscreenexit"",""4"",""22823""
""blur"",""4"",""25090""
""focus"",""4"",""26337""
""blur"",""6"",""34870""
""focus"",""6"",""37086""
""blur"",""6"",""44223""
""focus"",""6"",""45874""
","""event"",""trial"",""time""
""blur"",""4"",""25090""
""blur"",""6"",""34870""
""blur"",""6"",""44223""
","""event"",""trial"",""time""
""focus"",""4"",""26337""
""focus"",""6"",""37086""
""focus"",""6"",""45874""
","""event"",""trial"",""time""
""fullscreenenter"",""0"",""2538""
","""event"",""trial"",""time""
""fullscreenexit"",""4"",""22823""
","98.19999999925494","","","","","","","","51","1,0,1","6","blank","236","null","0.3769279946702209","0.10728908770443336","0.5888631007160878","1","","","","","","","","",""
"","html-keyboard-response","32","185205","0.0-25.0-1.0","""event"",""trial"",""time""
""fullscreenenter"",""0"",""2538""
""fullscreenexit"",""4"",""22823""
""blur"",""4"",""25090""
""focus"",""4"",""26337""
""blur"",""6"",""34870""
""focus"",""6"",""37086""
""blur"",""6"",""44223""
""focus"",""6"",""45874""
""blur"",""33"",""185621""
""focus"",""33"",""187682""
","""event"",""trial"",""time""
""blur"",""4"",""25090""
""blur"",""6"",""34870""
""blur"",""6"",""44223""
""blur"",""33"",""185621""
","""event"",""trial"",""time""
""focus"",""4"",""26337""
""focus"",""6"",""37086""
""focus"",""6"",""45874""
""focus"",""33"",""187682""
","""event"",""trial"",""time""
""fullscreenenter"",""0"",""2538""
","""event"",""trial"",""time""
""fullscreenexit"",""4"",""22823""
","null","<p></p>","null","","","","","","","","","","","","","","","","","","","","","","","",""
"","do_trial","33","190450","0.0-26.0-0.0","""event"",""trial"",""time""
""fullscreenenter"",""0"",""2538""
""fullscreenexit"",""4"",""22823""
""blur"",""4"",""25090""
""focus"",""4"",""26337""
""blur"",""6"",""34870""
""focus"",""6"",""37086""
""blur"",""6"",""44223""
""focus"",""6"",""45874""
""blur"",""33"",""185621""
""focus"",""33"",""187682""
","""event"",""trial"",""time""
""blur"",""4"",""25090""
""blur"",""6"",""34870""
""blur"",""6"",""44223""
""blur"",""33"",""185621""
","""event"",""trial"",""time""
""focus"",""4"",""26337""
""focus"",""6"",""37086""
""focus"",""6"",""45874""
""focus"",""33"",""187682""
","""event"",""trial"",""time""
""fullscreenenter"",""0"",""2538""
","""event"",""trial"",""time""
""fullscreenexit"",""4"",""22823""
","2708.400000002235","","","","","","","","51","0,0,0","6","blank","237","null","0.46289536543387405","0.09537310164281206","0.6282273611127781","0","","","","","","","","",""
"","html-keyboard-response","34","191460","0.0-26.0-1.0","""event"",""trial"",""time""
""fullscreenenter"",""0"",""2538""
""fullscreenexit"",""4"",""22823""
""blur"",""4"",""25090""
""focus"",""4"",""26337""
""blur"",""6"",""34870""
""focus"",""6"",""37086""
""blur"",""6"",""44223""
""focus"",""6"",""45874""
""blur"",""33"",""185621""
""focus"",""33"",""187682""
","""event"",""trial"",""time""
""blur"",""4"",""25090""
""blur"",""6"",""34870""
""blur"",""6"",""44223""
""blur"",""33"",""185621""
","""event"",""trial"",""time""
""focus"",""4"",""26337""
""focus"",""6"",""37086""
""focus"",""6"",""45874""
""focus"",""33"",""187682""
","""event"",""trial"",""time""
""fullscreenenter"",""0"",""2538""
","""event"",""trial"",""time""
""fullscreenexit"",""4"",""22823""
","null","<p></p>","null","","","","","","","","","","","","","","","","","","","","","","","",""
"","do_trial","35","194221","0.0-27.0-0.0","""event"",""trial"",""time""
""fullscreenenter"",""0"",""2538""
""fullscreenexit"",""4"",""22823""
""blur"",""4"",""25090""
""focus"",""4"",""26337""
""blur"",""6"",""34870""
""focus"",""6"",""37086""
""blur"",""6"",""44223""
""focus"",""6"",""45874""
""blur"",""33"",""185621""
""focus"",""33"",""187682""
","""event"",""trial"",""time""
""blur"",""4"",""25090""
""blur"",""6"",""34870""
""blur"",""6"",""44223""
""blur"",""33"",""185621""
","""event"",""trial"",""time""
""focus"",""4"",""26337""
""focus"",""6"",""37086""
""focus"",""6"",""45874""
""focus"",""33"",""187682""
","""event"",""trial"",""time""
""fullscreenenter"",""0"",""2538""
","""event"",""trial"",""time""
""fullscreenexit"",""4"",""22823""
","228.59999999776483","","","","","","","","50","1,0,0","6","blank","238","null","0.4431248772807823","0.06338308931768649","0.48825145494637634","0","","","","","","","","",""
"","html-keyboard-response","36","195231","0.0-27.0-1.0","""event"",""trial"",""time""
""fullscreenenter"",""0"",""2538""
""fullscreenexit"",""4"",""22823""
""blur"",""4"",""25090""
""focus"",""4"",""26337""
""blur"",""6"",""34870""
""focus"",""6"",""37086""
""blur"",""6"",""44223""
""focus"",""6"",""45874""
""blur"",""33"",""185621""
""focus"",""33"",""187682""
","""event"",""trial"",""time""
""blur"",""4"",""25090""
""blur"",""6"",""34870""
""blur"",""6"",""44223""
""blur"",""33"",""185621""
","""event"",""trial"",""time""
""focus"",""4"",""26337""
""focus"",""6"",""37086""
""focus"",""6"",""45874""
""focus"",""33"",""187682""
","""event"",""trial"",""time""
""fullscreenenter"",""0"",""2538""
","""event"",""trial"",""time""
""fullscreenexit"",""4"",""22823""
","null","<p></p>","null","","","","","","","","","","","","","","","","","","","","","","","",""
"","do_trial","37","198407","0.0-28.0-0.0","""event"",""trial"",""time""
""fullscreenenter"",""0"",""2538""
""fullscreenexit"",""4"",""22823""
""blur"",""4"",""25090""
""focus"",""4"",""26337""
""blur"",""6"",""34870""
""focus"",""6"",""37086""
""blur"",""6"",""44223""
""focus"",""6"",""45874""
""blur"",""33"",""185621""
""focus"",""33"",""187682""
","""event"",""trial"",""time""
""blur"",""4"",""25090""
""blur"",""6"",""34870""
""blur"",""6"",""44223""
""blur"",""33"",""185621""
","""event"",""trial"",""time""
""focus"",""4"",""26337""
""focus"",""6"",""37086""
""focus"",""6"",""45874""
""focus"",""33"",""187682""
","""event"",""trial"",""time""
""fullscreenenter"",""0"",""2538""
","""event"",""trial"",""time""
""fullscreenexit"",""4"",""22823""
","634.5999999977648","","","","","","","","50","0,0,0","6","blank","239","null","0.4041022503150574","0.1640224757918174","0.5149702049558758","0","","","","","","","","",""
"","html-keyboard-response","38","199418","0.0-28.0-1.0","""event"",""trial"",""time""
""fullscreenenter"",""0"",""2538""
""fullscreenexit"",""4"",""22823""
""blur"",""4"",""25090""
""focus"",""4"",""26337""
""blur"",""6"",""34870""
""focus"",""6"",""37086""
""blur"",""6"",""44223""
""focus"",""6"",""45874""
""blur"",""33"",""185621""
""focus"",""33"",""187682""
","""event"",""trial"",""time""
""blur"",""4"",""25090""
""blur"",""6"",""34870""
""blur"",""6"",""44223""
""blur"",""33"",""185621""
","""event"",""trial"",""time""
""focus"",""4"",""26337""
""focus"",""6"",""37086""
""focus"",""6"",""45874""
""focus"",""33"",""187682""
","""event"",""trial"",""time""
""fullscreenenter"",""0"",""2538""
","""event"",""trial"",""time""
""fullscreenexit"",""4"",""22823""
","null","<p></p>","null","","","","","","","","","","","","","","","","","","","","","","","",""
"","do_trial","39","203310","0.0-29.0-0.0","""event"",""trial"",""time""
""fullscreenenter"",""0"",""2538""
""fullscreenexit"",""4"",""22823""
""blur"",""4"",""25090""
""focus"",""4"",""26337""
""blur"",""6"",""34870""
""focus"",""6"",""37086""
""blur"",""6"",""44223""
""focus"",""6"",""45874""
""blur"",""33"",""185621""
""focus"",""33"",""187682""
","""event"",""trial"",""time""
""blur"",""4"",""25090""
""blur"",""6"",""34870""
""blur"",""6"",""44223""
""blur"",""33"",""185621""
","""event"",""trial"",""time""
""focus"",""4"",""26337""
""focus"",""6"",""37086""
""focus"",""6"",""45874""
""focus"",""33"",""187682""
","""event"",""trial"",""time""
""fullscreenenter"",""0"",""2538""
","""event"",""trial"",""time""
""fullscreenexit"",""4"",""22823""
","1338.300000000745","","","","","","","","50","1,1,0","6","blank","240","null","0.4854463108345336","0.1592872362261722","0.5980360985307724","1","","","","","","","","",""
"","html-keyboard-response","40","204318","0.0-29.0-1.0","""event"",""trial"",""time""
""fullscreenenter"",""0"",""2538""
""fullscreenexit"",""4"",""22823""
""blur"",""4"",""25090""
""focus"",""4"",""26337""
""blur"",""6"",""34870""
""focus"",""6"",""37086""
""blur"",""6"",""44223""
""focus"",""6"",""45874""
""blur"",""33"",""185621""
""focus"",""33"",""187682""
","""event"",""trial"",""time""
""blur"",""4"",""25090""
""blur"",""6"",""34870""
""blur"",""6"",""44223""
""blur"",""33"",""185621""
","""event"",""trial"",""time""
""focus"",""4"",""26337""
""focus"",""6"",""37086""
""focus"",""6"",""45874""
""focus"",""33"",""187682""
","""event"",""trial"",""time""
""fullscreenenter"",""0"",""2538""
","""event"",""trial"",""time""
""fullscreenexit"",""4"",""22823""
","null","<p></p>","null","","","","","","","","","","","","","","","","","","","","","","","",""
"","do_recog","41","207891","0.0-30.0-0.0","""event"",""trial"",""time""
""fullscreenenter"",""0"",""2538""
""fullscreenexit"",""4"",""22823""
""blur"",""4"",""25090""
""focus"",""4"",""26337""
""blur"",""6"",""34870""
""focus"",""6"",""37086""
""blur"",""6"",""44223""
""focus"",""6"",""45874""
""blur"",""33"",""185621""
""focus"",""33"",""187682""
","""event"",""trial"",""time""
""blur"",""4"",""25090""
""blur"",""6"",""34870""
""blur"",""6"",""44223""
""blur"",""33"",""185621""
","""event"",""trial"",""time""
""focus"",""4"",""26337""
""focus"",""6"",""37086""
""focus"",""6"",""45874""
""focus"",""33"",""187682""
","""event"",""trial"",""time""
""fullscreenenter"",""0"",""2538""
","""event"",""trial"",""time""
""fullscreenexit"",""4"",""22823""
","2067.300000000745","","","","","","","","53","","","","241","probe-46","","","","","1","[object Object]","117","2","1","","","",""
"","html-keyboard-response","42","208903","0.0-30.0-1.0","""event"",""trial"",""time""
""fullscreenenter"",""0"",""2538""
""fullscreenexit"",""4"",""22823""
""blur"",""4"",""25090""
""focus"",""4"",""26337""
""blur"",""6"",""34870""
""focus"",""6"",""37086""
""blur"",""6"",""44223""
""focus"",""6"",""45874""
""blur"",""33"",""185621""
""focus"",""33"",""187682""
","""event"",""trial"",""time""
""blur"",""4"",""25090""
""blur"",""6"",""34870""
""blur"",""6"",""44223""
""blur"",""33"",""185621""
","""event"",""trial"",""time""
""focus"",""4"",""26337""
""focus"",""6"",""37086""
""focus"",""6"",""45874""
""focus"",""33"",""187682""
","""event"",""trial"",""time""
""fullscreenenter"",""0"",""2538""
","""event"",""trial"",""time""
""fullscreenexit"",""4"",""22823""
","null","<p></p>","null","","","","","","","","","","","","","","","","","","","","","","","",""
"","do_trial","43","212478","0.0-31.0-0.0","""event"",""trial"",""time""
""fullscreenenter"",""0"",""2538""
""fullscreenexit"",""4"",""22823""
""blur"",""4"",""25090""
""focus"",""4"",""26337""
""blur"",""6"",""34870""
""focus"",""6"",""37086""
""blur"",""6"",""44223""
""focus"",""6"",""45874""
""blur"",""33"",""185621""
""focus"",""33"",""187682""
","""event"",""trial"",""time""
""blur"",""4"",""25090""
""blur"",""6"",""34870""
""blur"",""6"",""44223""
""blur"",""33"",""185621""
","""event"",""trial"",""time""
""focus"",""4"",""26337""
""focus"",""6"",""37086""
""focus"",""6"",""45874""
""focus"",""33"",""187682""
","""event"",""trial"",""time""
""fullscreenenter"",""0"",""2538""
","""event"",""trial"",""time""
""fullscreenexit"",""4"",""22823""
","1038.5","","","","","","","","51","0,0,0","6","blank","242","null","0.3990290127588916","0.08898357424651308","0.4801960968689394","0","","","","","","","","",""
"","html-keyboard-response","44","213483","0.0-31.0-1.0","""event"",""trial"",""time""
""fullscreenenter"",""0"",""2538""
""fullscreenexit"",""4"",""22823""
""blur"",""4"",""25090""
""focus"",""4"",""26337""
""blur"",""6"",""34870""
""focus"",""6"",""37086""
""blur"",""6"",""44223""
""focus"",""6"",""45874""
""blur"",""33"",""185621""
""focus"",""33"",""187682""
","""event"",""trial"",""time""
""blur"",""4"",""25090""
""blur"",""6"",""34870""
""blur"",""6"",""44223""
""blur"",""33"",""185621""
","""event"",""trial"",""time""
""focus"",""4"",""26337""
""focus"",""6"",""37086""
""focus"",""6"",""45874""
""focus"",""33"",""187682""
","""event"",""trial"",""time""
""fullscreenenter"",""0"",""2538""
","""event"",""trial"",""time""
""fullscreenexit"",""4"",""22823""
","null","<p></p>","null","","","","","","","","","","","","","","","","","","","","","","","",""
"","do_trial","45","216391","0.0-32.0-0.0","""event"",""trial"",""time""
""fullscreenenter"",""0"",""2538""
""fullscreenexit"",""4"",""22823""
""blur"",""4"",""25090""
""focus"",""4"",""26337""
""blur"",""6"",""34870""
""focus"",""6"",""37086""
""blur"",""6"",""44223""
""focus"",""6"",""45874""
""blur"",""33"",""185621""
""focus"",""33"",""187682""
","""event"",""trial"",""time""
""blur"",""4"",""25090""
""blur"",""6"",""34870""
""blur"",""6"",""44223""
""blur"",""33"",""185621""
","""event"",""trial"",""time""
""focus"",""4"",""26337""
""focus"",""6"",""37086""
""focus"",""6"",""45874""
""focus"",""33"",""187682""
","""event"",""trial"",""time""
""fullscreenenter"",""0"",""2538""
","""event"",""trial"",""time""
""fullscreenexit"",""4"",""22823""
","356.8999999985099","","","","","","","","50","0,0,0","6","blank","243","null","0.23056499069809008","0.3803104631847022","0.5105694643797953","0","","","","","","","","",""
"","html-keyboard-response","46","217402","0.0-32.0-1.0","""event"",""trial"",""time""
""fullscreenenter"",""0"",""2538""
""fullscreenexit"",""4"",""22823""
""blur"",""4"",""25090""
""focus"",""4"",""26337""
""blur"",""6"",""34870""
""focus"",""6"",""37086""
""blur"",""6"",""44223""
""focus"",""6"",""45874""
""blur"",""33"",""185621""
""focus"",""33"",""187682""
","""event"",""trial"",""time""
""blur"",""4"",""25090""
""blur"",""6"",""34870""
""blur"",""6"",""44223""
""blur"",""33"",""185621""
","""event"",""trial"",""time""
""focus"",""4"",""26337""
""focus"",""6"",""37086""
""focus"",""6"",""45874""
""focus"",""33"",""187682""
","""event"",""trial"",""time""
""fullscreenenter"",""0"",""2538""
","""event"",""trial"",""time""
""fullscreenexit"",""4"",""22823""
","null","<p></p>","null","","","","","","","","","","","","","","","","","","","","","","","",""
"","do_trial","47","221669","0.0-33.0-0.0","""event"",""trial"",""time""
""fullscreenenter"",""0"",""2538""
""fullscreenexit"",""4"",""22823""
""blur"",""4"",""25090""
""focus"",""4"",""26337""
""blur"",""6"",""34870""
""focus"",""6"",""37086""
""blur"",""6"",""44223""
""focus"",""6"",""45874""
""blur"",""33"",""185621""
""focus"",""33"",""187682""
","""event"",""trial"",""time""
""blur"",""4"",""25090""
""blur"",""6"",""34870""
""blur"",""6"",""44223""
""blur"",""33"",""185621""
","""event"",""trial"",""time""
""focus"",""4"",""26337""
""focus"",""6"",""37086""
""focus"",""6"",""45874""
""focus"",""33"",""187682""
","""event"",""trial"",""time""
""fullscreenenter"",""0"",""2538""
","""event"",""trial"",""time""
""fullscreenexit"",""4"",""22823""
","1729.5","","","","","","","","51","0,0,1","6","blank","244","null","0.28877760120605594","0.5376138486350862","0.4946456974429275","1","","","","","","","","",""
"","html-keyboard-response","48","222681","0.0-33.0-1.0","""event"",""trial"",""time""
""fullscreenenter"",""0"",""2538""
""fullscreenexit"",""4"",""22823""
""blur"",""4"",""25090""
""focus"",""4"",""26337""
""blur"",""6"",""34870""
""focus"",""6"",""37086""
""blur"",""6"",""44223""
""focus"",""6"",""45874""
""blur"",""33"",""185621""
""focus"",""33"",""187682""
","""event"",""trial"",""time""
""blur"",""4"",""25090""
""blur"",""6"",""34870""
""blur"",""6"",""44223""
""blur"",""33"",""185621""
","""event"",""trial"",""time""
""focus"",""4"",""26337""
""focus"",""6"",""37086""
""focus"",""6"",""45874""
""focus"",""33"",""187682""
","""event"",""trial"",""time""
""fullscreenenter"",""0"",""2538""
","""event"",""trial"",""time""
""fullscreenexit"",""4"",""22823""
","null","<p></p>","null","","","","","","","","","","","","","","","","","","","","","","","",""
"","do_recog","49","228710","0.0-34.0-0.0","""event"",""trial"",""time""
""fullscreenenter"",""0"",""2538""
""fullscreenexit"",""4"",""22823""
""blur"",""4"",""25090""
""focus"",""4"",""26337""
""blur"",""6"",""34870""
""focus"",""6"",""37086""
""blur"",""6"",""44223""
""focus"",""6"",""45874""
""blur"",""33"",""185621""
""focus"",""33"",""187682""
","""event"",""trial"",""time""
""blur"",""4"",""25090""
""blur"",""6"",""34870""
""blur"",""6"",""44223""
""blur"",""33"",""185621""
","""event"",""trial"",""time""
""focus"",""4"",""26337""
""focus"",""6"",""37086""
""focus"",""6"",""45874""
""focus"",""33"",""187682""
","""event"",""trial"",""time""
""fullscreenenter"",""0"",""2538""
","""event"",""trial"",""time""
""fullscreenexit"",""4"",""22823""
","null","","","","","","","","null","","","","245","probe-18","","","","","1","[object Object]","110","2","0","","","",""
"","html-keyboard-response","50","229726","0.0-34.0-1.0","""event"",""trial"",""time""
""fullscreenenter"",""0"",""2538""
""fullscreenexit"",""4"",""22823""
""blur"",""4"",""25090""
""focus"",""4"",""26337""
""blur"",""6"",""34870""
""focus"",""6"",""37086""
""blur"",""6"",""44223""
""focus"",""6"",""45874""
""blur"",""33"",""185621""
""focus"",""33"",""187682""
","""event"",""trial"",""time""
""blur"",""4"",""25090""
""blur"",""6"",""34870""
""blur"",""6"",""44223""
""blur"",""33"",""185621""
","""event"",""trial"",""time""
""focus"",""4"",""26337""
""focus"",""6"",""37086""
""focus"",""6"",""45874""
""focus"",""33"",""187682""
","""event"",""trial"",""time""
""fullscreenenter"",""0"",""2538""
","""event"",""trial"",""time""
""fullscreenexit"",""4"",""22823""
","null","<p></p>","null","","","","","","","","","","","","","","","","","","","","","","","",""
"","do_trial","51","232543","0.0-35.0-0.0","""event"",""trial"",""time""
""fullscreenenter"",""0"",""2538""
""fullscreenexit"",""4"",""22823""
""blur"",""4"",""25090""
""focus"",""4"",""26337""
""blur"",""6"",""34870""
""focus"",""6"",""37086""
""blur"",""6"",""44223""
""focus"",""6"",""45874""
""blur"",""33"",""185621""
""focus"",""33"",""187682""
","""event"",""trial"",""time""
""blur"",""4"",""25090""
""blur"",""6"",""34870""
""blur"",""6"",""44223""
""blur"",""33"",""185621""
","""event"",""trial"",""time""
""focus"",""4"",""26337""
""focus"",""6"",""37086""
""focus"",""6"",""45874""
""focus"",""33"",""187682""
","""event"",""trial"",""time""
""fullscreenenter"",""0"",""2538""
","""event"",""trial"",""time""
""fullscreenexit"",""4"",""22823""
","281.69999999925494","","","","","","","","51","1,0,1","6","blank","246","null","0.23567429769240275","0.518174813407169","0.4810019917755417","1","","","","","","","","",""
"","html-keyboard-response","52","233549","0.0-35.0-1.0","""event"",""trial"",""time""
""fullscreenenter"",""0"",""2538""
""fullscreenexit"",""4"",""22823""
""blur"",""4"",""25090""
""focus"",""4"",""26337""
""blur"",""6"",""34870""
""focus"",""6"",""37086""
""blur"",""6"",""44223""
""focus"",""6"",""45874""
""blur"",""33"",""185621""
""focus"",""33"",""187682""
","""event"",""trial"",""time""
""blur"",""4"",""25090""
""blur"",""6"",""34870""
""blur"",""6"",""44223""
""blur"",""33"",""185621""
","""event"",""trial"",""time""
""focus"",""4"",""26337""
""focus"",""6"",""37086""
""focus"",""6"",""45874""
""focus"",""33"",""187682""
","""event"",""trial"",""time""
""fullscreenenter"",""0"",""2538""
","""event"",""trial"",""time""
""fullscreenexit"",""4"",""22823""
","null","<p></p>","null","","","","","","","","","","","","","","","","","","","","","","","",""
"","do_recog","53","239565","0.0-36.0-0.0","""event"",""trial"",""time""
""fullscreenenter"",""0"",""2538""
""fullscreenexit"",""4"",""22823""
""blur"",""4"",""25090""
""focus"",""4"",""26337""
""blur"",""6"",""34870""
""focus"",""6"",""37086""
""blur"",""6"",""44223""
""focus"",""6"",""45874""
""blur"",""33"",""185621""
""focus"",""33"",""187682""
","""event"",""trial"",""time""
""blur"",""4"",""25090""
""blur"",""6"",""34870""
""blur"",""6"",""44223""
""blur"",""33"",""185621""
","""event"",""trial"",""time""
""focus"",""4"",""26337""
""focus"",""6"",""37086""
""focus"",""6"",""45874""
""focus"",""33"",""187682""
","""event"",""trial"",""time""
""fullscreenenter"",""0"",""2538""
","""event"",""trial"",""time""
""fullscreenexit"",""4"",""22823""
","null","","","","","","","","null","","","","247","probe-211","","","","","1","[object Object]","32","0","0","","","",""
"","html-keyboard-response","54","240573","0.0-36.0-1.0","""event"",""trial"",""time""
""fullscreenenter"",""0"",""2538""
""fullscreenexit"",""4"",""22823""
""blur"",""4"",""25090""
""focus"",""4"",""26337""
""blur"",""6"",""34870""
""focus"",""6"",""37086""
""blur"",""6"",""44223""
""focus"",""6"",""45874""
""blur"",""33"",""185621""
""focus"",""33"",""187682""
","""event"",""trial"",""time""
""blur"",""4"",""25090""
""blur"",""6"",""34870""
""blur"",""6"",""44223""
""blur"",""33"",""185621""
","""event"",""trial"",""time""
""focus"",""4"",""26337""
""focus"",""6"",""37086""
""focus"",""6"",""45874""
""focus"",""33"",""187682""
","""event"",""trial"",""time""
""fullscreenenter"",""0"",""2538""
","""event"",""trial"",""time""
""fullscreenexit"",""4"",""22823""
","null","<p></p>","null","","","","","","","","","","","","","","","","","","","","","","","",""
"","do_trial","55","245283","0.0-37.0-0.0","""event"",""trial"",""time""
""fullscreenenter"",""0"",""2538""
""fullscreenexit"",""4"",""22823""
""blur"",""4"",""25090""
""focus"",""4"",""26337""
""blur"",""6"",""34870""
""focus"",""6"",""37086""
""blur"",""6"",""44223""
""focus"",""6"",""45874""
""blur"",""33"",""185621""
""focus"",""33"",""187682""
","""event"",""trial"",""time""
""blur"",""4"",""25090""
""blur"",""6"",""34870""
""blur"",""6"",""44223""
""blur"",""33"",""185621""
","""event"",""trial"",""time""
""focus"",""4"",""26337""
""focus"",""6"",""37086""
""focus"",""6"",""45874""
""focus"",""33"",""187682""
","""event"",""trial"",""time""
""fullscreenenter"",""0"",""2538""
","""event"",""trial"",""time""
""fullscreenexit"",""4"",""22823""
","2177.300000000745","","","","","","","","51","1,0,1","6","blank","248","null","0.23395941463737593","0.3987523118586961","0.40231657801298254","1","","","","","","","","",""
"","html-keyboard-response","56","246294","0.0-37.0-1.0","""event"",""trial"",""time""
""fullscreenenter"",""0"",""2538""
""fullscreenexit"",""4"",""22823""
""blur"",""4"",""25090""
""focus"",""4"",""26337""
""blur"",""6"",""34870""
""focus"",""6"",""37086""
""blur"",""6"",""44223""
""focus"",""6"",""45874""
""blur"",""33"",""185621""
""focus"",""33"",""187682""
","""event"",""trial"",""time""
""blur"",""4"",""25090""
""blur"",""6"",""34870""
""blur"",""6"",""44223""
""blur"",""33"",""185621""
","""event"",""trial"",""time""
""focus"",""4"",""26337""
""focus"",""6"",""37086""
""focus"",""6"",""45874""
""focus"",""33"",""187682""
","""event"",""trial"",""time""
""fullscreenenter"",""0"",""2538""
","""event"",""trial"",""time""
""fullscreenexit"",""4"",""22823""
","null","<p></p>","null","","","","","","","","","","","","","","","","","","","","","","","",""
"","do_trial","57","249655","0.0-38.0-0.0","""event"",""trial"",""time""
""fullscreenenter"",""0"",""2538""
""fullscreenexit"",""4"",""22823""
""blur"",""4"",""25090""
""focus"",""4"",""26337""
""blur"",""6"",""34870""
""focus"",""6"",""37086""
""blur"",""6"",""44223""
""focus"",""6"",""45874""
""blur"",""33"",""185621""
""focus"",""33"",""187682""
","""event"",""trial"",""time""
""blur"",""4"",""25090""
""blur"",""6"",""34870""
""blur"",""6"",""44223""
""blur"",""33"",""185621""
","""event"",""trial"",""time""
""focus"",""4"",""26337""
""focus"",""6"",""37086""
""focus"",""6"",""45874""
""focus"",""33"",""187682""
","""event"",""trial"",""time""
""fullscreenenter"",""0"",""2538""
","""event"",""trial"",""time""
""fullscreenexit"",""4"",""22823""
","829.3000000007451","","","","","","","","51","0,0,0","6","blank","249","null","0.3080596131443976","0.45660070381388196","0.32716807625382954","0","","","","","","","","",""
"","html-keyboard-response","58","250660","0.0-38.0-1.0","""event"",""trial"",""time""
""fullscreenenter"",""0"",""2538""
""fullscreenexit"",""4"",""22823""
""blur"",""4"",""25090""
""focus"",""4"",""26337""
""blur"",""6"",""34870""
""focus"",""6"",""37086""
""blur"",""6"",""44223""
""focus"",""6"",""45874""
""blur"",""33"",""185621""
""focus"",""33"",""187682""
","""event"",""trial"",""time""
""blur"",""4"",""25090""
""blur"",""6"",""34870""
""blur"",""6"",""44223""
""blur"",""33"",""185621""
","""event"",""trial"",""time""
""focus"",""4"",""26337""
""focus"",""6"",""37086""
""focus"",""6"",""45874""
""focus"",""33"",""187682""
","""event"",""trial"",""time""
""fullscreenenter"",""0"",""2538""
","""event"",""trial"",""time""
""fullscreenexit"",""4"",""22823""
","null","<p></p>","null","","","","","","","","","","","","","","","","","","","","","","","",""
"","do_trial","59","255404","0.0-39.0-0.0","""event"",""trial"",""time""
""fullscreenenter"",""0"",""2538""
""fullscreenexit"",""4"",""22823""
""blur"",""4"",""25090""
""focus"",""4"",""26337""
""blur"",""6"",""34870""
""focus"",""6"",""37086""
""blur"",""6"",""44223""
""focus"",""6"",""45874""
""blur"",""33"",""185621""
""focus"",""33"",""187682""
","""event"",""trial"",""time""
""blur"",""4"",""25090""
""blur"",""6"",""34870""
""blur"",""6"",""44223""
""blur"",""33"",""185621""
","""event"",""trial"",""time""
""focus"",""4"",""26337""
""focus"",""6"",""37086""
""focus"",""6"",""45874""
""focus"",""33"",""187682""
","""event"",""trial"",""time""
""fullscreenenter"",""0"",""2538""
","""event"",""trial"",""time""
""fullscreenexit"",""4"",""22823""
","2205.10000000149","","","","","","","","51","1,0,0","6","blank","250","null","0.20572369497332488","0.6416279285069988","0.2945409081070988","0","","","","","","","","",""
"","html-keyboard-response","60","256410","0.0-39.0-1.0","""event"",""trial"",""time""
""fullscreenenter"",""0"",""2538""
""fullscreenexit"",""4"",""22823""
""blur"",""4"",""25090""
""focus"",""4"",""26337""
""blur"",""6"",""34870""
""focus"",""6"",""37086""
""blur"",""6"",""44223""
""focus"",""6"",""45874""
""blur"",""33"",""185621""
""focus"",""33"",""187682""
","""event"",""trial"",""time""
""blur"",""4"",""25090""
""blur"",""6"",""34870""
""blur"",""6"",""44223""
""blur"",""33"",""185621""
","""event"",""trial"",""time""
""focus"",""4"",""26337""
""focus"",""6"",""37086""
""focus"",""6"",""45874""
""focus"",""33"",""187682""
","""event"",""trial"",""time""
""fullscreenenter"",""0"",""2538""
","""event"",""trial"",""time""
""fullscreenexit"",""4"",""22823""
","null","<p></p>","null","","","","","","","","","","","","","","","","","","","","","","","",""
"","do_trial","61","259653","0.0-40.0-0.0","""event"",""trial"",""time""
""fullscreenenter"",""0"",""2538""
""fullscreenexit"",""4"",""22823""
""blur"",""4"",""25090""
""focus"",""4"",""26337""
""blur"",""6"",""34870""
""focus"",""6"",""37086""
""blur"",""6"",""44223""
""focus"",""6"",""45874""
""blur"",""33"",""185621""
""focus"",""33"",""187682""
","""event"",""trial"",""time""
""blur"",""4"",""25090""
""blur"",""6"",""34870""
""blur"",""6"",""44223""
""blur"",""33"",""185621""
","""event"",""trial"",""time""
""focus"",""4"",""26337""
""focus"",""6"",""37086""
""focus"",""6"",""45874""
""focus"",""33"",""187682""
","""event"",""trial"",""time""
""fullscreenenter"",""0"",""2538""
","""event"",""trial"",""time""
""fullscreenexit"",""4"",""22823""
","701.1000000014901","","","","","","","","51","0,1,1","6","blank","251","null","0.0652461774387808","0.6618635822907206","0.3448466573113296","1","","","","","","","","",""
"","html-keyboard-response","62","260668","0.0-40.0-1.0","""event"",""trial"",""time""
""fullscreenenter"",""0"",""2538""
""fullscreenexit"",""4"",""22823""
""blur"",""4"",""25090""
""focus"",""4"",""26337""
""blur"",""6"",""34870""
""focus"",""6"",""37086""
""blur"",""6"",""44223""
""focus"",""6"",""45874""
""blur"",""33"",""185621""
""focus"",""33"",""187682""
","""event"",""trial"",""time""
""blur"",""4"",""25090""
""blur"",""6"",""34870""
""blur"",""6"",""44223""
""blur"",""33"",""185621""
","""event"",""trial"",""time""
""focus"",""4"",""26337""
""focus"",""6"",""37086""
""focus"",""6"",""45874""
""focus"",""33"",""187682""
","""event"",""trial"",""time""
""fullscreenenter"",""0"",""2538""
","""event"",""trial"",""time""
""fullscreenexit"",""4"",""22823""
","null","<p></p>","null","","","","","","","","","","","","","","","","","","","","","","","",""
"","do_recog","63","266685","0.0-41.0-0.0","""event"",""trial"",""time""
""fullscreenenter"",""0"",""2538""
""fullscreenexit"",""4"",""22823""
""blur"",""4"",""25090""
""focus"",""4"",""26337""
""blur"",""6"",""34870""
""focus"",""6"",""37086""
""blur"",""6"",""44223""
""focus"",""6"",""45874""
""blur"",""33"",""185621""
""focus"",""33"",""187682""
","""event"",""trial"",""time""
""blur"",""4"",""25090""
""blur"",""6"",""34870""
""blur"",""6"",""44223""
""blur"",""33"",""185621""
","""event"",""trial"",""time""
""focus"",""4"",""26337""
""focus"",""6"",""37086""
""focus"",""6"",""45874""
""focus"",""33"",""187682""
","""event"",""trial"",""time""
""fullscreenenter"",""0"",""2538""
","""event"",""trial"",""time""
""fullscreenexit"",""4"",""22823""
","null","","","","","","","","null","","","","252","probe-05","","","","","1","[object Object]","198","4","0","","","",""
"","html-keyboard-response","64","267698","0.0-41.0-1.0","""event"",""trial"",""time""
""fullscreenenter"",""0"",""2538""
""fullscreenexit"",""4"",""22823""
""blur"",""4"",""25090""
""focus"",""4"",""26337""
""blur"",""6"",""34870""
""focus"",""6"",""37086""
""blur"",""6"",""44223""
""focus"",""6"",""45874""
""blur"",""33"",""185621""
""focus"",""33"",""187682""
","""event"",""trial"",""time""
""blur"",""4"",""25090""
""blur"",""6"",""34870""
""blur"",""6"",""44223""
""blur"",""33"",""185621""
","""event"",""trial"",""time""
""focus"",""4"",""26337""
""focus"",""6"",""37086""
""focus"",""6"",""45874""
""focus"",""33"",""187682""
","""event"",""trial"",""time""
""fullscreenenter"",""0"",""2538""
","""event"",""trial"",""time""
""fullscreenexit"",""4"",""22823""
","null","<p></p>","null","","","","","","","","","","","","","","","","","","","","","","","",""
"","do_trial","65","270244","0.0-42.0-0.0","""event"",""trial"",""time""
""fullscreenenter"",""0"",""2538""
""fullscreenexit"",""4"",""22823""
""blur"",""4"",""25090""
""focus"",""4"",""26337""
""blur"",""6"",""34870""
""focus"",""6"",""37086""
""blur"",""6"",""44223""
""focus"",""6"",""45874""
""blur"",""33"",""185621""
""focus"",""33"",""187682""
","""event"",""trial"",""time""
""blur"",""4"",""25090""
""blur"",""6"",""34870""
""blur"",""6"",""44223""
""blur"",""33"",""185621""
","""event"",""trial"",""time""
""focus"",""4"",""26337""
""focus"",""6"",""37086""
""focus"",""6"",""45874""
""focus"",""33"",""187682""
","""event"",""trial"",""time""
""fullscreenenter"",""0"",""2538""
","""event"",""trial"",""time""
""fullscreenexit"",""4"",""22823""
","0.10000000149011612","","","","","","","","51","0,1,0","6","blank","253","null","0.08371064584346892","0.6587146826388404","0.2408171091841952","0","","","","","","","","",""
"","html-keyboard-response","66","271256","0.0-42.0-1.0","""event"",""trial"",""time""
""fullscreenenter"",""0"",""2538""
""fullscreenexit"",""4"",""22823""
""blur"",""4"",""25090""
""focus"",""4"",""26337""
""blur"",""6"",""34870""
""focus"",""6"",""37086""
""blur"",""6"",""44223""
""focus"",""6"",""45874""
""blur"",""33"",""185621""
""focus"",""33"",""187682""
","""event"",""trial"",""time""
""blur"",""4"",""25090""
""blur"",""6"",""34870""
""blur"",""6"",""44223""
""blur"",""33"",""185621""
","""event"",""trial"",""time""
""focus"",""4"",""26337""
""focus"",""6"",""37086""
""focus"",""6"",""45874""
""focus"",""33"",""187682""
","""event"",""trial"",""time""
""fullscreenenter"",""0"",""2538""
","""event"",""trial"",""time""
""fullscreenexit"",""4"",""22823""
","null","<p></p>","null","","","","","","","","","","","","","","","","","","","","","","","",""
"","do_recog","67","277262","0.0-43.0-0.0","""event"",""trial"",""time""
""fullscreenenter"",""0"",""2538""
""fullscreenexit"",""4"",""22823""
""blur"",""4"",""25090""
""focus"",""4"",""26337""
""blur"",""6"",""34870""
""focus"",""6"",""37086""
""blur"",""6"",""44223""
""focus"",""6"",""45874""
""blur"",""33"",""185621""
""focus"",""33"",""187682""
","""event"",""trial"",""time""
""blur"",""4"",""25090""
""blur"",""6"",""34870""
""blur"",""6"",""44223""
""blur"",""33"",""185621""
","""event"",""trial"",""time""
""focus"",""4"",""26337""
""focus"",""6"",""37086""
""focus"",""6"",""45874""
""focus"",""33"",""187682""
","""event"",""trial"",""time""
""fullscreenenter"",""0"",""2538""
","""event"",""trial"",""time""
""fullscreenexit"",""4"",""22823""
","null","","","","","","","","null","","","","254","probe-192","","","","","1","[object Object]","154","3","0","","","",""
"","html-keyboard-response","68","278274","0.0-43.0-1.0","""event"",""trial"",""time""
""fullscreenenter"",""0"",""2538""
""fullscreenexit"",""4"",""22823""
""blur"",""4"",""25090""
""focus"",""4"",""26337""
""blur"",""6"",""34870""
""focus"",""6"",""37086""
""blur"",""6"",""44223""
""focus"",""6"",""45874""
""blur"",""33"",""185621""
""focus"",""33"",""187682""
","""event"",""trial"",""time""
""blur"",""4"",""25090""
""blur"",""6"",""34870""
""blur"",""6"",""44223""
""blur"",""33"",""185621""
","""event"",""trial"",""time""
""focus"",""4"",""26337""
""focus"",""6"",""37086""
""focus"",""6"",""45874""
""focus"",""33"",""187682""
","""event"",""trial"",""time""
""fullscreenenter"",""0"",""2538""
","""event"",""trial"",""time""
""fullscreenexit"",""4"",""22823""
","null","<p></p>","null","","","","","","","","","","","","","","","","","","","","","","","",""
"","do_trial","69","282344","0.0-44.0-0.0","""event"",""trial"",""time""
""fullscreenenter"",""0"",""2538""
""fullscreenexit"",""4"",""22823""
""blur"",""4"",""25090""
""focus"",""4"",""26337""
""blur"",""6"",""34870""
""focus"",""6"",""37086""
""blur"",""6"",""44223""
""focus"",""6"",""45874""
""blur"",""33"",""185621""
""focus"",""33"",""187682""
","""event"",""trial"",""time""
""blur"",""4"",""25090""
""blur"",""6"",""34870""
""blur"",""6"",""44223""
""blur"",""33"",""185621""
","""event"",""trial"",""time""
""focus"",""4"",""26337""
""focus"",""6"",""37086""
""focus"",""6"",""45874""
""focus"",""33"",""187682""
","""event"",""trial"",""time""
""fullscreenenter"",""0"",""2538""
","""event"",""trial"",""time""
""fullscreenexit"",""4"",""22823""
","1535.5999999977648","","","","","","","","51","0,1,0","6","blank","255","null","0.05172734211932898","0.6819360823936985","0.3896593499169332","0","","","","","","","","",""
"","html-keyboard-response","70","283351","0.0-44.0-1.0","""event"",""trial"",""time""
""fullscreenenter"",""0"",""2538""
""fullscreenexit"",""4"",""22823""
""blur"",""4"",""25090""
""focus"",""4"",""26337""
""blur"",""6"",""34870""
""focus"",""6"",""37086""
""blur"",""6"",""44223""
""focus"",""6"",""45874""
""blur"",""33"",""185621""
""focus"",""33"",""187682""
","""event"",""trial"",""time""
""blur"",""4"",""25090""
""blur"",""6"",""34870""
""blur"",""6"",""44223""
""blur"",""33"",""185621""
","""event"",""trial"",""time""
""focus"",""4"",""26337""
""focus"",""6"",""37086""
""focus"",""6"",""45874""
""focus"",""33"",""187682""
","""event"",""trial"",""time""
""fullscreenenter"",""0"",""2538""
","""event"",""trial"",""time""
""fullscreenexit"",""4"",""22823""
","null","<p></p>","null","","","","","","","","","","","","","","","","","","","","","","","",""
"","do_recog","71","289369","0.0-45.0-0.0","""event"",""trial"",""time""
""fullscreenenter"",""0"",""2538""
""fullscreenexit"",""4"",""22823""
""blur"",""4"",""25090""
""focus"",""4"",""26337""
""blur"",""6"",""34870""
""focus"",""6"",""37086""
""blur"",""6"",""44223""
""focus"",""6"",""45874""
""blur"",""33"",""185621""
""focus"",""33"",""187682""
","""event"",""trial"",""time""
""blur"",""4"",""25090""
""blur"",""6"",""34870""
""blur"",""6"",""44223""
""blur"",""33"",""185621""
","""event"",""trial"",""time""
""focus"",""4"",""26337""
""focus"",""6"",""37086""
""focus"",""6"",""45874""
""focus"",""33"",""187682""
","""event"",""trial"",""time""
""fullscreenenter"",""0"",""2538""
","""event"",""trial"",""time""
""fullscreenexit"",""4"",""22823""
","null","","","","","","","","null","","","","256","probe-224","","","","","1","[object Object]","151","3","0","","","",""
"","html-keyboard-response","72","290379","0.0-45.0-1.0","""event"",""trial"",""time""
""fullscreenenter"",""0"",""2538""
""fullscreenexit"",""4"",""22823""
""blur"",""4"",""25090""
""focus"",""4"",""26337""
""blur"",""6"",""34870""
""focus"",""6"",""37086""
""blur"",""6"",""44223""
""focus"",""6"",""45874""
""blur"",""33"",""185621""
""focus"",""33"",""187682""
","""event"",""trial"",""time""
""blur"",""4"",""25090""
""blur"",""6"",""34870""
""blur"",""6"",""44223""
""blur"",""33"",""185621""
","""event"",""trial"",""time""
""focus"",""4"",""26337""
""focus"",""6"",""37086""
""focus"",""6"",""45874""
""focus"",""33"",""187682""
","""event"",""trial"",""time""
""fullscreenenter"",""0"",""2538""
","""event"",""trial"",""time""
""fullscreenexit"",""4"",""22823""
","null","<p></p>","null","","","","","","","","","","","","","","","","","","","","","","","",""
"","do_trial","73","293094","0.0-46.0-0.0","""event"",""trial"",""time""
""fullscreenenter"",""0"",""2538""
""fullscreenexit"",""4"",""22823""
""blur"",""4"",""25090""
""focus"",""4"",""26337""
""blur"",""6"",""34870""
""focus"",""6"",""37086""
""blur"",""6"",""44223""
""focus"",""6"",""45874""
""blur"",""33"",""185621""
""focus"",""33"",""187682""
","""event"",""trial"",""time""
""blur"",""4"",""25090""
""blur"",""6"",""34870""
""blur"",""6"",""44223""
""blur"",""33"",""185621""
","""event"",""trial"",""time""
""focus"",""4"",""26337""
""focus"",""6"",""37086""
""focus"",""6"",""45874""
""focus"",""33"",""187682""
","""event"",""trial"",""time""
""fullscreenenter"",""0"",""2538""
","""event"",""trial"",""time""
""fullscreenexit"",""4"",""22823""
","174.10000000149012","","","","","","","","51","1,1,0","6","blank","257","null","0.13135677774602486","0.6969942228409716","0.4869065030061239","0","","","","","","","","",""
"","html-keyboard-response","74","294100","0.0-46.0-1.0","""event"",""trial"",""time""
""fullscreenenter"",""0"",""2538""
""fullscreenexit"",""4"",""22823""
""blur"",""4"",""25090""
""focus"",""4"",""26337""
""blur"",""6"",""34870""
""focus"",""6"",""37086""
""blur"",""6"",""44223""
""focus"",""6"",""45874""
""blur"",""33"",""185621""
""focus"",""33"",""187682""
","""event"",""trial"",""time""
""blur"",""4"",""25090""
""blur"",""6"",""34870""
""blur"",""6"",""44223""
""blur"",""33"",""185621""
","""event"",""trial"",""time""
""focus"",""4"",""26337""
""focus"",""6"",""37086""
""focus"",""6"",""45874""
""focus"",""33"",""187682""
","""event"",""trial"",""time""
""fullscreenenter"",""0"",""2538""
","""event"",""trial"",""time""
""fullscreenexit"",""4"",""22823""
","null","<p></p>","null","","","","","","","","","","","","","","","","","","","","","","","",""
"","do_recog","75","298116","0.0-47.0-0.0","""event"",""trial"",""time""
""fullscreenenter"",""0"",""2538""
""fullscreenexit"",""4"",""22823""
""blur"",""4"",""25090""
""focus"",""4"",""26337""
""blur"",""6"",""34870""
""focus"",""6"",""37086""
""blur"",""6"",""44223""
""focus"",""6"",""45874""
""blur"",""33"",""185621""
""focus"",""33"",""187682""
","""event"",""trial"",""time""
""blur"",""4"",""25090""
""blur"",""6"",""34870""
""blur"",""6"",""44223""
""blur"",""33"",""185621""
","""event"",""trial"",""time""
""focus"",""4"",""26337""
""focus"",""6"",""37086""
""focus"",""6"",""45874""
""focus"",""33"",""187682""
","""event"",""trial"",""time""
""fullscreenenter"",""0"",""2538""
","""event"",""trial"",""time""
""fullscreenexit"",""4"",""22823""
","2506.699999999255","","","","","","","","56","","","","258","probe-209","","","","","1","[object Object]","75","1","0","","","",""
"","html-keyboard-response","76","299128","0.0-47.0-1.0","""event"",""trial"",""time""
""fullscreenenter"",""0"",""2538""
""fullscreenexit"",""4"",""22823""
""blur"",""4"",""25090""
""focus"",""4"",""26337""
""blur"",""6"",""34870""
""focus"",""6"",""37086""
""blur"",""6"",""44223""
""focus"",""6"",""45874""
""blur"",""33"",""185621""
""focus"",""33"",""187682""
","""event"",""trial"",""time""
""blur"",""4"",""25090""
""blur"",""6"",""34870""
""blur"",""6"",""44223""
""blur"",""33"",""185621""
","""event"",""trial"",""time""
""focus"",""4"",""26337""
""focus"",""6"",""37086""
""focus"",""6"",""45874""
""focus"",""33"",""187682""
","""event"",""trial"",""time""
""fullscreenenter"",""0"",""2538""
","""event"",""trial"",""time""
""fullscreenexit"",""4"",""22823""
","null","<p></p>","null","","","","","","","","","","","","","","","","","","","","","","","",""
"","do_trial","77","305182","0.0-48.0-0.0","""event"",""trial"",""time""
""fullscreenenter"",""0"",""2538""
""fullscreenexit"",""4"",""22823""
""blur"",""4"",""25090""
""focus"",""4"",""26337""
""blur"",""6"",""34870""
""focus"",""6"",""37086""
""blur"",""6"",""44223""
""focus"",""6"",""45874""
""blur"",""33"",""185621""
""focus"",""33"",""187682""
","""event"",""trial"",""time""
""blur"",""4"",""25090""
""blur"",""6"",""34870""
""blur"",""6"",""44223""
""blur"",""33"",""185621""
","""event"",""trial"",""time""
""focus"",""4"",""26337""
""focus"",""6"",""37086""
""focus"",""6"",""45874""
""focus"",""33"",""187682""
","""event"",""trial"",""time""
""fullscreenenter"",""0"",""2538""
","""event"",""trial"",""time""
""fullscreenexit"",""4"",""22823""
","null","","","","","","","","null","1,0,0","6","blank","259","null","0.14858546301045927","0.585650830522637","0.5141555891269405","","","","","","","","","",""
"","html-keyboard-response","78","306196","0.0-48.0-1.0","""event"",""trial"",""time""
""fullscreenenter"",""0"",""2538""
""fullscreenexit"",""4"",""22823""
""blur"",""4"",""25090""
""focus"",""4"",""26337""
""blur"",""6"",""34870""
""focus"",""6"",""37086""
""blur"",""6"",""44223""
""focus"",""6"",""45874""
""blur"",""33"",""185621""
""focus"",""33"",""187682""
","""event"",""trial"",""time""
""blur"",""4"",""25090""
""blur"",""6"",""34870""
""blur"",""6"",""44223""
""blur"",""33"",""185621""
","""event"",""trial"",""time""
""focus"",""4"",""26337""
""focus"",""6"",""37086""
""focus"",""6"",""45874""
""focus"",""33"",""187682""
","""event"",""trial"",""time""
""fullscreenenter"",""0"",""2538""
","""event"",""trial"",""time""
""fullscreenexit"",""4"",""22823""
","null","<p></p>","null","","","","","","","","","","","","","","","","","","","","","","","",""
"","do_trial","79","310091","0.0-49.0-0.0","""event"",""trial"",""time""
""fullscreenenter"",""0"",""2538""
""fullscreenexit"",""4"",""22823""
""blur"",""4"",""25090""
""focus"",""4"",""26337""
""blur"",""6"",""34870""
""focus"",""6"",""37086""
""blur"",""6"",""44223""
""focus"",""6"",""45874""
""blur"",""33"",""185621""
""focus"",""33"",""187682""
","""event"",""trial"",""time""
""blur"",""4"",""25090""
""blur"",""6"",""34870""
""blur"",""6"",""44223""
""blur"",""33"",""185621""
","""event"",""trial"",""time""
""focus"",""4"",""26337""
""focus"",""6"",""37086""
""focus"",""6"",""45874""
""focus"",""33"",""187682""
","""event"",""trial"",""time""
""fullscreenenter"",""0"",""2538""
","""event"",""trial"",""time""
""fullscreenexit"",""4"",""22823""
","1353.9000000022352","","","","","","","","50","1,1,0","6","blank","260","null","0.2539585511925478","0.6638893745476517","0.435596505497487","1","","","","","","","","",""
"","html-keyboard-response","80","311103","0.0-49.0-1.0","""event"",""trial"",""time""
""fullscreenenter"",""0"",""2538""
""fullscreenexit"",""4"",""22823""
""blur"",""4"",""25090""
""focus"",""4"",""26337""
""blur"",""6"",""34870""
""focus"",""6"",""37086""
""blur"",""6"",""44223""
""focus"",""6"",""45874""
""blur"",""33"",""185621""
""focus"",""33"",""187682""
","""event"",""trial"",""time""
""blur"",""4"",""25090""
""blur"",""6"",""34870""
""blur"",""6"",""44223""
""blur"",""33"",""185621""
","""event"",""trial"",""time""
""focus"",""4"",""26337""
""focus"",""6"",""37086""
""focus"",""6"",""45874""
""focus"",""33"",""187682""
","""event"",""trial"",""time""
""fullscreenenter"",""0"",""2538""
","""event"",""trial"",""time""
""fullscreenexit"",""4"",""22823""
","null","<p></p>","null","","","","","","","","","","","","","","","","","","","","","","","",""
"","do_trial","81","313872","0.0-50.0-0.0","""event"",""trial"",""time""
""fullscreenenter"",""0"",""2538""
""fullscreenexit"",""4"",""22823""
""blur"",""4"",""25090""
""focus"",""4"",""26337""
""blur"",""6"",""34870""
""focus"",""6"",""37086""
""blur"",""6"",""44223""
""focus"",""6"",""45874""
""blur"",""33"",""185621""
""focus"",""33"",""187682""
","""event"",""trial"",""time""
""blur"",""4"",""25090""
""blur"",""6"",""34870""
""blur"",""6"",""44223""
""blur"",""33"",""185621""
","""event"",""trial"",""time""
""focus"",""4"",""26337""
""focus"",""6"",""37086""
""focus"",""6"",""45874""
""focus"",""33"",""187682""
","""event"",""trial"",""time""
""fullscreenenter"",""0"",""2538""
","""event"",""trial"",""time""
""fullscreenexit"",""4"",""22823""
","224.19999999925494","","","","","","","","50","0,1,1","6","blank","261","null","0.1081573654861658","0.6844857847534743","0.47667008057848914","1","","","","","","","","",""
"","html-keyboard-response","82","314881","0.0-50.0-1.0","""event"",""trial"",""time""
""fullscreenenter"",""0"",""2538""
""fullscreenexit"",""4"",""22823""
""blur"",""4"",""25090""
""focus"",""4"",""26337""
""blur"",""6"",""34870""
""focus"",""6"",""37086""
""blur"",""6"",""44223""
""focus"",""6"",""45874""
""blur"",""33"",""185621""
""focus"",""33"",""187682""
","""event"",""trial"",""time""
""blur"",""4"",""25090""
""blur"",""6"",""34870""
""blur"",""6"",""44223""
""blur"",""33"",""185621""
","""event"",""trial"",""time""
""focus"",""4"",""26337""
""focus"",""6"",""37086""
""focus"",""6"",""45874""
""focus"",""33"",""187682""
","""event"",""trial"",""time""
""fullscreenenter"",""0"",""2538""
","""event"",""trial"",""time""
""fullscreenexit"",""4"",""22823""
","null","<p></p>","null","","","","","","","","","","","","","","","","","","","","","","","",""
"","do_trial","83","318627","0.0-51.0-0.0","""event"",""trial"",""time""
""fullscreenenter"",""0"",""2538""
""fullscreenexit"",""4"",""22823""
""blur"",""4"",""25090""
""focus"",""4"",""26337""
""blur"",""6"",""34870""
""focus"",""6"",""37086""
""blur"",""6"",""44223""
""focus"",""6"",""45874""
""blur"",""33"",""185621""
""focus"",""33"",""187682""
","""event"",""trial"",""time""
""blur"",""4"",""25090""
""blur"",""6"",""34870""
""blur"",""6"",""44223""
""blur"",""33"",""185621""
","""event"",""trial"",""time""
""focus"",""4"",""26337""
""focus"",""6"",""37086""
""focus"",""6"",""45874""
""focus"",""33"",""187682""
","""event"",""trial"",""time""
""fullscreenenter"",""0"",""2538""
","""event"",""trial"",""time""
""fullscreenexit"",""4"",""22823""
","1202.7999999970198","","","","","","","","50","0,1,1","6","blank","262","null","0.11232276336626001","0.6664336160105694","0.5149158704795107","1","","","","","","","","",""
"","html-keyboard-response","84","319634","0.0-51.0-1.0","""event"",""trial"",""time""
""fullscreenenter"",""0"",""2538""
""fullscreenexit"",""4"",""22823""
""blur"",""4"",""25090""
""focus"",""4"",""26337""
""blur"",""6"",""34870""
""focus"",""6"",""37086""
""blur"",""6"",""44223""
""focus"",""6"",""45874""
""blur"",""33"",""185621""
""focus"",""33"",""187682""
","""event"",""trial"",""time""
""blur"",""4"",""25090""
""blur"",""6"",""34870""
""blur"",""6"",""44223""
""blur"",""33"",""185621""
","""event"",""trial"",""time""
""focus"",""4"",""26337""
""focus"",""6"",""37086""
""focus"",""6"",""45874""
""focus"",""33"",""187682""
","""event"",""trial"",""time""
""fullscreenenter"",""0"",""2538""
","""event"",""trial"",""time""
""fullscreenexit"",""4"",""22823""
","null","<p></p>","null","","","","","","","","","","","","","","","","","","","","","","","",""
"","do_trial","85","322703","0.0-52.0-0.0","""event"",""trial"",""time""
""fullscreenenter"",""0"",""2538""
""fullscreenexit"",""4"",""22823""
""blur"",""4"",""25090""
""focus"",""4"",""26337""
""blur"",""6"",""34870""
""focus"",""6"",""37086""
""blur"",""6"",""44223""
""focus"",""6"",""45874""
""blur"",""33"",""185621""
""focus"",""33"",""187682""
","""event"",""trial"",""time""
""blur"",""4"",""25090""
""blur"",""6"",""34870""
""blur"",""6"",""44223""
""blur"",""33"",""185621""
","""event"",""trial"",""time""
""focus"",""4"",""26337""
""focus"",""6"",""37086""
""focus"",""6"",""45874""
""focus"",""33"",""187682""
","""event"",""trial"",""time""
""fullscreenenter"",""0"",""2538""
","""event"",""trial"",""time""
""fullscreenexit"",""4"",""22823""
","516.3999999985099","","","","","","","","50","0,1,0","6","blank","263","null","0.08461505931387282","0.8659519251776167","0.5552041267519754","1","","","","","","","","",""
"","html-keyboard-response","86","323716","0.0-52.0-1.0","""event"",""trial"",""time""
""fullscreenenter"",""0"",""2538""
""fullscreenexit"",""4"",""22823""
""blur"",""4"",""25090""
""focus"",""4"",""26337""
""blur"",""6"",""34870""
""focus"",""6"",""37086""
""blur"",""6"",""44223""
""focus"",""6"",""45874""
""blur"",""33"",""185621""
""focus"",""33"",""187682""
","""event"",""trial"",""time""
""blur"",""4"",""25090""
""blur"",""6"",""34870""
""blur"",""6"",""44223""
""blur"",""33"",""185621""
","""event"",""trial"",""time""
""focus"",""4"",""26337""
""focus"",""6"",""37086""
""focus"",""6"",""45874""
""focus"",""33"",""187682""
","""event"",""trial"",""time""
""fullscreenenter"",""0"",""2538""
","""event"",""trial"",""time""
""fullscreenexit"",""4"",""22823""
","null","<p></p>","null","","","","","","","","","","","","","","","","","","","","","","","",""
"","do_recog","87","328070","0.0-53.0-0.0","""event"",""trial"",""time""
""fullscreenenter"",""0"",""2538""
""fullscreenexit"",""4"",""22823""
""blur"",""4"",""25090""
""focus"",""4"",""26337""
""blur"",""6"",""34870""
""focus"",""6"",""37086""
""blur"",""6"",""44223""
""focus"",""6"",""45874""
""blur"",""33"",""185621""
""focus"",""33"",""187682""
","""event"",""trial"",""time""
""blur"",""4"",""25090""
""blur"",""6"",""34870""
""blur"",""6"",""44223""
""blur"",""33"",""185621""
","""event"",""trial"",""time""
""focus"",""4"",""26337""
""focus"",""6"",""37086""
""focus"",""6"",""45874""
""focus"",""33"",""187682""
","""event"",""trial"",""time""
""fullscreenenter"",""0"",""2538""
","""event"",""trial"",""time""
""fullscreenexit"",""4"",""22823""
","2835.699999999255","","","","","","","","53","","","","264","probe-108","","","","","1","[object Object]","79","1","1","","","",""
"","html-keyboard-response","88","329080","0.0-53.0-1.0","""event"",""trial"",""time""
""fullscreenenter"",""0"",""2538""
""fullscreenexit"",""4"",""22823""
""blur"",""4"",""25090""
""focus"",""4"",""26337""
""blur"",""6"",""34870""
""focus"",""6"",""37086""
""blur"",""6"",""44223""
""focus"",""6"",""45874""
""blur"",""33"",""185621""
""focus"",""33"",""187682""
","""event"",""trial"",""time""
""blur"",""4"",""25090""
""blur"",""6"",""34870""
""blur"",""6"",""44223""
""blur"",""33"",""185621""
","""event"",""trial"",""time""
""focus"",""4"",""26337""
""focus"",""6"",""37086""
""focus"",""6"",""45874""
""focus"",""33"",""187682""
","""event"",""trial"",""time""
""fullscreenenter"",""0"",""2538""
","""event"",""trial"",""time""
""fullscreenexit"",""4"",""22823""
","null","<p></p>","null","","","","","","","","","","","","","","","","","","","","","","","",""
"","do_trial","89","332858","0.0-54.0-0.0","""event"",""trial"",""time""
""fullscreenenter"",""0"",""2538""
""fullscreenexit"",""4"",""22823""
""blur"",""4"",""25090""
""focus"",""4"",""26337""
""blur"",""6"",""34870""
""focus"",""6"",""37086""
""blur"",""6"",""44223""
""focus"",""6"",""45874""
""blur"",""33"",""185621""
""focus"",""33"",""187682""
","""event"",""trial"",""time""
""blur"",""4"",""25090""
""blur"",""6"",""34870""
""blur"",""6"",""44223""
""blur"",""33"",""185621""
","""event"",""trial"",""time""
""focus"",""4"",""26337""
""focus"",""6"",""37086""
""focus"",""6"",""45874""
""focus"",""33"",""187682""
","""event"",""trial"",""time""
""fullscreenenter"",""0"",""2538""
","""event"",""trial"",""time""
""fullscreenexit"",""4"",""22823""
","1245.5","","","","","","","","51","0,0,1","6","blank","265","null","0.13219710613652771","0.7193092226105385","0.5525981737673538","1","","","","","","","","",""
"","html-keyboard-response","90","333868","0.0-54.0-1.0","""event"",""trial"",""time""
""fullscreenenter"",""0"",""2538""
""fullscreenexit"",""4"",""22823""
""blur"",""4"",""25090""
""focus"",""4"",""26337""
""blur"",""6"",""34870""
""focus"",""6"",""37086""
""blur"",""6"",""44223""
""focus"",""6"",""45874""
""blur"",""33"",""185621""
""focus"",""33"",""187682""
","""event"",""trial"",""time""
""blur"",""4"",""25090""
""blur"",""6"",""34870""
""blur"",""6"",""44223""
""blur"",""33"",""185621""
","""event"",""trial"",""time""
""focus"",""4"",""26337""
""focus"",""6"",""37086""
""focus"",""6"",""45874""
""focus"",""33"",""187682""
","""event"",""trial"",""time""
""fullscreenenter"",""0"",""2538""
","""event"",""trial"",""time""
""fullscreenexit"",""4"",""22823""
","null","<p></p>","null","","","","","","","","","","","","","","","","","","","","","","","",""
"","do_recog","91","337190","0.0-55.0-0.0","""event"",""trial"",""time""
""fullscreenenter"",""0"",""2538""
""fullscreenexit"",""4"",""22823""
""blur"",""4"",""25090""
""focus"",""4"",""26337""
""blur"",""6"",""34870""
""focus"",""6"",""37086""
""blur"",""6"",""44223""
""focus"",""6"",""45874""
""blur"",""33"",""185621""
""focus"",""33"",""187682""
","""event"",""trial"",""time""
""blur"",""4"",""25090""
""blur"",""6"",""34870""
""blur"",""6"",""44223""
""blur"",""33"",""185621""
","""event"",""trial"",""time""
""focus"",""4"",""26337""
""focus"",""6"",""37086""
""focus"",""6"",""45874""
""focus"",""33"",""187682""
","""event"",""trial"",""time""
""fullscreenenter"",""0"",""2538""
","""event"",""trial"",""time""
""fullscreenexit"",""4"",""22823""
","1813.5","","","","","","","","53","","","","266","probe-212","","","","","1","[object Object]","114","2","1","","","",""
"","html-keyboard-response","92","338200","0.0-55.0-1.0","""event"",""trial"",""time""
""fullscreenenter"",""0"",""2538""
""fullscreenexit"",""4"",""22823""
""blur"",""4"",""25090""
""focus"",""4"",""26337""
""blur"",""6"",""34870""
""focus"",""6"",""37086""
""blur"",""6"",""44223""
""focus"",""6"",""45874""
""blur"",""33"",""185621""
""focus"",""33"",""187682""
","""event"",""trial"",""time""
""blur"",""4"",""25090""
""blur"",""6"",""34870""
""blur"",""6"",""44223""
""blur"",""33"",""185621""
","""event"",""trial"",""time""
""focus"",""4"",""26337""
""focus"",""6"",""37086""
""focus"",""6"",""45874""
""focus"",""33"",""187682""
","""event"",""trial"",""time""
""fullscreenenter"",""0"",""2538""
","""event"",""trial"",""time""
""fullscreenexit"",""4"",""22823""
","null","<p></p>","null","","","","","","","","","","","","","","","","","","","","","","","",""
"","do_trial","93","341914","0.0-56.0-0.0","""event"",""trial"",""time""
""fullscreenenter"",""0"",""2538""
""fullscreenexit"",""4"",""22823""
""blur"",""4"",""25090""
""focus"",""4"",""26337""
""blur"",""6"",""34870""
""focus"",""6"",""37086""
""blur"",""6"",""44223""
""focus"",""6"",""45874""
""blur"",""33"",""185621""
""focus"",""33"",""187682""
","""event"",""trial"",""time""
""blur"",""4"",""25090""
""blur"",""6"",""34870""
""blur"",""6"",""44223""
""blur"",""33"",""185621""
","""event"",""trial"",""time""
""focus"",""4"",""26337""
""focus"",""6"",""37086""
""focus"",""6"",""45874""
""focus"",""33"",""187682""
","""event"",""trial"",""time""
""fullscreenenter"",""0"",""2538""
","""event"",""trial"",""time""
""fullscreenexit"",""4"",""22823""
","1176.1000000014901","","","","","","","","51","0,1,0","6","blank","267","null","0.3143516685843764","0.6986357769841364","0.4640717467931075","0","","","","","","","","",""
"","html-keyboard-response","94","342926","0.0-56.0-1.0","""event"",""trial"",""time""
""fullscreenenter"",""0"",""2538""
""fullscreenexit"",""4"",""22823""
""blur"",""4"",""25090""
""focus"",""4"",""26337""
""blur"",""6"",""34870""
""focus"",""6"",""37086""
""blur"",""6"",""44223""
""focus"",""6"",""45874""
""blur"",""33"",""185621""
""focus"",""33"",""187682""
","""event"",""trial"",""time""
""blur"",""4"",""25090""
""blur"",""6"",""34870""
""blur"",""6"",""44223""
""blur"",""33"",""185621""
","""event"",""trial"",""time""
""focus"",""4"",""26337""
""focus"",""6"",""37086""
""focus"",""6"",""45874""
""focus"",""33"",""187682""
","""event"",""trial"",""time""
""fullscreenenter"",""0"",""2538""
","""event"",""trial"",""time""
""fullscreenexit"",""4"",""22823""
","null","<p></p>","null","","","","","","","","","","","","","","","","","","","","","","","",""
"","do_trial","95","345925","0.0-57.0-0.0","""event"",""trial"",""time""
""fullscreenenter"",""0"",""2538""
""fullscreenexit"",""4"",""22823""
""blur"",""4"",""25090""
""focus"",""4"",""26337""
""blur"",""6"",""34870""
""focus"",""6"",""37086""
""blur"",""6"",""44223""
""focus"",""6"",""45874""
""blur"",""33"",""185621""
""focus"",""33"",""187682""
","""event"",""trial"",""time""
""blur"",""4"",""25090""
""blur"",""6"",""34870""
""blur"",""6"",""44223""
""blur"",""33"",""185621""
","""event"",""trial"",""time""
""focus"",""4"",""26337""
""focus"",""6"",""37086""
""focus"",""6"",""45874""
""focus"",""33"",""187682""
","""event"",""trial"",""time""
""fullscreenenter"",""0"",""2538""
","""event"",""trial"",""time""
""fullscreenexit"",""4"",""22823""
","449.1000000014901","","","","","","","","51","0,1,0","6","blank","268","null","0.2300050566372768","0.7368946824517236","0.5369966280132538","0","","","","","","","","",""
"","html-keyboard-response","96","346937","0.0-57.0-1.0","""event"",""trial"",""time""
""fullscreenenter"",""0"",""2538""
""fullscreenexit"",""4"",""22823""
""blur"",""4"",""25090""
""focus"",""4"",""26337""
""blur"",""6"",""34870""
""focus"",""6"",""37086""
""blur"",""6"",""44223""
""focus"",""6"",""45874""
""blur"",""33"",""185621""
""focus"",""33"",""187682""
","""event"",""trial"",""time""
""blur"",""4"",""25090""
""blur"",""6"",""34870""
""blur"",""6"",""44223""
""blur"",""33"",""185621""
","""event"",""trial"",""time""
""focus"",""4"",""26337""
""focus"",""6"",""37086""
""focus"",""6"",""45874""
""focus"",""33"",""187682""
","""event"",""trial"",""time""
""fullscreenenter"",""0"",""2538""
","""event"",""trial"",""time""
""fullscreenexit"",""4"",""22823""
","null","<p></p>","null","","","","","","","","","","","","","","","","","","","","","","","",""
"","break","97","393472","0.0-58.0-0.0","""event"",""trial"",""time""
""fullscreenenter"",""0"",""2538""
""fullscreenexit"",""4"",""22823""
""blur"",""4"",""25090""
""focus"",""4"",""26337""
""blur"",""6"",""34870""
""focus"",""6"",""37086""
""blur"",""6"",""44223""
""focus"",""6"",""45874""
""blur"",""33"",""185621""
""focus"",""33"",""187682""
","""event"",""trial"",""time""
""blur"",""4"",""25090""
""blur"",""6"",""34870""
""blur"",""6"",""44223""
""blur"",""33"",""185621""
","""event"",""trial"",""time""
""focus"",""4"",""26337""
""focus"",""6"",""37086""
""focus"",""6"",""45874""
""focus"",""33"",""187682""
","""event"",""trial"",""time""
""fullscreenenter"",""0"",""2538""
","""event"",""trial"",""time""
""fullscreenexit"",""4"",""22823""
","46533.199999999255","<div class='center'><p>Time to take a quick break! You have 2 minutes to rest, but you can move on sooner if you'd like.</p><p> Press the <b>space bar</b> to continue.</p></div>","32","","","","","","","","","","","","","","","","","","","","","","","",""
"","do_trial","98","398658","0.0-58.0-1.0","""event"",""trial"",""time""
""fullscreenenter"",""0"",""2538""
""fullscreenexit"",""4"",""22823""
""blur"",""4"",""25090""
""focus"",""4"",""26337""
""blur"",""6"",""34870""
""focus"",""6"",""37086""
""blur"",""6"",""44223""
""focus"",""6"",""45874""
""blur"",""33"",""185621""
""focus"",""33"",""187682""
","""event"",""trial"",""time""
""blur"",""4"",""25090""
""blur"",""6"",""34870""
""blur"",""6"",""44223""
""blur"",""33"",""185621""
","""event"",""trial"",""time""
""focus"",""4"",""26337""
""focus"",""6"",""37086""
""focus"",""6"",""45874""
""focus"",""33"",""187682""
","""event"",""trial"",""time""
""fullscreenenter"",""0"",""2538""
","""event"",""trial"",""time""
""fullscreenexit"",""4"",""22823""
","2649.699999999255","","","","","","","","51","0,1,1","6","blank","269","null","0.17994600384774725","0.6993038036448432","0.5185027905154946","1","","","","","","","","",""
"","html-keyboard-response","99","399668","0.0-58.0-2.0","""event"",""trial"",""time""
""fullscreenenter"",""0"",""2538""
""fullscreenexit"",""4"",""22823""
""blur"",""4"",""25090""
""focus"",""4"",""26337""
""blur"",""6"",""34870""
""focus"",""6"",""37086""
""blur"",""6"",""44223""
""focus"",""6"",""45874""
""blur"",""33"",""185621""
""focus"",""33"",""187682""
","""event"",""trial"",""time""
""blur"",""4"",""25090""
""blur"",""6"",""34870""
""blur"",""6"",""44223""
""blur"",""33"",""185621""
","""event"",""trial"",""time""
""focus"",""4"",""26337""
""focus"",""6"",""37086""
""focus"",""6"",""45874""
""focus"",""33"",""187682""
","""event"",""trial"",""time""
""fullscreenenter"",""0"",""2538""
","""event"",""trial"",""time""
""fullscreenexit"",""4"",""22823""
","null","<p></p>","null","","","","","","","","","","","","","","","","","","","","","","","",""
"","do_recog","100","403065","0.0-59.0-0.0","""event"",""trial"",""time""
""fullscreenenter"",""0"",""2538""
""fullscreenexit"",""4"",""22823""
""blur"",""4"",""25090""
""focus"",""4"",""26337""
""blur"",""6"",""34870""
""focus"",""6"",""37086""
""blur"",""6"",""44223""
""focus"",""6"",""45874""
""blur"",""33"",""185621""
""focus"",""33"",""187682""
","""event"",""trial"",""time""
""blur"",""4"",""25090""
""blur"",""6"",""34870""
""blur"",""6"",""44223""
""blur"",""33"",""185621""
","""event"",""trial"",""time""
""focus"",""4"",""26337""
""focus"",""6"",""37086""
""focus"",""6"",""45874""
""focus"",""33"",""187682""
","""event"",""trial"",""time""
""fullscreenenter"",""0"",""2538""
","""event"",""trial"",""time""
""fullscreenexit"",""4"",""22823""
","1889.1000000014901","","","","","","","","53","","","","270","probe-215","","","","","1","[object Object]","78","1","1","","","",""
"","html-keyboard-response","101","404076","0.0-59.0-1.0","""event"",""trial"",""time""
""fullscreenenter"",""0"",""2538""
""fullscreenexit"",""4"",""22823""
""blur"",""4"",""25090""
""focus"",""4"",""26337""
""blur"",""6"",""34870""
""focus"",""6"",""37086""
""blur"",""6"",""44223""
""focus"",""6"",""45874""
""blur"",""33"",""185621""
""focus"",""33"",""187682""
","""event"",""trial"",""time""
""blur"",""4"",""25090""
""blur"",""6"",""34870""
""blur"",""6"",""44223""
""blur"",""33"",""185621""
","""event"",""trial"",""time""
""focus"",""4"",""26337""
""focus"",""6"",""37086""
""focus"",""6"",""45874""
""focus"",""33"",""187682""
","""event"",""trial"",""time""
""fullscreenenter"",""0"",""2538""
","""event"",""trial"",""time""
""fullscreenexit"",""4"",""22823""
","null","<p></p>","null","","","","","","","","","","","","","","","","","","","","","","","",""
"","do_trial","102","407681","0.0-60.0-0.0","""event"",""trial"",""time""
""fullscreenenter"",""0"",""2538""
""fullscreenexit"",""4"",""22823""
""blur"",""4"",""25090""
""focus"",""4"",""26337""
""blur"",""6"",""34870""
""focus"",""6"",""37086""
""blur"",""6"",""44223""
""focus"",""6"",""45874""
""blur"",""33"",""185621""
""focus"",""33"",""187682""
","""event"",""trial"",""time""
""blur"",""4"",""25090""
""blur"",""6"",""34870""
""blur"",""6"",""44223""
""blur"",""33"",""185621""
","""event"",""trial"",""time""
""focus"",""4"",""26337""
""focus"",""6"",""37086""
""focus"",""6"",""45874""
""focus"",""33"",""187682""
","""event"",""trial"",""time""
""fullscreenenter"",""0"",""2538""
","""event"",""trial"",""time""
""fullscreenexit"",""4"",""22823""
","1057.800000000745","","","","","","","","51","1,0,0","6","blank","271","null","0.13498399901343178","0.6305812695521545","0.5519532005895514","0","","","","","","","","",""
"","html-keyboard-response","103","408695","0.0-60.0-1.0","""event"",""trial"",""time""
""fullscreenenter"",""0"",""2538""
""fullscreenexit"",""4"",""22823""
""blur"",""4"",""25090""
""focus"",""4"",""26337""
""blur"",""6"",""34870""
""focus"",""6"",""37086""
""blur"",""6"",""44223""
""focus"",""6"",""45874""
""blur"",""33"",""185621""
""focus"",""33"",""187682""
","""event"",""trial"",""time""
""blur"",""4"",""25090""
""blur"",""6"",""34870""
""blur"",""6"",""44223""
""blur"",""33"",""185621""
","""event"",""trial"",""time""
""focus"",""4"",""26337""
""focus"",""6"",""37086""
""focus"",""6"",""45874""
""focus"",""33"",""187682""
","""event"",""trial"",""time""
""fullscreenenter"",""0"",""2538""
","""event"",""trial"",""time""
""fullscreenexit"",""4"",""22823""
","null","<p></p>","null","","","","","","","","","","","","","","","","","","","","","","","",""
"","do_trial","104","411488","0.0-61.0-0.0","""event"",""trial"",""time""
""fullscreenenter"",""0"",""2538""
""fullscreenexit"",""4"",""22823""
""blur"",""4"",""25090""
""focus"",""4"",""26337""
""blur"",""6"",""34870""
""focus"",""6"",""37086""
""blur"",""6"",""44223""
""focus"",""6"",""45874""
""blur"",""33"",""185621""
""focus"",""33"",""187682""
","""event"",""trial"",""time""
""blur"",""4"",""25090""
""blur"",""6"",""34870""
""blur"",""6"",""44223""
""blur"",""33"",""185621""
","""event"",""trial"",""time""
""focus"",""4"",""26337""
""focus"",""6"",""37086""
""focus"",""6"",""45874""
""focus"",""33"",""187682""
","""event"",""trial"",""time""
""fullscreenenter"",""0"",""2538""
","""event"",""trial"",""time""
""fullscreenexit"",""4"",""22823""
","249.30000000074506","","","","","","","","50","0,1,0","6","blank","272","null","0.08224422953934266","0.8927349874942953","0.5361775573414487","1","","","","","","","","",""
"","html-keyboard-response","105","412499","0.0-61.0-1.0","""event"",""trial"",""time""
""fullscreenenter"",""0"",""2538""
""fullscreenexit"",""4"",""22823""
""blur"",""4"",""25090""
""focus"",""4"",""26337""
""blur"",""6"",""34870""
""focus"",""6"",""37086""
""blur"",""6"",""44223""
""focus"",""6"",""45874""
""blur"",""33"",""185621""
""focus"",""33"",""187682""
","""event"",""trial"",""time""
""blur"",""4"",""25090""
""blur"",""6"",""34870""
""blur"",""6"",""44223""
""blur"",""33"",""185621""
","""event"",""trial"",""time""
""focus"",""4"",""26337""
""focus"",""6"",""37086""
""focus"",""6"",""45874""
""focus"",""33"",""187682""
","""event"",""trial"",""time""
""fullscreenenter"",""0"",""2538""
","""event"",""trial"",""time""
""fullscreenexit"",""4"",""22823""
","null","<p></p>","null","","","","","","","","","","","","","","","","","","","","","","","",""
"","do_trial","106","415504","0.0-62.0-0.0","""event"",""trial"",""time""
""fullscreenenter"",""0"",""2538""
""fullscreenexit"",""4"",""22823""
""blur"",""4"",""25090""
""focus"",""4"",""26337""
""blur"",""6"",""34870""
""focus"",""6"",""37086""
""blur"",""6"",""44223""
""focus"",""6"",""45874""
""blur"",""33"",""185621""
""focus"",""33"",""187682""
","""event"",""trial"",""time""
""blur"",""4"",""25090""
""blur"",""6"",""34870""
""blur"",""6"",""44223""
""blur"",""33"",""185621""
","""event"",""trial"",""time""
""focus"",""4"",""26337""
""focus"",""6"",""37086""
""focus"",""6"",""45874""
""focus"",""33"",""187682""
","""event"",""trial"",""time""
""fullscreenenter"",""0"",""2538""
","""event"",""trial"",""time""
""fullscreenexit"",""4"",""22823""
","466.6000000014901","","","","","","","","50","0,1,1","6","blank","273","null","0.06176424355018","0.7517866052386134","0.48240426027214106","1","","","","","","","","",""
