"success","trial_type","trial_index","time_elapsed","internal_node_id","interactions","blur_events","focus_events","fullscreenenter_events","fullscreenexit_events","rt","stimulus","key_press","subject_id","participant_id","age","gender","prompt","response","choice_outcomes","context_n","context_img_id","trial_n","probe_img_id","pR_red","pR_white","pR_black","outcome","is_valid","image_to_show","probed_trial","probed_context","correct","probe","probed_trial_n","probed_context_n","context_im"
"true","fullscreen","0","4978","0.0-0.0","""event"",""trial"",""time""
""fullscreenenter"",""0"",""4212""
","
","
","""event"",""trial"",""time""
""fullscreenenter"",""0"",""4212""
","
","","","","","","","","","","","","","","","","","","","","","","","","","","",""
"","pavlovia","1","4984","0.0-1.0","""event"",""trial"",""time""
""fullscreenenter"",""0"",""4212""
","
","
","""event"",""trial"",""time""
""fullscreenenter"",""0"",""4212""
","
","","","","","","","","","","","","","","","","","","","","","","","","","","",""
"","welc_back","2","14864","0.0-2.0","""event"",""trial"",""time""
""fullscreenenter"",""0"",""4212""
","
","
","""event"",""trial"",""time""
""fullscreenenter"",""0"",""4212""
","
","null","run_exp/static/audio/clip_29_welcome_back.m4a","null","450","738","11","Male","<div class='center'><p>Welcome to day 2!</p><p> Yesterday, you were the head captain of a pirate ship. You asked your fellow pirates to rob other ships of their gold across six different islands.</p></div>","","","","","","","","","","","","","","","","","","",""
"","html-keyboard-response","3","16450","0.0-3.0","""event"",""trial"",""time""
""fullscreenenter"",""0"",""4212""
","
","
","""event"",""trial"",""time""
""fullscreenenter"",""0"",""4212""
","
","1581","<div class='center'><p>Welcome to day 2!</p><p> Yesterday, you were the head captain of a pirate ship. You asked your fellow pirates to rob other ships of their gold across six different islands.</p><p><b>[Press the space bar to continue]</b></p></div>","32","","","","","","","","","","","","","","","","","","","","","","","",""
"","day_1_summary_goal","4","33758","0.0-4.0","""event"",""trial"",""time""
""fullscreenenter"",""0"",""4212""
","
","
","""event"",""trial"",""time""
""fullscreenenter"",""0"",""4212""
","
","null","run_exp/static/audio/clip_30_goal_of_game.m4a","null","","","","","<div class='center'><p>Today, like yesterday, you get to pick which pirate you want to rob the next ship.</p><p>If the pirate is successful in robbing a ship, you get gold coins that look like this: </p><p><img src='run_exp/static/images/tutorial/reward.png' height='150'></p><p> If they were not successful in robbing the ship, then you will get no gold coins and you'll see a big red x like this: </p><p><img src='run_exp/static/images/tutorial/reward_no.png' height='150'></p></div>","","","","","","","","","","","","","","","","","","",""
"","html-keyboard-response","5","35247","0.0-5.0","""event"",""trial"",""time""
""fullscreenenter"",""0"",""4212""
","
","
","""event"",""trial"",""time""
""fullscreenenter"",""0"",""4212""
","
","1486","<div class='center'><p>Today, like yesterday, you get to pick which pirate you want to rob the next ship.</p><p>If the pirate is successful in robbing a ship, you get gold coins that look like this: </p><p><img src='run_exp/static/images/tutorial/reward.png' height='150'></p><p> If they were not successful in robbing the ship, then you will get no gold coins and you'll see a big red x like this: </p><p><img src='run_exp/static/images/tutorial/reward_no.png' height='150'></p><p><b>[Press the space bar to continue]</b></p></div>","32","","","","","","","","","","","","","","","","","","","","","","","",""
"","day_1_summary_pick","6","49991","0.0-6.0","""event"",""trial"",""time""
""fullscreenenter"",""0"",""4212""
","
","
","""event"",""trial"",""time""
""fullscreenenter"",""0"",""4212""
","
","null","run_exp/static/audio/clip_31_how_to_pick_a_pirate.m4a","null","","","","","<div class='center'><p>Also, just like yesterday, you will use the 1,2,3 keys on your keyboard to pick a pirate. Press '1' to choose red beard, '2' to choose white beard, and '3' to choose black beard . You only have 3 seconds to pick a pirate, so please make a choice quickly!</p></div>","","","","","","","","","","","","","","","","","","",""
"","html-keyboard-response","7","51650","0.0-7.0","""event"",""trial"",""time""
""fullscreenenter"",""0"",""4212""
","
","
","""event"",""trial"",""time""
""fullscreenenter"",""0"",""4212""
","
","1659","<div class='center'><p>Also, just like yesterday, you will use the 1,2,3 keys on your keyboard to pick a pirate. Press '1' to choose red beard, '2' to choose white beard, and '3' to choose black beard . You only have 3 seconds to pick a pirate, so please make a choice quickly!</p><p><b>[Press the space bar to continue]</b></p></div>","32","","","","","","","","","","","","","","","","","","","","","","","",""
"","test_phase_begin","8","82101","0.0-8.0","""event"",""trial"",""time""
""fullscreenenter"",""0"",""4212""
","
","
","""event"",""trial"",""time""
""fullscreenenter"",""0"",""4212""
","
","null","run_exp/static/audio/clip_32_final_place.m4a","null","","","","","<div class='center'><p>You’ve arrived at the final island of your journey! Unfortunately, it’s very foggy out, so you won’t be able to see it in the distance like the other islands you've visited.</p><p>You’ll still be deciding which pirate you want to rob a ship like before. However, because of the fog, you also won’t be able to see the ship.</p><p>This means you do not have to remember the ships you rob on this island.</p><p>Unlike yesterday, you won't be visiting multiple islands today. You will stay on this island for the entire game. This game will last ~30 minutes.</p></div>","","","","","","","","","","","","","","","","","","",""
"","html-keyboard-response","9","84064","0.0-9.0","""event"",""trial"",""time""
""fullscreenenter"",""0"",""4212""
","
","
","""event"",""trial"",""time""
""fullscreenenter"",""0"",""4212""
","
","1958","<div class='center'><p>You’ve arrived at the final island of your journey! Unfortunately, it’s very foggy out, so you won’t be able to see it in the distance like the other islands you've visited.</p><p>You’ll still be deciding which pirate you want to rob a ship like before. However, because of the fog, you also won’t be able to see the ship.</p><p>This means you do not have to remember the ships you rob on this island.</p><p>Unlike yesterday, you won't be visiting multiple islands today. You will stay on this island for the entire game. This game will last ~30 minutes.</p><p><b>[Press the space bar to continue]</b></p></div>","32","","","","","","","","","","","","","","","","","","","","","","","",""
"","explain_probe_1","10","91839","0.0-10.0","""event"",""trial"",""time""
""fullscreenenter"",""0"",""4212""
","
","
","""event"",""trial"",""time""
""fullscreenenter"",""0"",""4212""
","
","null","run_exp/static/audio/clip_33_recognition_1.m4a","null","","","","","<div class='center'><p> Sometimes you’ll be shown a ship, and you will be asked if you saw this ship on a past island.</p><p> Here is an example of what you will see.</p><p><img src='run_exp/static/images/tutorial/example_recog_trial.png' height='500'></p></div>","","","","","","","","","","","","","","","","","","",""
"","html-keyboard-response","11","95212","0.0-11.0","""event"",""trial"",""time""
""fullscreenenter"",""0"",""4212""
","
","
","""event"",""trial"",""time""
""fullscreenenter"",""0"",""4212""
","
","3372","<div class='center'><p> Sometimes you’ll be shown a ship, and you will be asked if you saw this ship on a past island.</p><p> Here is an example of what you will see.</p><p><img src='run_exp/static/images/tutorial/example_recog_trial.png' height='500'></p><p><b>[Press the space bar to continue]</b></p></div>","32","","","","","","","","","","","","","","","","","","","","","","","",""
"","explain_probe_2","12","116968","0.0-12.0","""event"",""trial"",""time""
""fullscreenenter"",""0"",""4212""
","
","
","""event"",""trial"",""time""
""fullscreenenter"",""0"",""4212""
","
","null","run_exp/static/audio/clip_34_recognition_2.m4a","null","","","","","<div class='center'><p> You will press the 5, 6, 7, 8 keys on your keyboard to respond.</p><p>If you are sure you saw the ship, press <b>5</b> on your keyboard.</p><p> If you think you saw it before but aren't sure, then press <b>6</b>.</p><p> If you think you have <b>not</b> seen it before but aren't sure, then press <b>7</b>.</p><p> If you are sure you did <b>not</b> see the ship before, then press <b>8</b>.</p><p><img src='run_exp/static/images/tutorial/example_recog_trial.png' height='500'></p></div>","","","","","","","","","","","","","","","","","","",""
"","html-keyboard-response","13","119402","0.0-13.0","""event"",""trial"",""time""
""fullscreenenter"",""0"",""4212""
","
","
","""event"",""trial"",""time""
""fullscreenenter"",""0"",""4212""
","
","2433","<div class='center'><p> You will press the 5, 6, 7, 8 keys on your keyboard to respond.</p><p>If you are sure you saw the ship, press <b>5</b> on your keyboard.</p><p> If you think you saw it before but aren't sure, then press <b>6</b>.</p><p> If you think you have <b>not</b> seen it before but aren't sure, then press <b>7</b>.</p><p> If you are sure you did <b>not</b> see the ship before, then press <b>8</b>.</p><p><img src='run_exp/static/images/tutorial/example_recog_trial.png' height='500'></p><p><b>[Press the space bar to continue]</b></p></div>","32","","","","","","","","","","","","","","","","","","","","","","","",""
"","explain_outcome","14","136698","0.0-14.0","""event"",""trial"",""time""
""fullscreenenter"",""0"",""4212""
","
","
","""event"",""trial"",""time""
""fullscreenenter"",""0"",""4212""
","
","null","run_exp/static/audio/clip_35_recognition_3.m4a","null","","","","","<div class='center'><p> If you remember correctly, then you’ll get a gold coin like this: </p><p><img src='run_exp/static/images/tutorial/reward_small.png' height='200'></p><p>If you do not remember correctly, then you'll see a red x like this: </p><p><img src='run_exp/static/images/tutorial/reward_no.png' height='200'></p><p>Importantly, when you are shown a ship, take the time to remind yourself which island you saw it on. This will help you in the next part of the study.</p></div>","","","","","","","","","","","","","","","","","","",""
"","html-keyboard-response","15","138282","0.0-15.0","""event"",""trial"",""time""
""fullscreenenter"",""0"",""4212""
","
","
","""event"",""trial"",""time""
""fullscreenenter"",""0"",""4212""
","
","1582","<div class='center'><p> If you remember correctly, then you’ll get a gold coin like this: </p><p><img src='run_exp/static/images/tutorial/reward_small.png' height='200'></p><p>If you do not remember correctly, then you'll see a red x like this: </p><p><img src='run_exp/static/images/tutorial/reward_no.png' height='200'></p><p>Importantly, when you are shown a ship, take the time to remind yourself which island you saw it on. This will help you in the next part of the study.</p><p><b>[Press the space bar to continue]</b></p></div>","32","","","","","","","","","","","","","","","","","","","","","","","",""
"","begin_test_phase","16","154143","0.0-16.0","""event"",""trial"",""time""
""fullscreenenter"",""0"",""4212""
","
","
","""event"",""trial"",""time""
""fullscreenenter"",""0"",""4212""
","
","null","run_exp/static/audio/clip_36_begin_final.m4a","null","","","","","<div class='center'><p>Let's go over the important points again. Your job is to: </p><p>1. Pick the pirate who is best at robbing ships and will bring you back gold coins. </p><p>2. Correctly remember whether or not you saw a ship before. If you did see the ship before, remind yourself on which island you saw it. </p></div>","","","","","","","","","","","","","","","","","","",""
"","html-keyboard-response","17","159306","0.0-17.0","""event"",""trial"",""time""
""fullscreenenter"",""0"",""4212""
","
","
","""event"",""trial"",""time""
""fullscreenenter"",""0"",""4212""
","
","5070","<div class='center'><p>Let's go over the important points again. Your job is to: </p><p>1. Pick the pirate who is best at robbing ships and will bring you back gold coins. </p><p>2. Correctly remember whether or not you saw a ship before. If you did see the ship before, remind yourself on which island you saw it. </p><p><b>[Press the space bar to continue]</b></p></div>","32","","","","","","","","","","","","","","","","","","","","","","","",""
"","do_welcome","18","163423","0.0-18.0","""event"",""trial"",""time""
""fullscreenenter"",""0"",""4212""
","
","
","""event"",""trial"",""time""
""fullscreenenter"",""0"",""4212""
","
","null","","","","","","","","null","","","","","","","","","","","","","","","","","",""
"","do_trial","19","169490","0.0-19.0-0.0","""event"",""trial"",""time""
""fullscreenenter"",""0"",""4212""
","
","
","""event"",""trial"",""time""
""fullscreenenter"",""0"",""4212""
","
","null","","","","","","","","null","0,1,0","6","blank","230","null","0.2949207332847078","0.21834219378777397","0.5267094350333955","","","","","","","","","",""
"","html-keyboard-response","20","170502","0.0-19.0-1.0","""event"",""trial"",""time""
""fullscreenenter"",""0"",""4212""
","
","
","""event"",""trial"",""time""
""fullscreenenter"",""0"",""4212""
","
","null","<p></p>","null","","","","","","","","","","","","","","","","","","","","","","","",""
"","do_trial","21","174552","0.0-20.0-0.0","""event"",""trial"",""time""
""fullscreenenter"",""0"",""4212""
","
","
","""event"",""trial"",""time""
""fullscreenenter"",""0"",""4212""
","
","1489","","","","","","","","51","0,0,1","6","blank","231","null","0.25771431827433433","0.08843261591762654","0.5505168038284515","1","","","","","","","","",""
"","html-keyboard-response","22","175563","0.0-20.0-1.0","""event"",""trial"",""time""
""fullscreenenter"",""0"",""4212""
","
","
","""event"",""trial"",""time""
""fullscreenenter"",""0"",""4212""
","
","null","<p></p>","null","","","","","","","","","","","","","","","","","","","","","","","",""
"","do_trial","23","178992","0.0-21.0-0.0","""event"",""trial"",""time""
""fullscreenenter"",""0"",""4212""
","
","
","""event"",""trial"",""time""
""fullscreenenter"",""0"",""4212""
","
","862","","","","","","","","51","1,0,0","6","blank","232","null","0.2752979615234586","0.16317728985161478","0.637743518733943","0","","","","","","","","",""
"","html-keyboard-response","24","180005","0.0-21.0-1.0","""event"",""trial"",""time""
""fullscreenenter"",""0"",""4212""
","
","
","""event"",""trial"",""time""
""fullscreenenter"",""0"",""4212""
","
","null","<p></p>","null","","","","","","","","","","","","","","","","","","","","","","","",""
"","do_trial","25","186084","0.0-22.0-0.0","""event"",""trial"",""time""
""fullscreenenter"",""0"",""4212""
","
","
","""event"",""trial"",""time""
""fullscreenenter"",""0"",""4212""
","
","null","","","","","","","","null","0,0,1","6","blank","233","null","0.13450666630634053","0.09073257716406823","0.5587002871737707","","","","","","","","","",""
"","html-keyboard-response","26","187104","0.0-22.0-1.0","""event"",""trial"",""time""
""fullscreenenter"",""0"",""4212""
","
","
","""event"",""trial"",""time""
""fullscreenenter"",""0"",""4212""
","
","null","<p></p>","null","","","","","","","","","","","","","","","","","","","","","","","",""
"","do_trial","27","190273","0.0-23.0-0.0","""event"",""trial"",""time""
""fullscreenenter"",""0"",""4212""
","
","
","""event"",""trial"",""time""
""fullscreenenter"",""0"",""4212""
","
","626","","","","","","","","49","0,0,1","6","blank","234","null","0.24339033521747586","0.08339376510614117","0.627016160551592","0","","","","","","","","",""
"","html-keyboard-response","28","191284","0.0-23.0-1.0","""event"",""trial"",""time""
""fullscreenenter"",""0"",""4212""
","
","
","""event"",""trial"",""time""
""fullscreenenter"",""0"",""4212""
","
","null","<p></p>","null","","","","","","","","","","","","","","","","","","","","","","","",""
"","do_trial","29","194324","0.0-24.0-0.0","""event"",""trial"",""time""
""fullscreenenter"",""0"",""4212""
","
","
","""event"",""trial"",""time""
""fullscreenenter"",""0"",""4212""
","
","497","","","","","","","","51","0,0,1","6","blank","235","null","0.37865758610542977","0.07501398865013925","0.6280924897969252","1","","","","","","","","",""
"","html-keyboard-response","30","195344","0.0-24.0-1.0","""event"",""trial"",""time""
""fullscreenenter"",""0"",""4212""
","
","
","""event"",""trial"",""time""
""fullscreenenter"",""0"",""4212""
","
","null","<p></p>","null","","","","","","","","","","","","","","","","","","","","","","","",""
"","do_trial","31","201394","0.0-25.0-0.0","""event"",""trial"",""time""
""fullscreenenter"",""0"",""4212""
","
","
","""event"",""trial"",""time""
""fullscreenenter"",""0"",""4212""
","
","null","","","","","","","","null","0,0,1","6","blank","236","null","0.3457167341622778","0.23016562696057805","0.6597870937107204","","","","","","","","","",""
"","html-keyboard-response","32","202408","0.0-25.0-1.0","""event"",""trial"",""time""
""fullscreenenter"",""0"",""4212""
","
","
","""event"",""trial"",""time""
""fullscreenenter"",""0"",""4212""
","
","null","<p></p>","null","","","","","","","","","","","","","","","","","","","","","","","",""
"","do_trial","33","205482","0.0-26.0-0.0","""event"",""trial"",""time""
""fullscreenenter"",""0"",""4212""
","
","
","""event"",""trial"",""time""
""fullscreenenter"",""0"",""4212""
","
","531","","","","","","","","50","0,0,0","6","blank","237","null","0.3626099033528313","0.13016854278688256","0.7067703526231105","0","","","","","","","","",""
"","html-keyboard-response","34","206491","0.0-26.0-1.0","""event"",""trial"",""time""
""fullscreenenter"",""0"",""4212""
","
","
","""event"",""trial"",""time""
""fullscreenenter"",""0"",""4212""
","
","null","<p></p>","null","","","","","","","","","","","","","","","","","","","","","","","",""
"","do_trial","35","209579","0.0-27.0-0.0","""event"",""trial"",""time""
""fullscreenenter"",""0"",""4212""
","
","
","""event"",""trial"",""time""
""fullscreenenter"",""0"",""4212""
","
","546","","","","","","","","49","0,1,1","6","blank","238","null","0.17900726636582143","0.333669638809306","0.6346484239543043","0","","","","","","","","",""
"","html-keyboard-response","36","210583","0.0-27.0-1.0","""event"",""trial"",""time""
""fullscreenenter"",""0"",""4212""
","
","
","""event"",""trial"",""time""
""fullscreenenter"",""0"",""4212""
","
","null","<p></p>","null","","","","","","","","","","","","","","","","","","","","","","","",""
"","do_trial","37","213727","0.0-28.0-0.0","""event"",""trial"",""time""
""fullscreenenter"",""0"",""4212""
","
","
","""event"",""trial"",""time""
""fullscreenenter"",""0"",""4212""
","
","598","","","","","","","","51","0,1,0","6","blank","239","null","0.23928484140907277","0.2809260521546692","0.6394320401512883","0","","","","","","","","",""
"","html-keyboard-response","38","214728","0.0-28.0-1.0","""event"",""trial"",""time""
""fullscreenenter"",""0"",""4212""
","
","
","""event"",""trial"",""time""
""fullscreenenter"",""0"",""4212""
","
","null","<p></p>","null","","","","","","","","","","","","","","","","","","","","","","","",""
"","do_trial","39","217684","0.0-29.0-0.0","""event"",""trial"",""time""
""fullscreenenter"",""0"",""4212""
","
","
","""event"",""trial"",""time""
""fullscreenenter"",""0"",""4212""
","
","404","","","","","","","","50","0,0,1","6","blank","240","null","0.1763435602965576","0.3256365377149992","0.6238058509567405","0","","","","","","","","",""
"","html-keyboard-response","40","218687","0.0-29.0-1.0","""event"",""trial"",""time""
""fullscreenenter"",""0"",""4212""
","
","
","""event"",""trial"",""time""
""fullscreenenter"",""0"",""4212""
","
","null","<p></p>","null","","","","","","","","","","","","","","","","","","","","","","","",""
"","do_recog","41","224711","0.0-30.0-0.0","""event"",""trial"",""time""
""fullscreenenter"",""0"",""4212""
","
","
","""event"",""trial"",""time""
""fullscreenenter"",""0"",""4212""
","
","null","","","","","","","","null","","","","241","probe-73","","","","","1","[object Object]","31","0","0","","","",""
"","html-keyboard-response","42","225721","0.0-30.0-1.0","""event"",""trial"",""time""
""fullscreenenter"",""0"",""4212""
","
","
","""event"",""trial"",""time""
""fullscreenenter"",""0"",""4212""
","
","null","<p></p>","null","","","","","","","","","","","","","","","","","","","","","","","",""
"","do_trial","43","229002","0.0-31.0-0.0","""event"",""trial"",""time""
""fullscreenenter"",""0"",""4212""
","
","
","""event"",""trial"",""time""
""fullscreenenter"",""0"",""4212""
","
","727","","","","","","","","50","0,1,1","6","blank","242","null","0.20510992250344298","0.4083220085801031","0.6079339705685776","1","","","","","","","","",""
"","html-keyboard-response","44","230010","0.0-31.0-1.0","""event"",""trial"",""time""
""fullscreenenter"",""0"",""4212""
","
","
","""event"",""trial"",""time""
""fullscreenenter"",""0"",""4212""
","
","null","<p></p>","null","","","","","","","","","","","","","","","","","","","","","","","",""
"","do_trial","45","232981","0.0-32.0-0.0","""event"",""trial"",""time""
""fullscreenenter"",""0"",""4212""
","
","
","""event"",""trial"",""time""
""fullscreenenter"",""0"",""4212""
","
","421","","","","","","","","51","0,1,1","6","blank","243","null","0.05432221110815776","0.5348176117507105","0.5407336192053537","1","","","","","","","","",""
"","html-keyboard-response","46","233986","0.0-32.0-1.0","""event"",""trial"",""time""
""fullscreenenter"",""0"",""4212""
","
","
","""event"",""trial"",""time""
""fullscreenenter"",""0"",""4212""
","
","null","<p></p>","null","","","","","","","","","","","","","","","","","","","","","","","",""
"","do_trial","47","236532","0.0-33.0-0.0","""event"",""trial"",""time""
""fullscreenenter"",""0"",""4212""
","
","
","""event"",""trial"",""time""
""fullscreenenter"",""0"",""4212""
","
","1","","","","","","","","50","0,1,1","6","blank","244","null","0.12535911878520564","0.7014104933479574","0.4510206448977549","1","","","","","","","","",""
"","html-keyboard-response","48","237534","0.0-33.0-1.0","""event"",""trial"",""time""
""fullscreenenter"",""0"",""4212""
","
","
","""event"",""trial"",""time""
""fullscreenenter"",""0"",""4212""
","
","null","<p></p>","null","","","","","","","","","","","","","","","","","","","","","","","",""
"","do_trial","49","240242","0.0-34.0-0.0","""event"",""trial"",""time""
""fullscreenenter"",""0"",""4212""
","
","
","""event"",""trial"",""time""
""fullscreenenter"",""0"",""4212""
","
","159","","","","","","","","50","0,1,1","6","blank","245","null","0.1267969615303663","0.6841605301116113","0.524238224068538","1","","","","","","","","",""
"","html-keyboard-response","50","241244","0.0-34.0-1.0","""event"",""trial"",""time""
""fullscreenenter"",""0"",""4212""
","
","
","""event"",""trial"",""time""
""fullscreenenter"",""0"",""4212""
","
","null","<p></p>","null","","","","","","","","","","","","","","","","","","","","","","","",""
"","do_trial","51","244124","0.0-35.0-0.0","""event"",""trial"",""time""
""fullscreenenter"",""0"",""4212""
","
","
","""event"",""trial"",""time""
""fullscreenenter"",""0"",""4212""
","
","322","","","","","","","","50","1,0,0","6","blank","246","null","0.08001033808448174","0.6124064550973712","0.37581929673180303","0","","","","","","","","",""
"","html-keyboard-response","52","245144","0.0-35.0-1.0","""event"",""trial"",""time""
""fullscreenenter"",""0"",""4212""
","
","
","""event"",""trial"",""time""
""fullscreenenter"",""0"",""4212""
","
","null","<p></p>","null","","","","","","","","","","","","","","","","","","","","","","","",""
"","do_trial","53","247714","0.0-36.0-0.0","""event"",""trial"",""time""
""fullscreenenter"",""0"",""4212""
","
","
","""event"",""trial"",""time""
""fullscreenenter"",""0"",""4212""
","
","11","","","","","","","","49","0,1,1","6","blank","247","null","0.11999071015562911","0.7292227231645538","0.23188485265190864","0","","","","","","","","",""
"","html-keyboard-response","54","248734","0.0-36.0-1.0","""event"",""trial"",""time""
""fullscreenenter"",""0"",""4212""
","
","
","""event"",""trial"",""time""
""fullscreenenter"",""0"",""4212""
","
","null","<p></p>","null","","","","","","","","","","","","","","","","","","","","","","","",""
"","do_recog","55","253181","0.0-37.0-0.0","""event"",""trial"",""time""
""fullscreenenter"",""0"",""4212""
","
","
","""event"",""trial"",""time""
""fullscreenenter"",""0"",""4212""
","
","2935","","","","","","","","55","","","","248","probe-90","","","","","1","[object Object]","191","4","0","","","",""
"","html-keyboard-response","56","254188","0.0-37.0-1.0","""event"",""trial"",""time""
""fullscreenenter"",""0"",""4212""
","
","
","""event"",""trial"",""time""
""fullscreenenter"",""0"",""4212""
","
","null","<p></p>","null","","","","","","","","","","","","","","","","","","","","","","","",""
"","do_trial","57","258665","0.0-38.0-0.0","""event"",""trial"",""time""
""fullscreenenter"",""0"",""4212""
","
","
","""event"",""trial"",""time""
""fullscreenenter"",""0"",""4212""
","
","1917","","","","","","","","51","0,1,0","6","blank","249","null","0.06923078456280474","0.7921702871065324","0.10490773531794717","0","","","","","","","","",""
"","html-keyboard-response","58","259678","0.0-38.0-1.0","""event"",""trial"",""time""
""fullscreenenter"",""0"",""4212""
","
","
","""event"",""trial"",""time""
""fullscreenenter"",""0"",""4212""
","
","null","<p></p>","null","","","","","","","","","","","","","","","","","","","","","","","",""
"","do_trial","59","262668","0.0-39.0-0.0","""event"",""trial"",""time""
""fullscreenenter"",""0"",""4212""
","
","
","""event"",""trial"",""time""
""fullscreenenter"",""0"",""4212""
","
","423","","","","","","","","50","0,1,1","6","blank","250","null","0.0642447270339728","0.6089317917672312","0.3689059364949007","1","","","","","","","","",""
"","html-keyboard-response","60","263678","0.0-39.0-1.0","""event"",""trial"",""time""
""fullscreenenter"",""0"",""4212""
","
","
","""event"",""trial"",""time""
""fullscreenenter"",""0"",""4212""
","
","null","<p></p>","null","","","","","","","","","","","","","","","","","","","","","","","",""
"","do_trial","61","266308","0.0-40.0-0.0","""event"",""trial"",""time""
""fullscreenenter"",""0"",""4212""
","
","
","""event"",""trial"",""time""
""fullscreenenter"",""0"",""4212""
","
","80","","","","","","","","49","0,1,0","6","blank","251","null","0.0747368456867788","0.603972377410886","0.22489866800880584","0","","","","","","","","",""
"","html-keyboard-response","62","267325","0.0-40.0-1.0","""event"",""trial"",""time""
""fullscreenenter"",""0"",""4212""
","
","
","""event"",""trial"",""time""
""fullscreenenter"",""0"",""4212""
","
","null","<p></p>","null","","","","","","","","","","","","","","","","","","","","","","","",""
"","do_trial","63","269871","0.0-41.0-0.0","""event"",""trial"",""time""
""fullscreenenter"",""0"",""4212""
","
","
","""event"",""trial"",""time""
""fullscreenenter"",""0"",""4212""
","
","1","","","","","","","","50","0,0,0","6","blank","252","null","0.125420909704714","0.41905865178698903","0.37085179506924687","0","","","","","","","","",""
"","html-keyboard-response","64","270873","0.0-41.0-1.0","""event"",""trial"",""time""
""fullscreenenter"",""0"",""4212""
","
","
","""event"",""trial"",""time""
""fullscreenenter"",""0"",""4212""
","
","null","<p></p>","null","","","","","","","","","","","","","","","","","","","","","","","",""
"","do_trial","65","273764","0.0-42.0-0.0","""event"",""trial"",""time""
""fullscreenenter"",""0"",""4212""
","
","
","""event"",""trial"",""time""
""fullscreenenter"",""0"",""4212""
","
","338","","","","","","","","51","1,1,1","6","blank","253","null","0.2116358661725082","0.5441248021900862","0.37827767997375744","1","","","","","","","","",""
"","html-keyboard-response","66","274780","0.0-42.0-1.0","""event"",""trial"",""time""
""fullscreenenter"",""0"",""4212""
","
","
","""event"",""trial"",""time""
""fullscreenenter"",""0"",""4212""
","
","null","<p></p>","null","","","","","","","","","","","","","","","","","","","","","","","",""
"","do_trial","67","277328","0.0-43.0-0.0","""event"",""trial"",""time""
""fullscreenenter"",""0"",""4212""
","
","
","""event"",""trial"",""time""
""fullscreenenter"",""0"",""4212""
","
","1","","","","","","","","49","0,1,0","6","blank","254","null","0.09676911313060718","0.5491595642660084","0.3496635841519596","0","","","","","","","","",""
"","html-keyboard-response","68","278334","0.0-43.0-1.0","""event"",""trial"",""time""
""fullscreenenter"",""0"",""4212""
","
","
","""event"",""trial"",""time""
""fullscreenenter"",""0"",""4212""
","
","null","<p></p>","null","","","","","","","","","","","","","","","","","","","","","","","",""
"","do_recog","69","282857","0.0-44.0-0.0","""event"",""trial"",""time""
""fullscreenenter"",""0"",""4212""
","
","
","""event"",""trial"",""time""
""fullscreenenter"",""0"",""4212""
","
","3011","","","","","","","","55","","","","255","probe-77","","","","","1","[object Object]","193","4","0","","","",""
"","html-keyboard-response","70","283868","0.0-44.0-1.0","""event"",""trial"",""time""
""fullscreenenter"",""0"",""4212""
","
","
","""event"",""trial"",""time""
""fullscreenenter"",""0"",""4212""
","
","null","<p></p>","null","","","","","","","","","","","","","","","","","","","","","","","",""
"","do_trial","71","287413","0.0-45.0-0.0","""event"",""trial"",""time""
""fullscreenenter"",""0"",""4212""
","
","
","""event"",""trial"",""time""
""fullscreenenter"",""0"",""4212""
","
","998","","","","","","","","49","0,1,1","6","blank","256","null","0.24465085395396308","0.47884963263237346","0.4059871317656995","0","","","","","","","","",""
"","html-keyboard-response","72","288418","0.0-45.0-1.0","""event"",""trial"",""time""
""fullscreenenter"",""0"",""4212""
","
","
","""event"",""trial"",""time""
""fullscreenenter"",""0"",""4212""
","
","null","<p></p>","null","","","","","","","","","","","","","","","","","","","","","","","",""
"","do_recog","73","294435","0.0-46.0-0.0","""event"",""trial"",""time""
""fullscreenenter"",""0"",""4212""
","
","
","""event"",""trial"",""time""
""fullscreenenter"",""0"",""4212""
","
","null","","","","","","","","null","","","","257","probe-07","","","","","1","[object Object]","197","4","0","","","",""
"","html-keyboard-response","74","295449","0.0-46.0-1.0","""event"",""trial"",""time""
""fullscreenenter"",""0"",""4212""
","
","
","""event"",""trial"",""time""
""fullscreenenter"",""0"",""4212""
","
","null","<p></p>","null","","","","","","","","","","","","","","","","","","","","","","","",""
"","do_trial","75","299068","0.0-47.0-0.0","""event"",""trial"",""time""
""fullscreenenter"",""0"",""4212""
","
","
","""event"",""trial"",""time""
""fullscreenenter"",""0"",""4212""
","
","1067","","","","","","","","49","0,0,1","6","blank","258","null","0.2423366925153541","0.566690475400757","0.41961041219793005","0","","","","","","","","",""
"","html-keyboard-response","76","300069","0.0-47.0-1.0","""event"",""trial"",""time""
""fullscreenenter"",""0"",""4212""
","
","
","""event"",""trial"",""time""
""fullscreenenter"",""0"",""4212""
","
","null","<p></p>","null","","","","","","","","","","","","","","","","","","","","","","","",""
"","do_trial","77","302969","0.0-48.0-0.0","""event"",""trial"",""time""
""fullscreenenter"",""0"",""4212""
","
","
","""event"",""trial"",""time""
""fullscreenenter"",""0"",""4212""
","
","350","","","","","","","","50","0,1,0","6","blank","259","null","0.20776134339051916","0.63995622378214","0.2579017431720978","1","","","","","","","","",""
"","html-keyboard-response","78","303969","0.0-48.0-1.0","""event"",""trial"",""time""
""fullscreenenter"",""0"",""4212""
","
","
","""event"",""trial"",""time""
""fullscreenenter"",""0"",""4212""
","
","null","<p></p>","null","","","","","","","","","","","","","","","","","","","","","","","",""
"","do_trial","79","307370","0.0-49.0-0.0","""event"",""trial"",""time""
""fullscreenenter"",""0"",""4212""
","
","
","""event"",""trial"",""time""
""fullscreenenter"",""0"",""4212""
","
","857","","","","","","","","50","0,0,0","6","blank","260","null","0.11706179438773497","0.5768258940902817","0.217719617547338","0","","","","","","","","",""
"","html-keyboard-response","80","308380","0.0-49.0-1.0","""event"",""trial"",""time""
""fullscreenenter"",""0"",""4212""
","
","
","""event"",""trial"",""time""
""fullscreenenter"",""0"",""4212""
","
","null","<p></p>","null","","","","","","","","","","","","","","","","","","","","","","","",""
"","do_trial","81","312116","0.0-50.0-0.0","""event"",""trial"",""time""
""fullscreenenter"",""0"",""4212""
","
","
","""event"",""trial"",""time""
""fullscreenenter"",""0"",""4212""
","
","1187","","","","","","","","51","0,1,1","6","blank","261","null","0.1453482672574277","0.5580793942573757","0.06575397058680466","1","","","","","","","","",""
"","html-keyboard-response","82","313128","0.0-50.0-1.0","""event"",""trial"",""time""
""fullscreenenter"",""0"",""4212""
","
","
","""event"",""trial"",""time""
""fullscreenenter"",""0"",""4212""
","
","null","<p></p>","null","","","","","","","","","","","","","","","","","","","","","","","",""
"","do_trial","83","316202","0.0-51.0-0.0","""event"",""trial"",""time""
""fullscreenenter"",""0"",""4212""
","
","
","""event"",""trial"",""time""
""fullscreenenter"",""0"",""4212""
","
","517","","","","","","","","51","0,1,0","6","blank","262","null","0.13084640446056806","0.5932509058013768","0.09352183743883702","0","","","","","","","","",""
"","html-keyboard-response","84","317206","0.0-51.0-1.0","""event"",""trial"",""time""
""fullscreenenter"",""0"",""4212""
","
","
","""event"",""trial"",""time""
""fullscreenenter"",""0"",""4212""
","
","null","<p></p>","null","","","","","","","","","","","","","","","","","","","","","","","",""
"","do_trial","85","320142","0.0-52.0-0.0","""event"",""trial"",""time""
""fullscreenenter"",""0"",""4212""
","
","
","""event"",""trial"",""time""
""fullscreenenter"",""0"",""4212""
","
","387","","","","","","","","51","0,1,1","6","blank","263","null","0.06046434982155852","0.5078819113432909","0.1459447551978587","1","","","","","","","","",""
"","html-keyboard-response","86","321153","0.0-52.0-1.0","""event"",""trial"",""time""
""fullscreenenter"",""0"",""4212""
","
","
","""event"",""trial"",""time""
""fullscreenenter"",""0"",""4212""
","
","null","<p></p>","null","","","","","","","","","","","","","","","","","","","","","","","",""
"","do_trial","87","324534","0.0-53.0-0.0","""event"",""trial"",""time""
""fullscreenenter"",""0"",""4212""
","
","
","""event"",""trial"",""time""
""fullscreenenter"",""0"",""4212""
","
","823","","","","","","","","51","0,1,1","6","blank","264","null","0.1964495945351537","0.4847276479568485","0.2677336361388402","1","","","","","","","","",""
"","html-keyboard-response","88","325554","0.0-53.0-1.0","""event"",""trial"",""time""
""fullscreenenter"",""0"",""4212""
","
","
","""event"",""trial"",""time""
""fullscreenenter"",""0"",""4212""
","
","null","<p></p>","null","","","","","","","","","","","","","","","","","","","","","","","",""
"","do_recog","89","329565","0.0-54.0-0.0","""event"",""trial"",""time""
""fullscreenenter"",""0"",""4212""
","
","
","""event"",""trial"",""time""
""fullscreenenter"",""0"",""4212""
","
","2503","","","","","","","","54","","","","265","probe-252","","","","","0","[object Object]","null","null","0","","","",""
"","html-keyboard-response","90","330584","0.0-54.0-1.0","""event"",""trial"",""time""
""fullscreenenter"",""0"",""4212""
","
","
","""event"",""trial"",""time""
""fullscreenenter"",""0"",""4212""
","
","null","<p></p>","null","","","","","","","","","","","","","","","","","","","","","","","",""
"","do_trial","91","335184","0.0-55.0-0.0","""event"",""trial"",""time""
""fullscreenenter"",""0"",""4212""
","
","
","""event"",""trial"",""time""
""fullscreenenter"",""0"",""4212""
","
","2056","","","","","","","","51","0,0,0","6","blank","266","null","0.08892088097055327","0.4767699015057042","0.1944289777185464","0","","","","","","","","",""
"","html-keyboard-response","92","336191","0.0-55.0-1.0","""event"",""trial"",""time""
""fullscreenenter"",""0"",""4212""
","
","
","""event"",""trial"",""time""
""fullscreenenter"",""0"",""4212""
","
","null","<p></p>","null","","","","","","","","","","","","","","","","","","","","","","","",""
"","do_recog","93","340098","0.0-56.0-0.0","""event"",""trial"",""time""
""fullscreenenter"",""0"",""4212""
","
","
","""event"",""trial"",""time""
""fullscreenenter"",""0"",""4212""
","
","2395","","","","","","","","56","","","","267","probe-112","","","","","1","[object Object]","199","4","0","","","",""
"","html-keyboard-response","94","341108","0.0-56.0-1.0","""event"",""trial"",""time""
""fullscreenenter"",""0"",""4212""
","
","
","""event"",""trial"",""time""
""fullscreenenter"",""0"",""4212""
","
","null","<p></p>","null","","","","","","","","","","","","","","","","","","","","","","","",""
"","do_trial","95","344538","0.0-57.0-0.0","""event"",""trial"",""time""
""fullscreenenter"",""0"",""4212""
","
","
","""event"",""trial"",""time""
""fullscreenenter"",""0"",""4212""
","
","881","","","","","","","","50","0,0,0","6","blank","268","null","0.09495537249014444","0.5362108927350125","0.17269901900284848","0","","","","","","","","",""
"","html-keyboard-response","96","345551","0.0-57.0-1.0","""event"",""trial"",""time""
""fullscreenenter"",""0"",""4212""
","
","
","""event"",""trial"",""time""
""fullscreenenter"",""0"",""4212""
","
","null","<p></p>","null","","","","","","","","","","","","","","","","","","","","","","","",""
"","break","97","370425","0.0-58.0-0.0","""event"",""trial"",""time""
""fullscreenenter"",""0"",""4212""
","
","
","""event"",""trial"",""time""
""fullscreenenter"",""0"",""4212""
","
","24874","<div class='center'><p>Time to take a quick break! You have 2 minutes to rest, but you can move on sooner if you'd like.</p><p> Press the <b>space bar</b> to continue.</p></div>","32","","","","","","","","","","","","","","","","","","","","","","","",""
"","do_recog","98","374838","0.0-58.0-1.0","""event"",""trial"",""time""
""fullscreenenter"",""0"",""4212""
","
","
","""event"",""trial"",""time""
""fullscreenenter"",""0"",""4212""
","
","2907","","","","","","","","54","","","","269","probe-91","","","","","1","[object Object]","38","0","1","","","",""
"","html-keyboard-response","99","375846","0.0-58.0-2.0","""event"",""trial"",""time""
""fullscreenenter"",""0"",""4212""
","
","
","""event"",""trial"",""time""
""fullscreenenter"",""0"",""4212""
","
","null","<p></p>","null","","","","","","","","","","","","","","","","","","","","","","","",""
"","do_trial","100","380373","0.0-59.0-0.0","""event"",""trial"",""time""
""fullscreenenter"",""0"",""4212""
","
","
","""event"",""trial"",""time""
""fullscreenenter"",""0"",""4212""
","
","1985","","","","","","","","51","0,1,0","6","blank","270","null","0.1869811473641272","0.8356000300750434","0.22034059931142502","0","","","","","","","","",""
"","html-keyboard-response","101","381388","0.0-59.0-1.0","""event"",""trial"",""time""
""fullscreenenter"",""0"",""4212""
","
","
","""event"",""trial"",""time""
""fullscreenenter"",""0"",""4212""
","
","null","<p></p>","null","","","","","","","","","","","","","","","","","","","","","","","",""
"","do_trial","102","384324","0.0-60.0-0.0","""event"",""trial"",""time""
""fullscreenenter"",""0"",""4212""
","
","
","""event"",""trial"",""time""
""fullscreenenter"",""0"",""4212""
","
","387","","","","","","","","50","0,1,0","6","blank","271","null","0.09875835125198243","0.8302171269815696","0.1765993067119149","1","","","","","","","","",""
"","html-keyboard-response","103","385329","0.0-60.0-1.0","""event"",""trial"",""time""
""fullscreenenter"",""0"",""4212""
","
","
","""event"",""trial"",""time""
""fullscreenenter"",""0"",""4212""
","
","null","<p></p>","null","","","","","","","","","","","","","","","","","","","","","","","",""
"","do_trial","104","388292","0.0-61.0-0.0","""event"",""trial"",""time""
""fullscreenenter"",""0"",""4212""
","
","
","""event"",""trial"",""time""
""fullscreenenter"",""0"",""4212""
","
","410","","","","","","","","51","1,1,0","6","blank","272","null","0.27918072197334004","0.7413682109986146","0.17343389332954093","0","","","","","","","","",""
"","html-keyboard-response","105","389308","0.0-61.0-1.0","""event"",""trial"",""time""
""fullscreenenter"",""0"",""4212""
","
","
","""event"",""trial"",""time""
""fullscreenenter"",""0"",""4212""
","
","null","<p></p>","null","","","","","","","","","","","","","","","","","","","","","","","",""
"","do_trial","106","392668","0.0-62.0-0.0","""event"",""trial"",""time""
""fullscreenenter"",""0"",""4212""
","
","
","""event"",""trial"",""time""
""fullscreenenter"",""0"",""4212""
","
","815","","","","","","","","49","0,1,1","6","blank","273","null","0.3004643812003623","0.6871020445611312","0.27175121712669753","0","","","","","","","","",""
"","html-keyboard-response","107","393671","0.0-62.0-1.0","""event"",""trial"",""time""
""fullscreenenter"",""0"",""4212""
","
","
","""event"",""trial"",""time""
""fullscreenenter"",""0"",""4212""
","
","null","<p></p>","null","","","","","","","","","","","","","","","","","","","","","","","",""
"","do_trial","108","396978","0.0-63.0-0.0","""event"",""trial"",""time""
""fullscreenenter"",""0"",""4212""
","
","
","""event"",""trial"",""time""
""fullscreenenter"",""0"",""4212""
","
","751","","","","","","","","51","0,0,0","6","blank","274","null","0.22628062943851604","0.5400970519198026","0.19323952434233482","0","","","","","","","","",""
"","html-keyboard-response","109","397985","0.0-63.0-1.0","""event"",""trial"",""time""
""fullscreenenter"",""0"",""4212""
","
","
","""event"",""trial"",""time""
""fullscreenenter"",""0"",""4212""
","
","null","<p></p>","null","","","","","","","","","","","","","","","","","","","","","","","",""
"","do_recog","110","401802","0.0-64.0-0.0","""event"",""trial"",""time""
""fullscreenenter"",""0"",""4212""
","
","
","""event"",""trial"",""time""
""fullscreenenter"",""0"",""4212""
","
","2307","","","","","","","","55","","","","275","probe-56","","","","","1","[object Object]","153","3","0","","","",""
"","html-keyboard-response","111","402804","0.0-64.0-1.0","""event"",""trial"",""time""
""fullscreenenter"",""0"",""4212""
","
","
","""event"",""trial"",""time""
""fullscreenenter"",""0"",""4212""
","
","null","<p></p>","null","","","","","","","","","","","","","","","","","","","","","","","",""
"","do_trial","112","406631","0.0-65.0-0.0","""event"",""trial"",""time""
""fullscreenenter"",""0"",""4212""
","
","
","""event"",""trial"",""time""
""fullscreenenter"",""0"",""4212""
","
","1281","","","","","","","","51","0,0,0","6","blank","276","null","0.26391740108908546","0.42381238023977746","0.20994037105389773","0","","","","","","","","",""
"","html-keyboard-response","113","407640","0.0-65.0-1.0","""event"",""trial"",""time""
""fullscreenenter"",""0"",""4212""
","
","
","""event"",""trial"",""time""
""fullscreenenter"",""0"",""4212""
","
","null","<p></p>","null","","","","","","","","","","","","","","","","","","","","","","","",""
"","do_trial","114","410281","0.0-66.0-0.0","""event"",""trial"",""time""
""fullscreenenter"",""0"",""4212""
","
","
","""event"",""trial"",""time""
""fullscreenenter"",""0"",""4212""
","
","90","","","","","","","","50","0,1,0","6","blank","277","null","0.16996500071071352","0.4590487545480341","0.20966027768785012","1","","","","","","","","",""
"","html-keyboard-response","115","411287","0.0-66.0-1.0","""event"",""trial"",""time""
""fullscreenenter"",""0"",""4212""
","
","
","""event"",""trial"",""time""
""fullscreenenter"",""0"",""4212""
","
","null","<p></p>","null","","","","","","","","","","","","","","","","","","","","","","","",""
"","do_trial","116","414283","0.0-67.0-0.0","""event"",""trial"",""time""
""fullscreenenter"",""0"",""4212""
","
","
","""event"",""trial"",""time""
""fullscreenenter"",""0"",""4212""
","
","443","","","","","","","","51","0,0,0","6","blank","278","null","0.2613820218320985","0.5331954808582264","0.3105655838849869","0","","","","","","","","",""
"","html-keyboard-response","117","415288","0.0-67.0-1.0","""event"",""trial"",""time""
""fullscreenenter"",""0"",""4212""
","
","
","""event"",""trial"",""time""
""fullscreenenter"",""0"",""4212""
","
","null","<p></p>","null","","","","","","","","","","","","","","","","","","","","","","","",""
"","do_trial","118","418338","0.0-68.0-0.0","""event"",""trial"",""time""
""fullscreenenter"",""0"",""4212""
","
","
","""event"",""trial"",""time""
""fullscreenenter"",""0"",""4212""
","
","491","","","","","","","","51","0,0,0","6","blank","279","null","0.2941845142014512","0.5711410743874163","0.17395241863465605","0","","","","","","","","",""
"","html-keyboard-response","119","419344","0.0-68.0-1.0","""event"",""trial"",""time""
""fullscreenenter"",""0"",""4212""
","
","
","""event"",""trial"",""time""
""fullscreenenter"",""0"",""4212""
","
","null","<p></p>","null","","","","","","","","","","","","","","","","","","","","","","","",""
"","do_trial","120","422928","0.0-69.0-0.0","""event"",""trial"",""time""
""fullscreenenter"",""0"",""4212""
","
","
","""event"",""trial"",""time""
""fullscreenenter"",""0"",""4212""
","
","1040","","","","","","","","51","0,1,0","6","blank","280","null","0.21741109257919175","0.5450305493684874","0.15172942096271472","0","","","","","","","","",""
"","html-keyboard-response","121","423938","0.0-69.0-1.0","""event"",""trial"",""time""
""fullscreenenter"",""0"",""4212""
","
","
","""event"",""trial"",""time""
""fullscreenenter"",""0"",""4212""
","
","null","<p></p>","null","","","","","","","","","","","","","","","","","","","","","","","",""
"","do_trial","122","426863","0.0-70.0-0.0","""event"",""trial"",""time""
""fullscreenenter"",""0"",""4212""
","
","
","""event"",""trial"",""time""
""fullscreenenter"",""0"",""4212""
","
","375","","","","","","","","51","0,1,0","6","blank","281","null","0.06184915667505706","0.55317524199674","0.3042252741038754","0","","","","","","","","",""
"","html-keyboard-response","123","427873","0.0-70.0-1.0","""event"",""trial"",""time""
""fullscreenenter"",""0"",""4212""
","
","
","""event"",""trial"",""time""
""fullscreenenter"",""0"",""4212""
","
","null","<p></p>","null","","","","","","","","","","","","","","","","","","","","","","","",""
"","do_trial","124","430560","0.0-71.0-0.0","""event"",""trial"",""time""
""fullscreenenter"",""0"",""4212""
","
","
","""event"",""trial"",""time""
""fullscreenenter"",""0"",""4212""
","
","143","","","","","","","","51","1,0,0","6","blank","282","null","0.1773686797863311","0.42524660126571556","0.31366469492259613","0","","","","","","","","",""
"","html-keyboard-response","125","431561","0.0-71.0-1.0","""event"",""trial"",""time""
""fullscreenenter"",""0"",""4212""
","
","
","""event"",""trial"",""time""
""fullscreenenter"",""0"",""4212""
","
","null","<p></p>","null","","","","","","","","","","","","","","","","","","","","","","","",""
"","do_recog","126","435035","0.0-72.0-0.0","""event"",""trial"",""time""
""fullscreenenter"",""0"",""4212""
","
","
","""event"",""trial"",""time""
""fullscreenenter"",""0"",""4212""
","
","1961","","","","","","","","54","","","","283","probe-81","","","","","1","[object Object]","72","1","1","","","",""
"","html-keyboard-response","127","436043","0.0-72.0-1.0","""event"",""trial"",""time""
""fullscreenenter"",""0"",""4212""
","
","
","""event"",""trial"",""time""
""fullscreenenter"",""0"",""4212""
","
","null","<p></p>","null","","","","","","","","","","","","","","","","","","","","","","","",""
"","do_trial","128","439688","0.0-73.0-0.0","""event"",""trial"",""time""
""fullscreenenter"",""0"",""4212""
","
","
","""event"",""trial"",""time""
""fullscreenenter"",""0"",""4212""
","
","1102","","","","","","","","51","1,0,1","6","blank","284","null","0.1650194186601936","0.4374946529668857","0.31227774037011613","1","","","","","","","","",""
"","html-keyboard-response","129","440698","0.0-73.0-1.0","""event"",""trial"",""time""
""fullscreenenter"",""0"",""4212""
","
","
","""event"",""trial"",""time""
""fullscreenenter"",""0"",""4212""
","
","null","<p></p>","null","","","","","","","","","","","","","","","","","","","","","","","",""
"","do_trial","130","443911","0.0-74.0-0.0","""event"",""trial"",""time""
""fullscreenenter"",""0"",""4212""
","
","
","""event"",""trial"",""time""
""fullscreenenter"",""0"",""4212""
","
","661","","","","","","","","51","1,1,0","6","blank","285","null","0.10282277356694637","0.5657330185110482","0.3695108206671637","0","","","","","","","","",""
"","html-keyboard-response","131","444921","0.0-74.0-1.0","""event"",""trial"",""time""
""fullscreenenter"",""0"",""4212""
","
","
","""event"",""trial"",""time""
""fullscreenenter"",""0"",""4212""
","
","null","<p></p>","null","","","","","","","","","","","","","","","","","","","","","","","",""
"","do_trial","132","447952","0.0-75.0-0.0","""event"",""trial"",""time""
""fullscreenenter"",""0"",""4212""
","
","
","""event"",""trial"",""time""
""fullscreenenter"",""0"",""4212""
","
","477","","","","","","","","51","0,0,0","6","blank","286","null","0.052469912294802565","0.6778161597245749","0.339221075321474","0","","","","","","","","",""
"","html-keyboard-response","133","448963","0.0-75.0-1.0","""event"",""trial"",""time""
""fullscreenenter"",""0"",""4212""
","
","
","""event"",""trial"",""time""
""fullscreenenter"",""0"",""4212""
","
","null","<p></p>","null","","","","","","","","","","","","","","","","","","","","","","","",""
"","do_trial","134","451957","0.0-76.0-0.0","""event"",""trial"",""time""
""fullscreenenter"",""0"",""4212""
","
","
","""event"",""trial"",""time""
""fullscreenenter"",""0"",""4212""
","
","451","","","","","","","","50","0,1,1","6","blank","287","null","0.07522782606154178","0.6201197298767945","0.3327251790598104","1","","","","","","","","",""
"","html-keyboard-response","135","452959","0.0-76.0-1.0","""event"",""trial"",""time""
""fullscreenenter"",""0"",""4212""
","
","
","""event"",""trial"",""time""
""fullscreenenter"",""0"",""4212""
","
","null","<p></p>","null","","","","","","","","","","","","","","","","","","","","","","","",""
"","do_trial","136","456132","0.0-77.0-0.0","""event"",""trial"",""time""
""fullscreenenter"",""0"",""4212""
","
","
","""event"",""trial"",""time""
""fullscreenenter"",""0"",""4212""
","
","631","","","","","","","","49","0,0,0","6","blank","288","null","0.06886316122635426","0.6687015305058407","0.46843445453031624","0","","","","","","","","",""
"","html-keyboard-response","137","457138","0.0-77.0-1.0","""event"",""trial"",""time""
""fullscreenenter"",""0"",""4212""
","
","
","""event"",""trial"",""time""
""fullscreenenter"",""0"",""4212""
","
","null","<p></p>","null","","","","","","","","","","","","","","","","","","","","","","","",""
"","do_trial","138","460212","0.0-78.0-0.0","""event"",""trial"",""time""
""fullscreenenter"",""0"",""4212""
","
","
","""event"",""trial"",""time""
""fullscreenenter"",""0"",""4212""
","
","527","","","","","","","","50","0,1,0","6","blank","289","null","0.1919422686690303","0.6261340891019888","0.4959559039704693","1","","","","","","","","",""
"","html-keyboard-response","139","461224","0.0-78.0-1.0","""event"",""trial"",""time""
""fullscreenenter"",""0"",""4212""
","
","
","""event"",""trial"",""time""
""fullscreenenter"",""0"",""4212""
","
","null","<p></p>","null","","","","","","","","","","","","","","","","","","","","","","","",""
"","do_recog","140","465101","0.0-79.0-0.0","""event"",""trial"",""time""
""fullscreenenter"",""0"",""4212""
","
","
","""event"",""trial"",""time""
""fullscreenenter"",""0"",""4212""
","
","2370","","","","","","","","55","","","","290","probe-175","","","","","1","[object Object]","76","1","0","","","",""
"","html-keyboard-response","141","466112","0.0-79.0-1.0","""event"",""trial"",""time""
""fullscreenenter"",""0"",""4212""
","
","
","""event"",""trial"",""time""
""fullscreenenter"",""0"",""4212""
","
","null","<p></p>","null","","","","","","","","","","","","","","","","","","","","","","","",""
"","do_trial","142","469191","0.0-80.0-0.0","""event"",""trial"",""time""
""fullscreenenter"",""0"",""4212""
","
","
","""event"",""trial"",""time""
""fullscreenenter"",""0"",""4212""
","
","520","","","","","","","","50","0,0,1","6","blank","291","null","0.278832248298192","0.4982231862468137","0.4373863871811087","0","","","","","","","","",""
"","html-keyboard-response","143","470197","0.0-80.0-1.0","""event"",""trial"",""time""
""fullscreenenter"",""0"",""4212""
","
","
","""event"",""trial"",""time""
""fullscreenenter"",""0"",""4212""
","
","null","<p></p>","null","","","","","","","","","","","","","","","","","","","","","","","",""
"","do_trial","144","473420","0.0-81.0-0.0","""event"",""trial"",""time""
""fullscreenenter"",""0"",""4212""
","
","
","""event"",""trial"",""time""
""fullscreenenter"",""0"",""4212""
","
","664","","","","","","","","51","1,0,0","6","blank","292","null","0.41161089646531535","0.36346080965457206","0.4250352494330001","0","","","","","","","","",""
"","html-keyboard-response","145","474430","0.0-81.0-1.0","""event"",""trial"",""time""
""fullscreenenter"",""0"",""4212""
","
","
","""event"",""trial"",""time""
""fullscreenenter"",""0"",""4212""
","
","null","<p></p>","null","","","","","","","","","","","","","","","","","","","","","","","",""
"","do_trial","146","477334","0.0-82.0-0.0","""event"",""trial"",""time""
""fullscreenenter"",""0"",""4212""
","
","
","""event"",""trial"",""time""
""fullscreenenter"",""0"",""4212""
","
","356","","","","","","","","50","1,0,1","6","blank","293","null","0.3953290580849256","0.2650174318965758","0.42334712776565625","0","","","","","","","","",""
"","html-keyboard-response","147","478338","0.0-82.0-1.0","""event"",""trial"",""time""
""fullscreenenter"",""0"",""4212""
","
","
","""event"",""trial"",""time""
""fullscreenenter"",""0"",""4212""
","
","null","<p></p>","null","","","","","","","","","","","","","","","","","","","","","","","",""
"","do_trial","148","481413","0.0-83.0-0.0","""event"",""trial"",""time""
""fullscreenenter"",""0"",""4212""
","
","
","""event"",""trial"",""time""
""fullscreenenter"",""0"",""4212""
","
","527","","","","","","","","51","1,0,0","6","blank","294","null","0.3913486031614701","0.45315574986255286","0.5624616295178742","0","","","","","","","","",""
"","html-keyboard-response","149","482424","0.0-83.0-1.0","""event"",""trial"",""time""
""fullscreenenter"",""0"",""4212""
","
","
","""event"",""trial"",""time""
""fullscreenenter"",""0"",""4212""
","
","null","<p></p>","null","","","","","","","","","","","","","","","","","","","","","","","",""
"","do_trial","150","485323","0.0-84.0-0.0","""event"",""trial"",""time""
""fullscreenenter"",""0"",""4212""
","
","
","""event"",""trial"",""time""
""fullscreenenter"",""0"",""4212""
","
","352","","","","","","","","50","0,0,1","6","blank","295","null","0.3422961558636206","0.3155473393914342","0.4412951785587045","0","","","","","","","","",""
"","html-keyboard-response","151","486335","0.0-84.0-1.0","""event"",""trial"",""time""
""fullscreenenter"",""0"",""4212""
","
","
","""event"",""trial"",""time""
""fullscreenenter"",""0"",""4212""
","
","null","<p></p>","null","","","","","","","","","","","","","","","","","","","","","","","",""
"","do_trial","152","489264","0.0-85.0-0.0","""event"",""trial"",""time""
""fullscreenenter"",""0"",""4212""
","
","
","""event"",""trial"",""time""
""fullscreenenter"",""0"",""4212""
","
","373","","","","","","","","51","0,0,1","6","blank","296","null","0.3829201471500537","0.2707059899343167","0.5982472490774403","1","","","","","","","","",""
"","html-keyboard-response","153","490274","0.0-85.0-1.0","""event"",""trial"",""time""
""fullscreenenter"",""0"",""4212""
","
","
","""event"",""trial"",""time""
""fullscreenenter"",""0"",""4212""
","
","null","<p></p>","null","","","","","","","","","","","","","","","","","","","","","","","",""
"","do_trial","154","493333","0.0-86.0-0.0","""event"",""trial"",""time""
""fullscreenenter"",""0"",""4212""
","
","
","""event"",""trial"",""time""
""fullscreenenter"",""0"",""4212""
","
","511","","","","","","","","51","0,1,1","6","blank","297","null","0.41901772526312014","0.27768493388293286","0.6660309051805566","1","","","","","","","","",""
"","html-keyboard-response","155","494344","0.0-86.0-1.0","""event"",""trial"",""time""
""fullscreenenter"",""0"",""4212""
","
","
","""event"",""trial"",""time""
""fullscreenenter"",""0"",""4212""
","
","null","<p></p>","null","","","","","","","","","","","","","","","","","","","","","","","",""
"","do_recog","156","497854","0.0-87.0-0.0","""event"",""trial"",""time""
""fullscreenenter"",""0"",""4212""
","
","
","""event"",""trial"",""time""
""fullscreenenter"",""0"",""4212""
","
","1998","","","","","","","","54","","","","298","probe-37","","","","","1","[object Object]","151","3","1","","","",""
"","html-keyboard-response","157","498874","0.0-87.0-1.0","""event"",""trial"",""time""
""fullscreenenter"",""0"",""4212""
","
","
","""event"",""trial"",""time""
""fullscreenenter"",""0"",""4212""
","
","null","<p></p>","null","","","","","","","","","","","","","","","","","","","","","","","",""
"","do_trial","158","501944","0.0-88.0-0.0","""event"",""trial"",""time""
""fullscreenenter"",""0"",""4212""
","
","
","""event"",""trial"",""time""
""fullscreenenter"",""0"",""4212""
","
","523","","","","","","","","51","1,0,0","6","blank","299","null","0.371085523840833","0.35645372086282195","0.5739684033970399","0","","","","","","","","",""
"","html-keyboard-response","159","502964","0.0-88.0-1.0","""event"",""trial"",""time""
""fullscreenenter"",""0"",""4212""
","
","
","""event"",""trial"",""time""
""fullscreenenter"",""0"",""4212""
","
","null","<p></p>","null","","","","","","","","","","","","","","","","","","","","","","","",""
"","do_recog","160","506774","0.0-89.0-0.0","""event"",""trial"",""time""
""fullscreenenter"",""0"",""4212""
","
","
","""event"",""trial"",""time""
""fullscreenenter"",""0"",""4212""
","
","2304","","","","","","","","56","","","","300","probe-153","","","","","1","[object Object]","35","0","0","","","",""
"","html-keyboard-response","161","507793","0.0-89.0-1.0","""event"",""trial"",""time""
""fullscreenenter"",""0"",""4212""
","
","
","""event"",""trial"",""time""
""fullscreenenter"",""0"",""4212""
","
","null","<p></p>","null","","","","","","","","","","","","","","","","","","","","","","","",""
"","do_trial","162","511423","0.0-90.0-0.0","""event"",""trial"",""time""
""fullscreenenter"",""0"",""4212""
","
","
","""event"",""trial"",""time""
""fullscreenenter"",""0"",""4212""
","
","1077","","","","","","","","51","0,0,1","6","blank","301","null","0.42690370709500736","0.2577467716583728","0.5198871057705745","1","","","","","","","","",""
"","html-keyboard-response","163","512443","0.0-90.0-1.0","""event"",""trial"",""time""
""fullscreenenter"",""0"",""4212""
","
","
","""event"",""trial"",""time""
""fullscreenenter"",""0"",""4212""
","
","null","<p></p>","null","","","","","","","","","","","","","","","","","","","","","","","",""
"","do_trial","164","515554","0.0-91.0-0.0","""event"",""trial"",""time""
""fullscreenenter"",""0"",""4212""
","
","
","""event"",""trial"",""time""
""fullscreenenter"",""0"",""4212""
","
","561","","","","","","","","50","1,0,1","6","blank","302","null","0.34154407468623293","0.051285614729401505","0.41544588411588024","0","","","","","","","","",""
"","html-keyboard-response","165","516574","0.0-91.0-1.0","""event"",""trial"",""time""
""fullscreenenter"",""0"",""4212""
","
","
","""event"",""trial"",""time""
""fullscreenenter"",""0"",""4212""
","
","null","<p></p>","null","","","","","","","","","","","","","","","","","","","","","","","",""
"","do_trial","166","519454","0.0-92.0-0.0","""event"",""trial"",""time""
""fullscreenenter"",""0"",""4212""
","
","
","""event"",""trial"",""time""
""fullscreenenter"",""0"",""4212""
","
","327","","","","","","","","51","0,0,0","6","blank","303","null","0.3652390969824689","0.12528100782586316","0.44924835487711107","0","","","","","","","","",""
"","html-keyboard-response","167","520464","0.0-92.0-1.0","""event"",""trial"",""time""
""fullscreenenter"",""0"",""4212""
","
","
","""event"",""trial"",""time""
""fullscreenenter"",""0"",""4212""
","
","null","<p></p>","null","","","","","","","","","","","","","","","","","","","","","","","",""
"","do_trial","168","523654","0.0-93.0-0.0","""event"",""trial"",""time""
""fullscreenenter"",""0"",""4212""
","
","
","""event"",""trial"",""time""
""fullscreenenter"",""0"",""4212""
","
","650","","","","","","","","49","1,0,1","6","blank","304","null","0.3947944683742079","0.08930897511220146","0.34711123627343","1","","","","","","","","",""
"","html-keyboard-response","169","524665","0.0-93.0-1.0","""event"",""trial"",""time""
""fullscreenenter"",""0"",""4212""
","
","
","""event"",""trial"",""time""
""fullscreenenter"",""0"",""4212""
","
","null","<p></p>","null","","","","","","","","","","","","","","","","","","","","","","","",""
"","do_trial","170","527685","0.0-94.0-0.0","""event"",""trial"",""time""
""fullscreenenter"",""0"",""4212""
","
","
","""event"",""trial"",""time""
""fullscreenenter"",""0"",""4212""
","
","461","","","","","","","","51","0,1,0","6","blank","305","null","0.36682827450693184","0.14751802364005764","0.4049602075273556","0","","","","","","","","",""
"","html-keyboard-response","171","528706","0.0-94.0-1.0","""event"",""trial"",""time""
""fullscreenenter"",""0"",""4212""
","
","
","""event"",""trial"",""time""
""fullscreenenter"",""0"",""4212""
","
","null","<p></p>","null","","","","","","","","","","","","","","","","","","","","","","","",""
"","do_trial","172","531564","0.0-95.0-0.0","""event"",""trial"",""time""
""fullscreenenter"",""0"",""4212""
","
","
","""event"",""trial"",""time""
""fullscreenenter"",""0"",""4212""
","
","305","","","","","","","","49","1,0,0","6","blank","306","null","0.3508699085869795","0.12131846243267985","0.5190662148733377","1","","","","","","","","",""
"","html-keyboard-response","173","532584","0.0-95.0-1.0","""event"",""trial"",""time""
""fullscreenenter"",""0"",""4212""
","
","
","""event"",""trial"",""time""
""fullscreenenter"",""0"",""4212""
","
","null","<p></p>","null","","","","","","","","","","","","","","","","","","","","","","","",""
"","do_recog","174","536014","0.0-96.0-0.0","""event"",""trial"",""time""
""fullscreenenter"",""0"",""4212""
","
","
","""event"",""trial"",""time""
""fullscreenenter"",""0"",""4212""
","
","1921","","","","","","","","55","","","","307","probe-22","","","","","1","[object Object]","33","0","0","","","",""
"","html-keyboard-response","175","537023","0.0-96.0-1.0","""event"",""trial"",""time""
""fullscreenenter"",""0"",""4212""
","
","
","""event"",""trial"",""time""
""fullscreenenter"",""0"",""4212""
","
","null","<p></p>","null","","","","","","","","","","","","","","","","","","","","","","","",""
"","do_trial","176","540024","0.0-97.0-0.0","""event"",""trial"",""time""
""fullscreenenter"",""0"",""4212""
","
","
","""event"",""trial"",""time""
""fullscreenenter"",""0"",""4212""
","
","446","","","","","","","","49","0,0,1","6","blank","308","null","0.2615132897068676","0.09825508792072128","0.6943274387444889","0","","","","","","","","",""
"","html-keyboard-response","177","541034","0.0-97.0-1.0","""event"",""trial"",""time""
""fullscreenenter"",""0"",""4212""
","
","
","""event"",""trial"",""time""
""fullscreenenter"",""0"",""4212""
","
","null","<p></p>","null","","","","","","","","","","","","","","","","","","","","","","","",""
"","break","178","543767","0.0-98.0-0.0","""event"",""trial"",""time""
""fullscreenenter"",""0"",""4212""
","
","
","""event"",""trial"",""time""
""fullscreenenter"",""0"",""4212""
","
","2730","<div class='center'><p>Time to take a quick break! You have 2 minutes to rest, but you can move on sooner if you'd like.</p><p> Press the <b>space bar</b> to continue.</p></div>","32","","","","","","","","","","","","","","","","","","","","","","","",""
"","do_trial","179","547154","0.0-98.0-1.0","""event"",""trial"",""time""
""fullscreenenter"",""0"",""4212""
","
","
","""event"",""trial"",""time""
""fullscreenenter"",""0"",""4212""
","
","829","","","","","","","","50","1,0,1","6","blank","309","null","0.2742999664323637","0.19778987199811682","0.7165743453848651","0","","","","","","","","",""
"","html-keyboard-response","180","548163","0.0-98.0-2.0","""event"",""trial"",""time""
""fullscreenenter"",""0"",""4212""
","
","
","""event"",""trial"",""time""
""fullscreenenter"",""0"",""4212""
","
","null","<p></p>","null","","","","","","","","","","","","","","","","","","","","","","","",""
"","do_trial","181","551312","0.0-99.0-0.0","""event"",""trial"",""time""
""fullscreenenter"",""0"",""4212""
","
","
","""event"",""trial"",""time""
""fullscreenenter"",""0"",""4212""
","
","605","","","","","","","","51","1,0,1","6","blank","310","null","0.28194869929510147","0.24842204060744283","0.7116026954867449","1","","","","","","","","",""
"","html-keyboard-response","182","552321","0.0-99.0-1.0","""event"",""trial"",""time""
""fullscreenenter"",""0"",""4212""
","
","
","""event"",""trial"",""time""
""fullscreenenter"",""0"",""4212""
","
","null","<p></p>","null","","","","","","","","","","","","","","","","","","","","","","","",""
"","do_trial","183","555428","0.0-100.0-0.0","""event"",""trial"",""time""
""fullscreenenter"",""0"",""4212""
","
","
","""event"",""trial"",""time""
""fullscreenenter"",""0"",""4212""
","
","566","","","","","","","","51","0,0,1","6","blank","311","null","0.27691000495491214","0.08456773475744328","0.5339737315711259","1","","","","","","","","",""
"","html-keyboard-response","184","556438","0.0-100.0-1.0","""event"",""trial"",""time""
""fullscreenenter"",""0"",""4212""
","
","
","""event"",""trial"",""time""
""fullscreenenter"",""0"",""4212""
","
","null","<p></p>","null","","","","","","","","","","","","","","","","","","","","","","","",""
"","do_recog","185","559679","0.0-101.0-0.0","""event"",""trial"",""time""
""fullscreenenter"",""0"",""4212""
","
","
","""event"",""trial"",""time""
""fullscreenenter"",""0"",""4212""
","
","1726","","","","","","","","53","","","","312","probe-242","","","","","0","[object Object]","null","null","0","","","",""
"","html-keyboard-response","186","560683","0.0-101.0-1.0","""event"",""trial"",""time""
""fullscreenenter"",""0"",""4212""
","
","
","""event"",""trial"",""time""
""fullscreenenter"",""0"",""4212""
","
","null","<p></p>","null","","","","","","","","","","","","","","","","","","","","","","","",""
"","do_trial","187","564076","0.0-102.0-0.0","""event"",""trial"",""time""
""fullscreenenter"",""0"",""4212""
","
","
","""event"",""trial"",""time""
""fullscreenenter"",""0"",""4212""
","
","852","","","","","","","","51","1,0,1","6","blank","313","null","0.3122460915868876","0.0685025876389145","0.7642284260211096","1","","","","","","","","",""
"","html-keyboard-response","188","565078","0.0-102.0-1.0","""event"",""trial"",""time""
""fullscreenenter"",""0"",""4212""
","
","
","""event"",""trial"",""time""
""fullscreenenter"",""0"",""4212""
","
","null","<p></p>","null","","","","","","","","","","","","","","","","","","","","","","","",""
"","do_trial","189","567954","0.0-103.0-0.0","""event"",""trial"",""time""
""fullscreenenter"",""0"",""4212""
","
","
","""event"",""trial"",""time""
""fullscreenenter"",""0"",""4212""
","
","326","","","","","","","","51","0,0,1","6","blank","314","null","0.37952664365899097","0.07595986435769506","0.5834112403071224","1","","","","","","","","",""
"","html-keyboard-response","190","568960","0.0-103.0-1.0","""event"",""trial"",""time""
""fullscreenenter"",""0"",""4212""
","
","
","""event"",""trial"",""time""
""fullscreenenter"",""0"",""4212""
","
","null","<p></p>","null","","","","","","","","","","","","","","","","","","","","","","","",""
"","do_recog","191","571982","0.0-104.0-0.0","""event"",""trial"",""time""
""fullscreenenter"",""0"",""4212""
","
","
","""event"",""trial"",""time""
""fullscreenenter"",""0"",""4212""
","
","1514","","","","","","","","54","","","","315","probe-173","","","","","1","[object Object]","39","0","1","","","",""
"","html-keyboard-response","192","572996","0.0-104.0-1.0","""event"",""trial"",""time""
""fullscreenenter"",""0"",""4212""
","
","
","""event"",""trial"",""time""
""fullscreenenter"",""0"",""4212""
","
","null","<p></p>","null","","","","","","","","","","","","","","","","","","","","","","","",""
"","do_trial","193","576538","0.0-105.0-0.0","""event"",""trial"",""time""
""fullscreenenter"",""0"",""4212""
","
","
","""event"",""trial"",""time""
""fullscreenenter"",""0"",""4212""
","
","991","","","","","","","","51","1,0,0","6","blank","316","null","0.3611030890040431","0.16267097698824765","0.6400617128803318","0","","","","","","","","",""
"","html-keyboard-response","194","577548","0.0-105.0-1.0","""event"",""trial"",""time""
""fullscreenenter"",""0"",""4212""
","
","
","""event"",""trial"",""time""
""fullscreenenter"",""0"",""4212""
","
","null","<p></p>","null","","","","","","","","","","","","","","","","","","","","","","","",""
"","do_trial","195","580561","0.0-106.0-0.0","""event"",""trial"",""time""
""fullscreenenter"",""0"",""4212""
","
","
","""event"",""trial"",""time""
""fullscreenenter"",""0"",""4212""
","
","468","","","","","","","","51","0,0,0","6","blank","317","null","0.16772605899708448","0.07625135269946438","0.47547502579761114","0","","","","","","","","",""
"","html-keyboard-response","196","581568","0.0-106.0-1.0","""event"",""trial"",""time""
""fullscreenenter"",""0"",""4212""
","
","
","""event"",""trial"",""time""
""fullscreenenter"",""0"",""4212""
","
","null","<p></p>","null","","","","","","","","","","","","","","","","","","","","","","","",""
"","do_trial","197","584995","0.0-107.0-0.0","""event"",""trial"",""time""
""fullscreenenter"",""0"",""4212""
","
","
","""event"",""trial"",""time""
""fullscreenenter"",""0"",""4212""
","
","878","","","","","","","","50","0,0,0","6","blank","318","null","0.16654065835334297","0.11075129020548236","0.46914949008587414","0","","","","","","","","",""
"","html-keyboard-response","198","586002","0.0-107.0-1.0","""event"",""trial"",""time""
""fullscreenenter"",""0"",""4212""
","
","
","""event"",""trial"",""time""
""fullscreenenter"",""0"",""4212""
","
","null","<p></p>","null","","","","","","","","","","","","","","","","","","","","","","","",""
"","do_trial","199","589121","0.0-108.0-0.0","""event"",""trial"",""time""
""fullscreenenter"",""0"",""4212""
","
","
","""event"",""trial"",""time""
""fullscreenenter"",""0"",""4212""
","
","570","","","","","","","","50","1,0,1","6","blank","319","null","0.11399447391039007","0.07228208680977695","0.46078425819244234","0","","","","","","","","",""
"","html-keyboard-response","200","590129","0.0-108.0-1.0","""event"",""trial"",""time""
""fullscreenenter"",""0"",""4212""
","
","
","""event"",""trial"",""time""
""fullscreenenter"",""0"",""4212""
","
","null","<p></p>","null","","","","","","","","","","","","","","","","","","","","","","","",""
"","do_trial","201","593104","0.0-109.0-0.0","""event"",""trial"",""time""
""fullscreenenter"",""0"",""4212""
","
","
","""event"",""trial"",""time""
""fullscreenenter"",""0"",""4212""
","
","423","","","","","","","","51","0,0,1","6","blank","320","null","0.10101824636632657","0.09333250525275935","0.6551568737122847","1","","","","","","","","",""
"","html-keyboard-response","202","594114","0.0-109.0-1.0","""event"",""trial"",""time""
""fullscreenenter"",""0"",""4212""
","
","
","""event"",""trial"",""time""
""fullscreenenter"",""0"",""4212""
","
","null","<p></p>","null","","","","","","","","","","","","","","","","","","","","","","","",""
"","do_recog","203","597152","0.0-110.0-0.0","""event"",""trial"",""time""
""fullscreenenter"",""0"",""4212""
","
","
","""event"",""trial"",""time""
""fullscreenenter"",""0"",""4212""
","
","1525","","","","","","","","54","","","","321","probe-222","","","","","1","[object Object]","192","4","1","","","",""
"","html-keyboard-response","204","598168","0.0-110.0-1.0","""event"",""trial"",""time""
""fullscreenenter"",""0"",""4212""
","
","
","""event"",""trial"",""time""
""fullscreenenter"",""0"",""4212""
","
","null","<p></p>","null","","","","","","","","","","","","","","","","","","","","","","","",""
"","do_trial","205","601267","0.0-111.0-0.0","""event"",""trial"",""time""
""fullscreenenter"",""0"",""4212""
","
","
","""event"",""trial"",""time""
""fullscreenenter"",""0"",""4212""
","
","546","","","","","","","","51","0,0,1","6","blank","322","null","0.31762490911308233","0.19534507372528942","0.5816999156896495","1","","","","","","","","",""
"","html-keyboard-response","206","602280","0.0-111.0-1.0","""event"",""trial"",""time""
""fullscreenenter"",""0"",""4212""
","
","
","""event"",""trial"",""time""
""fullscreenenter"",""0"",""4212""
","
","null","<p></p>","null","","","","","","","","","","","","","","","","","","","","","","","",""
"","do_recog","207","605398","0.0-112.0-0.0","""event"",""trial"",""time""
""fullscreenenter"",""0"",""4212""
","
","
","""event"",""trial"",""time""
""fullscreenenter"",""0"",""4212""
","
","1608","","","","","","","","54","","","","323","probe-96","","","","","1","[object Object]","114","2","1","","","",""
"","html-keyboard-response","208","606399","0.0-112.0-1.0","""event"",""trial"",""time""
""fullscreenenter"",""0"",""4212""
","
","
","""event"",""trial"",""time""
""fullscreenenter"",""0"",""4212""
","
","null","<p></p>","null","","","","","","","","","","","","","","","","","","","","","","","",""
"","do_trial","209","609631","0.0-113.0-0.0","""event"",""trial"",""time""
""fullscreenenter"",""0"",""4212""
","
","
","""event"",""trial"",""time""
""fullscreenenter"",""0"",""4212""
","
","689","","","","","","","","51","0,0,0","6","blank","324","null","0.16004511212794711","0.08558893109085122","0.48497070707156226","0","","","","","","","","",""
"","html-keyboard-response","210","610635","0.0-113.0-1.0","""event"",""trial"",""time""
""fullscreenenter"",""0"",""4212""
","
","
","""event"",""trial"",""time""
""fullscreenenter"",""0"",""4212""
","
","null","<p></p>","null","","","","","","","","","","","","","","","","","","","","","","","",""
"","do_trial","211","613645","0.0-114.0-0.0","""event"",""trial"",""time""
""fullscreenenter"",""0"",""4212""
","
","
","""event"",""trial"",""time""
""fullscreenenter"",""0"",""4212""
","
","460","","","","","","","","51","0,0,0","6","blank","325","null","0.3414169145530365","0.0661885784908362","0.4098467974564183","0","","","","","","","","",""
"","html-keyboard-response","212","614649","0.0-114.0-1.0","""event"",""trial"",""time""
""fullscreenenter"",""0"",""4212""
","
","
","""event"",""trial"",""time""
""fullscreenenter"",""0"",""4212""
","
","null","<p></p>","null","","","","","","","","","","","","","","","","","","","","","","","",""
"","do_trial","213","617351","0.0-115.0-0.0","""event"",""trial"",""time""
""fullscreenenter"",""0"",""4212""
","
","
","""event"",""trial"",""time""
""fullscreenenter"",""0"",""4212""
","
","157","","","","","","","","50","1,0,0","6","blank","326","null","0.16824910052859657","0.07438831483500236","0.5041117708924818","0","","","","","","","","",""
"","html-keyboard-response","214","618365","0.0-115.0-1.0","""event"",""trial"",""time""
""fullscreenenter"",""0"",""4212""
","
","
","""event"",""trial"",""time""
""fullscreenenter"",""0"",""4212""
","
","null","<p></p>","null","","","","","","","","","","","","","","","","","","","","","","","",""
"","do_trial","215","621282","0.0-116.0-0.0","""event"",""trial"",""time""
""fullscreenenter"",""0"",""4212""
","
","
","""event"",""trial"",""time""
""fullscreenenter"",""0"",""4212""
","
","365","","","","","","","","50","0,0,0","6","blank","327","null","0.22424170565742896","0.10231435386951089","0.4998090759422311","0","","","","","","","","",""
"","html-keyboard-response","216","622291","0.0-116.0-1.0","""event"",""trial"",""time""
""fullscreenenter"",""0"",""4212""
","
","
","""event"",""trial"",""time""
""fullscreenenter"",""0"",""4212""
","
","null","<p></p>","null","","","","","","","","","","","","","","","","","","","","","","","",""
"","do_recog","217","625248","0.0-117.0-0.0","""event"",""trial"",""time""
""fullscreenenter"",""0"",""4212""
","
","
","""event"",""trial"",""time""
""fullscreenenter"",""0"",""4212""
","
","1439","","","","","","","","54","","","","328","probe-94","","","","","1","[object Object]","117","2","1","","","",""
"","html-keyboard-response","218","626252","0.0-117.0-1.0","""event"",""trial"",""time""
""fullscreenenter"",""0"",""4212""
","
","
","""event"",""trial"",""time""
""fullscreenenter"",""0"",""4212""
","
","null","<p></p>","null","","","","","","","","","","","","","","","","","","","","","","","",""
"","do_trial","219","629231","0.0-118.0-0.0","""event"",""trial"",""time""
""fullscreenenter"",""0"",""4212""
","
","
","""event"",""trial"",""time""
""fullscreenenter"",""0"",""4212""
","
","428","","","","","","","","51","0,0,1","6","blank","329","null","0.3407586628363839","0.13731199340503786","0.5511203899886205","1","","","","","","","","",""
"","html-keyboard-response","220","630244","0.0-118.0-1.0","""event"",""trial"",""time""
""fullscreenenter"",""0"",""4212""
","
","
","""event"",""trial"",""time""
""fullscreenenter"",""0"",""4212""
","
","null","<p></p>","null","","","","","","","","","","","","","","","","","","","","","","","",""
"","do_trial","221","633250","0.0-119.0-0.0","""event"",""trial"",""time""
""fullscreenenter"",""0"",""4212""
","
","
","""event"",""trial"",""time""
""fullscreenenter"",""0"",""4212""
","
","459","","","","","","","","50","0,0,1","6","blank","330","null","0.3696360500223474","0.06651242083135833","0.5598007167017326","0","","","","","","","","",""
"","html-keyboard-response","222","634264","0.0-119.0-1.0","""event"",""trial"",""time""
""fullscreenenter"",""0"",""4212""
","
","
","""event"",""trial"",""time""
""fullscreenenter"",""0"",""4212""
","
","null","<p></p>","null","","","","","","","","","","","","","","","","","","","","","","","",""
"","do_recog","223","637375","0.0-120.0-0.0","""event"",""trial"",""time""
""fullscreenenter"",""0"",""4212""
","
","
","""event"",""trial"",""time""
""fullscreenenter"",""0"",""4212""
","
","1594","","","","","","","","54","","","","331","probe-85","","","","","1","[object Object]","73","1","1","","","",""
"","html-keyboard-response","224","638384","0.0-120.0-1.0","""event"",""trial"",""time""
""fullscreenenter"",""0"",""4212""
","
","
","""event"",""trial"",""time""
""fullscreenenter"",""0"",""4212""
","
","null","<p></p>","null","","","","","","","","","","","","","","","","","","","","","","","",""
"","do_trial","225","641809","0.0-121.0-0.0","""event"",""trial"",""time""
""fullscreenenter"",""0"",""4212""
","
","
","""event"",""trial"",""time""
""fullscreenenter"",""0"",""4212""
","
","882","","","","","","","","51","0,0,1","6","blank","332","null","0.3378526774261545","0.13261218603569513","0.5705837129796771","1","","","","","","","","",""
"","html-keyboard-response","226","642821","0.0-121.0-1.0","""event"",""trial"",""time""
""fullscreenenter"",""0"",""4212""
","
","
","""event"",""trial"",""time""
""fullscreenenter"",""0"",""4212""
","
","null","<p></p>","null","","","","","","","","","","","","","","","","","","","","","","","",""
"","do_trial","227","645813","0.0-122.0-0.0","""event"",""trial"",""time""
""fullscreenenter"",""0"",""4212""
","
","
","""event"",""trial"",""time""
""fullscreenenter"",""0"",""4212""
","
","440","","","","","","","","51","1,0,0","6","blank","333","null","0.3248011523468208","0.14014845494562117","0.5872868970922808","0","","","","","","","","",""
"","html-keyboard-response","228","646834","0.0-122.0-1.0","""event"",""trial"",""time""
""fullscreenenter"",""0"",""4212""
","
","
","""event"",""trial"",""time""
""fullscreenenter"",""0"",""4212""
","
","null","<p></p>","null","","","","","","","","","","","","","","","","","","","","","","","",""
"","do_trial","229","650414","0.0-123.0-0.0","""event"",""trial"",""time""
""fullscreenenter"",""0"",""4212""
","
","
","""event"",""trial"",""time""
""fullscreenenter"",""0"",""4212""
","
","1030","","","","","","","","49","0,0,1","6","blank","334","null","0.3805515921005659","0.08733863883452724","0.6769031596921523","0","","","","","","","","",""
"","html-keyboard-response","230","651424","0.0-123.0-1.0","""event"",""trial"",""time""
""fullscreenenter"",""0"",""4212""
","
","
","""event"",""trial"",""time""
""fullscreenenter"",""0"",""4212""
","
","null","<p></p>","null","","","","","","","","","","","","","","","","","","","","","","","",""
"","do_trial","231","654124","0.0-124.0-0.0","""event"",""trial"",""time""
""fullscreenenter"",""0"",""4212""
","
","
","""event"",""trial"",""time""
""fullscreenenter"",""0"",""4212""
","
","143","","","","","","","","51","0,0,1","6","blank","335","null","0.184107116237035","0.18042256202102133","0.6280031193620432","1","","","","","","","","",""
"","html-keyboard-response","232","655134","0.0-124.0-1.0","""event"",""trial"",""time""
""fullscreenenter"",""0"",""4212""
","
","
","""event"",""trial"",""time""
""fullscreenenter"",""0"",""4212""
","
","null","<p></p>","null","","","","","","","","","","","","","","","","","","","","","","","",""
"","do_recog","233","658394","0.0-125.0-0.0","""event"",""trial"",""time""
""fullscreenenter"",""0"",""4212""
","
","
","""event"",""trial"",""time""
""fullscreenenter"",""0"",""4212""
","
","1750","","","","","","","","54","","","","336","probe-88","","","","","1","[object Object]","113","2","1","","","",""
"","html-keyboard-response","234","659405","0.0-125.0-1.0","""event"",""trial"",""time""
""fullscreenenter"",""0"",""4212""
","
","
","""event"",""trial"",""time""
""fullscreenenter"",""0"",""4212""
","
","null","<p></p>","null","","","","","","","","","","","","","","","","","","","","","","","",""
"","do_trial","235","662519","0.0-126.0-0.0","""event"",""trial"",""time""
""fullscreenenter"",""0"",""4212""
","
","
","""event"",""trial"",""time""
""fullscreenenter"",""0"",""4212""
","
","564","","","","","","","","51","0,0,0","6","blank","337","null","0.17803720173060444","0.1767009903522352","0.567896392589788","0","","","","","","","","",""
"","html-keyboard-response","236","663531","0.0-126.0-1.0","""event"",""trial"",""time""
""fullscreenenter"",""0"",""4212""
","
","
","""event"",""trial"",""time""
""fullscreenenter"",""0"",""4212""
","
","null","<p></p>","null","","","","","","","","","","","","","","","","","","","","","","","",""
"","do_recog","237","666445","0.0-127.0-0.0","""event"",""trial"",""time""
""fullscreenenter"",""0"",""4212""
","
","
","""event"",""trial"",""time""
""fullscreenenter"",""0"",""4212""
","
","1406","","","","","","","","54","","","","338","probe-130","","","","","1","[object Object]","119","2","1","","","",""
"","html-keyboard-response","238","667458","0.0-127.0-1.0","""event"",""trial"",""time""
""fullscreenenter"",""0"",""4212""
","
","
","""event"",""trial"",""time""
""fullscreenenter"",""0"",""4212""
","
","null","<p></p>","null","","","","","","","","","","","","","","","","","","","","","","","",""
"","do_trial","239","670578","0.0-128.0-0.0","""event"",""trial"",""time""
""fullscreenenter"",""0"",""4212""
","
","
","""event"",""trial"",""time""
""fullscreenenter"",""0"",""4212""
","
","570","","","","","","","","51","0,0,1","6","blank","339","null","0.25632903973897425","0.21117292207629063","0.6523834741905398","1","","","","","","","","",""
"","html-keyboard-response","240","671593","0.0-128.0-1.0","""event"",""trial"",""time""
""fullscreenenter"",""0"",""4212""
","
","
","""event"",""trial"",""time""
""fullscreenenter"",""0"",""4212""
","
","null","<p></p>","null","","","","","","","","","","","","","","","","","","","","","","","",""
"","do_recog","241","674534","0.0-129.0-0.0","""event"",""trial"",""time""
""fullscreenenter"",""0"",""4212""
","
","
","""event"",""trial"",""time""
""fullscreenenter"",""0"",""4212""
","
","1430","","","","","","","","54","","","","340","probe-117","","","","","1","[object Object]","112","2","1","","","",""
"","html-keyboard-response","242","675543","0.0-129.0-1.0","""event"",""trial"",""time""
""fullscreenenter"",""0"",""4212""
","
","
","""event"",""trial"",""time""
""fullscreenenter"",""0"",""4212""
","
","null","<p></p>","null","","","","","","","","","","","","","","","","","","","","","","","",""
"","do_trial","243","678793","0.0-130.0-0.0","""event"",""trial"",""time""
""fullscreenenter"",""0"",""4212""
","
","
","""event"",""trial"",""time""
""fullscreenenter"",""0"",""4212""
","
","708","","","","","","","","51","0,0,1","6","blank","341","null","0.15730444880313857","0.13538233505458855","0.4827616651256285","1","","","","","","","","",""
"","html-keyboard-response","244","679803","0.0-130.0-1.0","""event"",""trial"",""time""
""fullscreenenter"",""0"",""4212""
","
","
","""event"",""trial"",""time""
""fullscreenenter"",""0"",""4212""
","
","null","<p></p>","null","","","","","","","","","","","","","","","","","","","","","","","",""
"","do_trial","245","683014","0.0-131.0-0.0","""event"",""trial"",""time""
""fullscreenenter"",""0"",""4212""
","
","
","""event"",""trial"",""time""
""fullscreenenter"",""0"",""4212""
","
","645","","","","","","","","51","0,0,0","6","blank","342","null","0.18658817689742843","0.1286649837775451","0.41799008305497554","0","","","","","","","","",""
"","html-keyboard-response","246","684020","0.0-131.0-1.0","""event"",""trial"",""time""
""fullscreenenter"",""0"",""4212""
","
","
","""event"",""trial"",""time""
""fullscreenenter"",""0"",""4212""
","
","null","<p></p>","null","","","","","","","","","","","","","","","","","","","","","","","",""
"","do_trial","247","686963","0.0-132.0-0.0","""event"",""trial"",""time""
""fullscreenenter"",""0"",""4212""
","
","
","""event"",""trial"",""time""
""fullscreenenter"",""0"",""4212""
","
","388","","","","","","","","51","0,0,0","6","blank","343","null","0.20804098401931828","0.26061638135111403","0.4148079891731309","0","","","","","","","","",""
"","html-keyboard-response","248","687972","0.0-132.0-1.0","""event"",""trial"",""time""
""fullscreenenter"",""0"",""4212""
","
","
","""event"",""trial"",""time""
""fullscreenenter"",""0"",""4212""
","
","null","<p></p>","null","","","","","","","","","","","","","","","","","","","","","","","",""
"","do_recog","249","690949","0.0-133.0-0.0","""event"",""trial"",""time""
""fullscreenenter"",""0"",""4212""
","
","
","""event"",""trial"",""time""
""fullscreenenter"",""0"",""4212""
","
","1462","","","","","","","","54","","","","344","probe-99","","","","","1","[object Object]","159","3","1","","","",""
"","html-keyboard-response","250","691969","0.0-133.0-1.0","""event"",""trial"",""time""
""fullscreenenter"",""0"",""4212""
","
","
","""event"",""trial"",""time""
""fullscreenenter"",""0"",""4212""
","
","null","<p></p>","null","","","","","","","","","","","","","","","","","","","","","","","",""
"","do_trial","251","695318","0.0-134.0-0.0","""event"",""trial"",""time""
""fullscreenenter"",""0"",""4212""
","
","
","""event"",""trial"",""time""
""fullscreenenter"",""0"",""4212""
","
","793","","","","","","","","50","1,0,1","6","blank","345","null","0.18087158402751283","0.5073866071750398","0.35703709907066405","0","","","","","","","","",""
"","html-keyboard-response","252","696334","0.0-134.0-1.0","""event"",""trial"",""time""
""fullscreenenter"",""0"",""4212""
","
","
","""event"",""trial"",""time""
""fullscreenenter"",""0"",""4212""
","
","null","<p></p>","null","","","","","","","","","","","","","","","","","","","","","","","",""
"","do_trial","253","699306","0.0-135.0-0.0","""event"",""trial"",""time""
""fullscreenenter"",""0"",""4212""
","
","
","""event"",""trial"",""time""
""fullscreenenter"",""0"",""4212""
","
","414","","","","","","","","51","1,0,1","6","blank","346","null","0.191496376738284","0.5502579770844308","0.45501972781296557","1","","","","","","","","",""
"","html-keyboard-response","254","700308","0.0-135.0-1.0","""event"",""trial"",""time""
""fullscreenenter"",""0"",""4212""
","
","
","""event"",""trial"",""time""
""fullscreenenter"",""0"",""4212""
","
","null","<p></p>","null","","","","","","","","","","","","","","","","","","","","","","","",""
"","do_recog","255","703239","0.0-136.0-0.0","""event"",""trial"",""time""
""fullscreenenter"",""0"",""4212""
","
","
","""event"",""trial"",""time""
""fullscreenenter"",""0"",""4212""
","
","1422","","","","","","","","54","","","","347","probe-238","","","","","0","[object Object]","null","null","0","","","",""
"","html-keyboard-response","256","704250","0.0-136.0-1.0","""event"",""trial"",""time""
""fullscreenenter"",""0"",""4212""
","
","
","""event"",""trial"",""time""
""fullscreenenter"",""0"",""4212""
","
","null","<p></p>","null","","","","","","","","","","","","","","","","","","","","","","","",""
"","do_trial","257","707783","0.0-137.0-0.0","""event"",""trial"",""time""
""fullscreenenter"",""0"",""4212""
","
","
","""event"",""trial"",""time""
""fullscreenenter"",""0"",""4212""
","
","990","","","","","","","","51","0,1,1","6","blank","348","null","0.13493758837833322","0.5191348442025318","0.3359675716240947","1","","","","","","","","",""
"","html-keyboard-response","258","708788","0.0-137.0-1.0","""event"",""trial"",""time""
""fullscreenenter"",""0"",""4212""
","
","
","""event"",""trial"",""time""
""fullscreenenter"",""0"",""4212""
","
","null","<p></p>","null","","","","","","","","","","","","","","","","","","","","","","","",""
"","break","259","710523","0.0-138.0-0.0","""event"",""trial"",""time""
""fullscreenenter"",""0"",""4212""
","
","
","""event"",""trial"",""time""
""fullscreenenter"",""0"",""4212""
","
","1732","<div class='center'><p>Time to take a quick break! You have 2 minutes to rest, but you can move on sooner if you'd like.</p><p> Press the <b>space bar</b> to continue.</p></div>","32","","","","","","","","","","","","","","","","","","","","","","","",""
"","do_trial","260","714485","0.0-138.0-1.0","""event"",""trial"",""time""
""fullscreenenter"",""0"",""4212""
","
","
","""event"",""trial"",""time""
""fullscreenenter"",""0"",""4212""
","
","1410","","","","","","","","51","0,1,0","6","blank","349","null","0.06873108660623056","0.5119068520563542","0.3742106808523949","0","","","","","","","","",""
"","html-keyboard-response","261","715498","0.0-138.0-2.0","""event"",""trial"",""time""
""fullscreenenter"",""0"",""4212""
","
","
","""event"",""trial"",""time""
""fullscreenenter"",""0"",""4212""
","
","null","<p></p>","null","","","","","","","","","","","","","","","","","","","","","","","",""
"","do_trial","262","718656","0.0-139.0-0.0","""event"",""trial"",""time""
""fullscreenenter"",""0"",""4212""
","
","
","""event"",""trial"",""time""
""fullscreenenter"",""0"",""4212""
","
","599","","","","","","","","51","0,1,1","6","blank","350","null","0.14861589749614287","0.6309589728424994","0.3148936563305798","1","","","","","","","","",""
"","html-keyboard-response","263","719669","0.0-139.0-1.0","""event"",""trial"",""time""
""fullscreenenter"",""0"",""4212""
","
","
","""event"",""trial"",""time""
""fullscreenenter"",""0"",""4212""
","
","null","<p></p>","null","","","","","","","","","","","","","","","","","","","","","","","",""
"","do_recog","264","723033","0.0-140.0-0.0","""event"",""trial"",""time""
""fullscreenenter"",""0"",""4212""
","
","
","""event"",""trial"",""time""
""fullscreenenter"",""0"",""4212""
","
","1841","","","","","","","","55","","","","351","probe-107","","","","","1","[object Object]","157","3","0","","","",""
"","html-keyboard-response","265","724042","0.0-140.0-1.0","""event"",""trial"",""time""
""fullscreenenter"",""0"",""4212""
","
","
","""event"",""trial"",""time""
""fullscreenenter"",""0"",""4212""
","
","null","<p></p>","null","","","","","","","","","","","","","","","","","","","","","","","",""
"","do_trial","266","727684","0.0-141.0-0.0","""event"",""trial"",""time""
""fullscreenenter"",""0"",""4212""
","
","
","""event"",""trial"",""time""
""fullscreenenter"",""0"",""4212""
","
","1090","","","","","","","","51","0,0,0","6","blank","352","null","0.11726269482378027","0.6072399337604536","0.29436241629957854","0","","","","","","","","",""
"","html-keyboard-response","267","728694","0.0-141.0-1.0","""event"",""trial"",""time""
""fullscreenenter"",""0"",""4212""
","
","
","""event"",""trial"",""time""
""fullscreenenter"",""0"",""4212""
","
","null","<p></p>","null","","","","","","","","","","","","","","","","","","","","","","","",""
"","do_trial","268","731615","0.0-142.0-0.0","""event"",""trial"",""time""
""fullscreenenter"",""0"",""4212""
","
","
","""event"",""trial"",""time""
""fullscreenenter"",""0"",""4212""
","
","364","","","","","","","","51","0,1,0","6","blank","353","null","0.06198455785098578","0.4452304686394299","0.2758509129071657","0","","","","","","","","",""
"","html-keyboard-response","269","732634","0.0-142.0-1.0","""event"",""trial"",""time""
""fullscreenenter"",""0"",""4212""
","
","
","""event"",""trial"",""time""
""fullscreenenter"",""0"",""4212""
","
","null","<p></p>","null","","","","","","","","","","","","","","","","","","","","","","","",""
"","do_trial","270","735924","0.0-143.0-0.0","""event"",""trial"",""time""
""fullscreenenter"",""0"",""4212""
","
","
","""event"",""trial"",""time""
""fullscreenenter"",""0"",""4212""
","
","732","","","","","","","","50","1,1,0","6","blank","354","null","0.12384365740667211","0.36692418919536807","0.20967061324991176","1","","","","","","","","",""
"","html-keyboard-response","271","736931","0.0-143.0-1.0","""event"",""trial"",""time""
""fullscreenenter"",""0"",""4212""
","
","
","""event"",""trial"",""time""
""fullscreenenter"",""0"",""4212""
","
","null","<p></p>","null","","","","","","","","","","","","","","","","","","","","","","","",""
"","do_recog","272","740127","0.0-144.0-0.0","""event"",""trial"",""time""
""fullscreenenter"",""0"",""4212""
","
","
","""event"",""trial"",""time""
""fullscreenenter"",""0"",""4212""
","
","1682","","","","","","","","55","","","","355","probe-171","","","","","1","[object Object]","111","2","0","","","",""
"","html-keyboard-response","273","741141","0.0-144.0-1.0","""event"",""trial"",""time""
""fullscreenenter"",""0"",""4212""
","
","
","""event"",""trial"",""time""
""fullscreenenter"",""0"",""4212""
","
","null","<p></p>","null","","","","","","","","","","","","","","","","","","","","","","","",""
"","do_trial","274","744169","0.0-145.0-0.0","""event"",""trial"",""time""
""fullscreenenter"",""0"",""4212""
","
","
","""event"",""trial"",""time""
""fullscreenenter"",""0"",""4212""
","
","489","","","","","","","","51","0,0,1","6","blank","356","null","0.17540113308962213","0.6422772734012158","0.07894570103710141","1","","","","","","","","",""
"","html-keyboard-response","275","745183","0.0-145.0-1.0","""event"",""trial"",""time""
""fullscreenenter"",""0"",""4212""
","
","
","""event"",""trial"",""time""
""fullscreenenter"",""0"",""4212""
","
","null","<p></p>","null","","","","","","","","","","","","","","","","","","","","","","","",""
"","do_trial","276","749023","0.0-146.0-0.0","""event"",""trial"",""time""
""fullscreenenter"",""0"",""4212""
","
","
","""event"",""trial"",""time""
""fullscreenenter"",""0"",""4212""
","
","1299","","","","","","","","49","0,1,0","6","blank","357","null","0.132823664500799","0.5422922492507868","0.16088511646982462","0","","","","","","","","",""
"","html-keyboard-response","277","750028","0.0-146.0-1.0","""event"",""trial"",""time""
""fullscreenenter"",""0"",""4212""
","
","
","""event"",""trial"",""time""
""fullscreenenter"",""0"",""4212""
","
","null","<p></p>","null","","","","","","","","","","","","","","","","","","","","","","","",""
"","do_trial","278","753451","0.0-147.0-0.0","""event"",""trial"",""time""
""fullscreenenter"",""0"",""4212""
","
","
","""event"",""trial"",""time""
""fullscreenenter"",""0"",""4212""
","
","871","","","","","","","","51","0,0,1","6","blank","358","null","0.11252893509767281","0.5829312380470755","0.2133412913927941","1","","","","","","","","",""
"","html-keyboard-response","279","754453","0.0-147.0-1.0","""event"",""trial"",""time""
""fullscreenenter"",""0"",""4212""
","
","
","""event"",""trial"",""time""
""fullscreenenter"",""0"",""4212""
","
","null","<p></p>","null","","","","","","","","","","","","","","","","","","","","","","","",""
"","do_trial","280","757771","0.0-148.0-0.0","""event"",""trial"",""time""
""fullscreenenter"",""0"",""4212""
","
","
","""event"",""trial"",""time""
""fullscreenenter"",""0"",""4212""
","
","769","","","","","","","","51","0,0,1","6","blank","359","null","0.05502877860723108","0.5780053525896721","0.35430339806942746","1","","","","","","","","",""
"","html-keyboard-response","281","758774","0.0-148.0-1.0","""event"",""trial"",""time""
""fullscreenenter"",""0"",""4212""
","
","
","""event"",""trial"",""time""
""fullscreenenter"",""0"",""4212""
","
","null","<p></p>","null","","","","","","","","","","","","","","","","","","","","","","","",""
