success,trial_type,trial_index,time_elapsed,internal_node_id,rt,stimulus,subject_id,key_press,response,choice_outcomes,context_n,context_img_id,trial_n,probe_img_id,pR_red,pR_white,pR_black,outcome,is_valid,image_to_show,probed_trial,probed_context,correct,context_id
TRUE,fullscreen,0,8981,0.0-0.0,,,,,,,,,,,,,,,,,,,,
,pavlovia,1,8988,0.0-1.0,,,,,,,,,,,,,,,,,,,,
,html-keyboard-response,2,25483,0.0-2.0,16492.5,"<div class='center'><p>Like yesterday,as the head captain of the ship, you have one important things to do: </p><b><p> Pick the pirate who you think will be most successful at robbing the next ship.</p></b><p>This is important in determining how much bonus money you’ll win.</p><br><p>The game will start by showing you the pirates. First pick a pirate using the <b> 1, 2, 3 </b> buttons on your keyboard. </p><p> Press <b>'1'</b> to choose red beard, <b>'2'</b> to choose white beard, and <b>'3'</b> to choose black beard</p><p> You only have 3 seconds to pick a pirate, so please make a choice quickly! If you are too slow, you’ll have to wait a bit during the time out.</p><p> Don’t feel rushed, but please do try to make a choice every time.</p><p>How good a pirate is at robbing a ship will change depending on the place they are in and how good the defenses are of the ship.</p><p><b>[Press the space bar to begin the practice game]</b></p></div>",5e77b301a4d61d32c335e5bf,32,,,,,,,,,,,,,,,,
,html-keyboard-response,3,38209,0.0-3.0,12724.9,"<div class='center'><p>You’ve arrived at the final island of your journey! Unfortunately, it’s very foggy out, so you won’t be able to see it in the distance like the previous islands you've visited.</p><p>You’ll still be deciding which pirate you want to rob a ship like before. However, because of the fog, you also won’t be able to see the ship.</p><p>This means you do not have to remember the ships you rob on this island.</p><p><b>[Press the space bar to continue]</b></p></div>",,32,,,,,,,,,,,,,,,,
,html-keyboard-response,4,49077,0.0-4.0,10864.9,"<div class='center'><p> Sometimes you’ll be shown a ship, and you will be asked if you saw this ship on a past island.</p><p> Here is an example of what you will see.</p><p><b>[Press the space bar to continue]</b></p><p><img src='run_exp/static/images/tutorial/example_recog_trial.png' height='500'></p></div>",,32,,,,,,,,,,,,,,,,
,html-keyboard-response,5,77549,0.0-5.0,28470.8,"<div class='center'><p> You will press the 5, 6, 7, 8 buttons on your keyboard to respond.</p><p>If you are very sure saw the ship, press <b>5</b> on your keyboard.</p><p> If you think you  saw it before but are not sure, then press <b>6</b>.</p><p> If you think you have not seen it before but are not sure, then press <b>7</b>.</p><p> If you are sure you did not see the ship before, then press <b>8</b>.</p><p><b>[Press the space bar to continue]</b></p><p><img src='run_exp/static/images/tutorial/example_recog_trial.png' height='500'></p></div>",,32,,,,,,,,,,,,,,,,
,html-keyboard-response,6,87539,0.0-6.0,9987.2,"<div class='center'><p> If you remember correctly, then you’ll get a gold coin like this: </p><p><img src='run_exp/static/images/tutorial/reward_small.png' height='200'></p><p>If you do not remember correctly, then you'll see a red x like this: </p><p><img src='run_exp/static/images/tutorial/reward_no.png' height='200'></p><p>Importantly, when you are shown a ship, take the time to remind yourself which island you saw it on. This will help you in the next part of the study.</p><p><b>[Press the space bar to continue]</b></p></div>",,32,,,,,,,,,,,,,,,,
,html-keyboard-response,7,96819,0.0-7.0,9278.2,"<div class='center'><p>Let's go over the important points again. Your job is to: </p><p>1. Pick the pirate who is best at robbing ships and will bring you back gold coins. </p><p>2. Correctly remember whether or not you saw a ship before. If you did see the ship before, remind yourself on which island you saw the ship. </p><p><b>[Press the space bar to begin the next part of the study]</b></p></div>",,32,,,,,,,,,,,,,,,,
,do_welcome,8,98339,0.0-8.0,null,,,,null,,,,,,,,,,,,,,,
,do_trial,9,104414,0.0-9.0-0.0,null,,,,null,"0,0,1",6,blank,230,null,0.252870411,0.100755728,0.648204409,,,,,,,
,html-keyboard-response,10,105420,0.0-9.0-1.0,null,<p></p>,,null,,,,,,,,,,,,,,,,
,do_trial,11,109654,0.0-10.0-0.0,1658.6,,,,51,"0,0,0",6,blank,231,null,0.248203942,0.110232993,0.75609946,0,,,,,,
,html-keyboard-response,12,110657,0.0-10.0-1.0,null,<p></p>,,null,,,,,,,,,,,,,,,,
,do_trial,13,114787,0.0-11.0-0.0,1547.1,,,,50,"0,0,1",6,blank,232,null,0.301506386,0.208609098,0.679795932,0,,,,,,
,html-keyboard-response,14,115790,0.0-11.0-1.0,null,<p></p>,,null,,,,,,,,,,,,,,,,
,do_trial,15,120147,0.0-12.0-0.0,1779.8,,,,50,"0,0,1",6,blank,233,null,0.362194002,0.288530657,0.7877386,0,,,,,,
,html-keyboard-response,16,121149,0.0-12.0-1.0,null,<p></p>,,null,,,,,,,,,,,,,,,,
,do_trial,17,125602,0.0-13.0-0.0,1877.1,,,,51,"0,0,0",6,blank,234,null,0.239515754,0.180849433,0.724803451,0,,,,,,
,html-keyboard-response,18,126605,0.0-13.0-1.0,null,<p></p>,,null,,,,,,,,,,,,,,,,
,do_trial,19,132084,0.0-14.0-0.0,2922,,,,50,"0,0,0",6,blank,235,null,0.253605548,0.174334634,0.627529216,0,,,,,,
,html-keyboard-response,20,133087,0.0-14.0-1.0,null,<p></p>,,null,,,,,,,,,,,,,,,,
,do_trial,21,137095,0.0-15.0-0.0,1457.2,,,,50,"0,0,0",6,blank,236,null,0.334430125,0.064015992,0.631553571,0,,,,,,
,html-keyboard-response,22,138098,0.0-15.0-1.0,null,<p></p>,,null,,,,,,,,,,,,,,,,
,do_trial,23,143331,0.0-16.0-0.0,2674,,,,51,"0,1,1",6,blank,237,null,0.255263749,0.133891185,0.695457183,1,,,,,,
,html-keyboard-response,24,144335,0.0-16.0-1.0,null,<p></p>,,null,,,,,,,,,,,,,,,,
,do_trial,25,148362,0.0-17.0-0.0,1456.4,,,,51,"0,0,1",6,blank,238,null,0.384421499,0.082641361,0.787003788,1,,,,,,
,html-keyboard-response,26,149365,0.0-17.0-1.0,null,<p></p>,,null,,,,,,,,,,,,,,,,
,do_trial,27,152451,0.0-18.0-0.0,509.4,,,,50,"0,0,1",6,blank,239,null,0.498106518,0.07475326,0.766073143,0,,,,,,
,html-keyboard-response,28,153454,0.0-18.0-1.0,null,<p></p>,,null,,,,,,,,,,,,,,,,
,do_trial,29,156425,0.0-19.0-0.0,398.8,,,,51,"1,0,0",6,blank,240,null,0.575420807,0.061311612,0.65865145,0,,,,,,
,html-keyboard-response,30,157429,0.0-19.0-1.0,null,<p></p>,,null,,,,,,,,,,,,,,,,
,do_trial,31,160485,0.0-20.0-0.0,495.5,,,,50,"1,0,1",6,blank,241,null,0.528076032,0.1230039,0.61542947,0,,,,,,
,html-keyboard-response,32,161489,0.0-20.0-1.0,null,<p></p>,,null,,,,,,,,,,,,,,,,
,do_trial,33,164591,0.0-21.0-0.0,533.4,,,,50,"1,0,0",6,blank,242,null,0.545577276,0.076090906,0.456232482,0,,,,,,
,html-keyboard-response,34,165594,0.0-21.0-1.0,null,<p></p>,,null,,,,,,,,,,,,,,,,
,do_trial,35,168555,0.0-22.0-0.0,386.7,,,,49,"0,0,0",6,blank,243,null,0.636635651,0.099388477,0.380728748,0,,,,,,
,html-keyboard-response,36,169558,0.0-22.0-1.0,null,<p></p>,,null,,,,,,,,,,,,,,,,
,do_trial,37,172602,0.0-23.0-0.0,464.3,,,,50,"1,0,0",6,blank,244,null,0.71306877,0.056470357,0.224735202,0,,,,,,
,html-keyboard-response,38,173606,0.0-23.0-1.0,null,<p></p>,,null,,,,,,,,,,,,,,,,
,do_recog,39,179621,0.0-24.0-0.0,null,,,,null,,,,245,probe-02,,,,,1,[object Object],127,3,0,
,html-keyboard-response,40,180625,0.0-24.0-1.0,null,<p></p>,,null,,,,,,,,,,,,,,,,
,do_trial,41,184514,0.0-25.0-0.0,1315.2,,,,51,"1,0,1",6,blank,246,null,0.684599981,0.121363718,0.347162636,1,,,,,,
,html-keyboard-response,42,185516,0.0-25.0-1.0,null,<p></p>,,null,,,,,,,,,,,,,,,,
,do_trial,43,189667,0.0-26.0-0.0,1564.8,,,,51,"1,0,1",6,blank,247,null,0.702922494,0.154308463,0.416246782,1,,,,,,
,html-keyboard-response,44,190671,0.0-26.0-1.0,null,<p></p>,,null,,,,,,,,,,,,,,,,
,do_trial,45,193760,0.0-27.0-0.0,534.7,,,,50,"1,0,1",6,blank,248,null,0.577400147,0.071496045,0.326319315,0,,,,,,
,html-keyboard-response,46,194763,0.0-27.0-1.0,null,<p></p>,,null,,,,,,,,,,,,,,,,
,do_trial,47,197859,0.0-28.0-0.0,531.8,,,,51,"1,1,0",6,blank,249,null,0.641080483,0.174100394,0.286444056,0,,,,,,
,html-keyboard-response,48,198862,0.0-28.0-1.0,null,<p></p>,,null,,,,,,,,,,,,,,,,
,do_recog,49,202679,0.0-29.0-0.0,2303.9,,,,55,,,,250,probe-215,,,,,1,[object Object],125,3,0,
,html-keyboard-response,50,203682,0.0-29.0-1.0,null,<p></p>,,null,,,,,,,,,,,,,,,,
,do_trial,51,209757,0.0-30.0-0.0,null,,,,null,"0,0,1",6,blank,251,null,0.670278907,0.101589091,0.246084621,,,,,,,
,html-keyboard-response,52,210760,0.0-30.0-1.0,null,<p></p>,,null,,,,,,,,,,,,,,,,
,do_trial,53,213957,0.0-31.0-0.0,627.6,,,,50,"1,0,1",6,blank,252,null,0.708716395,0.077745469,0.324671276,0,,,,,,
,html-keyboard-response,54,214959,0.0-31.0-1.0,null,<p></p>,,null,,,,,,,,,,,,,,,,
,do_trial,55,218419,0.0-32.0-0.0,896.3,,,,49,"1,0,0",6,blank,253,null,0.634522939,0.090408889,0.30240042,1,,,,,,
,html-keyboard-response,56,219422,0.0-32.0-1.0,null,<p></p>,,null,,,,,,,,,,,,,,,,
,do_recog,57,222256,0.0-33.0-0.0,1325.7,,,,56,,,,254,probe-11,,,,,1,[object Object],160,4,0,
,html-keyboard-response,58,223259,0.0-33.0-1.0,null,<p></p>,,null,,,,,,,,,,,,,,,,
,do_trial,59,228736,0.0-34.0-0.0,2904.2,,,,50,"1,0,1",6,blank,255,null,0.619941428,0.200989961,0.271590161,0,,,,,,
,html-keyboard-response,60,229738,0.0-34.0-1.0,null,<p></p>,,null,,,,,,,,,,,,,,,,
,do_trial,61,234507,0.0-35.0-0.0,2193.6,,,,50,"0,0,0",6,blank,256,null,0.517760489,0.117421438,0.284651463,0,,,,,,
,html-keyboard-response,62,235509,0.0-35.0-1.0,null,<p></p>,,null,,,,,,,,,,,,,,,,
,do_trial,63,238581,0.0-36.0-0.0,509.4,,,,51,"1,0,0",6,blank,257,null,0.711240062,0.15234655,0.244591496,0,,,,,,
,html-keyboard-response,64,239584,0.0-36.0-1.0,null,<p></p>,,null,,,,,,,,,,,,,,,,
,do_recog,65,242466,0.0-37.0-0.0,1374,,,,54,,,,258,probe-33,,,,,1,[object Object],49,1,1,
,html-keyboard-response,66,243469,0.0-37.0-1.0,null,<p></p>,,null,,,,,,,,,,,,,,,,
,do_trial,67,247006,0.0-38.0-0.0,980,,,,51,"0,0,0",6,blank,259,null,0.766232667,0.146704638,0.459596547,0,,,,,,
,html-keyboard-response,68,248008,0.0-38.0-1.0,null,<p></p>,,null,,,,,,,,,,,,,,,,
,do_recog,69,250758,0.0-39.0-0.0,1242.5,,,,53,,,,260,probe-179,,,,,1,[object Object],165,4,1,
,html-keyboard-response,70,251763,0.0-39.0-1.0,null,<p></p>,,null,,,,,,,,,,,,,,,,
,do_trial,71,255892,0.0-40.0-0.0,1578.1,,,,50,"1,0,0",6,blank,261,null,0.699129264,0.099852498,0.346070075,0,,,,,,
,html-keyboard-response,72,256896,0.0-40.0-1.0,null,<p></p>,,null,,,,,,,,,,,,,,,,
,do_recog,73,259805,0.0-41.0-0.0,1399.7,,,,53,,,,262,probe-155,,,,,1,[object Object],45,1,1,
,html-keyboard-response,74,260808,0.0-41.0-1.0,null,<p></p>,,null,,,,,,,,,,,,,,,,
,do_trial,75,264167,0.0-42.0-0.0,781.5,,,,50,"1,0,0",6,blank,263,null,0.648711331,0.111371249,0.277148277,0,,,,,,
,html-keyboard-response,76,265170,0.0-42.0-1.0,null,<p></p>,,null,,,,,,,,,,,,,,,,
,do_recog,77,267519,0.0-43.0-0.0,842.3,,,,53,,,,264,probe-88,,,,,1,[object Object],40,1,1,
,html-keyboard-response,78,268522,0.0-43.0-1.0,null,<p></p>,,null,,,,,,,,,,,,,,,,
,do_trial,79,271815,0.0-44.0-0.0,706.6,,,,50,"1,0,0",6,blank,265,null,0.545242897,0.07766231,0.256105537,0,,,,,,
,html-keyboard-response,80,272818,0.0-44.0-1.0,null,<p></p>,,null,,,,,,,,,,,,,,,,
,do_trial,81,276132,0.0-45.0-0.0,743,,,,50,"1,0,0",6,blank,266,null,0.536769066,0.121440011,0.339480248,0,,,,,,
,html-keyboard-response,82,277135,0.0-45.0-1.0,null,<p></p>,,null,,,,,,,,,,,,,,,,
,do_trial,83,280387,0.0-46.0-0.0,678.5,,,,50,"1,0,0",6,blank,267,null,0.57846245,0.189699011,0.343912499,0,,,,,,
,html-keyboard-response,84,281390,0.0-46.0-1.0,null,<p></p>,,null,,,,,,,,,,,,,,,,
,do_trial,85,284463,0.0-47.0-0.0,514.9,,,,51,"0,0,1",6,blank,268,null,0.629826117,0.15867673,0.283711868,1,,,,,,
,html-keyboard-response,86,285466,0.0-47.0-1.0,null,<p></p>,,null,,,,,,,,,,,,,,,,
,do_trial,87,288700,0.0-48.0-0.0,655.7,,,,49,"0,1,0",6,blank,269,null,0.514027683,0.135512961,0.269102878,0,,,,,,
,html-keyboard-response,88,289702,0.0-48.0-1.0,null,<p></p>,,null,,,,,,,,,,,,,,,,
,do_recog,89,292590,0.0-49.0-0.0,1377.3,,,,54,,,,270,probe-118,,,,,1,[object Object],128,3,1,
,html-keyboard-response,90,293593,0.0-49.0-1.0,null,<p></p>,,null,,,,,,,,,,,,,,,,
,do_trial,91,296930,0.0-50.0-0.0,757.2,,,,50,"0,1,0",6,blank,271,null,0.599140209,0.099475701,0.284164299,1,,,,,,
,html-keyboard-response,92,297934,0.0-50.0-1.0,null,<p></p>,,null,,,,,,,,,,,,,,,,
,do_trial,93,301286,0.0-51.0-0.0,785.5,,,,49,"0,0,1",6,blank,272,null,0.758601096,0.053258214,0.218915157,0,,,,,,
,html-keyboard-response,94,302289,0.0-51.0-1.0,null,<p></p>,,null,,,,,,,,,,,,,,,,
,do_trial,95,305388,0.0-52.0-0.0,535.3,,,,50,"1,0,0",6,blank,273,null,0.681395095,0.083030045,0.131672074,0,,,,,,
,html-keyboard-response,96,306392,0.0-52.0-1.0,null,<p></p>,,null,,,,,,,,,,,,,,,,
,do_trial,97,309716,0.0-53.0-0.0,750.3,,,,51,"0,1,0",6,blank,274,null,0.561940409,0.140585233,0.164595301,0,,,,,,
,html-keyboard-response,98,310719,0.0-53.0-1.0,null,<p></p>,,null,,,,,,,,,,,,,,,,
,do_recog,99,313495,0.0-54.0-0.0,1261.3,,,,54,,,,275,probe-189,,,,,1,[object Object],48,1,1,
,html-keyboard-response,100,314499,0.0-54.0-1.0,null,<p></p>,,null,,,,,,,,,,,,,,,,
,do_trial,101,318136,0.0-55.0-0.0,1081.7,,,,50,"0,0,0",6,blank,276,null,0.487186238,0.133005341,0.091005123,0,,,,,,
,html-keyboard-response,102,319139,0.0-55.0-1.0,null,<p></p>,,null,,,,,,,,,,,,,,,,
,do_trial,103,322331,0.0-56.0-0.0,622.8,,,,51,"0,1,0",6,blank,277,null,0.398959447,0.153115144,0.378955612,0,,,,,,
,html-keyboard-response,104,323335,0.0-56.0-1.0,null,<p></p>,,null,,,,,,,,,,,,,,,,
,do_trial,105,326510,0.0-57.0-0.0,602.9,,,,50,"1,0,0",6,blank,278,null,0.538021246,0.096268378,0.320838295,0,,,,,,
,html-keyboard-response,106,327512,0.0-57.0-1.0,null,<p></p>,,null,,,,,,,,,,,,,,,,
,do_trial,107,330651,0.0-58.0-0.0,549.1,,,,50,"1,0,0",6,blank,279,null,0.571381207,0.115402622,0.276669936,0,,,,,,
,html-keyboard-response,108,331654,0.0-58.0-1.0,null,<p></p>,,null,,,,,,,,,,,,,,,,
,do_trial,109,334625,0.0-59.0-0.0,402,,,,49,"1,0,1",6,blank,280,null,0.554025605,0.0532787,0.314553389,1,,,,,,
,html-keyboard-response,110,335628,0.0-59.0-1.0,null,<p></p>,,null,,,,,,,,,,,,,,,,
,do_trial,111,338862,0.0-60.0-0.0,672.5,,,,49,"1,0,0",6,blank,281,null,0.764819725,0.128668717,0.262242365,1,,,,,,
,html-keyboard-response,112,339866,0.0-60.0-1.0,null,<p></p>,,null,,,,,,,,,,,,,,,,
,do_recog,113,342698,0.0-61.0-0.0,1319.3,,,,54,,,,282,probe-115,,,,,1,[object Object],89,2,1,
,html-keyboard-response,114,343701,0.0-61.0-1.0,null,<p></p>,,null,,,,,,,,,,,,,,,,
,do_trial,115,347230,0.0-62.0-0.0,974.3,,,,49,"1,0,0",6,blank,283,null,0.934863072,0.123328794,0.198130814,1,,,,,,
,html-keyboard-response,116,348234,0.0-62.0-1.0,null,<p></p>,,null,,,,,,,,,,,,,,,,
,do_recog,117,351209,0.0-63.0-0.0,1466.3,,,,54,,,,284,probe-99,,,,,1,[object Object],122,3,1,
,html-keyboard-response,118,352212,0.0-63.0-1.0,null,<p></p>,,null,,,,,,,,,,,,,,,,
,do_trial,119,355602,0.0-64.0-0.0,841.1,,,,49,"1,0,0",6,blank,285,null,0.753225597,0.05970501,0.241183093,1,,,,,,
,html-keyboard-response,120,356605,0.0-64.0-1.0,null,<p></p>,,null,,,,,,,,,,,,,,,,
,do_trial,121,359913,0.0-65.0-0.0,747.3,,,,50,"1,0,0",6,blank,286,null,0.681642929,0.172115981,0.168231761,0,,,,,,
,html-keyboard-response,122,360916,0.0-65.0-1.0,null,<p></p>,,null,,,,,,,,,,,,,,,,
,do_trial,123,364088,0.0-66.0-0.0,606.2,,,,51,"1,0,0",6,blank,287,null,0.577500227,0.110716885,0.179863405,0,,,,,,
,html-keyboard-response,124,365091,0.0-66.0-1.0,null,<p></p>,,null,,,,,,,,,,,,,,,,
,do_trial,125,368276,0.0-67.0-0.0,626.8,,,,50,"1,0,0",6,blank,288,null,0.553481831,0.076392863,0.36108452,0,,,,,,
,html-keyboard-response,126,369278,0.0-67.0-1.0,null,<p></p>,,null,,,,,,,,,,,,,,,,
,do_trial,127,372492,0.0-68.0-0.0,658.8,,,,50,"0,0,0",6,blank,289,null,0.641665768,0.059303626,0.207303076,0,,,,,,
,html-keyboard-response,128,373494,0.0-68.0-1.0,null,<p></p>,,null,,,,,,,,,,,,,,,,
,do_recog,129,376149,0.0-69.0-0.0,1147.8,,,,54,,,,290,probe-105,,,,,1,[object Object],209,5,1,
,html-keyboard-response,130,377152,0.0-69.0-1.0,null,<p></p>,,null,,,,,,,,,,,,,,,,
,do_trial,131,380770,0.0-70.0-0.0,1056.6,,,,50,"1,1,0",6,blank,291,null,0.675206231,0.170128563,0.225599842,1,,,,,,
,html-keyboard-response,132,381774,0.0-70.0-1.0,null,<p></p>,,null,,,,,,,,,,,,,,,,
,do_recog,133,384773,0.0-71.0-0.0,1488.6,,,,54,,,,292,probe-175,,,,,1,[object Object],126,3,1,
,html-keyboard-response,134,385776,0.0-71.0-1.0,null,<p></p>,,null,,,,,,,,,,,,,,,,
,do_trial,135,390001,0.0-72.0-0.0,1654.3,,,,51,"0,0,0",6,blank,293,null,0.725352298,0.198546148,0.130751968,0,,,,,,
,html-keyboard-response,136,391006,0.0-72.0-1.0,null,<p></p>,,null,,,,,,,,,,,,,,,,
,do_trial,137,394220,0.0-73.0-0.0,632,,,,49,"1,1,1",6,blank,294,null,0.606214602,0.348704437,0.098088172,1,,,,,,
,html-keyboard-response,138,395223,0.0-73.0-1.0,null,<p></p>,,null,,,,,,,,,,,,,,,,
,do_trial,139,398469,0.0-74.0-0.0,686.1,,,,50,"0,0,1",6,blank,295,null,0.452381245,0.44633829,0.150272777,0,,,,,,
,html-keyboard-response,140,399471,0.0-74.0-1.0,null,<p></p>,,null,,,,,,,,,,,,,,,,
,do_trial,141,402618,0.0-75.0-0.0,588,,,,50,"0,1,0",6,blank,296,null,0.245473301,0.492040311,0.103112609,1,,,,,,
,html-keyboard-response,142,403620,0.0-75.0-1.0,null,<p></p>,,null,,,,,,,,,,,,,,,,
,do_trial,143,406852,0.0-76.0-0.0,674.9,,,,49,"0,1,0",6,blank,297,null,0.268321413,0.697031986,0.147220058,0,,,,,,
,html-keyboard-response,144,407854,0.0-76.0-1.0,null,<p></p>,,null,,,,,,,,,,,,,,,,
,do_trial,145,411076,0.0-77.0-0.0,663.3,,,,50,"0,1,0",6,blank,298,null,0.238140487,0.774048919,0.055867814,1,,,,,,
,html-keyboard-response,146,412079,0.0-77.0-1.0,null,<p></p>,,null,,,,,,,,,,,,,,,,
,do_trial,147,415871,0.0-78.0-0.0,1238.2,,,,50,"0,0,0",6,blank,299,null,0.308367911,0.710677961,0.07387601,0,,,,,,
,html-keyboard-response,148,416874,0.0-78.0-1.0,null,<p></p>,,null,,,,,,,,,,,,,,,,
,do_recog,149,419993,0.0-79.0-0.0,1610.8,,,,54,,,,300,probe-79,,,,,1,[object Object],205,5,1,
,html-keyboard-response,150,420996,0.0-79.0-1.0,null,<p></p>,,null,,,,,,,,,,,,,,,,
,do_trial,151,424763,0.0-80.0-0.0,1211.8,,,,51,"0,0,0",6,blank,301,null,0.368063767,0.679960455,0.146736984,0,,,,,,
,html-keyboard-response,152,425766,0.0-80.0-1.0,null,<p></p>,,null,,,,,,,,,,,,,,,,
,do_trial,153,429064,0.0-81.0-0.0,740.8,,,,50,"0,0,0",6,blank,302,null,0.427885616,0.696040082,0.282394096,0,,,,,,
,html-keyboard-response,154,430067,0.0-81.0-1.0,null,<p></p>,,null,,,,,,,,,,,,,,,,
,do_trial,155,433488,0.0-82.0-0.0,846,,,,50,"1,0,0",6,blank,303,null,0.257531817,0.564755368,0.052792792,0,,,,,,
,html-keyboard-response,156,434491,0.0-82.0-1.0,null,<p></p>,,null,,,,,,,,,,,,,,,,
,do_trial,157,437768,0.0-83.0-0.0,708.6,,,,51,"1,1,0",6,blank,304,null,0.281375006,0.637219964,0.192373879,0,,,,,,
,html-keyboard-response,158,438771,0.0-83.0-1.0,null,<p></p>,,null,,,,,,,,,,,,,,,,
,do_trial,159,441949,0.0-84.0-0.0,617.3,,,,49,"0,1,0",6,blank,305,null,0.346939354,0.601922381,0.157108256,0,,,,,,
,html-keyboard-response,160,442951,0.0-84.0-1.0,null,<p></p>,,null,,,,,,,,,,,,,,,,
,do_recog,161,446153,0.0-85.0-0.0,1689.5,,,,54,,,,306,probe-113,,,,,1,[object Object],87,2,1,
,html-keyboard-response,162,447156,0.0-85.0-1.0,null,<p></p>,,null,,,,,,,,,,,,,,,,
,do_trial,163,450882,0.0-86.0-0.0,1160.8,,,,50,"0,0,0",6,blank,307,null,0.313908754,0.485654139,0.11135166,0,,,,,,
,html-keyboard-response,164,451885,0.0-86.0-1.0,null,<p></p>,,null,,,,,,,,,,,,,,,,
,do_trial,165,455096,0.0-87.0-0.0,652,,,,51,"0,0,0",6,blank,308,null,0.286079446,0.665239061,0.214018478,0,,,,,,
,html-keyboard-response,166,456099,0.0-87.0-1.0,null,<p></p>,,null,,,,,,,,,,,,,,,,
,do_recog,167,459024,0.0-88.0-0.0,1413.9,,,,54,,,,309,probe-200,,,,,1,[object Object],162,4,1,
,html-keyboard-response,168,460026,0.0-88.0-1.0,null,<p></p>,,null,,,,,,,,,,,,,,,,
,do_trial,169,465150,0.0-89.0-0.0,2563.5,,,,50,"0,1,1",6,blank,310,null,0.189826255,0.636385784,0.162710561,1,,,,,,
,html-keyboard-response,170,466154,0.0-89.0-1.0,null,<p></p>,,null,,,,,,,,,,,,,,,,
,do_trial,171,469590,0.0-90.0-0.0,871.5,,,,50,"0,0,0",6,blank,311,null,0.126678762,0.721816029,0.054970757,0,,,,,,
,html-keyboard-response,172,470593,0.0-90.0-1.0,null,<p></p>,,null,,,,,,,,,,,,,,,,
,do_recog,173,472782,0.0-91.0-0.0,682.7,,,,53,,,,312,probe-53,,,,,1,[object Object],41,1,1,
,html-keyboard-response,174,473785,0.0-91.0-1.0,null,<p></p>,,null,,,,,,,,,,,,,,,,
,do_trial,175,477242,0.0-92.0-0.0,892.4,,,,50,"1,1,0",6,blank,313,null,0.125395691,0.693153584,0.060201489,1,,,,,,
,html-keyboard-response,176,478246,0.0-92.0-1.0,null,<p></p>,,null,,,,,,,,,,,,,,,,
,do_trial,177,481448,0.0-93.0-0.0,629.4,,,,50,"0,1,0",6,blank,314,null,0.206138642,0.795897313,0.128357068,1,,,,,,
,html-keyboard-response,178,482451,0.0-93.0-1.0,null,<p></p>,,null,,,,,,,,,,,,,,,,
,do_trial,179,485849,0.0-94.0-0.0,823.3,,,,50,"0,1,0",6,blank,315,null,0.102043546,0.713547006,0.053176227,1,,,,,,
,html-keyboard-response,180,486852,0.0-94.0-1.0,null,<p></p>,,null,,,,,,,,,,,,,,,,
,do_recog,181,489744,0.0-95.0-0.0,1385.1,,,,54,,,,316,probe-92,,,,,1,[object Object],202,5,1,
,html-keyboard-response,182,490747,0.0-95.0-1.0,null,<p></p>,,null,,,,,,,,,,,,,,,,
,do_trial,183,493766,0.0-96.0-0.0,434.9,,,,49,"0,1,0",6,blank,317,null,0.051941227,0.707032073,0.145043765,0,,,,,,
,html-keyboard-response,184,494768,0.0-96.0-1.0,null,<p></p>,,null,,,,,,,,,,,,,,,,
,do_recog,185,497773,0.0-97.0-0.0,1497.2,,,,53,,,,318,probe-37,,,,,1,[object Object],206,5,1,
,html-keyboard-response,186,498776,0.0-97.0-1.0,null,<p></p>,,null,,,,,,,,,,,,,,,,
,do_trial,187,501720,0.0-98.0-0.0,381.9,,,,49,"1,1,0",6,blank,319,null,0.144845236,0.734096861,0.220485406,1,,,,,,
,html-keyboard-response,188,502721,0.0-98.0-1.0,null,<p></p>,,null,,,,,,,,,,,,,,,,
,do_trial,189,505845,0.0-99.0-0.0,556.5,,,,49,"0,1,0",6,blank,320,null,0.098389802,0.7907831,0.186656563,0,,,,,,
,html-keyboard-response,190,506847,0.0-99.0-1.0,null,<p></p>,,null,,,,,,,,,,,,,,,,
,do_recog,191,509593,0.0-100.0-0.0,1235.6,,,,53,,,,321,probe-153,,,,,1,[object Object],46,1,1,
,html-keyboard-response,192,510596,0.0-100.0-1.0,null,<p></p>,,null,,,,,,,,,,,,,,,,
,do_trial,193,513910,0.0-101.0-0.0,744.6,,,,51,"1,1,0",6,blank,322,null,0.083459852,0.722440597,0.13670577,0,,,,,,
,html-keyboard-response,194,514912,0.0-101.0-1.0,null,<p></p>,,null,,,,,,,,,,,,,,,,
,do_trial,195,518117,0.0-102.0-0.0,611.3,,,,51,"0,1,0",6,blank,323,null,0.184956843,0.606079618,0.152474288,0,,,,,,
,html-keyboard-response,196,519120,0.0-102.0-1.0,null,<p></p>,,null,,,,,,,,,,,,,,,,
,do_trial,197,522419,0.0-103.0-0.0,723.7,,,,51,"0,1,0",6,blank,324,null,0.143522166,0.687808355,0.122215396,0,,,,,,
,html-keyboard-response,198,523421,0.0-103.0-1.0,null,<p></p>,,null,,,,,,,,,,,,,,,,
,do_trial,199,526581,0.0-104.0-0.0,602.4,,,,49,"0,1,0",6,blank,325,null,0.297544647,0.58423749,0.16546293,0,,,,,,
,html-keyboard-response,200,527584,0.0-104.0-1.0,null,<p></p>,,null,,,,,,,,,,,,,,,,
,do_trial,201,530665,0.0-105.0-0.0,529.3,,,,49,"1,0,0",6,blank,326,null,0.358283066,0.566686577,0.087994164,1,,,,,,
,html-keyboard-response,202,531667,0.0-105.0-1.0,null,<p></p>,,null,,,,,,,,,,,,,,,,
,do_trial,203,534772,0.0-106.0-0.0,536,,,,49,"1,1,0",6,blank,327,null,0.304196397,0.472861032,0.1186634,1,,,,,,
,html-keyboard-response,204,535775,0.0-106.0-1.0,null,<p></p>,,null,,,,,,,,,,,,,,,,
,do_recog,205,538779,0.0-107.0-0.0,1498,,,,53,,,,328,probe-60,,,,,1,[object Object],85,2,1,
,html-keyboard-response,206,539782,0.0-107.0-1.0,null,<p></p>,,null,,,,,,,,,,,,,,,,
,do_trial,207,542794,0.0-108.0-0.0,442.3,,,,49,"0,1,1",6,blank,329,null,0.225723285,0.643282619,0.09643406,0,,,,,,
,html-keyboard-response,208,543798,0.0-108.0-1.0,null,<p></p>,,null,,,,,,,,,,,,,,,,
,do_trial,209,547047,0.0-109.0-0.0,688.9,,,,50,"0,1,0",6,blank,330,null,0.159221345,0.470757517,0.053293462,1,,,,,,
,html-keyboard-response,210,548052,0.0-109.0-1.0,null,<p></p>,,null,,,,,,,,,,,,,,,,
,do_trial,211,551376,0.0-110.0-0.0,750.5,,,,50,"0,1,0",6,blank,331,null,0.263571706,0.729722689,0.057669634,1,,,,,,
,html-keyboard-response,212,552379,0.0-110.0-1.0,null,<p></p>,,null,,,,,,,,,,,,,,,,
,do_trial,213,555621,0.0-111.0-0.0,678.6,,,,50,"0,1,0",6,blank,332,null,0.265596144,0.719146061,0.148684276,1,,,,,,
,html-keyboard-response,214,556624,0.0-111.0-1.0,null,<p></p>,,null,,,,,,,,,,,,,,,,
,do_recog,215,560059,0.0-112.0-0.0,1923,,,,53,,,,333,probe-223,,,,,1,[object Object],84,2,1,
,html-keyboard-response,216,561062,0.0-112.0-1.0,null,<p></p>,,null,,,,,,,,,,,,,,,,
,do_trial,217,564162,0.0-113.0-0.0,525.5,,,,50,"1,1,0",6,blank,334,null,0.285910249,0.69002388,0.111873443,1,,,,,,
,html-keyboard-response,218,565165,0.0-113.0-1.0,null,<p></p>,,null,,,,,,,,,,,,,,,,
,do_trial,219,568464,0.0-114.0-0.0,741.6,,,,50,"0,0,0",6,blank,335,null,0.373768041,0.624999983,0.064147941,0,,,,,,
,html-keyboard-response,220,569467,0.0-114.0-1.0,null,<p></p>,,null,,,,,,,,,,,,,,,,
,do_trial,221,572457,0.0-115.0-0.0,426.5,,,,49,"0,1,0",6,blank,336,null,0.329745079,0.675003593,0.058624953,0,,,,,,
,html-keyboard-response,222,573460,0.0-115.0-1.0,null,<p></p>,,null,,,,,,,,,,,,,,,,
,do_trial,223,576552,0.0-116.0-0.0,530.8,,,,49,"1,0,0",6,blank,337,null,0.356415028,0.543716814,0.100584938,1,,,,,,
,html-keyboard-response,224,577554,0.0-116.0-1.0,null,<p></p>,,null,,,,,,,,,,,,,,,,
,do_trial,225,580804,0.0-117.0-0.0,691,,,,49,"1,1,0",6,blank,338,null,0.32264581,0.479680561,0.133669559,1,,,,,,
,html-keyboard-response,226,581806,0.0-117.0-1.0,null,<p></p>,,null,,,,,,,,,,,,,,,,
,do_trial,227,585026,0.0-118.0-0.0,638,,,,49,"0,1,0",6,blank,339,null,0.282842172,0.517901349,0.054334753,0,,,,,,
,html-keyboard-response,228,586028,0.0-118.0-1.0,null,<p></p>,,null,,,,,,,,,,,,,,,,
,do_recog,229,589000,0.0-119.0-0.0,1460.5,,,,53,,,,340,probe-21,,,,,1,[object Object],200,5,1,
,html-keyboard-response,230,590002,0.0-119.0-1.0,null,<p></p>,,null,,,,,,,,,,,,,,,,
,do_trial,231,593105,0.0-120.0-0.0,545.7,,,,49,"1,1,0",6,blank,341,null,0.310533224,0.511625205,0.070371834,1,,,,,,
,html-keyboard-response,232,594107,0.0-120.0-1.0,null,<p></p>,,null,,,,,,,,,,,,,,,,
,do_recog,233,597137,0.0-121.0-0.0,1519.1,,,,54,,,,342,probe-173,,,,,1,[object Object],168,4,1,
,html-keyboard-response,234,598140,0.0-121.0-1.0,null,<p></p>,,null,,,,,,,,,,,,,,,,
,do_trial,235,601618,0.0-122.0-0.0,910,,,,50,"0,1,0",6,blank,343,null,0.346585575,0.411898387,0.143935425,1,,,,,,
,html-keyboard-response,236,602621,0.0-122.0-1.0,null,<p></p>,,null,,,,,,,,,,,,,,,,
,do_recog,237,605411,0.0-123.0-0.0,1282.4,,,,53,,,,344,probe-204,,,,,1,[object Object],120,3,1,
,html-keyboard-response,238,606414,0.0-123.0-1.0,null,<p></p>,,null,,,,,,,,,,,,,,,,
,do_trial,239,609581,0.0-124.0-0.0,596.6,,,,50,"0,1,0",6,blank,345,null,0.358322429,0.328817484,0.186749642,1,,,,,,
,html-keyboard-response,240,610584,0.0-124.0-1.0,null,<p></p>,,null,,,,,,,,,,,,,,,,
,do_recog,241,613663,0.0-125.0-0.0,1568.4,,,,53,,,,346,probe-94,,,,,1,[object Object],204,5,1,
,html-keyboard-response,242,614666,0.0-125.0-1.0,null,<p></p>,,null,,,,,,,,,,,,,,,,
,do_trial,243,617782,0.0-126.0-0.0,541.8,,,,50,"1,1,0",6,blank,347,null,0.519741114,0.313599862,0.143038462,1,,,,,,
,html-keyboard-response,244,618787,0.0-126.0-1.0,null,<p></p>,,null,,,,,,,,,,,,,,,,
,do_trial,245,621978,0.0-127.0-0.0,607.6,,,,50,"0,0,1",6,blank,348,null,0.445732018,0.217432901,0.136898557,0,,,,,,
,html-keyboard-response,246,622980,0.0-127.0-1.0,null,<p></p>,,null,,,,,,,,,,,,,,,,
,do_trial,247,626273,0.0-128.0-0.0,735,,,,51,"1,0,0",6,blank,349,null,0.403191321,0.26480129,0.319786524,0,,,,,,
,html-keyboard-response,248,627275,0.0-128.0-1.0,null,<p></p>,,null,,,,,,,,,,,,,,,,
,do_trial,249,630353,0.0-129.0-0.0,510.5,,,,51,"0,0,1",6,blank,350,null,0.326219957,0.317483833,0.311184593,1,,,,,,
,html-keyboard-response,250,631355,0.0-129.0-1.0,null,<p></p>,,null,,,,,,,,,,,,,,,,
,do_trial,251,634564,0.0-130.0-0.0,647.3,,,,51,"0,1,1",6,blank,351,null,0.422259852,0.241631276,0.489033093,1,,,,,,
,html-keyboard-response,252,635567,0.0-130.0-1.0,null,<p></p>,,null,,,,,,,,,,,,,,,,
,do_trial,253,638733,0.0-131.0-0.0,576.6,,,,51,"0,0,0",6,blank,352,null,0.444792817,0.248773806,0.531264804,0,,,,,,
,html-keyboard-response,254,639736,0.0-131.0-1.0,null,<p></p>,,null,,,,,,,,,,,,,,,,
,do_recog,255,642517,0.0-132.0-0.0,1269.5,,,,53,,,,353,probe-46,,,,,1,[object Object],169,4,1,
,html-keyboard-response,256,643519,0.0-132.0-1.0,null,<p></p>,,null,,,,,,,,,,,,,,,,
,do_trial,257,647003,0.0-133.0-0.0,928.7,,,,49,"0,0,1",6,blank,354,null,0.357943669,0.200968222,0.499474621,0,,,,,,
,html-keyboard-response,258,648005,0.0-133.0-1.0,null,<p></p>,,null,,,,,,,,,,,,,,,,
,do_recog,259,651274,0.0-134.0-0.0,1757,,,,53,,,,355,probe-48,,,,,1,[object Object],207,5,1,
,html-keyboard-response,260,652278,0.0-134.0-1.0,null,<p></p>,,null,,,,,,,,,,,,,,,,
,do_trial,261,655914,0.0-135.0-0.0,1058.9,,,,50,"1,0,0",6,blank,356,null,0.34241206,0.144507579,0.51767225,0,,,,,,
,html-keyboard-response,262,656917,0.0-135.0-1.0,null,<p></p>,,null,,,,,,,,,,,,,,,,
,do_trial,263,660180,0.0-136.0-0.0,698.8,,,,50,"0,0,0",6,blank,357,null,0.364360718,0.114041804,0.43433539,0,,,,,,
,html-keyboard-response,264,661183,0.0-136.0-1.0,null,<p></p>,,null,,,,,,,,,,,,,,,,
,do_trial,265,664364,0.0-137.0-0.0,620.9,,,,50,"1,0,0",6,blank,358,null,0.37970241,0.268217798,0.508792609,0,,,,,,
,html-keyboard-response,266,665368,0.0-137.0-1.0,null,<p></p>,,null,,,,,,,,,,,,,,,,
,do_trial,267,668366,0.0-138.0-0.0,436.6,,,,50,"1,1,0",6,blank,359,null,0.42961269,0.240830983,0.558082796,1,,,,,,
,html-keyboard-response,268,669369,0.0-138.0-1.0,null,<p></p>,,null,,,,,,,,,,,,,,,,
,do_recog,269,672167,0.0-139.0-0.0,1291.1,,,,53,,,,360,probe-129,,,,,1,[object Object],164,4,1,
,html-keyboard-response,270,673170,0.0-139.0-1.0,null,<p></p>,,null,,,,,,,,,,,,,,,,
,do_trial,271,676308,0.0-140.0-0.0,580.1,,,,50,"0,0,0",6,blank,361,null,0.407291943,0.193891052,0.543079792,0,,,,,,
,html-keyboard-response,272,677311,0.0-140.0-1.0,null,<p></p>,,null,,,,,,,,,,,,,,,,
,do_recog,273,680166,0.0-141.0-0.0,1347.5,,,,53,,,,362,probe-213,,,,,1,[object Object],47,1,1,
,html-keyboard-response,274,681169,0.0-141.0-1.0,null,<p></p>,,null,,,,,,,,,,,,,,,,
,do_trial,275,684806,0.0-142.0-0.0,1073.9,,,,49,"0,1,1",6,blank,363,null,0.580336898,0.223013457,0.45042733,0,,,,,,
,html-keyboard-response,276,685808,0.0-142.0-1.0,null,<p></p>,,null,,,,,,,,,,,,,,,,
,do_trial,277,688888,0.0-143.0-0.0,525.3,,,,50,"0,0,1",6,blank,364,null,0.471050912,0.185486328,0.52327577,0,,,,,,
,html-keyboard-response,278,689890,0.0-143.0-1.0,null,<p></p>,,null,,,,,,,,,,,,,,,,
,do_trial,279,692983,0.0-144.0-0.0,521.2,,,,50,"0,0,1",6,blank,365,null,0.416916037,0.062345149,0.636390096,0,,,,,,
,html-keyboard-response,280,693986,0.0-144.0-1.0,null,<p></p>,,null,,,,,,,,,,,,,,,,
,do_trial,281,697019,0.0-145.0-0.0,455.4,,,,50,"1,0,0",6,blank,366,null,0.489296963,0.097209235,0.654496195,0,,,,,,
,html-keyboard-response,282,698022,0.0-145.0-1.0,null,<p></p>,,null,,,,,,,,,,,,,,,,
,do_trial,283,701079,0.0-146.0-0.0,495.5,,,,50,"0,0,1",6,blank,367,null,0.403986837,0.059893866,0.696862306,0,,,,,,
,html-keyboard-response,284,702083,0.0-146.0-1.0,null,<p></p>,,null,,,,,,,,,,,,,,,,
,do_trial,285,705063,0.0-147.0-0.0,387.6,,,,49,"0,0,1",6,blank,368,null,0.25750956,0.072204317,0.521191904,0,,,,,,
,html-keyboard-response,286,706067,0.0-147.0-1.0,null,<p></p>,,null,,,,,,,,,,,,,,,,
,do_recog,287,708953,0.0-148.0-0.0,1376.6,,,,53,,,,369,probe-138,,,,,1,[object Object],83,2,1,
,html-keyboard-response,288,709956,0.0-148.0-1.0,null,<p></p>,,null,,,,,,,,,,,,,,,,
,do_trial,289,712998,0.0-149.0-0.0,483.8,,,,49,"1,0,1",6,blank,370,null,0.206701058,0.087318051,0.57172293,1,,,,,,
,html-keyboard-response,290,714001,0.0-149.0-1.0,null,<p></p>,,null,,,,,,,,,,,,,,,,
,do_recog,291,717741,0.0-150.0-0.0,2233,,,,53,,,,371,probe-190,,,,,1,[object Object],80,2,1,
,html-keyboard-response,292,718744,0.0-150.0-1.0,null,<p></p>,,null,,,,,,,,,,,,,,,,
,do_trial,293,723618,0.0-151.0-0.0,2310.5,,,,50,"0,0,1",6,blank,372,null,0.218763906,0.051464642,0.450570802,0,,,,,,
,html-keyboard-response,294,724621,0.0-151.0-1.0,null,<p></p>,,null,,,,,,,,,,,,,,,,
,do_trial,295,728012,0.0-152.0-0.0,829.9,,,,49,"0,1,0",6,blank,373,null,0.178888034,0.10898628,0.519022956,0,,,,,,
,html-keyboard-response,296,729015,0.0-152.0-1.0,null,<p></p>,,null,,,,,,,,,,,,,,,,
,do_trial,297,732222,0.0-153.0-0.0,649.6,,,,50,"0,0,0",6,blank,374,null,0.26326621,0.050102347,0.64432512,0,,,,,,
,html-keyboard-response,298,733225,0.0-153.0-1.0,null,<p></p>,,null,,,,,,,,,,,,,,,,
,do_recog,299,736611,0.0-154.0-0.0,1877.8,,,,55,,,,375,probe-210,,,,,1,[object Object],203,5,0,
,html-keyboard-response,300,737614,0.0-154.0-1.0,null,<p></p>,,null,,,,,,,,,,,,,,,,
,do_trial,301,741026,0.0-155.0-0.0,842.2,,,,51,"0,0,1",6,blank,376,null,0.133565772,0.052154155,0.68622404,1,,,,,,
,html-keyboard-response,302,742029,0.0-155.0-1.0,null,<p></p>,,null,,,,,,,,,,,,,,,,
,do_trial,303,745207,0.0-156.0-0.0,620.4,,,,50,"0,0,0",6,blank,377,null,0.188708382,0.092223445,0.618676231,0,,,,,,
,html-keyboard-response,304,746211,0.0-156.0-1.0,null,<p></p>,,null,,,,,,,,,,,,,,,,
,do_trial,305,749246,0.0-157.0-0.0,458.6,,,,51,"0,0,0",6,blank,378,null,0.230093535,0.237410298,0.577788774,0,,,,,,
,html-keyboard-response,306,750249,0.0-157.0-1.0,null,<p></p>,,null,,,,,,,,,,,,,,,,
,do_recog,307,753219,0.0-158.0-0.0,1462.6,,,,53,,,,379,probe-225,,,,,1,[object Object],163,4,1,
,html-keyboard-response,308,754222,0.0-158.0-1.0,null,<p></p>,,null,,,,,,,,,,,,,,,,
,do_trial,309,757222,0.0-159.0-0.0,434.3,,,,51,"0,0,0",6,blank,380,null,0.115004108,0.09478757,0.499510251,0,,,,,,
,html-keyboard-response,310,758225,0.0-159.0-1.0,null,<p></p>,,null,,,,,,,,,,,,,,,,
,do_recog,311,761450,0.0-160.0-0.0,1715,,,,54,,,,381,probe-87,,,,,1,[object Object],161,4,1,
,html-keyboard-response,312,762455,0.0-160.0-1.0,null,<p></p>,,null,,,,,,,,,,,,,,,,
,do_trial,313,765512,0.0-161.0-0.0,471.7,,,,51,"1,0,1",6,blank,382,null,0.118692526,0.184624979,0.592322078,1,,,,,,
,html-keyboard-response,314,766515,0.0-161.0-1.0,null,<p></p>,,null,,,,,,,,,,,,,,,,
,do_trial,315,769781,0.0-162.0-0.0,685.9,,,,51,"0,1,0",6,blank,383,null,0.159263286,0.310508851,0.607565735,0,,,,,,
,html-keyboard-response,316,770783,0.0-162.0-1.0,null,<p></p>,,null,,,,,,,,,,,,,,,,
,do_recog,317,773555,0.0-163.0-0.0,1260.8,,,,54,,,,384,probe-83,,,,,1,[object Object],129,3,1,
,html-keyboard-response,318,774558,0.0-163.0-1.0,null,<p></p>,,null,,,,,,,,,,,,,,,,
,do_trial,319,778119,0.0-164.0-0.0,981.4,,,,51,"0,0,0",6,blank,385,null,0.28530251,0.180953676,0.591471171,0,,,,,,
,html-keyboard-response,320,779122,0.0-164.0-1.0,null,<p></p>,,null,,,,,,,,,,,,,,,,
,do_recog,321,782672,0.0-165.0-0.0,2042.3,,,,54,,,,386,probe-73,,,,,1,[object Object],124,3,1,
,html-keyboard-response,322,783675,0.0-165.0-1.0,null,<p></p>,,null,,,,,,,,,,,,,,,,
,do_trial,323,787418,0.0-166.0-0.0,1162.4,,,,49,"0,0,1",6,blank,387,null,0.253625891,0.079711083,0.495642116,0,,,,,,
,html-keyboard-response,324,788420,0.0-166.0-1.0,null,<p></p>,,null,,,,,,,,,,,,,,,,
,do_recog,325,791653,0.0-167.0-0.0,1724.2,,,,53,,,,388,probe-205,,,,,1,[object Object],123,3,1,
,html-keyboard-response,326,792657,0.0-167.0-1.0,null,<p></p>,,null,,,,,,,,,,,,,,,,
,do_trial,327,795892,0.0-168.0-0.0,660.5,,,,51,"0,0,1",6,blank,389,null,0.260887182,0.075518394,0.512501515,1,,,,,,
,html-keyboard-response,328,796895,0.0-168.0-1.0,null,<p></p>,,null,,,,,,,,,,,,,,,,
,do_recog,329,800301,0.0-169.0-0.0,1896,,,,54,,,,390,probe-146,,,,,1,[object Object],43,1,1,
,html-keyboard-response,330,801304,0.0-169.0-1.0,null,<p></p>,,null,,,,,,,,,,,,,,,,
,do_trial,331,804824,0.0-170.0-0.0,956.4,,,,51,"0,1,1",6,blank,391,null,0.166189136,0.201816024,0.496910536,1,,,,,,
,html-keyboard-response,332,805827,0.0-170.0-1.0,null,<p></p>,,null,,,,,,,,,,,,,,,,
,do_trial,333,809054,0.0-171.0-0.0,657.1,,,,51,"0,0,1",6,blank,392,null,0.199967006,0.100807243,0.339638593,1,,,,,,
,html-keyboard-response,334,810057,0.0-171.0-1.0,null,<p></p>,,null,,,,,,,,,,,,,,,,
,do_trial,335,813697,0.0-172.0-0.0,1067,,,,51,"0,0,1",6,blank,393,null,0.152781412,0.074898684,0.450034528,1,,,,,,
,html-keyboard-response,336,814700,0.0-172.0-1.0,null,<p></p>,,null,,,,,,,,,,,,,,,,
,do_recog,337,817033,0.0-173.0-0.0,826.2,,,,53,,,,394,probe-240,,,,,0,[object Object],null,null,0,
,html-keyboard-response,338,818035,0.0-173.0-1.0,null,<p></p>,,null,,,,,,,,,,,,,,,,
,do_trial,339,821579,0.0-174.0-0.0,979.9,,,,51,"0,0,1",6,blank,395,null,0.339955594,0.112120849,0.51288571,1,,,,,,
,html-keyboard-response,340,822582,0.0-174.0-1.0,null,<p></p>,,null,,,,,,,,,,,,,,,,
,do_trial,341,826065,0.0-175.0-0.0,918.5,,,,50,"1,0,0",6,blank,396,null,0.30509494,0.375709871,0.573082786,0,,,,,,
,html-keyboard-response,342,827068,0.0-175.0-1.0,null,<p></p>,,null,,,,,,,,,,,,,,,,
,do_trial,343,830453,0.0-176.0-0.0,811.5,,,,51,"0,0,0",6,blank,397,null,0.177999408,0.311107428,0.573260848,0,,,,,,
,html-keyboard-response,344,831457,0.0-176.0-1.0,null,<p></p>,,null,,,,,,,,,,,,,,,,
,do_trial,345,834638,0.0-177.0-0.0,606.1,,,,50,"1,0,0",6,blank,398,null,0.362593681,0.219321738,0.564673685,0,,,,,,
,html-keyboard-response,346,835641,0.0-177.0-1.0,null,<p></p>,,null,,,,,,,,,,,,,,,,
,do_trial,347,838698,0.0-178.0-0.0,479.9,,,,49,"0,0,1",6,blank,399,null,0.28341788,0.283597805,0.574200891,0,,,,,,
,html-keyboard-response,348,839702,0.0-178.0-1.0,null,<p></p>,,null,,,,,,,,,,,,,,,,
,do_trial,349,842865,0.0-179.0-0.0,589.7,,,,51,"0,0,1",6,blank,400,null,0.350362681,0.219277435,0.362084211,1,,,,,,
,html-keyboard-response,350,843868,0.0-179.0-1.0,null,<p></p>,,null,,,,,,,,,,,,,,,,
,do_trial,351,847048,0.0-180.0-0.0,620.1,,,,51,"1,0,0",6,blank,401,null,0.353636148,0.091054589,0.376390129,0,,,,,,
,html-keyboard-response,352,848051,0.0-180.0-1.0,null,<p></p>,,null,,,,,,,,,,,,,,,,
,do_recog,353,851452,0.0-181.0-0.0,1894.7,,,,56,,,,402,probe-114,,,,,1,[object Object],44,1,0,
,html-keyboard-response,354,852455,0.0-181.0-1.0,null,<p></p>,,null,,,,,,,,,,,,,,,,
,do_trial,355,856292,0.0-182.0-0.0,1276.3,,,,51,"1,0,0",6,blank,403,null,0.612647015,0.115151448,0.349038062,0,,,,,,
,html-keyboard-response,356,857297,0.0-182.0-1.0,null,<p></p>,,null,,,,,,,,,,,,,,,,
,do_trial,357,860479,0.0-183.0-0.0,620.4,,,,50,"0,0,1",6,blank,404,null,0.640424666,0.177727381,0.391661531,0,,,,,,
,html-keyboard-response,358,861481,0.0-183.0-1.0,null,<p></p>,,null,,,,,,,,,,,,,,,,
,do_trial,359,864588,0.0-184.0-0.0,532.3,,,,51,"1,0,0",6,blank,405,null,0.7033119,0.098522429,0.353593952,0,,,,,,
,html-keyboard-response,360,865592,0.0-184.0-1.0,null,<p></p>,,null,,,,,,,,,,,,,,,,
,do_recog,361,868330,0.0-185.0-0.0,1226.8,,,,54,,,,406,probe-41,,,,,1,[object Object],201,5,1,
,html-keyboard-response,362,869334,0.0-185.0-1.0,null,<p></p>,,null,,,,,,,,,,,,,,,,
,do_trial,363,874571,0.0-186.0-0.0,2678.1,,,,51,"1,0,0",6,blank,407,null,0.740787739,0.112909578,0.202981149,0,,,,,,
,html-keyboard-response,364,875574,0.0-186.0-1.0,null,<p></p>,,null,,,,,,,,,,,,,,,,
,do_trial,365,878824,0.0-187.0-0.0,672.1,,,,50,"0,0,0",6,blank,408,null,0.662638933,0.065647265,0.260965166,0,,,,,,
,html-keyboard-response,366,879827,0.0-187.0-1.0,null,<p></p>,,null,,,,,,,,,,,,,,,,
,do_trial,367,882841,0.0-188.0-0.0,464.2,,,,49,"1,0,1",6,blank,409,null,0.751652683,0.063542484,0.157787198,1,,,,,,
,html-keyboard-response,368,883843,0.0-188.0-1.0,null,<p></p>,,null,,,,,,,,,,,,,,,,
,do_trial,369,887023,0.0-189.0-0.0,621.9,,,,49,"0,0,0",6,blank,410,null,0.64916813,0.108403474,0.088790621,0,,,,,,
,html-keyboard-response,370,888026,0.0-189.0-1.0,null,<p></p>,,null,,,,,,,,,,,,,,,,
,do_trial,371,891112,0.0-190.0-0.0,509.8,,,,51,"1,0,1",6,blank,411,null,0.640216253,0.318693969,0.252267608,1,,,,,,
,html-keyboard-response,372,892116,0.0-190.0-1.0,null,<p></p>,,null,,,,,,,,,,,,,,,,
,do_trial,373,895315,0.0-191.0-0.0,630.1,,,,51,"1,0,0",6,blank,412,null,0.612500356,0.289619474,0.108184715,0,,,,,,
,html-keyboard-response,374,896318,0.0-191.0-1.0,null,<p></p>,,null,,,,,,,,,,,,,,,,
,do_recog,375,899634,0.0-192.0-0.0,1805.2,,,,54,,,,413,probe-120,,,,,1,[object Object],42,1,1,
,html-keyboard-response,376,900636,0.0-192.0-1.0,null,<p></p>,,null,,,,,,,,,,,,,,,,
,do_trial,377,904033,0.0-193.0-0.0,845.8,,,,50,"0,0,0",6,blank,414,null,0.514305591,0.275006192,0.187055386,0,,,,,,
,html-keyboard-response,378,905036,0.0-193.0-1.0,null,<p></p>,,null,,,,,,,,,,,,,,,,
,do_recog,379,908639,0.0-194.0-0.0,2094.7,,,,55,,,,415,probe-193,,,,,1,[object Object],86,2,0,
,html-keyboard-response,380,909642,0.0-194.0-1.0,null,<p></p>,,null,,,,,,,,,,,,,,,,
,do_trial,381,912756,0.0-195.0-0.0,563.9,,,,51,"0,0,0",6,blank,416,null,0.459426214,0.285032652,0.329105438,0,,,,,,
,html-keyboard-response,382,913759,0.0-195.0-1.0,null,<p></p>,,null,,,,,,,,,,,,,,,,
,do_trial,383,916898,0.0-196.0-0.0,573.3,,,,50,"0,1,0",6,blank,417,null,0.54211998,0.165749192,0.322410658,1,,,,,,
,html-keyboard-response,384,917900,0.0-196.0-1.0,null,<p></p>,,null,,,,,,,,,,,,,,,,
,do_trial,385,921000,0.0-197.0-0.0,546.1,,,,50,"1,0,1",6,blank,418,null,0.473130916,0.219927846,0.349123777,0,,,,,,
,html-keyboard-response,386,922004,0.0-197.0-1.0,null,<p></p>,,null,,,,,,,,,,,,,,,,
,do_trial,387,925198,0.0-198.0-0.0,617.6,,,,49,"1,0,0",6,blank,419,null,0.41276183,0.169436615,0.350230075,1,,,,,,
,html-keyboard-response,388,926201,0.0-198.0-1.0,null,<p></p>,,null,,,,,,,,,,,,,,,,
,do_trial,389,929942,0.0-199.0-0.0,1172.4,,,,49,"1,0,0",6,blank,420,null,0.584168923,0.188352267,0.406493199,1,,,,,,
,html-keyboard-response,390,930947,0.0-199.0-1.0,null,<p></p>,,null,,,,,,,,,,,,,,,,
,do_trial,391,934332,0.0-200.0-0.0,810.2,,,,49,"1,1,0",6,blank,421,null,0.572128163,0.149410023,0.336031347,1,,,,,,
,html-keyboard-response,392,935336,0.0-200.0-1.0,null,<p></p>,,null,,,,,,,,,,,,,,,,
,do_recog,393,938401,0.0-201.0-0.0,1555.8,,,,54,,,,422,probe-65,,,,,1,[object Object],166,4,1,
,html-keyboard-response,394,939405,0.0-201.0-1.0,null,<p></p>,,null,,,,,,,,,,,,,,,,
,do_trial,395,942652,0.0-202.0-0.0,663.3,,,,50,"1,0,0",6,blank,423,null,0.57012887,0.093348296,0.396943023,0,,,,,,
,html-keyboard-response,396,943655,0.0-202.0-1.0,null,<p></p>,,null,,,,,,,,,,,,,,,,
,do_trial,397,946734,0.0-203.0-0.0,493.8,,,,49,"1,1,1",6,blank,424,null,0.632453997,0.0674449,0.413555585,1,,,,,,
,html-keyboard-response,398,947738,0.0-203.0-1.0,null,<p></p>,,null,,,,,,,,,,,,,,,,
,do_trial,399,950870,0.0-204.0-0.0,562.5,,,,49,"1,0,1",6,blank,425,null,0.475645088,0.075483543,0.415463645,1,,,,,,
,html-keyboard-response,400,951873,0.0-204.0-1.0,null,<p></p>,,null,,,,,,,,,,,,,,,,
,do_trial,401,955469,0.0-205.0-0.0,1027.4,,,,49,"0,0,1",6,blank,426,null,0.596273774,0.18262451,0.392220495,0,,,,,,
,html-keyboard-response,402,956472,0.0-205.0-1.0,null,<p></p>,,null,,,,,,,,,,,,,,,,
,do_trial,403,959436,0.0-206.0-0.0,408.3,,,,50,"0,0,1",6,blank,427,null,0.645795253,0.205394199,0.250045443,0,,,,,,
,html-keyboard-response,404,960438,0.0-206.0-1.0,null,<p></p>,,null,,,,,,,,,,,,,,,,
,do_trial,405,963368,0.0-207.0-0.0,372.4,,,,50,"0,0,0",6,blank,428,null,0.680745714,0.14363417,0.320436486,0,,,,,,
,html-keyboard-response,406,964371,0.0-207.0-1.0,null,<p></p>,,null,,,,,,,,,,,,,,,,
,do_recog,407,967510,0.0-208.0-0.0,1628.8,,,,55,,,,429,probe-23,,,,,1,[object Object],208,5,0,
,html-keyboard-response,408,968513,0.0-208.0-1.0,null,<p></p>,,null,,,,,,,,,,,,,,,,
,do_trial,409,971983,0.0-209.0-0.0,916.3,,,,50,"1,0,0",6,blank,430,null,0.491550039,0.060250306,0.389718481,0,,,,,,
,html-keyboard-response,410,972985,0.0-209.0-1.0,null,<p></p>,,null,,,,,,,,,,,,,,,,
,do_trial,411,976664,0.0-210.0-0.0,1114.2,,,,51,"1,0,1",6,blank,431,null,0.666312885,0.11144829,0.35812281,1,,,,,,
,html-keyboard-response,412,977667,0.0-210.0-1.0,null,<p></p>,,null,,,,,,,,,,,,,,,,
,do_trial,413,980819,0.0-211.0-0.0,598.7,,,,51,"0,0,0",6,blank,432,null,0.722300864,0.24161182,0.501319715,0,,,,,,
,html-keyboard-response,414,981821,0.0-211.0-1.0,null,<p></p>,,null,,,,,,,,,,,,,,,,
,do_recog,415,985190,0.0-212.0-0.0,1860.6,,,,56,,,,433,probe-24,,,,,1,[object Object],81,2,0,
,html-keyboard-response,416,986193,0.0-212.0-1.0,null,<p></p>,,null,,,,,,,,,,,,,,,,
,do_trial,417,989478,0.0-213.0-0.0,726.3,,,,50,"1,0,0",6,blank,434,null,0.699561177,0.145006546,0.37302299,0,,,,,,
,html-keyboard-response,418,990480,0.0-213.0-1.0,null,<p></p>,,null,,,,,,,,,,,,,,,,
,do_recog,419,993770,0.0-214.0-0.0,1783,,,,55,,,,435,probe-147,,,,,1,[object Object],121,3,0,
,html-keyboard-response,420,994772,0.0-214.0-1.0,null,<p></p>,,null,,,,,,,,,,,,,,,,
,do_trial,421,998297,0.0-215.0-0.0,953.4,,,,51,"0,0,0",6,blank,436,null,0.636053282,0.136925133,0.295856637,0,,,,,,
,html-keyboard-response,422,999300,0.0-215.0-1.0,null,<p></p>,,null,,,,,,,,,,,,,,,,
,do_trial,423,1002525,0.0-216.0-0.0,646.6,,,,49,"1,1,0",6,blank,437,null,0.60544536,0.229850708,0.208617491,1,,,,,,
,html-keyboard-response,424,1003527,0.0-216.0-1.0,null,<p></p>,,null,,,,,,,,,,,,,,,,
,do_trial,425,1006824,0.0-217.0-0.0,726.9,,,,49,"0,0,1",6,blank,438,null,0.531716167,0.231369456,0.219434013,0,,,,,,
,html-keyboard-response,426,1007827,0.0-217.0-1.0,null,<p></p>,,null,,,,,,,,,,,,,,,,
,do_trial,427,1011023,0.0-218.0-0.0,624,,,,50,"0,0,0",6,blank,439,null,0.549740767,0.063258495,0.163431589,0,,,,,,
,html-keyboard-response,428,1012026,0.0-218.0-1.0,null,<p></p>,,null,,,,,,,,,,,,,,,,
,do_recog,429,1015028,0.0-219.0-0.0,1492.3,,,,54,,,,440,probe-214,,,,,1,[object Object],82,2,1,
,html-keyboard-response,430,1016032,0.0-219.0-1.0,null,<p></p>,,null,,,,,,,,,,,,,,,,
,do_trial,431,1019509,0.0-220.0-0.0,917.8,,,,51,"1,0,0",6,blank,441,null,0.596998429,0.060837015,0.268564195,0,,,,,,
,html-keyboard-response,432,1020511,0.0-220.0-1.0,null,<p></p>,,null,,,,,,,,,,,,,,,,
,do_trial,433,1023890,0.0-221.0-0.0,822.1,,,,51,"1,0,0",6,blank,442,null,0.561030572,0.057218818,0.443681534,0,,,,,,
,html-keyboard-response,434,1024893,0.0-221.0-1.0,null,<p></p>,,null,,,,,,,,,,,,,,,,
,do_recog,435,1028345,0.0-222.0-0.0,1942.6,,,,54,,,,443,probe-239,,,,,0,[object Object],null,null,0,
,html-keyboard-response,436,1029348,0.0-222.0-1.0,null,<p></p>,,null,,,,,,,,,,,,,,,,
,do_trial,437,1033321,0.0-223.0-0.0,1403.7,,,,51,"1,1,0",6,blank,444,null,0.631813309,0.173636534,0.30174327,0,,,,,,
,html-keyboard-response,438,1034324,0.0-223.0-1.0,null,<p></p>,,null,,,,,,,,,,,,,,,,
,do_trial,439,1037963,0.0-224.0-0.0,1054.6,,,,50,"1,0,1",6,blank,445,null,0.633445334,0.149419965,0.309525773,0,,,,,,
,html-keyboard-response,440,1038966,0.0-224.0-1.0,null,<p></p>,,null,,,,,,,,,,,,,,,,
,do_trial,441,1042100,0.0-225.0-0.0,560.3,,,,51,"0,0,0",6,blank,446,null,0.59661281,0.098293871,0.112195307,0,,,,,,
,html-keyboard-response,442,1043104,0.0-225.0-1.0,null,<p></p>,,null,,,,,,,,,,,,,,,,
,do_trial,443,1046259,0.0-226.0-0.0,587.2,,,,50,"0,1,0",6,blank,447,null,0.590504769,0.214163229,0.164162936,1,,,,,,
,html-keyboard-response,444,1047262,0.0-226.0-1.0,null,<p></p>,,null,,,,,,,,,,,,,,,,
,do_trial,445,1050573,0.0-227.0-0.0,736.5,,,,51,"1,0,0",6,blank,448,null,0.61108394,0.284328277,0.313850225,0,,,,,,
,html-keyboard-response,446,1051575,0.0-227.0-1.0,null,<p></p>,,null,,,,,,,,,,,,,,,,
,do_recog,447,1054544,0.0-228.0-0.0,1459.9,,,,55,,,,449,probe-244,,,,,0,[object Object],null,null,1,
,html-keyboard-response,448,1055548,0.0-228.0-1.0,null,<p></p>,,null,,,,,,,,,,,,,,,,
,do_trial,449,1058641,0.0-229.0-0.0,515.6,,,,50,"0,0,1",6,blank,450,null,0.534368494,0.060888607,0.235211825,0,,,,,,
,html-keyboard-response,450,1059644,0.0-229.0-1.0,null,<p></p>,,null,,,,,,,,,,,,,,,,
,do_trial,451,1062740,0.0-230.0-0.0,528.1,,,,49,"1,0,1",6,blank,451,null,0.548579966,0.066478287,0.159517105,1,,,,,,
,html-keyboard-response,452,1063742,0.0-230.0-1.0,null,<p></p>,,null,,,,,,,,,,,,,,,,
,do_trial,453,1067003,0.0-231.0-0.0,674.8,,,,49,"0,0,0",6,blank,452,null,0.577067354,0.128544117,0.106359162,0,,,,,,
,html-keyboard-response,454,1068006,0.0-231.0-1.0,null,<p></p>,,null,,,,,,,,,,,,,,,,
,do_trial,455,1070994,0.0-232.0-0.0,430.1,,,,50,"1,0,1",6,blank,453,null,0.591339721,0.148757909,0.322770721,0,,,,,,
,html-keyboard-response,456,1071997,0.0-232.0-1.0,null,<p></p>,,null,,,,,,,,,,,,,,,,
,do_trial,457,1075006,0.0-233.0-0.0,454.5,,,,51,"0,1,0",6,blank,454,null,0.423119446,0.17523578,0.211211552,0,,,,,,
,html-keyboard-response,458,1076009,0.0-233.0-1.0,null,<p></p>,,null,,,,,,,,,,,,,,,,
,do_trial,459,1079017,0.0-234.0-0.0,439.3,,,,49,"1,1,0",6,blank,455,null,0.261832374,0.391021403,0.334342003,1,,,,,,
,html-keyboard-response,460,1080019,0.0-234.0-1.0,null,<p></p>,,null,,,,,,,,,,,,,,,,
,do_recog,461,1082999,0.0-235.0-0.0,1472.7,,,,54,,,,456,probe-249,,,,,0,[object Object],null,null,0,
,html-keyboard-response,462,1084002,0.0-235.0-1.0,null,<p></p>,,null,,,,,,,,,,,,,,,,
,do_trial,463,1087309,0.0-236.0-0.0,744.9,,,,49,"0,0,0",6,blank,457,null,0.240499835,0.331665505,0.390269413,0,,,,,,
,html-keyboard-response,464,1088312,0.0-236.0-1.0,null,<p></p>,,null,,,,,,,,,,,,,,,,
,do_recog,465,1091313,0.0-237.0-0.0,1489.9,,,,55,,,,458,probe-255,,,,,0,[object Object],null,null,1,
,html-keyboard-response,466,1092316,0.0-237.0-1.0,null,<p></p>,,null,,,,,,,,,,,,,,,,
,do_trial,467,1095644,0.0-238.0-0.0,764.2,,,,50,"1,0,1",6,blank,459,null,0.143465526,0.267303613,0.527657051,0,,,,,,
,html-keyboard-response,468,1096647,0.0-238.0-1.0,null,<p></p>,,null,,,,,,,,,,,,,,,,
,do_trial,469,1099773,0.0-239.0-0.0,548,,,,49,"0,0,0",6,blank,460,null,0.092867986,0.246714076,0.387768538,0,,,,,,
,html-keyboard-response,470,1100776,0.0-239.0-1.0,null,<p></p>,,null,,,,,,,,,,,,,,,,
,do_trial,471,1103980,0.0-240.0-0.0,619.2,,,,49,"0,0,0",6,blank,461,null,0.098524587,0.147578976,0.381795006,0,,,,,,
,html-keyboard-response,472,1104983,0.0-240.0-1.0,null,<p></p>,,null,,,,,,,,,,,,,,,,
,do_recog,473,1108157,0.0-241.0-0.0,1666.5,,,,55,,,,462,probe-235,,,,,0,[object Object],null,null,1,
,html-keyboard-response,474,1109160,0.0-241.0-1.0,null,<p></p>,,null,,,,,,,,,,,,,,,,
,do_trial,475,1115217,0.0-242.0-0.0,null,,,,null,"0,0,0",6,blank,463,null,0.121890438,0.084079833,0.406528506,,,,,,,
,html-keyboard-response,476,1116221,0.0-242.0-1.0,null,<p></p>,,null,,,,,,,,,,,,,,,,
,do_trial,477,1119407,0.0-243.0-0.0,622.1,,,,50,"0,0,0",6,blank,464,null,0.080373535,0.078492487,0.420279832,0,,,,,,
,html-keyboard-response,478,1120410,0.0-243.0-1.0,null,<p></p>,,null,,,,,,,,,,,,,,,,
,do_recog,479,1123657,0.0-244.0-0.0,1739.9,,,,55,,,,465,probe-232,,,,,0,[object Object],null,null,1,
,html-keyboard-response,480,1124661,0.0-244.0-1.0,null,<p></p>,,null,,,,,,,,,,,,,,,,
,do_trial,481,1127797,0.0-245.0-0.0,563.4,,,,50,"0,0,0",6,blank,466,null,0.062443404,0.169432416,0.393045256,0,,,,,,
,html-keyboard-response,482,1128800,0.0-245.0-1.0,null,<p></p>,,null,,,,,,,,,,,,,,,,
,do_trial,483,1131876,0.0-246.0-0.0,517.1,,,,49,"0,0,1",6,blank,467,null,0.148306247,0.260974087,0.546289819,0,,,,,,
,html-keyboard-response,484,1132880,0.0-246.0-1.0,null,<p></p>,,null,,,,,,,,,,,,,,,,
,do_trial,485,1135999,0.0-247.0-0.0,554.6,,,,51,"1,0,0",6,blank,468,null,0.123270465,0.198006777,0.447185043,0,,,,,,
,html-keyboard-response,486,1137002,0.0-247.0-1.0,null,<p></p>,,null,,,,,,,,,,,,,,,,
,do_recog,487,1139957,0.0-248.0-0.0,1447.1,,,,55,,,,469,probe-254,,,,,0,[object Object],null,null,1,
,html-keyboard-response,488,1140960,0.0-248.0-1.0,null,<p></p>,,null,,,,,,,,,,,,,,,,
,do_trial,489,1146359,0.0-249.0-0.0,2822.2,,,,50,"0,0,1",6,blank,470,null,0.08639348,0.246608187,0.505175675,0,,,,,,
,html-keyboard-response,490,1147362,0.0-249.0-1.0,null,<p></p>,,null,,,,,,,,,,,,,,,,
,do_recog,491,1150409,0.0-250.0-0.0,1538,,,,55,,,,471,probe-231,,,,,0,[object Object],null,null,1,
,html-keyboard-response,492,1151412,0.0-250.0-1.0,null,<p></p>,,null,,,,,,,,,,,,,,,,
,do_trial,493,1156041,0.0-251.0-0.0,2053.5,,,,50,"0,1,1",6,blank,472,null,0.073049723,0.296938945,0.550817866,1,,,,,,
,html-keyboard-response,494,1157044,0.0-251.0-1.0,null,<p></p>,,null,,,,,,,,,,,,,,,,
,do_recog,495,1160457,0.0-252.0-0.0,1905,,,,56,,,,473,probe-236,,,,,0,[object Object],null,null,1,
,html-keyboard-response,496,1161460,0.0-252.0-1.0,null,<p></p>,,null,,,,,,,,,,,,,,,,
,do_trial,497,1164786,0.0-253.0-0.0,753.1,,,,50,"0,0,0",6,blank,474,null,0.069422855,0.3345941,0.612197542,0,,,,,,
,html-keyboard-response,498,1165790,0.0-253.0-1.0,null,<p></p>,,null,,,,,,,,,,,,,,,,
,do_trial,499,1168953,0.0-254.0-0.0,580.1,,,,49,"0,1,0",6,blank,475,null,0.051156845,0.389634921,0.614841586,0,,,,,,
,html-keyboard-response,500,1169957,0.0-254.0-1.0,null,<p></p>,,null,,,,,,,,,,,,,,,,
,do_trial,501,1173017,0.0-255.0-0.0,493.6,,,,51,"0,0,1",6,blank,476,null,0.054924053,0.304518708,0.790197414,1,,,,,,
,html-keyboard-response,502,1174020,0.0-255.0-1.0,null,<p></p>,,null,,,,,,,,,,,,,,,,
,do_recog,503,1176559,0.0-256.0-0.0,1026.9,,,,56,,,,477,probe-253,,,,,0,[object Object],null,null,1,
,html-keyboard-response,504,1177562,0.0-256.0-1.0,null,<p></p>,,null,,,,,,,,,,,,,,,,
,do_trial,505,1180592,0.0-257.0-0.0,454.6,,,,51,"0,0,0",6,blank,478,null,0.080473717,0.218968216,0.689939792,0,,,,,,
,html-keyboard-response,506,1181595,0.0-257.0-1.0,null,<p></p>,,null,,,,,,,,,,,,,,,,
,do_recog,507,1184118,0.0-258.0-0.0,1016,,,,56,,,,479,probe-251,,,,,0,[object Object],null,null,1,
,html-keyboard-response,508,1185121,0.0-258.0-1.0,null,<p></p>,,null,,,,,,,,,,,,,,,,
,do_pick_best_pirate,509,1192546,0.0-259.0-0.0,6416.2,,,,51,,,,,,,,,,,,,,,
,do_pick_best_pirate,510,1197678,0.0-260.0-0.0,4125.4,,,,50,,,,,,,,,,,,,,,
,do_pick_best_pirate,511,1201875,0.0-261.0-0.0,3187.4,,,,49,,,,,,,,,,,,,,,
,do_pick_best_pirate,512,1205783,0.0-262.0-0.0,2901.3,,,,51,,,,,,,,,,,,,,,
,do_pick_best_pirate,513,1209182,0.0-263.0-0.0,2390.2,,,,51,,,,,,,,,,,,,,,
,do_pick_best_pirate,514,1212762,0.0-264.0-0.0,2571.6,,,,50,,,,,,,,,,,,,,,
,html-keyboard-response,515,1219039,0.0-265.0-0.0,6274.6,<p>You are all done with the experiment!</p><p> You made $15 plus $2 in bonus payment!</p><p>Thank you for participating. You will recieve your payment within 3 days.<p><b>[Press the space bar to end the experiment]</b></p></div>,,32,,,,,,,,,,,,,,,,