"success","trial_type","trial_index","time_elapsed","internal_node_id","interactions","blur_events","focus_events","fullscreenenter_events","fullscreenexit_events","rt","stimulus","key_press","subject_id","participant_id","age","gender","prompt","response","choice_outcomes","context_n","context_img_id","trial_n","probe_img_id","pR_red","pR_white","pR_black","outcome","is_valid","image_to_show","probed_trial","probed_context","correct","probe","probed_trial_n","probed_context_n","context_im"
"true","fullscreen","0","3533","0.0-0.0","""event"",""trial"",""time""
""fullscreenenter"",""0"",""2623""
","
","
","""event"",""trial"",""time""
""fullscreenenter"",""0"",""2623""
","
","","","","","","","","","","","","","","","","","","","","","","","","","","",""
"","pavlovia","1","3537","0.0-1.0","""event"",""trial"",""time""
""fullscreenenter"",""0"",""2623""
","
","
","""event"",""trial"",""time""
""fullscreenenter"",""0"",""2623""
","
","","","","","","","","","","","","","","","","","","","","","","","","","","",""
"","welc_back","2","13599","0.0-2.0","""event"",""trial"",""time""
""fullscreenenter"",""0"",""2623""
","
","
","""event"",""trial"",""time""
""fullscreenenter"",""0"",""2623""
","
","null","run_exp/static/audio/clip_29_welcome_back.m4a","null","430","618","25","Female","<div class='center'><p>Welcome to day 2!</p><p> Yesterday, you were the head captain of a pirate ship. You asked your fellow pirates to rob other ships of their gold across six different islands.</p></div>","","","","","","","","","","","","","","","","","","",""
"","html-keyboard-response","3","14490","0.0-3.0","""event"",""trial"",""time""
""fullscreenenter"",""0"",""2623""
","
","
","""event"",""trial"",""time""
""fullscreenenter"",""0"",""2623""
","
","889","<div class='center'><p>Welcome to day 2!</p><p> Yesterday, you were the head captain of a pirate ship. You asked your fellow pirates to rob other ships of their gold across six different islands.</p><p><b>[Press the space bar to continue]</b></p></div>","32","","","","","","","","","","","","","","","","","","","","","","","",""
"","day_1_summary_goal","4","31753","0.0-4.0","""event"",""trial"",""time""
""fullscreenenter"",""0"",""2623""
","
","
","""event"",""trial"",""time""
""fullscreenenter"",""0"",""2623""
","
","null","run_exp/static/audio/clip_30_goal_of_game.m4a","null","","","","","<div class='center'><p>Today, like yesterday, you get to pick which pirate you want to rob the next ship.</p><p>If the pirate is successful in robbing a ship, you get gold coins that look like this: </p><p><img src='run_exp/static/images/tutorial/reward.png' height='150'></p><p> If they were not successful in robbing the ship, then you will get no gold coins and you'll see a big red x like this: </p><p><img src='run_exp/static/images/tutorial/reward_no.png' height='150'></p></div>","","","","","","","","","","","","","","","","","","",""
"","html-keyboard-response","5","32628","0.0-5.0","""event"",""trial"",""time""
""fullscreenenter"",""0"",""2623""
","
","
","""event"",""trial"",""time""
""fullscreenenter"",""0"",""2623""
","
","873.7000000476837","<div class='center'><p>Today, like yesterday, you get to pick which pirate you want to rob the next ship.</p><p>If the pirate is successful in robbing a ship, you get gold coins that look like this: </p><p><img src='run_exp/static/images/tutorial/reward.png' height='150'></p><p> If they were not successful in robbing the ship, then you will get no gold coins and you'll see a big red x like this: </p><p><img src='run_exp/static/images/tutorial/reward_no.png' height='150'></p><p><b>[Press the space bar to continue]</b></p></div>","32","","","","","","","","","","","","","","","","","","","","","","","",""
"","day_1_summary_pick","6","47368","0.0-6.0","""event"",""trial"",""time""
""fullscreenenter"",""0"",""2623""
","
","
","""event"",""trial"",""time""
""fullscreenenter"",""0"",""2623""
","
","null","run_exp/static/audio/clip_31_how_to_pick_a_pirate.m4a","null","","","","","<div class='center'><p>Also, just like yesterday, you will use the 1,2,3 keys on your keyboard to pick a pirate. Press '1' to choose red beard, '2' to choose white beard, and '3' to choose black beard . You only have 3 seconds to pick a pirate, so please make a choice quickly!</p></div>","","","","","","","","","","","","","","","","","","",""
"","html-keyboard-response","7","49257","0.0-7.0","""event"",""trial"",""time""
""fullscreenenter"",""0"",""2623""
","
","
","""event"",""trial"",""time""
""fullscreenenter"",""0"",""2623""
","
","1887.8999999761581","<div class='center'><p>Also, just like yesterday, you will use the 1,2,3 keys on your keyboard to pick a pirate. Press '1' to choose red beard, '2' to choose white beard, and '3' to choose black beard . You only have 3 seconds to pick a pirate, so please make a choice quickly!</p><p><b>[Press the space bar to continue]</b></p></div>","32","","","","","","","","","","","","","","","","","","","","","","","",""
"","test_phase_begin","8","79710","0.0-8.0","""event"",""trial"",""time""
""fullscreenenter"",""0"",""2623""
","
","
","""event"",""trial"",""time""
""fullscreenenter"",""0"",""2623""
","
","null","run_exp/static/audio/clip_32_final_place.m4a","null","","","","","<div class='center'><p>You’ve arrived at the final island of your journey! Unfortunately, it’s very foggy out, so you won’t be able to see it in the distance like the other islands you've visited.</p><p>You’ll still be deciding which pirate you want to rob a ship like before. However, because of the fog, you also won’t be able to see the ship.</p><p>This means you do not have to remember the ships you rob on this island.</p><p>Unlike yesterday, you won't be visiting multiple islands today. You will stay on this island for the entire game. This game will last ~30 minutes.</p></div>","","","","","","","","","","","","","","","","","","",""
"","html-keyboard-response","9","80705","0.0-9.0","""event"",""trial"",""time""
""fullscreenenter"",""0"",""2623""
","
","
","""event"",""trial"",""time""
""fullscreenenter"",""0"",""2623""
","
","994.5","<div class='center'><p>You’ve arrived at the final island of your journey! Unfortunately, it’s very foggy out, so you won’t be able to see it in the distance like the other islands you've visited.</p><p>You’ll still be deciding which pirate you want to rob a ship like before. However, because of the fog, you also won’t be able to see the ship.</p><p>This means you do not have to remember the ships you rob on this island.</p><p>Unlike yesterday, you won't be visiting multiple islands today. You will stay on this island for the entire game. This game will last ~30 minutes.</p><p><b>[Press the space bar to continue]</b></p></div>","32","","","","","","","","","","","","","","","","","","","","","","","",""
"","explain_probe_1","10","88435","0.0-10.0","""event"",""trial"",""time""
""fullscreenenter"",""0"",""2623""
","
","
","""event"",""trial"",""time""
""fullscreenenter"",""0"",""2623""
","
","null","run_exp/static/audio/clip_33_recognition_1.m4a","null","","","","","<div class='center'><p> Sometimes you’ll be shown a ship, and you will be asked if you saw this ship on a past island.</p><p> Here is an example of what you will see.</p><p><img src='run_exp/static/images/tutorial/example_recog_trial.png' height='500'></p></div>","","","","","","","","","","","","","","","","","","",""
"","html-keyboard-response","11","91334","0.0-11.0","""event"",""trial"",""time""
""fullscreenenter"",""0"",""2623""
","
","
","""event"",""trial"",""time""
""fullscreenenter"",""0"",""2623""
","
","2897","<div class='center'><p> Sometimes you’ll be shown a ship, and you will be asked if you saw this ship on a past island.</p><p> Here is an example of what you will see.</p><p><img src='run_exp/static/images/tutorial/example_recog_trial.png' height='500'></p><p><b>[Press the space bar to continue]</b></p></div>","32","","","","","","","","","","","","","","","","","","","","","","","",""
"","explain_probe_2","12","113096","0.0-12.0","""event"",""trial"",""time""
""fullscreenenter"",""0"",""2623""
","
","
","""event"",""trial"",""time""
""fullscreenenter"",""0"",""2623""
","
","null","run_exp/static/audio/clip_34_recognition_2.m4a","null","","","","","<div class='center'><p> You will press the 5, 6, 7, 8 keys on your keyboard to respond.</p><p>If you are sure you saw the ship, press <b>5</b> on your keyboard.</p><p> If you think you saw it before but aren't sure, then press <b>6</b>.</p><p> If you think you have <b>not</b> seen it before but aren't sure, then press <b>7</b>.</p><p> If you are sure you did <b>not</b> see the ship before, then press <b>8</b>.</p><p><img src='run_exp/static/images/tutorial/example_recog_trial.png' height='500'></p></div>","","","","","","","","","","","","","","","","","","",""
"","html-keyboard-response","13","113485","0.0-13.0","""event"",""trial"",""time""
""fullscreenenter"",""0"",""2623""
","
","
","""event"",""trial"",""time""
""fullscreenenter"",""0"",""2623""
","
","386.1999999284744","<div class='center'><p> You will press the 5, 6, 7, 8 keys on your keyboard to respond.</p><p>If you are sure you saw the ship, press <b>5</b> on your keyboard.</p><p> If you think you saw it before but aren't sure, then press <b>6</b>.</p><p> If you think you have <b>not</b> seen it before but aren't sure, then press <b>7</b>.</p><p> If you are sure you did <b>not</b> see the ship before, then press <b>8</b>.</p><p><img src='run_exp/static/images/tutorial/example_recog_trial.png' height='500'></p><p><b>[Press the space bar to continue]</b></p></div>","32","","","","","","","","","","","","","","","","","","","","","","","",""
"","explain_outcome","14","130718","0.0-14.0","""event"",""trial"",""time""
""fullscreenenter"",""0"",""2623""
","
","
","""event"",""trial"",""time""
""fullscreenenter"",""0"",""2623""
","
","null","run_exp/static/audio/clip_35_recognition_3.m4a","null","","","","","<div class='center'><p> If you remember correctly, then you’ll get a gold coin like this: </p><p><img src='run_exp/static/images/tutorial/reward_small.png' height='200'></p><p>If you do not remember correctly, then you'll see a red x like this: </p><p><img src='run_exp/static/images/tutorial/reward_no.png' height='200'></p><p>Importantly, when you are shown a ship, take the time to remind yourself which island you saw it on. This will help you in the next part of the study.</p></div>","","","","","","","","","","","","","","","","","","",""
"","html-keyboard-response","15","131139","0.0-15.0","""event"",""trial"",""time""
""fullscreenenter"",""0"",""2623""
","
","
","""event"",""trial"",""time""
""fullscreenenter"",""0"",""2623""
","
","418.89999997615814","<div class='center'><p> If you remember correctly, then you’ll get a gold coin like this: </p><p><img src='run_exp/static/images/tutorial/reward_small.png' height='200'></p><p>If you do not remember correctly, then you'll see a red x like this: </p><p><img src='run_exp/static/images/tutorial/reward_no.png' height='200'></p><p>Importantly, when you are shown a ship, take the time to remind yourself which island you saw it on. This will help you in the next part of the study.</p><p><b>[Press the space bar to continue]</b></p></div>","32","","","","","","","","","","","","","","","","","","","","","","","",""
"","begin_test_phase","16","146974","0.0-16.0","""event"",""trial"",""time""
""fullscreenenter"",""0"",""2623""
","
","
","""event"",""trial"",""time""
""fullscreenenter"",""0"",""2623""
","
","null","run_exp/static/audio/clip_36_begin_final.m4a","null","","","","","<div class='center'><p>Let's go over the important points again. Your job is to: </p><p>1. Pick the pirate who is best at robbing ships and will bring you back gold coins. </p><p>2. Correctly remember whether or not you saw a ship before. If you did see the ship before, remind yourself on which island you saw it. </p></div>","","","","","","","","","","","","","","","","","","",""
"","html-keyboard-response","17","147681","0.0-17.0","""event"",""trial"",""time""
""fullscreenenter"",""0"",""2623""
","
","
","""event"",""trial"",""time""
""fullscreenenter"",""0"",""2623""
","
","634.8999999761581","<div class='center'><p>Let's go over the important points again. Your job is to: </p><p>1. Pick the pirate who is best at robbing ships and will bring you back gold coins. </p><p>2. Correctly remember whether or not you saw a ship before. If you did see the ship before, remind yourself on which island you saw it. </p><p><b>[Press the space bar to continue]</b></p></div>","32","","","","","","","","","","","","","","","","","","","","","","","",""
"","do_welcome","18","151696","0.0-18.0","""event"",""trial"",""time""
""fullscreenenter"",""0"",""2623""
","
","
","""event"",""trial"",""time""
""fullscreenenter"",""0"",""2623""
","
","null","","","","","","","","null","","","","","","","","","","","","","","","","","",""
"","do_trial","19","155454","0.0-19.0-0.0","""event"",""trial"",""time""
""fullscreenenter"",""0"",""2623""
","
","
","""event"",""trial"",""time""
""fullscreenenter"",""0"",""2623""
","
","1203.7000000476837","","","","","","","","49","0,1,1","6","blank","230","null","0.2547717743812531","0.2989759310158726","0.7463458610887704","0","","","","","","","","",""
"","html-keyboard-response","20","156461","0.0-19.0-1.0","""event"",""trial"",""time""
""fullscreenenter"",""0"",""2623""
","
","
","""event"",""trial"",""time""
""fullscreenenter"",""0"",""2623""
","
","null","<p></p>","null","","","","","","","","","","","","","","","","","","","","","","","",""
"","do_trial","21","159593","0.0-20.0-0.0","""event"",""trial"",""time""
""fullscreenenter"",""0"",""2623""
","
","
","""event"",""trial"",""time""
""fullscreenenter"",""0"",""2623""
","
","574.6999999284744","","","","","","","","50","0,1,0","6","blank","231","null","0.2876681787296346","0.27332033631014874","0.6057082640838524","1","","","","","","","","",""
"","html-keyboard-response","22","160598","0.0-20.0-1.0","""event"",""trial"",""time""
""fullscreenenter"",""0"",""2623""
","
","
","""event"",""trial"",""time""
""fullscreenenter"",""0"",""2623""
","
","null","<p></p>","null","","","","","","","","","","","","","","","","","","","","","","","",""
"","do_trial","23","163681","0.0-21.0-0.0","""event"",""trial"",""time""
""fullscreenenter"",""0"",""2623""
","
","
","""event"",""trial"",""time""
""fullscreenenter"",""0"",""2623""
","
","531.5","","","","","","","","50","0,0,0","6","blank","232","null","0.2003406708640702","0.26055207590149204","0.5090935702761559","0","","","","","","","","",""
"","html-keyboard-response","24","164686","0.0-21.0-1.0","""event"",""trial"",""time""
""fullscreenenter"",""0"",""2623""
","
","
","""event"",""trial"",""time""
""fullscreenenter"",""0"",""2623""
","
","null","<p></p>","null","","","","","","","","","","","","","","","","","","","","","","","",""
"","do_trial","25","167513","0.0-22.0-0.0","""event"",""trial"",""time""
""fullscreenenter"",""0"",""2623""
","
","
","""event"",""trial"",""time""
""fullscreenenter"",""0"",""2623""
","
","256.5","","","","","","","","51","0,0,1","6","blank","233","null","0.11200165478707025","0.40017536853191105","0.46207428489892466","1","","","","","","","","",""
"","html-keyboard-response","26","168518","0.0-22.0-1.0","""event"",""trial"",""time""
""fullscreenenter"",""0"",""2623""
","
","
","""event"",""trial"",""time""
""fullscreenenter"",""0"",""2623""
","
","null","<p></p>","null","","","","","","","","","","","","","","","","","","","","","","","",""
"","do_trial","27","171412","0.0-23.0-0.0","""event"",""trial"",""time""
""fullscreenenter"",""0"",""2623""
","
","
","""event"",""trial"",""time""
""fullscreenenter"",""0"",""2623""
","
","337.6999999284744","","","","","","","","51","0,1,0","6","blank","234","null","0.10967729334104746","0.3579648331262874","0.43113975112538455","0","","","","","","","","",""
"","html-keyboard-response","28","172414","0.0-23.0-1.0","""event"",""trial"",""time""
""fullscreenenter"",""0"",""2623""
","
","
","""event"",""trial"",""time""
""fullscreenenter"",""0"",""2623""
","
","null","<p></p>","null","","","","","","","","","","","","","","","","","","","","","","","",""
"","do_trial","29","175266","0.0-24.0-0.0","""event"",""trial"",""time""
""fullscreenenter"",""0"",""2623""
","
","
","""event"",""trial"",""time""
""fullscreenenter"",""0"",""2623""
","
","297.89999997615814","","","","","","","","50","0,0,1","6","blank","235","null","0.06207961820003735","0.3314695267984451","0.4875327220663119","0","","","","","","","","",""
"","html-keyboard-response","30","176272","0.0-24.0-1.0","""event"",""trial"",""time""
""fullscreenenter"",""0"",""2623""
","
","
","""event"",""trial"",""time""
""fullscreenenter"",""0"",""2623""
","
","null","<p></p>","null","","","","","","","","","","","","","","","","","","","","","","","",""
"","do_trial","31","179148","0.0-25.0-0.0","""event"",""trial"",""time""
""fullscreenenter"",""0"",""2623""
","
","
","""event"",""trial"",""time""
""fullscreenenter"",""0"",""2623""
","
","322.7999999523163","","","","","","","","49","0,0,0","6","blank","236","null","0.247695826805756","0.19011601713395349","0.51339036266286","0","","","","","","","","",""
"","html-keyboard-response","32","180149","0.0-25.0-1.0","""event"",""trial"",""time""
""fullscreenenter"",""0"",""2623""
","
","
","""event"",""trial"",""time""
""fullscreenenter"",""0"",""2623""
","
","null","<p></p>","null","","","","","","","","","","","","","","","","","","","","","","","",""
"","do_trial","33","183013","0.0-26.0-0.0","""event"",""trial"",""time""
""fullscreenenter"",""0"",""2623""
","
","
","""event"",""trial"",""time""
""fullscreenenter"",""0"",""2623""
","
","308.40000009536743","","","","","","","","51","0,1,1","6","blank","237","null","0.21032934498937025","0.3158883744679936","0.5725260298249899","1","","","","","","","","",""
"","html-keyboard-response","34","184018","0.0-26.0-1.0","""event"",""trial"",""time""
""fullscreenenter"",""0"",""2623""
","
","
","""event"",""trial"",""time""
""fullscreenenter"",""0"",""2623""
","
","null","<p></p>","null","","","","","","","","","","","","","","","","","","","","","","","",""
"","do_trial","35","187007","0.0-27.0-0.0","""event"",""trial"",""time""
""fullscreenenter"",""0"",""2623""
","
","
","""event"",""trial"",""time""
""fullscreenenter"",""0"",""2623""
","
","433.2999999523163","","","","","","","","51","0,1,1","6","blank","238","null","0.17922774140547965","0.39333668112278525","0.7633957593022607","1","","","","","","","","",""
"","html-keyboard-response","36","188012","0.0-27.0-1.0","""event"",""trial"",""time""
""fullscreenenter"",""0"",""2623""
","
","
","""event"",""trial"",""time""
""fullscreenenter"",""0"",""2623""
","
","null","<p></p>","null","","","","","","","","","","","","","","","","","","","","","","","",""
"","do_trial","37","190993","0.0-28.0-0.0","""event"",""trial"",""time""
""fullscreenenter"",""0"",""2623""
","
","
","""event"",""trial"",""time""
""fullscreenenter"",""0"",""2623""
","
","425.89999997615814","","","","","","","","51","0,0,1","6","blank","239","null","0.20951090417063087","0.45094614084710044","0.6370258551851319","1","","","","","","","","",""
"","html-keyboard-response","38","191998","0.0-28.0-1.0","""event"",""trial"",""time""
""fullscreenenter"",""0"",""2623""
","
","
","""event"",""trial"",""time""
""fullscreenenter"",""0"",""2623""
","
","null","<p></p>","null","","","","","","","","","","","","","","","","","","","","","","","",""
"","do_trial","39","194966","0.0-29.0-0.0","""event"",""trial"",""time""
""fullscreenenter"",""0"",""2623""
","
","
","""event"",""trial"",""time""
""fullscreenenter"",""0"",""2623""
","
","412.40000009536743","","","","","","","","51","1,1,0","6","blank","240","null","0.264310651819303","0.5162475223734012","0.6000236813950468","0","","","","","","","","",""
"","html-keyboard-response","40","195968","0.0-29.0-1.0","""event"",""trial"",""time""
""fullscreenenter"",""0"",""2623""
","
","
","""event"",""trial"",""time""
""fullscreenenter"",""0"",""2623""
","
","null","<p></p>","null","","","","","","","","","","","","","","","","","","","","","","","",""
"","do_trial","41","199127","0.0-30.0-0.0","""event"",""trial"",""time""
""fullscreenenter"",""0"",""2623""
","
","
","""event"",""trial"",""time""
""fullscreenenter"",""0"",""2623""
","
","586.5999999046326","","","","","","","","50","0,1,1","6","blank","241","null","0.4894906126091136","0.6148022401189962","0.5115778165646269","1","","","","","","","","",""
"","html-keyboard-response","42","200130","0.0-30.0-1.0","""event"",""trial"",""time""
""fullscreenenter"",""0"",""2623""
","
","
","""event"",""trial"",""time""
""fullscreenenter"",""0"",""2623""
","
","null","<p></p>","null","","","","","","","","","","","","","","","","","","","","","","","",""
"","do_trial","43","203218","0.0-31.0-0.0","""event"",""trial"",""time""
""fullscreenenter"",""0"",""2623""
","
","
","""event"",""trial"",""time""
""fullscreenenter"",""0"",""2623""
","
","531.3999999761581","","","","","","","","50","1,1,0","6","blank","242","null","0.22801538397670587","0.6273819904020098","0.3744850694430468","1","","","","","","","","",""
"","html-keyboard-response","44","204223","0.0-31.0-1.0","""event"",""trial"",""time""
""fullscreenenter"",""0"",""2623""
","
","
","""event"",""trial"",""time""
""fullscreenenter"",""0"",""2623""
","
","null","<p></p>","null","","","","","","","","","","","","","","","","","","","","","","","",""
"","do_recog","45","208458","0.0-32.0-0.0","""event"",""trial"",""time""
""fullscreenenter"",""0"",""2623""
","
","
","""event"",""trial"",""time""
""fullscreenenter"",""0"",""2623""
","
","2724.100000023842","","","","","","","","53","","","","243","probe-127","","","","","1","[object Object]","151","3","1","","","",""
"","html-keyboard-response","46","209462","0.0-32.0-1.0","""event"",""trial"",""time""
""fullscreenenter"",""0"",""2623""
","
","
","""event"",""trial"",""time""
""fullscreenenter"",""0"",""2623""
","
","null","<p></p>","null","","","","","","","","","","","","","","","","","","","","","","","",""
"","do_trial","47","212948","0.0-33.0-0.0","""event"",""trial"",""time""
""fullscreenenter"",""0"",""2623""
","
","
","""event"",""trial"",""time""
""fullscreenenter"",""0"",""2623""
","
","930.1000000238419","","","","","","","","50","0,1,1","6","blank","244","null","0.11821703343858764","0.6132163887056191","0.17164610313906575","1","","","","","","","","",""
"","html-keyboard-response","48","213953","0.0-33.0-1.0","""event"",""trial"",""time""
""fullscreenenter"",""0"",""2623""
","
","
","""event"",""trial"",""time""
""fullscreenenter"",""0"",""2623""
","
","null","<p></p>","null","","","","","","","","","","","","","","","","","","","","","","","",""
"","do_trial","49","217022","0.0-34.0-0.0","""event"",""trial"",""time""
""fullscreenenter"",""0"",""2623""
","
","
","""event"",""trial"",""time""
""fullscreenenter"",""0"",""2623""
","
","515.5","","","","","","","","51","0,0,0","6","blank","245","null","0.07766544548445936","0.5418580192589246","0.2730205807695552","0","","","","","","","","",""
"","html-keyboard-response","50","218027","0.0-34.0-1.0","""event"",""trial"",""time""
""fullscreenenter"",""0"",""2623""
","
","
","""event"",""trial"",""time""
""fullscreenenter"",""0"",""2623""
","
","null","<p></p>","null","","","","","","","","","","","","","","","","","","","","","","","",""
"","do_trial","51","221004","0.0-35.0-0.0","""event"",""trial"",""time""
""fullscreenenter"",""0"",""2623""
","
","
","""event"",""trial"",""time""
""fullscreenenter"",""0"",""2623""
","
","415.39999997615814","","","","","","","","50","0,1,1","6","blank","246","null","0.12006277512410991","0.5392826596316477","0.17062301784493486","1","","","","","","","","",""
"","html-keyboard-response","52","222009","0.0-35.0-1.0","""event"",""trial"",""time""
""fullscreenenter"",""0"",""2623""
","
","
","""event"",""trial"",""time""
""fullscreenenter"",""0"",""2623""
","
","null","<p></p>","null","","","","","","","","","","","","","","","","","","","","","","","",""
"","do_recog","53","226046","0.0-36.0-0.0","""event"",""trial"",""time""
""fullscreenenter"",""0"",""2623""
","
","
","""event"",""trial"",""time""
""fullscreenenter"",""0"",""2623""
","
","2523.5","","","","","","","","53","","","","247","probe-134","","","","","1","[object Object]","198","4","1","","","",""
"","html-keyboard-response","54","227050","0.0-36.0-1.0","""event"",""trial"",""time""
""fullscreenenter"",""0"",""2623""
","
","
","""event"",""trial"",""time""
""fullscreenenter"",""0"",""2623""
","
","null","<p></p>","null","","","","","","","","","","","","","","","","","","","","","","","",""
"","do_trial","55","230479","0.0-37.0-0.0","""event"",""trial"",""time""
""fullscreenenter"",""0"",""2623""
","
","
","""event"",""trial"",""time""
""fullscreenenter"",""0"",""2623""
","
","873.3000000715256","","","","","","","","50","0,0,0","6","blank","248","null","0.19201304029085242","0.5405859630878994","0.24983471991029763","0","","","","","","","","",""
"","html-keyboard-response","56","231485","0.0-37.0-1.0","""event"",""trial"",""time""
""fullscreenenter"",""0"",""2623""
","
","
","""event"",""trial"",""time""
""fullscreenenter"",""0"",""2623""
","
","null","<p></p>","null","","","","","","","","","","","","","","","","","","","","","","","",""
"","do_recog","57","235127","0.0-38.0-0.0","""event"",""trial"",""time""
""fullscreenenter"",""0"",""2623""
","
","
","""event"",""trial"",""time""
""fullscreenenter"",""0"",""2623""
","
","2133.5","","","","","","","","53","","","","249","probe-50","","","","","1","[object Object]","76","1","1","","","",""
"","html-keyboard-response","58","236129","0.0-38.0-1.0","""event"",""trial"",""time""
""fullscreenenter"",""0"",""2623""
","
","
","""event"",""trial"",""time""
""fullscreenenter"",""0"",""2623""
","
","null","<p></p>","null","","","","","","","","","","","","","","","","","","","","","","","",""
"","do_trial","59","239685","0.0-39.0-0.0","""event"",""trial"",""time""
""fullscreenenter"",""0"",""2623""
","
","
","""event"",""trial"",""time""
""fullscreenenter"",""0"",""2623""
","
","998.7000000476837","","","","","","","","51","0,0,1","6","blank","250","null","0.1521000187341636","0.46837328582504434","0.22304140016056562","1","","","","","","","","",""
"","html-keyboard-response","60","240690","0.0-39.0-1.0","""event"",""trial"",""time""
""fullscreenenter"",""0"",""2623""
","
","
","""event"",""trial"",""time""
""fullscreenenter"",""0"",""2623""
","
","null","<p></p>","null","","","","","","","","","","","","","","","","","","","","","","","",""
"","do_trial","61","243699","0.0-40.0-0.0","""event"",""trial"",""time""
""fullscreenenter"",""0"",""2623""
","
","
","""event"",""trial"",""time""
""fullscreenenter"",""0"",""2623""
","
","457.60000002384186","","","","","","","","51","1,1,0","6","blank","251","null","0.2802504339771906","0.5842587677870965","0.21303424606555132","0","","","","","","","","",""
"","html-keyboard-response","62","244705","0.0-40.0-1.0","""event"",""trial"",""time""
""fullscreenenter"",""0"",""2623""
","
","
","""event"",""trial"",""time""
""fullscreenenter"",""0"",""2623""
","
","null","<p></p>","null","","","","","","","","","","","","","","","","","","","","","","","",""
"","do_trial","63","247784","0.0-41.0-0.0","""event"",""trial"",""time""
""fullscreenenter"",""0"",""2623""
","
","
","""event"",""trial"",""time""
""fullscreenenter"",""0"",""2623""
","
","532.3999999761581","","","","","","","","51","0,1,1","6","blank","252","null","0.2160170918738751","0.47993811423294164","0.2705457930677045","1","","","","","","","","",""
"","html-keyboard-response","64","248788","0.0-41.0-1.0","""event"",""trial"",""time""
""fullscreenenter"",""0"",""2623""
","
","
","""event"",""trial"",""time""
""fullscreenenter"",""0"",""2623""
","
","null","<p></p>","null","","","","","","","","","","","","","","","","","","","","","","","",""
"","do_recog","65","252767","0.0-42.0-0.0","""event"",""trial"",""time""
""fullscreenenter"",""0"",""2623""
","
","
","""event"",""trial"",""time""
""fullscreenenter"",""0"",""2623""
","
","2465.5","","","","","","","","56","","","","253","probe-116","","","","","1","[object Object]","34","0","0","","","",""
"","html-keyboard-response","66","253772","0.0-42.0-1.0","""event"",""trial"",""time""
""fullscreenenter"",""0"",""2623""
","
","
","""event"",""trial"",""time""
""fullscreenenter"",""0"",""2623""
","
","null","<p></p>","null","","","","","","","","","","","","","","","","","","","","","","","",""
"","do_trial","67","257687","0.0-43.0-0.0","""event"",""trial"",""time""
""fullscreenenter"",""0"",""2623""
","
","
","""event"",""trial"",""time""
""fullscreenenter"",""0"",""2623""
","
","1360.3999999761581","","","","","","","","51","0,0,1","6","blank","254","null","0.16875299573066393","0.5078456095398732","0.21674704110249124","1","","","","","","","","",""
"","html-keyboard-response","68","258693","0.0-43.0-1.0","""event"",""trial"",""time""
""fullscreenenter"",""0"",""2623""
","
","
","""event"",""trial"",""time""
""fullscreenenter"",""0"",""2623""
","
","null","<p></p>","null","","","","","","","","","","","","","","","","","","","","","","","",""
"","do_trial","69","261752","0.0-44.0-0.0","""event"",""trial"",""time""
""fullscreenenter"",""0"",""2623""
","
","
","""event"",""trial"",""time""
""fullscreenenter"",""0"",""2623""
","
","505.8000000715256","","","","","","","","50","0,0,0","6","blank","255","null","0.1090006366480021","0.5797633146333222","0.25543077804193215","0","","","","","","","","",""
"","html-keyboard-response","70","262757","0.0-44.0-1.0","""event"",""trial"",""time""
""fullscreenenter"",""0"",""2623""
","
","
","""event"",""trial"",""time""
""fullscreenenter"",""0"",""2623""
","
","null","<p></p>","null","","","","","","","","","","","","","","","","","","","","","","","",""
"","do_trial","71","265709","0.0-45.0-0.0","""event"",""trial"",""time""
""fullscreenenter"",""0"",""2623""
","
","
","""event"",""trial"",""time""
""fullscreenenter"",""0"",""2623""
","
","397.7000000476837","","","","","","","","51","0,0,0","6","blank","256","null","0.09387775499337625","0.5896107229413613","0.1927182343218412","0","","","","","","","","",""
"","html-keyboard-response","72","266713","0.0-45.0-1.0","""event"",""trial"",""time""
""fullscreenenter"",""0"",""2623""
","
","
","""event"",""trial"",""time""
""fullscreenenter"",""0"",""2623""
","
","null","<p></p>","null","","","","","","","","","","","","","","","","","","","","","","","",""
"","do_trial","73","269666","0.0-46.0-0.0","""event"",""trial"",""time""
""fullscreenenter"",""0"",""2623""
","
","
","""event"",""trial"",""time""
""fullscreenenter"",""0"",""2623""
","
","395.90000009536743","","","","","","","","50","0,1,0","6","blank","257","null","0.09199939448397595","0.6901771785134807","0.3364490481531373","1","","","","","","","","",""
"","html-keyboard-response","74","270668","0.0-46.0-1.0","""event"",""trial"",""time""
""fullscreenenter"",""0"",""2623""
","
","
","""event"",""trial"",""time""
""fullscreenenter"",""0"",""2623""
","
","null","<p></p>","null","","","","","","","","","","","","","","","","","","","","","","","",""
"","do_trial","75","273719","0.0-47.0-0.0","""event"",""trial"",""time""
""fullscreenenter"",""0"",""2623""
","
","
","""event"",""trial"",""time""
""fullscreenenter"",""0"",""2623""
","
","505.1999999284744","","","","","","","","50","0,1,1","6","blank","258","null","0.07095375877427053","0.6515013043372475","0.3331009061576606","1","","","","","","","","",""
"","html-keyboard-response","76","274724","0.0-47.0-1.0","""event"",""trial"",""time""
""fullscreenenter"",""0"",""2623""
","
","
","""event"",""trial"",""time""
""fullscreenenter"",""0"",""2623""
","
","null","<p></p>","null","","","","","","","","","","","","","","","","","","","","","","","",""
"","do_trial","77","277735","0.0-48.0-0.0","""event"",""trial"",""time""
""fullscreenenter"",""0"",""2623""
","
","
","""event"",""trial"",""time""
""fullscreenenter"",""0"",""2623""
","
","457.89999997615814","","","","","","","","50","0,1,1","6","blank","259","null","0.09745261211372629","0.7223130711049042","0.3690343654151064","1","","","","","","","","",""
"","html-keyboard-response","78","278737","0.0-48.0-1.0","""event"",""trial"",""time""
""fullscreenenter"",""0"",""2623""
","
","
","""event"",""trial"",""time""
""fullscreenenter"",""0"",""2623""
","
","null","<p></p>","null","","","","","","","","","","","","","","","","","","","","","","","",""
"","do_recog","79","282254","0.0-49.0-0.0","""event"",""trial"",""time""
""fullscreenenter"",""0"",""2623""
","
","
","""event"",""trial"",""time""
""fullscreenenter"",""0"",""2623""
","
","2003.6999999284744","","","","","","","","56","","","","260","probe-03","","","","","1","[object Object]","114","2","0","","","",""
"","html-keyboard-response","80","283259","0.0-49.0-1.0","""event"",""trial"",""time""
""fullscreenenter"",""0"",""2623""
","
","
","""event"",""trial"",""time""
""fullscreenenter"",""0"",""2623""
","
","null","<p></p>","null","","","","","","","","","","","","","","","","","","","","","","","",""
"","do_trial","81","286635","0.0-50.0-0.0","""event"",""trial"",""time""
""fullscreenenter"",""0"",""2623""
","
","
","""event"",""trial"",""time""
""fullscreenenter"",""0"",""2623""
","
","820.8999999761581","","","","","","","","50","0,1,1","6","blank","261","null","0.1383091992085106","0.5413458940988308","0.21678254787001158","1","","","","","","","","",""
"","html-keyboard-response","82","287641","0.0-50.0-1.0","""event"",""trial"",""time""
""fullscreenenter"",""0"",""2623""
","
","
","""event"",""trial"",""time""
""fullscreenenter"",""0"",""2623""
","
","null","<p></p>","null","","","","","","","","","","","","","","","","","","","","","","","",""
"","do_recog","83","291770","0.0-51.0-0.0","""event"",""trial"",""time""
""fullscreenenter"",""0"",""2623""
","
","
","""event"",""trial"",""time""
""fullscreenenter"",""0"",""2623""
","
","2620.100000023842","","","","","","","","56","","","","262","probe-252","","","","","0","[object Object]","null","null","1","","","",""
"","html-keyboard-response","84","292773","0.0-51.0-1.0","""event"",""trial"",""time""
""fullscreenenter"",""0"",""2623""
","
","
","""event"",""trial"",""time""
""fullscreenenter"",""0"",""2623""
","
","null","<p></p>","null","","","","","","","","","","","","","","","","","","","","","","","",""
"","do_trial","85","295979","0.0-52.0-0.0","""event"",""trial"",""time""
""fullscreenenter"",""0"",""2623""
","
","
","""event"",""trial"",""time""
""fullscreenenter"",""0"",""2623""
","
","647","","","","","","","","51","0,0,1","6","blank","263","null","0.15046280863561504","0.5912959091947082","0.2784556101990762","1","","","","","","","","",""
"","html-keyboard-response","86","296985","0.0-52.0-1.0","""event"",""trial"",""time""
""fullscreenenter"",""0"",""2623""
","
","
","""event"",""trial"",""time""
""fullscreenenter"",""0"",""2623""
","
","null","<p></p>","null","","","","","","","","","","","","","","","","","","","","","","","",""
"","do_trial","87","299862","0.0-53.0-0.0","""event"",""trial"",""time""
""fullscreenenter"",""0"",""2623""
","
","
","""event"",""trial"",""time""
""fullscreenenter"",""0"",""2623""
","
","324.7000000476837","","","","","","","","51","0,0,0","6","blank","264","null","0.09424098024629371","0.5408312893286696","0.2911686563503093","0","","","","","","","","",""
"","html-keyboard-response","88","300869","0.0-53.0-1.0","""event"",""trial"",""time""
""fullscreenenter"",""0"",""2623""
","
","
","""event"",""trial"",""time""
""fullscreenenter"",""0"",""2623""
","
","null","<p></p>","null","","","","","","","","","","","","","","","","","","","","","","","",""
"","do_trial","89","303800","0.0-54.0-0.0","""event"",""trial"",""time""
""fullscreenenter"",""0"",""2623""
","
","
","""event"",""trial"",""time""
""fullscreenenter"",""0"",""2623""
","
","380.2000000476837","","","","","","","","50","0,1,1","6","blank","265","null","0.08574201929825609","0.6862074079408366","0.3846669589464484","1","","","","","","","","",""
"","html-keyboard-response","90","304809","0.0-54.0-1.0","""event"",""trial"",""time""
""fullscreenenter"",""0"",""2623""
","
","
","""event"",""trial"",""time""
""fullscreenenter"",""0"",""2623""
","
","null","<p></p>","null","","","","","","","","","","","","","","","","","","","","","","","",""
"","do_trial","91","307746","0.0-55.0-0.0","""event"",""trial"",""time""
""fullscreenenter"",""0"",""2623""
","
","
","""event"",""trial"",""time""
""fullscreenenter"",""0"",""2623""
","
","383.7000000476837","","","","","","","","50","0,1,1","6","blank","266","null","0.24436223148998742","0.5980367373736675","0.3955982507527769","1","","","","","","","","",""
"","html-keyboard-response","92","308751","0.0-55.0-1.0","""event"",""trial"",""time""
""fullscreenenter"",""0"",""2623""
","
","
","""event"",""trial"",""time""
""fullscreenenter"",""0"",""2623""
","
","null","<p></p>","null","","","","","","","","","","","","","","","","","","","","","","","",""
"","do_recog","93","314769","0.0-56.0-0.0","""event"",""trial"",""time""
""fullscreenenter"",""0"",""2623""
","
","
","""event"",""trial"",""time""
""fullscreenenter"",""0"",""2623""
","
","null","","","","","","","","null","","","","267","probe-101","","","","","1","[object Object]","113","2","0","","","",""
"","html-keyboard-response","94","315774","0.0-56.0-1.0","""event"",""trial"",""time""
""fullscreenenter"",""0"",""2623""
","
","
","""event"",""trial"",""time""
""fullscreenenter"",""0"",""2623""
","
","null","<p></p>","null","","","","","","","","","","","","","","","","","","","","","","","",""
"","do_trial","95","319088","0.0-57.0-0.0","""event"",""trial"",""time""
""fullscreenenter"",""0"",""2623""
","
","
","""event"",""trial"",""time""
""fullscreenenter"",""0"",""2623""
","
","744.3999999761581","","","","","","","","50","0,0,0","6","blank","268","null","0.21705757882551435","0.6813682890886429","0.33848278628230744","0","","","","","","","","",""
"","html-keyboard-response","96","320093","0.0-57.0-1.0","""event"",""trial"",""time""
""fullscreenenter"",""0"",""2623""
","
","
","""event"",""trial"",""time""
""fullscreenenter"",""0"",""2623""
","
","null","<p></p>","null","","","","","","","","","","","","","","","","","","","","","","","",""
"","break","97","322702","0.0-58.0-0.0","""event"",""trial"",""time""
""fullscreenenter"",""0"",""2623""
","
","
","""event"",""trial"",""time""
""fullscreenenter"",""0"",""2623""
","
","2607.399999976158","<div class='center'><p>Time to take a quick break! You have 2 minutes to rest, but you can move on sooner if you'd like.</p><p> Press the <b>space bar</b> to continue.</p></div>","32","","","","","","","","","","","","","","","","","","","","","","","",""
"","do_trial","98","325840","0.0-58.0-1.0","""event"",""trial"",""time""
""fullscreenenter"",""0"",""2623""
","
","
","""event"",""trial"",""time""
""fullscreenenter"",""0"",""2623""
","
","579.8999999761581","","","","","","","","51","0,1,0","6","blank","269","null","0.21491981095982585","0.860678460573379","0.23740977118846512","0","","","","","","","","",""
"","html-keyboard-response","99","326846","0.0-58.0-2.0","""event"",""trial"",""time""
""fullscreenenter"",""0"",""2623""
","
","
","""event"",""trial"",""time""
""fullscreenenter"",""0"",""2623""
","
","null","<p></p>","null","","","","","","","","","","","","","","","","","","","","","","","",""
"","do_recog","100","330149","0.0-59.0-0.0","""event"",""trial"",""time""
""fullscreenenter"",""0"",""2623""
","
","
","""event"",""trial"",""time""
""fullscreenenter"",""0"",""2623""
","
","1791.5","","","","","","","","53","","","","270","probe-215","","","","","1","[object Object]","31","0","1","","","",""
"","html-keyboard-response","101","331154","0.0-59.0-1.0","""event"",""trial"",""time""
""fullscreenenter"",""0"",""2623""
","
","
","""event"",""trial"",""time""
""fullscreenenter"",""0"",""2623""
","
","null","<p></p>","null","","","","","","","","","","","","","","","","","","","","","","","",""
"","do_trial","102","334069","0.0-60.0-0.0","""event"",""trial"",""time""
""fullscreenenter"",""0"",""2623""
","
","
","""event"",""trial"",""time""
""fullscreenenter"",""0"",""2623""
","
","361.2999999523163","","","","","","","","51","0,1,0","6","blank","271","null","0.11314506430915039","0.8199545142299856","0.43141539308020194","0","","","","","","","","",""
"","html-keyboard-response","103","335074","0.0-60.0-1.0","""event"",""trial"",""time""
""fullscreenenter"",""0"",""2623""
","
","
","""event"",""trial"",""time""
""fullscreenenter"",""0"",""2623""
","
","null","<p></p>","null","","","","","","","","","","","","","","","","","","","","","","","",""
"","do_trial","104","337971","0.0-61.0-0.0","""event"",""trial"",""time""
""fullscreenenter"",""0"",""2623""
","
","
","""event"",""trial"",""time""
""fullscreenenter"",""0"",""2623""
","
","342.40000009536743","","","","","","","","50","0,0,0","6","blank","272","null","0.10963942923796838","0.6149236575167428","0.42701803662174564","0","","","","","","","","",""
"","html-keyboard-response","105","338976","0.0-61.0-1.0","""event"",""trial"",""time""
""fullscreenenter"",""0"",""2623""
","
","
","""event"",""trial"",""time""
""fullscreenenter"",""0"",""2623""
","
","null","<p></p>","null","","","","","","","","","","","","","","","","","","","","","","","",""
"","do_trial","106","341987","0.0-62.0-0.0","""event"",""trial"",""time""
""fullscreenenter"",""0"",""2623""
","
","
","""event"",""trial"",""time""
""fullscreenenter"",""0"",""2623""
","
","457.60000002384186","","","","","","","","51","0,0,0","6","blank","273","null","0.1896926595259032","0.6298619144788214","0.3293614893670037","0","","","","","","","","",""
"","html-keyboard-response","107","342990","0.0-62.0-1.0","""event"",""trial"",""time""
""fullscreenenter"",""0"",""2623""
","
","
","""event"",""trial"",""time""
""fullscreenenter"",""0"",""2623""
","
","null","<p></p>","null","","","","","","","","","","","","","","","","","","","","","","","",""
"","do_trial","108","345841","0.0-63.0-0.0","""event"",""trial"",""time""
""fullscreenenter"",""0"",""2623""
","
","
","""event"",""trial"",""time""
""fullscreenenter"",""0"",""2623""
","
","294.39999997615814","","","","","","","","50","1,0,1","6","blank","274","null","0.09571944173690604","0.6105497113573415","0.30736201911168864","0","","","","","","","","",""
"","html-keyboard-response","109","346846","0.0-63.0-1.0","""event"",""trial"",""time""
""fullscreenenter"",""0"",""2623""
","
","
","""event"",""trial"",""time""
""fullscreenenter"",""0"",""2623""
","
","null","<p></p>","null","","","","","","","","","","","","","","","","","","","","","","","",""
"","do_trial","110","349735","0.0-64.0-0.0","""event"",""trial"",""time""
""fullscreenenter"",""0"",""2623""
","
","
","""event"",""trial"",""time""
""fullscreenenter"",""0"",""2623""
","
","340.59999990463257","","","","","","","","49","1,1,1","6","blank","275","null","0.05626091123527173","0.6215024316854416","0.26351290660961946","1","","","","","","","","",""
"","html-keyboard-response","111","350738","0.0-64.0-1.0","""event"",""trial"",""time""
""fullscreenenter"",""0"",""2623""
","
","
","""event"",""trial"",""time""
""fullscreenenter"",""0"",""2623""
","
","null","<p></p>","null","","","","","","","","","","","","","","","","","","","","","","","",""
"","do_trial","112","353741","0.0-65.0-0.0","""event"",""trial"",""time""
""fullscreenenter"",""0"",""2623""
","
","
","""event"",""trial"",""time""
""fullscreenenter"",""0"",""2623""
","
","447.6999999284744","","","","","","","","49","0,1,0","6","blank","276","null","0.2369592491952416","0.6914039464929589","0.3575283179779347","0","","","","","","","","",""
"","html-keyboard-response","113","354745","0.0-65.0-1.0","""event"",""trial"",""time""
""fullscreenenter"",""0"",""2623""
","
","
","""event"",""trial"",""time""
""fullscreenenter"",""0"",""2623""
","
","null","<p></p>","null","","","","","","","","","","","","","","","","","","","","","","","",""
"","do_trial","114","357662","0.0-66.0-0.0","""event"",""trial"",""time""
""fullscreenenter"",""0"",""2623""
","
","
","""event"",""trial"",""time""
""fullscreenenter"",""0"",""2623""
","
","358.7999999523163","","","","","","","","51","0,0,1","6","blank","277","null","0.18293890145014644","0.6972249544807599","0.3631217746062289","1","","","","","","","","",""
"","html-keyboard-response","115","358667","0.0-66.0-1.0","""event"",""trial"",""time""
""fullscreenenter"",""0"",""2623""
","
","
","""event"",""trial"",""time""
""fullscreenenter"",""0"",""2623""
","
","null","<p></p>","null","","","","","","","","","","","","","","","","","","","","","","","",""
"","do_recog","116","361885","0.0-67.0-0.0","""event"",""trial"",""time""
""fullscreenenter"",""0"",""2623""
","
","
","""event"",""trial"",""time""
""fullscreenenter"",""0"",""2623""
","
","1707.2000000476837","","","","","","","","53","","","","278","probe-102","","","","","1","[object Object]","39","0","1","","","",""
"","html-keyboard-response","117","362890","0.0-67.0-1.0","""event"",""trial"",""time""
""fullscreenenter"",""0"",""2623""
","
","
","""event"",""trial"",""time""
""fullscreenenter"",""0"",""2623""
","
","null","<p></p>","null","","","","","","","","","","","","","","","","","","","","","","","",""
"","do_trial","118","365902","0.0-68.0-0.0","""event"",""trial"",""time""
""fullscreenenter"",""0"",""2623""
","
","
","""event"",""trial"",""time""
""fullscreenenter"",""0"",""2623""
","
","459.60000002384186","","","","","","","","51","0,0,0","6","blank","279","null","0.11757682592145757","0.615262434515664","0.4041920341278443","0","","","","","","","","",""
"","html-keyboard-response","119","366906","0.0-68.0-1.0","""event"",""trial"",""time""
""fullscreenenter"",""0"",""2623""
","
","
","""event"",""trial"",""time""
""fullscreenenter"",""0"",""2623""
","
","null","<p></p>","null","","","","","","","","","","","","","","","","","","","","","","","",""
"","do_trial","120","369987","0.0-69.0-0.0","""event"",""trial"",""time""
""fullscreenenter"",""0"",""2623""
","
","
","""event"",""trial"",""time""
""fullscreenenter"",""0"",""2623""
","
","526.1000000238419","","","","","","","","51","1,0,0","6","blank","280","null","0.14360719188074725","0.517510959315798","0.42264044640122883","0","","","","","","","","",""
"","html-keyboard-response","121","370992","0.0-69.0-1.0","""event"",""trial"",""time""
""fullscreenenter"",""0"",""2623""
","
","
","""event"",""trial"",""time""
""fullscreenenter"",""0"",""2623""
","
","null","<p></p>","null","","","","","","","","","","","","","","","","","","","","","","","",""
"","do_trial","122","374064","0.0-70.0-0.0","""event"",""trial"",""time""
""fullscreenenter"",""0"",""2623""
","
","
","""event"",""trial"",""time""
""fullscreenenter"",""0"",""2623""
","
","519.2000000476837","","","","","","","","50","0,1,0","6","blank","281","null","0.2426521505061934","0.561202150674385","0.40717369023202216","1","","","","","","","","",""
"","html-keyboard-response","123","375071","0.0-70.0-1.0","""event"",""trial"",""time""
""fullscreenenter"",""0"",""2623""
","
","
","""event"",""trial"",""time""
""fullscreenenter"",""0"",""2623""
","
","null","<p></p>","null","","","","","","","","","","","","","","","","","","","","","","","",""
"","do_trial","124","377997","0.0-71.0-0.0","""event"",""trial"",""time""
""fullscreenenter"",""0"",""2623""
","
","
","""event"",""trial"",""time""
""fullscreenenter"",""0"",""2623""
","
","368.7999999523163","","","","","","","","50","0,1,0","6","blank","282","null","0.1074580012973514","0.5256050978573062","0.4378286663968304","1","","","","","","","","",""
"","html-keyboard-response","125","379002","0.0-71.0-1.0","""event"",""trial"",""time""
""fullscreenenter"",""0"",""2623""
","
","
","""event"",""trial"",""time""
""fullscreenenter"",""0"",""2623""
","
","null","<p></p>","null","","","","","","","","","","","","","","","","","","","","","","","",""
"","do_trial","126","381962","0.0-72.0-0.0","""event"",""trial"",""time""
""fullscreenenter"",""0"",""2623""
","
","
","""event"",""trial"",""time""
""fullscreenenter"",""0"",""2623""
","
","403.2999999523163","","","","","","","","50","0,1,0","6","blank","283","null","0.10369353840134934","0.5177537227978043","0.15790519569364217","1","","","","","","","","",""
"","html-keyboard-response","127","382967","0.0-72.0-1.0","""event"",""trial"",""time""
""fullscreenenter"",""0"",""2623""
","
","
","""event"",""trial"",""time""
""fullscreenenter"",""0"",""2623""
","
","null","<p></p>","null","","","","","","","","","","","","","","","","","","","","","","","",""
"","do_recog","128","386025","0.0-73.0-0.0","""event"",""trial"",""time""
""fullscreenenter"",""0"",""2623""
","
","
","""event"",""trial"",""time""
""fullscreenenter"",""0"",""2623""
","
","1545.9000000953674","","","","","","","","54","","","","284","probe-159","","","","","1","[object Object]","119","2","1","","","",""
"","html-keyboard-response","129","387031","0.0-73.0-1.0","""event"",""trial"",""time""
""fullscreenenter"",""0"",""2623""
","
","
","""event"",""trial"",""time""
""fullscreenenter"",""0"",""2623""
","
","null","<p></p>","null","","","","","","","","","","","","","","","","","","","","","","","",""
"","do_trial","130","390214","0.0-74.0-0.0","""event"",""trial"",""time""
""fullscreenenter"",""0"",""2623""
","
","
","""event"",""trial"",""time""
""fullscreenenter"",""0"",""2623""
","
","629.3999999761581","","","","","","","","50","0,0,1","6","blank","285","null","0.1437749168279428","0.5483069327895347","0.2624082785815098","0","","","","","","","","",""
"","html-keyboard-response","131","391221","0.0-74.0-1.0","""event"",""trial"",""time""
""fullscreenenter"",""0"",""2623""
","
","
","""event"",""trial"",""time""
""fullscreenenter"",""0"",""2623""
","
","null","<p></p>","null","","","","","","","","","","","","","","","","","","","","","","","",""
"","do_trial","132","394205","0.0-75.0-0.0","""event"",""trial"",""time""
""fullscreenenter"",""0"",""2623""
","
","
","""event"",""trial"",""time""
""fullscreenenter"",""0"",""2623""
","
","431.7000000476837","","","","","","","","50","0,0,1","6","blank","286","null","0.15177774618822082","0.6472333582522424","0.33230390144374605","0","","","","","","","","",""
"","html-keyboard-response","133","395212","0.0-75.0-1.0","""event"",""trial"",""time""
""fullscreenenter"",""0"",""2623""
","
","
","""event"",""trial"",""time""
""fullscreenenter"",""0"",""2623""
","
","null","<p></p>","null","","","","","","","","","","","","","","","","","","","","","","","",""
"","do_trial","134","398052","0.0-76.0-0.0","""event"",""trial"",""time""
""fullscreenenter"",""0"",""2623""
","
","
","""event"",""trial"",""time""
""fullscreenenter"",""0"",""2623""
","
","281.6999999284744","","","","","","","","51","0,0,0","6","blank","287","null","0.059182386015186904","0.5345230507155238","0.41367017536021644","0","","","","","","","","",""
"","html-keyboard-response","135","399058","0.0-76.0-1.0","""event"",""trial"",""time""
""fullscreenenter"",""0"",""2623""
","
","
","""event"",""trial"",""time""
""fullscreenenter"",""0"",""2623""
","
","null","<p></p>","null","","","","","","","","","","","","","","","","","","","","","","","",""
"","do_trial","136","402067","0.0-77.0-0.0","""event"",""trial"",""time""
""fullscreenenter"",""0"",""2623""
","
","
","""event"",""trial"",""time""
""fullscreenenter"",""0"",""2623""
","
","454.5","","","","","","","","50","0,1,1","6","blank","288","null","0.1523425594361832","0.6339039886782772","0.3212881040712112","1","","","","","","","","",""
"","html-keyboard-response","137","403074","0.0-77.0-1.0","""event"",""trial"",""time""
""fullscreenenter"",""0"",""2623""
","
","
","""event"",""trial"",""time""
""fullscreenenter"",""0"",""2623""
","
","null","<p></p>","null","","","","","","","","","","","","","","","","","","","","","","","",""
"","do_recog","138","406245","0.0-78.0-0.0","""event"",""trial"",""time""
""fullscreenenter"",""0"",""2623""
","
","
","""event"",""trial"",""time""
""fullscreenenter"",""0"",""2623""
","
","1660.8999999761581","","","","","","","","53","","","","289","probe-66","","","","","1","[object Object]","195","4","1","","","",""
"","html-keyboard-response","139","407251","0.0-78.0-1.0","""event"",""trial"",""time""
""fullscreenenter"",""0"",""2623""
","
","
","""event"",""trial"",""time""
""fullscreenenter"",""0"",""2623""
","
","null","<p></p>","null","","","","","","","","","","","","","","","","","","","","","","","",""
"","do_trial","140","410455","0.0-79.0-0.0","""event"",""trial"",""time""
""fullscreenenter"",""0"",""2623""
","
","
","""event"",""trial"",""time""
""fullscreenenter"",""0"",""2623""
","
","647.2000000476837","","","","","","","","50","0,0,0","6","blank","290","null","0.13028388747576838","0.6279168687822639","0.23912322080143733","0","","","","","","","","",""
"","html-keyboard-response","141","411461","0.0-79.0-1.0","""event"",""trial"",""time""
""fullscreenenter"",""0"",""2623""
","
","
","""event"",""trial"",""time""
""fullscreenenter"",""0"",""2623""
","
","null","<p></p>","null","","","","","","","","","","","","","","","","","","","","","","","",""
"","do_trial","142","414422","0.0-80.0-0.0","""event"",""trial"",""time""
""fullscreenenter"",""0"",""2623""
","
","
","""event"",""trial"",""time""
""fullscreenenter"",""0"",""2623""
","
","404.10000002384186","","","","","","","","51","0,0,0","6","blank","291","null","0.13983415522758336","0.49071441621015205","0.2683433307494784","0","","","","","","","","",""
"","html-keyboard-response","143","415427","0.0-80.0-1.0","""event"",""trial"",""time""
""fullscreenenter"",""0"",""2623""
","
","
","""event"",""trial"",""time""
""fullscreenenter"",""0"",""2623""
","
","null","<p></p>","null","","","","","","","","","","","","","","","","","","","","","","","",""
"","do_trial","144","418402","0.0-81.0-0.0","""event"",""trial"",""time""
""fullscreenenter"",""0"",""2623""
","
","
","""event"",""trial"",""time""
""fullscreenenter"",""0"",""2623""
","
","418.39999997615814","","","","","","","","50","0,1,0","6","blank","292","null","0.11522435458894663","0.45880778761479496","0.18221519809722775","1","","","","","","","","",""
"","html-keyboard-response","145","419407","0.0-81.0-1.0","""event"",""trial"",""time""
""fullscreenenter"",""0"",""2623""
","
","
","""event"",""trial"",""time""
""fullscreenenter"",""0"",""2623""
","
","null","<p></p>","null","","","","","","","","","","","","","","","","","","","","","","","",""
"","do_trial","146","422455","0.0-82.0-0.0","""event"",""trial"",""time""
""fullscreenenter"",""0"",""2623""
","
","
","""event"",""trial"",""time""
""fullscreenenter"",""0"",""2623""
","
","496.39999997615814","","","","","","","","50","0,1,1","6","blank","293","null","0.12185012571330134","0.35528223458080777","0.5427275596971275","1","","","","","","","","",""
"","html-keyboard-response","147","423460","0.0-82.0-1.0","""event"",""trial"",""time""
""fullscreenenter"",""0"",""2623""
","
","
","""event"",""trial"",""time""
""fullscreenenter"",""0"",""2623""
","
","null","<p></p>","null","","","","","","","","","","","","","","","","","","","","","","","",""
"","do_trial","148","426483","0.0-83.0-0.0","""event"",""trial"",""time""
""fullscreenenter"",""0"",""2623""
","
","
","""event"",""trial"",""time""
""fullscreenenter"",""0"",""2623""
","
","467.10000002384186","","","","","","","","50","1,1,1","6","blank","294","null","0.1167904065194468","0.4986427712409702","0.584450407432904","1","","","","","","","","",""
"","html-keyboard-response","149","427488","0.0-83.0-1.0","""event"",""trial"",""time""
""fullscreenenter"",""0"",""2623""
","
","
","""event"",""trial"",""time""
""fullscreenenter"",""0"",""2623""
","
","null","<p></p>","null","","","","","","","","","","","","","","","","","","","","","","","",""
"","do_recog","150","430832","0.0-84.0-0.0","""event"",""trial"",""time""
""fullscreenenter"",""0"",""2623""
","
","
","""event"",""trial"",""time""
""fullscreenenter"",""0"",""2623""
","
","1835.8999999761581","","","","","","","","53","","","","295","probe-171","","","","","1","[object Object]","197","4","1","","","",""
"","html-keyboard-response","151","431837","0.0-84.0-1.0","""event"",""trial"",""time""
""fullscreenenter"",""0"",""2623""
","
","
","""event"",""trial"",""time""
""fullscreenenter"",""0"",""2623""
","
","null","<p></p>","null","","","","","","","","","","","","","","","","","","","","","","","",""
"","do_trial","152","435005","0.0-85.0-0.0","""event"",""trial"",""time""
""fullscreenenter"",""0"",""2623""
","
","
","""event"",""trial"",""time""
""fullscreenenter"",""0"",""2623""
","
","611.6999999284744","","","","","","","","51","1,1,0","6","blank","296","null","0.19929684190019678","0.3877316044716995","0.7102747783302329","0","","","","","","","","",""
"","html-keyboard-response","153","436012","0.0-85.0-1.0","""event"",""trial"",""time""
""fullscreenenter"",""0"",""2623""
","
","
","""event"",""trial"",""time""
""fullscreenenter"",""0"",""2623""
","
","null","<p></p>","null","","","","","","","","","","","","","","","","","","","","","","","",""
"","do_trial","154","439086","0.0-86.0-0.0","""event"",""trial"",""time""
""fullscreenenter"",""0"",""2623""
","
","
","""event"",""trial"",""time""
""fullscreenenter"",""0"",""2623""
","
","520.1000000238419","","","","","","","","50","0,0,1","6","blank","297","null","0.12733553307021528","0.2573414903696694","0.7347591197326162","0","","","","","","","","",""
"","html-keyboard-response","155","440088","0.0-86.0-1.0","""event"",""trial"",""time""
""fullscreenenter"",""0"",""2623""
","
","
","""event"",""trial"",""time""
""fullscreenenter"",""0"",""2623""
","
","null","<p></p>","null","","","","","","","","","","","","","","","","","","","","","","","",""
"","do_trial","156","443094","0.0-87.0-0.0","""event"",""trial"",""time""
""fullscreenenter"",""0"",""2623""
","
","
","""event"",""trial"",""time""
""fullscreenenter"",""0"",""2623""
","
","448.2999999523163","","","","","","","","49","0,1,0","6","blank","298","null","0.09687259596164749","0.27792917599583294","0.645014397741718","0","","","","","","","","",""
"","html-keyboard-response","157","444100","0.0-87.0-1.0","""event"",""trial"",""time""
""fullscreenenter"",""0"",""2623""
","
","
","""event"",""trial"",""time""
""fullscreenenter"",""0"",""2623""
","
","null","<p></p>","null","","","","","","","","","","","","","","","","","","","","","","","",""
"","do_trial","158","447110","0.0-88.0-0.0","""event"",""trial"",""time""
""fullscreenenter"",""0"",""2623""
","
","
","""event"",""trial"",""time""
""fullscreenenter"",""0"",""2623""
","
","453.7000000476837","","","","","","","","51","1,0,1","6","blank","299","null","0.15291319257771946","0.2197833398582649","0.7050187838115205","1","","","","","","","","",""
"","html-keyboard-response","159","448115","0.0-88.0-1.0","""event"",""trial"",""time""
""fullscreenenter"",""0"",""2623""
","
","
","""event"",""trial"",""time""
""fullscreenenter"",""0"",""2623""
","
","null","<p></p>","null","","","","","","","","","","","","","","","","","","","","","","","",""
"","do_trial","160","451014","0.0-89.0-0.0","""event"",""trial"",""time""
""fullscreenenter"",""0"",""2623""
","
","
","""event"",""trial"",""time""
""fullscreenenter"",""0"",""2623""
","
","344.10000002384186","","","","","","","","51","0,0,1","6","blank","300","null","0.10889465431614358","0.5235131014804357","0.7511544433794641","1","","","","","","","","",""
"","html-keyboard-response","161","452017","0.0-89.0-1.0","""event"",""trial"",""time""
""fullscreenenter"",""0"",""2623""
","
","
","""event"",""trial"",""time""
""fullscreenenter"",""0"",""2623""
","
","null","<p></p>","null","","","","","","","","","","","","","","","","","","","","","","","",""
"","do_recog","162","455118","0.0-90.0-0.0","""event"",""trial"",""time""
""fullscreenenter"",""0"",""2623""
","
","
","""event"",""trial"",""time""
""fullscreenenter"",""0"",""2623""
","
","1589.8999999761581","","","","","","","","53","","","","301","probe-150","","","","","1","[object Object]","74","1","1","","","",""
"","html-keyboard-response","163","456123","0.0-90.0-1.0","""event"",""trial"",""time""
""fullscreenenter"",""0"",""2623""
","
","
","""event"",""trial"",""time""
""fullscreenenter"",""0"",""2623""
","
","null","<p></p>","null","","","","","","","","","","","","","","","","","","","","","","","",""
"","do_trial","164","459226","0.0-91.0-0.0","""event"",""trial"",""time""
""fullscreenenter"",""0"",""2623""
","
","
","""event"",""trial"",""time""
""fullscreenenter"",""0"",""2623""
","
","545.2999999523163","","","","","","","","50","0,0,0","6","blank","302","null","0.1339995930313546","0.43380632138247666","0.8117070422148736","0","","","","","","","","",""
"","html-keyboard-response","165","460231","0.0-91.0-1.0","""event"",""trial"",""time""
""fullscreenenter"",""0"",""2623""
","
","
","""event"",""trial"",""time""
""fullscreenenter"",""0"",""2623""
","
","null","<p></p>","null","","","","","","","","","","","","","","","","","","","","","","","",""
"","do_trial","166","463254","0.0-92.0-0.0","""event"",""trial"",""time""
""fullscreenenter"",""0"",""2623""
","
","
","""event"",""trial"",""time""
""fullscreenenter"",""0"",""2623""
","
","465.7000000476837","","","","","","","","51","0,1,1","6","blank","303","null","0.09251377129924056","0.23023061303883452","0.8569709773847938","1","","","","","","","","",""
"","html-keyboard-response","167","464259","0.0-92.0-1.0","""event"",""trial"",""time""
""fullscreenenter"",""0"",""2623""
","
","
","""event"",""trial"",""time""
""fullscreenenter"",""0"",""2623""
","
","null","<p></p>","null","","","","","","","","","","","","","","","","","","","","","","","",""
"","do_trial","168","467217","0.0-93.0-0.0","""event"",""trial"",""time""
""fullscreenenter"",""0"",""2623""
","
","
","""event"",""trial"",""time""
""fullscreenenter"",""0"",""2623""
","
","401.5","","","","","","","","51","0,0,1","6","blank","304","null","0.09987356814519935","0.23711477870205502","0.6315886797010639","1","","","","","","","","",""
"","html-keyboard-response","169","468220","0.0-93.0-1.0","""event"",""trial"",""time""
""fullscreenenter"",""0"",""2623""
","
","
","""event"",""trial"",""time""
""fullscreenenter"",""0"",""2623""
","
","null","<p></p>","null","","","","","","","","","","","","","","","","","","","","","","","",""
"","do_trial","170","471176","0.0-94.0-0.0","""event"",""trial"",""time""
""fullscreenenter"",""0"",""2623""
","
","
","""event"",""trial"",""time""
""fullscreenenter"",""0"",""2623""
","
","398.10000002384186","","","","","","","","51","0,1,1","6","blank","305","null","0.1283283609709598","0.2344352981600256","0.6699263056531167","1","","","","","","","","",""
"","html-keyboard-response","171","472181","0.0-94.0-1.0","""event"",""trial"",""time""
""fullscreenenter"",""0"",""2623""
","
","
","""event"",""trial"",""time""
""fullscreenenter"",""0"",""2623""
","
","null","<p></p>","null","","","","","","","","","","","","","","","","","","","","","","","",""
"","do_trial","172","475210","0.0-95.0-0.0","""event"",""trial"",""time""
""fullscreenenter"",""0"",""2623""
","
","
","""event"",""trial"",""time""
""fullscreenenter"",""0"",""2623""
","
","472.5","","","","","","","","50","0,0,1","6","blank","306","null","0.10044993235075561","0.31969265329921953","0.6133342457928175","0","","","","","","","","",""
"","html-keyboard-response","173","476215","0.0-95.0-1.0","""event"",""trial"",""time""
""fullscreenenter"",""0"",""2623""
","
","
","""event"",""trial"",""time""
""fullscreenenter"",""0"",""2623""
","
","null","<p></p>","null","","","","","","","","","","","","","","","","","","","","","","","",""
"","do_recog","174","479300","0.0-96.0-0.0","""event"",""trial"",""time""
""fullscreenenter"",""0"",""2623""
","
","
","""event"",""trial"",""time""
""fullscreenenter"",""0"",""2623""
","
","1573.1000000238419","","","","","","","","55","","","","307","probe-174","","","","","1","[object Object]","115","2","0","","","",""
"","html-keyboard-response","175","480305","0.0-96.0-1.0","""event"",""trial"",""time""
""fullscreenenter"",""0"",""2623""
","
","
","""event"",""trial"",""time""
""fullscreenenter"",""0"",""2623""
","
","null","<p></p>","null","","","","","","","","","","","","","","","","","","","","","","","",""
"","do_trial","176","484136","0.0-97.0-0.0","""event"",""trial"",""time""
""fullscreenenter"",""0"",""2623""
","
","
","""event"",""trial"",""time""
""fullscreenenter"",""0"",""2623""
","
","1278.9000000953674","","","","","","","","51","0,0,1","6","blank","308","null","0.10259219432924405","0.30062760934932475","0.6505816135971232","1","","","","","","","","",""
"","html-keyboard-response","177","485138","0.0-97.0-1.0","""event"",""trial"",""time""
""fullscreenenter"",""0"",""2623""
","
","
","""event"",""trial"",""time""
""fullscreenenter"",""0"",""2623""
","
","null","<p></p>","null","","","","","","","","","","","","","","","","","","","","","","","",""
"","break","178","487113","0.0-98.0-0.0","""event"",""trial"",""time""
""fullscreenenter"",""0"",""2623""
","
","
","""event"",""trial"",""time""
""fullscreenenter"",""0"",""2623""
","
","1973.2999999523163","<div class='center'><p>Time to take a quick break! You have 2 minutes to rest, but you can move on sooner if you'd like.</p><p> Press the <b>space bar</b> to continue.</p></div>","32","","","","","","","","","","","","","","","","","","","","","","","",""
"","do_trial","179","491547","0.0-98.0-1.0","""event"",""trial"",""time""
""fullscreenenter"",""0"",""2623""
","
","
","""event"",""trial"",""time""
""fullscreenenter"",""0"",""2623""
","
","1878.6000000238419","","","","","","","","50","0,0,0","6","blank","309","null","0.06484458941931888","0.31736718599781333","0.6275421942681297","0","","","","","","","","",""
"","html-keyboard-response","180","492552","0.0-98.0-2.0","""event"",""trial"",""time""
""fullscreenenter"",""0"",""2623""
","
","
","""event"",""trial"",""time""
""fullscreenenter"",""0"",""2623""
","
","null","<p></p>","null","","","","","","","","","","","","","","","","","","","","","","","",""
"","do_trial","181","495386","0.0-99.0-0.0","""event"",""trial"",""time""
""fullscreenenter"",""0"",""2623""
","
","
","""event"",""trial"",""time""
""fullscreenenter"",""0"",""2623""
","
","276.2999999523163","","","","","","","","51","0,0,1","6","blank","310","null","0.1379435460744602","0.17596578694247925","0.5712655999937348","1","","","","","","","","",""
"","html-keyboard-response","182","496391","0.0-99.0-1.0","""event"",""trial"",""time""
""fullscreenenter"",""0"",""2623""
","
","
","""event"",""trial"",""time""
""fullscreenenter"",""0"",""2623""
","
","null","<p></p>","null","","","","","","","","","","","","","","","","","","","","","","","",""
"","do_trial","183","499326","0.0-100.0-0.0","""event"",""trial"",""time""
""fullscreenenter"",""0"",""2623""
","
","
","""event"",""trial"",""time""
""fullscreenenter"",""0"",""2623""
","
","381","","","","","","","","51","0,0,1","6","blank","311","null","0.13941986274403248","0.24334500778575327","0.6676489387252389","1","","","","","","","","",""
"","html-keyboard-response","184","500331","0.0-100.0-1.0","""event"",""trial"",""time""
""fullscreenenter"",""0"",""2623""
","
","
","""event"",""trial"",""time""
""fullscreenenter"",""0"",""2623""
","
","null","<p></p>","null","","","","","","","","","","","","","","","","","","","","","","","",""
"","do_trial","185","503309","0.0-101.0-0.0","""event"",""trial"",""time""
""fullscreenenter"",""0"",""2623""
","
","
","""event"",""trial"",""time""
""fullscreenenter"",""0"",""2623""
","
","423.5","","","","","","","","51","0,0,0","6","blank","312","null","0.09421210655559283","0.3597429233889966","0.5069538441673087","0","","","","","","","","",""
"","html-keyboard-response","186","504311","0.0-101.0-1.0","""event"",""trial"",""time""
""fullscreenenter"",""0"",""2623""
","
","
","""event"",""trial"",""time""
""fullscreenenter"",""0"",""2623""
","
","null","<p></p>","null","","","","","","","","","","","","","","","","","","","","","","","",""
"","do_trial","187","507206","0.0-102.0-0.0","""event"",""trial"",""time""
""fullscreenenter"",""0"",""2623""
","
","
","""event"",""trial"",""time""
""fullscreenenter"",""0"",""2623""
","
","338.3000000715256","","","","","","","","50","0,0,1","6","blank","313","null","0.08438873148948436","0.28166016164932545","0.5820420555535997","0","","","","","","","","",""
"","html-keyboard-response","188","508212","0.0-102.0-1.0","""event"",""trial"",""time""
""fullscreenenter"",""0"",""2623""
","
","
","""event"",""trial"",""time""
""fullscreenenter"",""0"",""2623""
","
","null","<p></p>","null","","","","","","","","","","","","","","","","","","","","","","","",""
"","do_recog","189","510932","0.0-103.0-0.0","""event"",""trial"",""time""
""fullscreenenter"",""0"",""2623""
","
","
","""event"",""trial"",""time""
""fullscreenenter"",""0"",""2623""
","
","1211.0999999046326","","","","","","","","54","","","","314","probe-151","","","","","1","[object Object]","112","2","1","","","",""
"","html-keyboard-response","190","511934","0.0-103.0-1.0","""event"",""trial"",""time""
""fullscreenenter"",""0"",""2623""
","
","
","""event"",""trial"",""time""
""fullscreenenter"",""0"",""2623""
","
","null","<p></p>","null","","","","","","","","","","","","","","","","","","","","","","","",""
"","do_trial","191","514879","0.0-104.0-0.0","""event"",""trial"",""time""
""fullscreenenter"",""0"",""2623""
","
","
","""event"",""trial"",""time""
""fullscreenenter"",""0"",""2623""
","
","388.89999997615814","","","","","","","","50","0,1,0","6","blank","315","null","0.18315547913386468","0.39481553675871073","0.4373629531800567","1","","","","","","","","",""
"","html-keyboard-response","192","515884","0.0-104.0-1.0","""event"",""trial"",""time""
""fullscreenenter"",""0"",""2623""
","
","
","""event"",""trial"",""time""
""fullscreenenter"",""0"",""2623""
","
","null","<p></p>","null","","","","","","","","","","","","","","","","","","","","","","","",""
"","do_trial","193","518888","0.0-105.0-0.0","""event"",""trial"",""time""
""fullscreenenter"",""0"",""2623""
","
","
","""event"",""trial"",""time""
""fullscreenenter"",""0"",""2623""
","
","450.10000002384186","","","","","","","","50","0,1,1","6","blank","316","null","0.3434112207268251","0.4111336077607415","0.6299078941132836","1","","","","","","","","",""
"","html-keyboard-response","194","519889","0.0-105.0-1.0","""event"",""trial"",""time""
""fullscreenenter"",""0"",""2623""
","
","
","""event"",""trial"",""time""
""fullscreenenter"",""0"",""2623""
","
","null","<p></p>","null","","","","","","","","","","","","","","","","","","","","","","","",""
"","do_trial","195","522792","0.0-106.0-0.0","""event"",""trial"",""time""
""fullscreenenter"",""0"",""2623""
","
","
","""event"",""trial"",""time""
""fullscreenenter"",""0"",""2623""
","
","355.6999999284744","","","","","","","","51","0,1,1","6","blank","317","null","0.49364483987793956","0.433987534267483","0.6920233911333266","1","","","","","","","","",""
"","html-keyboard-response","196","523797","0.0-106.0-1.0","""event"",""trial"",""time""
""fullscreenenter"",""0"",""2623""
","
","
","""event"",""trial"",""time""
""fullscreenenter"",""0"",""2623""
","
","null","<p></p>","null","","","","","","","","","","","","","","","","","","","","","","","",""
"","do_trial","197","526741","0.0-107.0-0.0","""event"",""trial"",""time""
""fullscreenenter"",""0"",""2623""
","
","
","""event"",""trial"",""time""
""fullscreenenter"",""0"",""2623""
","
","391.2999999523163","","","","","","","","51","0,0,1","6","blank","318","null","0.4058053239606735","0.3064832359808321","0.6033295454002783","1","","","","","","","","",""
"","html-keyboard-response","198","527745","0.0-107.0-1.0","""event"",""trial"",""time""
""fullscreenenter"",""0"",""2623""
","
","
","""event"",""trial"",""time""
""fullscreenenter"",""0"",""2623""
","
","null","<p></p>","null","","","","","","","","","","","","","","","","","","","","","","","",""
"","do_trial","199","530664","0.0-108.0-0.0","""event"",""trial"",""time""
""fullscreenenter"",""0"",""2623""
","
","
","""event"",""trial"",""time""
""fullscreenenter"",""0"",""2623""
","
","366.89999997615814","","","","","","","","50","0,0,1","6","blank","319","null","0.22826026207986064","0.3439317831551198","0.6170472065905483","0","","","","","","","","",""
"","html-keyboard-response","200","531669","0.0-108.0-1.0","""event"",""trial"",""time""
""fullscreenenter"",""0"",""2623""
","
","
","""event"",""trial"",""time""
""fullscreenenter"",""0"",""2623""
","
","null","<p></p>","null","","","","","","","","","","","","","","","","","","","","","","","",""
"","do_recog","201","533855","0.0-109.0-0.0","""event"",""trial"",""time""
""fullscreenenter"",""0"",""2623""
","
","
","""event"",""trial"",""time""
""fullscreenenter"",""0"",""2623""
","
","672.5","","","","","","","","53","","","","320","probe-254","","","","","0","[object Object]","null","null","0","","","",""
"","html-keyboard-response","202","534857","0.0-109.0-1.0","""event"",""trial"",""time""
""fullscreenenter"",""0"",""2623""
","
","
","""event"",""trial"",""time""
""fullscreenenter"",""0"",""2623""
","
","null","<p></p>","null","","","","","","","","","","","","","","","","","","","","","","","",""
"","do_trial","203","537925","0.0-110.0-0.0","""event"",""trial"",""time""
""fullscreenenter"",""0"",""2623""
","
","
","""event"",""trial"",""time""
""fullscreenenter"",""0"",""2623""
","
","515.5","","","","","","","","51","0,1,1","6","blank","321","null","0.19779107069614857","0.4669227618015998","0.6445742943276358","1","","","","","","","","",""
"","html-keyboard-response","204","538931","0.0-110.0-1.0","""event"",""trial"",""time""
""fullscreenenter"",""0"",""2623""
","
","
","""event"",""trial"",""time""
""fullscreenenter"",""0"",""2623""
","
","null","<p></p>","null","","","","","","","","","","","","","","","","","","","","","","","",""
"","do_trial","205","541762","0.0-111.0-0.0","""event"",""trial"",""time""
""fullscreenenter"",""0"",""2623""
","
","
","""event"",""trial"",""time""
""fullscreenenter"",""0"",""2623""
","
","279.39999997615814","","","","","","","","51","0,1,1","6","blank","322","null","0.12502161341590326","0.44534939192958756","0.617798224395733","1","","","","","","","","",""
"","html-keyboard-response","206","542767","0.0-111.0-1.0","""event"",""trial"",""time""
""fullscreenenter"",""0"",""2623""
","
","
","""event"",""trial"",""time""
""fullscreenenter"",""0"",""2623""
","
","null","<p></p>","null","","","","","","","","","","","","","","","","","","","","","","","",""
"","do_trial","207","545677","0.0-112.0-0.0","""event"",""trial"",""time""
""fullscreenenter"",""0"",""2623""
","
","
","""event"",""trial"",""time""
""fullscreenenter"",""0"",""2623""
","
","352.3000000715256","","","","","","","","50","0,0,1","6","blank","323","null","0.15929483867500513","0.3402353938220687","0.6905694344867166","0","","","","","","","","",""
"","html-keyboard-response","208","546683","0.0-112.0-1.0","""event"",""trial"",""time""
""fullscreenenter"",""0"",""2623""
","
","
","""event"",""trial"",""time""
""fullscreenenter"",""0"",""2623""
","
","null","<p></p>","null","","","","","","","","","","","","","","","","","","","","","","","",""
"","do_trial","209","549639","0.0-113.0-0.0","""event"",""trial"",""time""
""fullscreenenter"",""0"",""2623""
","
","
","""event"",""trial"",""time""
""fullscreenenter"",""0"",""2623""
","
","397.10000002384186","","","","","","","","51","1,0,0","6","blank","324","null","0.07253964374246055","0.20525548483233166","0.6170820115606909","0","","","","","","","","",""
"","html-keyboard-response","210","550644","0.0-113.0-1.0","""event"",""trial"",""time""
""fullscreenenter"",""0"",""2623""
","
","
","""event"",""trial"",""time""
""fullscreenenter"",""0"",""2623""
","
","null","<p></p>","null","","","","","","","","","","","","","","","","","","","","","","","",""
"","do_trial","211","553496","0.0-114.0-0.0","""event"",""trial"",""time""
""fullscreenenter"",""0"",""2623""
","
","
","""event"",""trial"",""time""
""fullscreenenter"",""0"",""2623""
","
","296.39999997615814","","","","","","","","50","0,1,1","6","blank","325","null","0.1557932681406853","0.2350295508463157","0.5884680653897749","1","","","","","","","","",""
"","html-keyboard-response","212","554502","0.0-114.0-1.0","""event"",""trial"",""time""
""fullscreenenter"",""0"",""2623""
","
","
","""event"",""trial"",""time""
""fullscreenenter"",""0"",""2623""
","
","null","<p></p>","null","","","","","","","","","","","","","","","","","","","","","","","",""
"","do_trial","213","557444","0.0-115.0-0.0","""event"",""trial"",""time""
""fullscreenenter"",""0"",""2623""
","
","
","""event"",""trial"",""time""
""fullscreenenter"",""0"",""2623""
","
","389.10000002384186","","","","","","","","50","0,0,1","6","blank","326","null","0.19608862714927655","0.16994688446504916","0.5146457417458505","0","","","","","","","","",""
"","html-keyboard-response","214","558450","0.0-115.0-1.0","""event"",""trial"",""time""
""fullscreenenter"",""0"",""2623""
","
","
","""event"",""trial"",""time""
""fullscreenenter"",""0"",""2623""
","
","null","<p></p>","null","","","","","","","","","","","","","","","","","","","","","","","",""
"","do_recog","215","561308","0.0-116.0-0.0","""event"",""trial"",""time""
""fullscreenenter"",""0"",""2623""
","
","
","""event"",""trial"",""time""
""fullscreenenter"",""0"",""2623""
","
","1344.9000000953674","","","","","","","","54","","","","327","probe-100","","","","","1","[object Object]","118","2","1","","","",""
"","html-keyboard-response","216","562312","0.0-116.0-1.0","""event"",""trial"",""time""
""fullscreenenter"",""0"",""2623""
","
","
","""event"",""trial"",""time""
""fullscreenenter"",""0"",""2623""
","
","null","<p></p>","null","","","","","","","","","","","","","","","","","","","","","","","",""
"","do_trial","217","565236","0.0-117.0-0.0","""event"",""trial"",""time""
""fullscreenenter"",""0"",""2623""
","
","
","""event"",""trial"",""time""
""fullscreenenter"",""0"",""2623""
","
","367.7999999523163","","","","","","","","51","0,1,1","6","blank","328","null","0.11519178145458611","0.24564624600704335","0.6082573356023161","1","","","","","","","","",""
"","html-keyboard-response","218","566242","0.0-117.0-1.0","""event"",""trial"",""time""
""fullscreenenter"",""0"",""2623""
","
","
","""event"",""trial"",""time""
""fullscreenenter"",""0"",""2623""
","
","null","<p></p>","null","","","","","","","","","","","","","","","","","","","","","","","",""
"","do_recog","219","569035","0.0-118.0-0.0","""event"",""trial"",""time""
""fullscreenenter"",""0"",""2623""
","
","
","""event"",""trial"",""time""
""fullscreenenter"",""0"",""2623""
","
","1280.2000000476837","","","","","","","","56","","","","329","probe-244","","","","","0","[object Object]","null","null","1","","","",""
"","html-keyboard-response","220","570041","0.0-118.0-1.0","""event"",""trial"",""time""
""fullscreenenter"",""0"",""2623""
","
","
","""event"",""trial"",""time""
""fullscreenenter"",""0"",""2623""
","
","null","<p></p>","null","","","","","","","","","","","","","","","","","","","","","","","",""
"","do_trial","221","572977","0.0-119.0-0.0","""event"",""trial"",""time""
""fullscreenenter"",""0"",""2623""
","
","
","""event"",""trial"",""time""
""fullscreenenter"",""0"",""2623""
","
","379.8000000715256","","","","","","","","50","1,0,1","6","blank","330","null","0.233469487653244","0.17394494784208372","0.6730257937509893","0","","","","","","","","",""
"","html-keyboard-response","222","573982","0.0-119.0-1.0","""event"",""trial"",""time""
""fullscreenenter"",""0"",""2623""
","
","
","""event"",""trial"",""time""
""fullscreenenter"",""0"",""2623""
","
","null","<p></p>","null","","","","","","","","","","","","","","","","","","","","","","","",""
"","do_recog","223","576743","0.0-120.0-0.0","""event"",""trial"",""time""
""fullscreenenter"",""0"",""2623""
","
","
","""event"",""trial"",""time""
""fullscreenenter"",""0"",""2623""
","
","1250.2999999523163","","","","","","","","53","","","","331","probe-191","","","","","1","[object Object]","75","1","1","","","",""
"","html-keyboard-response","224","577747","0.0-120.0-1.0","""event"",""trial"",""time""
""fullscreenenter"",""0"",""2623""
","
","
","""event"",""trial"",""time""
""fullscreenenter"",""0"",""2623""
","
","null","<p></p>","null","","","","","","","","","","","","","","","","","","","","","","","",""
"","do_trial","225","580877","0.0-121.0-0.0","""event"",""trial"",""time""
""fullscreenenter"",""0"",""2623""
","
","
","""event"",""trial"",""time""
""fullscreenenter"",""0"",""2623""
","
","574.7000000476837","","","","","","","","51","0,0,1","6","blank","332","null","0.1761284456470827","0.2556983667766169","0.7170578327924512","1","","","","","","","","",""
"","html-keyboard-response","226","581883","0.0-121.0-1.0","""event"",""trial"",""time""
""fullscreenenter"",""0"",""2623""
","
","
","""event"",""trial"",""time""
""fullscreenenter"",""0"",""2623""
","
","null","<p></p>","null","","","","","","","","","","","","","","","","","","","","","","","",""
"","do_recog","227","584537","0.0-122.0-0.0","""event"",""trial"",""time""
""fullscreenenter"",""0"",""2623""
","
","
","""event"",""trial"",""time""
""fullscreenenter"",""0"",""2623""
","
","1141.6000000238419","","","","","","","","56","","","","333","probe-96","","","","","1","[object Object]","36","0","0","","","",""
"","html-keyboard-response","228","585539","0.0-122.0-1.0","""event"",""trial"",""time""
""fullscreenenter"",""0"",""2623""
","
","
","""event"",""trial"",""time""
""fullscreenenter"",""0"",""2623""
","
","null","<p></p>","null","","","","","","","","","","","","","","","","","","","","","","","",""
"","do_trial","229","588704","0.0-123.0-0.0","""event"",""trial"",""time""
""fullscreenenter"",""0"",""2623""
","
","
","""event"",""trial"",""time""
""fullscreenenter"",""0"",""2623""
","
","615.9000000953674","","","","","","","","51","0,1,0","6","blank","334","null","0.07219389882818973","0.23947505150996193","0.8473759605487353","0","","","","","","","","",""
"","html-keyboard-response","230","589710","0.0-123.0-1.0","""event"",""trial"",""time""
""fullscreenenter"",""0"",""2623""
","
","
","""event"",""trial"",""time""
""fullscreenenter"",""0"",""2623""
","
","null","<p></p>","null","","","","","","","","","","","","","","","","","","","","","","","",""
"","do_recog","231","592536","0.0-124.0-0.0","""event"",""trial"",""time""
""fullscreenenter"",""0"",""2623""
","
","
","""event"",""trial"",""time""
""fullscreenenter"",""0"",""2623""
","
","1312.7000000476837","","","","","","","","53","","","","335","probe-51","","","","","1","[object Object]","71","1","1","","","",""
"","html-keyboard-response","232","593539","0.0-124.0-1.0","""event"",""trial"",""time""
""fullscreenenter"",""0"",""2623""
","
","
","""event"",""trial"",""time""
""fullscreenenter"",""0"",""2623""
","
","null","<p></p>","null","","","","","","","","","","","","","","","","","","","","","","","",""
"","do_trial","233","596577","0.0-125.0-0.0","""event"",""trial"",""time""
""fullscreenenter"",""0"",""2623""
","
","
","""event"",""trial"",""time""
""fullscreenenter"",""0"",""2623""
","
","479.8000000715256","","","","","","","","50","0,1,1","6","blank","336","null","0.10221863079211314","0.2405052858143262","0.7905176845083649","1","","","","","","","","",""
"","html-keyboard-response","234","597582","0.0-125.0-1.0","""event"",""trial"",""time""
""fullscreenenter"",""0"",""2623""
","
","
","""event"",""trial"",""time""
""fullscreenenter"",""0"",""2623""
","
","null","<p></p>","null","","","","","","","","","","","","","","","","","","","","","","","",""
"","do_trial","235","600724","0.0-126.0-0.0","""event"",""trial"",""time""
""fullscreenenter"",""0"",""2623""
","
","
","""event"",""trial"",""time""
""fullscreenenter"",""0"",""2623""
","
","587.2000000476837","","","","","","","","51","0,0,0","6","blank","337","null","0.0883751969089023","0.16186158202255216","0.6077624835751919","0","","","","","","","","",""
"","html-keyboard-response","236","601728","0.0-126.0-1.0","""event"",""trial"",""time""
""fullscreenenter"",""0"",""2623""
","
","
","""event"",""trial"",""time""
""fullscreenenter"",""0"",""2623""
","
","null","<p></p>","null","","","","","","","","","","","","","","","","","","","","","","","",""
"","do_trial","237","604610","0.0-127.0-0.0","""event"",""trial"",""time""
""fullscreenenter"",""0"",""2623""
","
","
","""event"",""trial"",""time""
""fullscreenenter"",""0"",""2623""
","
","326","","","","","","","","50","0,0,0","6","blank","338","null","0.08185915515448193","0.280850634587848","0.49356779835483056","0","","","","","","","","",""
"","html-keyboard-response","238","605617","0.0-127.0-1.0","""event"",""trial"",""time""
""fullscreenenter"",""0"",""2623""
","
","
","""event"",""trial"",""time""
""fullscreenenter"",""0"",""2623""
","
","null","<p></p>","null","","","","","","","","","","","","","","","","","","","","","","","",""
"","do_trial","239","608527","0.0-128.0-0.0","""event"",""trial"",""time""
""fullscreenenter"",""0"",""2623""
","
","
","""event"",""trial"",""time""
""fullscreenenter"",""0"",""2623""
","
","357.5","","","","","","","","49","1,0,1","6","blank","339","null","0.19772227150835028","0.300881987928105","0.5959129317119739","1","","","","","","","","",""
"","html-keyboard-response","240","609533","0.0-128.0-1.0","""event"",""trial"",""time""
""fullscreenenter"",""0"",""2623""
","
","
","""event"",""trial"",""time""
""fullscreenenter"",""0"",""2623""
","
","null","<p></p>","null","","","","","","","","","","","","","","","","","","","","","","","",""
"","do_trial","241","612461","0.0-129.0-0.0","""event"",""trial"",""time""
""fullscreenenter"",""0"",""2623""
","
","
","""event"",""trial"",""time""
""fullscreenenter"",""0"",""2623""
","
","374.8000000715256","","","","","","","","49","1,0,1","6","blank","340","null","0.11609359037935477","0.429862874154944","0.5467332124685961","1","","","","","","","","",""
"","html-keyboard-response","242","613466","0.0-129.0-1.0","""event"",""trial"",""time""
""fullscreenenter"",""0"",""2623""
","
","
","""event"",""trial"",""time""
""fullscreenenter"",""0"",""2623""
","
","null","<p></p>","null","","","","","","","","","","","","","","","","","","","","","","","",""
"","do_recog","243","616396","0.0-130.0-0.0","""event"",""trial"",""time""
""fullscreenenter"",""0"",""2623""
","
","
","""event"",""trial"",""time""
""fullscreenenter"",""0"",""2623""
","
","1418.8999999761581","","","","","","","","56","","","","341","probe-28","","","","","1","[object Object]","190","4","0","","","",""
"","html-keyboard-response","244","617401","0.0-130.0-1.0","""event"",""trial"",""time""
""fullscreenenter"",""0"",""2623""
","
","
","""event"",""trial"",""time""
""fullscreenenter"",""0"",""2623""
","
","null","<p></p>","null","","","","","","","","","","","","","","","","","","","","","","","",""
"","do_trial","245","620451","0.0-131.0-0.0","""event"",""trial"",""time""
""fullscreenenter"",""0"",""2623""
","
","
","""event"",""trial"",""time""
""fullscreenenter"",""0"",""2623""
","
","492.2000000476837","","","","","","","","49","0,1,0","6","blank","342","null","0.11039200478702857","0.3696999062066845","0.5636891104094011","0","","","","","","","","",""
"","html-keyboard-response","246","621456","0.0-131.0-1.0","""event"",""trial"",""time""
""fullscreenenter"",""0"",""2623""
","
","
","""event"",""trial"",""time""
""fullscreenenter"",""0"",""2623""
","
","null","<p></p>","null","","","","","","","","","","","","","","","","","","","","","","","",""
"","do_recog","247","624042","0.0-132.0-0.0","""event"",""trial"",""time""
""fullscreenenter"",""0"",""2623""
","
","
","""event"",""trial"",""time""
""fullscreenenter"",""0"",""2623""
","
","1072.2000000476837","","","","","","","","55","","","","343","probe-08","","","","","1","[object Object]","33","0","0","","","",""
"","html-keyboard-response","248","625047","0.0-132.0-1.0","""event"",""trial"",""time""
""fullscreenenter"",""0"",""2623""
","
","
","""event"",""trial"",""time""
""fullscreenenter"",""0"",""2623""
","
","null","<p></p>","null","","","","","","","","","","","","","","","","","","","","","","","",""
"","do_trial","249","628124","0.0-133.0-0.0","""event"",""trial"",""time""
""fullscreenenter"",""0"",""2623""
","
","
","""event"",""trial"",""time""
""fullscreenenter"",""0"",""2623""
","
","522.2000000476837","","","","","","","","50","0,1,0","6","blank","344","null","0.14934332068001868","0.461996753722214","0.5582789697897366","1","","","","","","","","",""
"","html-keyboard-response","250","629130","0.0-133.0-1.0","""event"",""trial"",""time""
""fullscreenenter"",""0"",""2623""
","
","
","""event"",""trial"",""time""
""fullscreenenter"",""0"",""2623""
","
","null","<p></p>","null","","","","","","","","","","","","","","","","","","","","","","","",""
"","do_recog","251","631964","0.0-134.0-0.0","""event"",""trial"",""time""
""fullscreenenter"",""0"",""2623""
","
","
","""event"",""trial"",""time""
""fullscreenenter"",""0"",""2623""
","
","1324.6000000238419","","","","","","","","54","","","","345","probe-58","","","","","1","[object Object]","152","3","1","","","",""
"","html-keyboard-response","252","632969","0.0-134.0-1.0","""event"",""trial"",""time""
""fullscreenenter"",""0"",""2623""
","
","
","""event"",""trial"",""time""
""fullscreenenter"",""0"",""2623""
","
","null","<p></p>","null","","","","","","","","","","","","","","","","","","","","","","","",""
"","do_trial","253","635931","0.0-135.0-0.0","""event"",""trial"",""time""
""fullscreenenter"",""0"",""2623""
","
","
","""event"",""trial"",""time""
""fullscreenenter"",""0"",""2623""
","
","407","","","","","","","","51","1,1,1","6","blank","346","null","0.28513607647561295","0.5106910859228091","0.43748241327756504","1","","","","","","","","",""
"","html-keyboard-response","254","636937","0.0-135.0-1.0","""event"",""trial"",""time""
""fullscreenenter"",""0"",""2623""
","
","
","""event"",""trial"",""time""
""fullscreenenter"",""0"",""2623""
","
","null","<p></p>","null","","","","","","","","","","","","","","","","","","","","","","","",""
"","do_recog","255","639556","0.0-136.0-0.0","""event"",""trial"",""time""
""fullscreenenter"",""0"",""2623""
","
","
","""event"",""trial"",""time""
""fullscreenenter"",""0"",""2623""
","
","1109.7999999523163","","","","","","","","54","","","","347","probe-141","","","","","1","[object Object]","159","3","1","","","",""
"","html-keyboard-response","256","640560","0.0-136.0-1.0","""event"",""trial"",""time""
""fullscreenenter"",""0"",""2623""
","
","
","""event"",""trial"",""time""
""fullscreenenter"",""0"",""2623""
","
","null","<p></p>","null","","","","","","","","","","","","","","","","","","","","","","","",""
"","do_trial","257","643569","0.0-137.0-0.0","""event"",""trial"",""time""
""fullscreenenter"",""0"",""2623""
","
","
","""event"",""trial"",""time""
""fullscreenenter"",""0"",""2623""
","
","449.39999997615814","","","","","","","","51","0,1,0","6","blank","348","null","0.33221902387499724","0.5780632814408695","0.2938998464756305","0","","","","","","","","",""
"","html-keyboard-response","258","644574","0.0-137.0-1.0","""event"",""trial"",""time""
""fullscreenenter"",""0"",""2623""
","
","
","""event"",""trial"",""time""
""fullscreenenter"",""0"",""2623""
","
","null","<p></p>","null","","","","","","","","","","","","","","","","","","","","","","","",""
"","break","259","645734","0.0-138.0-0.0","""event"",""trial"",""time""
""fullscreenenter"",""0"",""2623""
","
","
","""event"",""trial"",""time""
""fullscreenenter"",""0"",""2623""
","
","1158.5999999046326","<div class='center'><p>Time to take a quick break! You have 2 minutes to rest, but you can move on sooner if you'd like.</p><p> Press the <b>space bar</b> to continue.</p></div>","32","","","","","","","","","","","","","","","","","","","","","","","",""
"","do_trial","260","649021","0.0-138.0-1.0","""event"",""trial"",""time""
""fullscreenenter"",""0"",""2623""
","
","
","""event"",""trial"",""time""
""fullscreenenter"",""0"",""2623""
","
","723.3999999761581","","","","","","","","50","0,0,1","6","blank","349","null","0.3148184351984071","0.6894287289910086","0.07091363493782346","0","","","","","","","","",""
"","html-keyboard-response","261","650028","0.0-138.0-2.0","""event"",""trial"",""time""
""fullscreenenter"",""0"",""2623""
","
","
","""event"",""trial"",""time""
""fullscreenenter"",""0"",""2623""
","
","null","<p></p>","null","","","","","","","","","","","","","","","","","","","","","","","",""
"","do_trial","262","652934","0.0-139.0-0.0","""event"",""trial"",""time""
""fullscreenenter"",""0"",""2623""
","
","
","""event"",""trial"",""time""
""fullscreenenter"",""0"",""2623""
","
","357.3000000715256","","","","","","","","51","0,1,0","6","blank","350","null","0.5452822491518048","0.7201319376770217","0.13209569234597035","0","","","","","","","","",""
"","html-keyboard-response","263","653936","0.0-139.0-1.0","""event"",""trial"",""time""
""fullscreenenter"",""0"",""2623""
","
","
","""event"",""trial"",""time""
""fullscreenenter"",""0"",""2623""
","
","null","<p></p>","null","","","","","","","","","","","","","","","","","","","","","","","",""
"","do_trial","264","656774","0.0-140.0-0.0","""event"",""trial"",""time""
""fullscreenenter"",""0"",""2623""
","
","
","""event"",""trial"",""time""
""fullscreenenter"",""0"",""2623""
","
","283.59999990463257","","","","","","","","49","0,1,1","6","blank","351","null","0.36769085844667243","0.6998071696597638","0.10014927834425173","0","","","","","","","","",""
"","html-keyboard-response","265","657780","0.0-140.0-1.0","""event"",""trial"",""time""
""fullscreenenter"",""0"",""2623""
","
","
","""event"",""trial"",""time""
""fullscreenenter"",""0"",""2623""
","
","null","<p></p>","null","","","","","","","","","","","","","","","","","","","","","","","",""
"","do_trial","266","660755","0.0-141.0-0.0","""event"",""trial"",""time""
""fullscreenenter"",""0"",""2623""
","
","
","""event"",""trial"",""time""
""fullscreenenter"",""0"",""2623""
","
","421.3000000715256","","","","","","","","50","0,1,0","6","blank","352","null","0.3834936077401465","0.5723451877434699","0.11127149902967252","1","","","","","","","","",""
"","html-keyboard-response","267","661760","0.0-141.0-1.0","""event"",""trial"",""time""
""fullscreenenter"",""0"",""2623""
","
","
","""event"",""trial"",""time""
""fullscreenenter"",""0"",""2623""
","
","null","<p></p>","null","","","","","","","","","","","","","","","","","","","","","","","",""
"","do_trial","268","664730","0.0-142.0-0.0","""event"",""trial"",""time""
""fullscreenenter"",""0"",""2623""
","
","
","""event"",""trial"",""time""
""fullscreenenter"",""0"",""2623""
","
","414.1999999284744","","","","","","","","50","0,1,0","6","blank","353","null","0.33899128623914837","0.536033610821642","0.1797984891997138","1","","","","","","","","",""
"","html-keyboard-response","269","665736","0.0-142.0-1.0","""event"",""trial"",""time""
""fullscreenenter"",""0"",""2623""
","
","
","""event"",""trial"",""time""
""fullscreenenter"",""0"",""2623""
","
","null","<p></p>","null","","","","","","","","","","","","","","","","","","","","","","","",""
"","do_recog","270","668604","0.0-143.0-0.0","""event"",""trial"",""time""
""fullscreenenter"",""0"",""2623""
","
","
","""event"",""trial"",""time""
""fullscreenenter"",""0"",""2623""
","
","1355.2000000476837","","","","","","","","53","","","","354","probe-221","","","","","1","[object Object]","154","3","1","","","",""
"","html-keyboard-response","271","669610","0.0-143.0-1.0","""event"",""trial"",""time""
""fullscreenenter"",""0"",""2623""
","
","
","""event"",""trial"",""time""
""fullscreenenter"",""0"",""2623""
","
","null","<p></p>","null","","","","","","","","","","","","","","","","","","","","","","","",""
"","do_trial","272","672517","0.0-144.0-0.0","""event"",""trial"",""time""
""fullscreenenter"",""0"",""2623""
","
","
","""event"",""trial"",""time""
""fullscreenenter"",""0"",""2623""
","
","350.2999999523163","","","","","","","","51","0,1,0","6","blank","355","null","0.428904174332777","0.574984759820276","0.28183107081205805","0","","","","","","","","",""
"","html-keyboard-response","273","673524","0.0-144.0-1.0","""event"",""trial"",""time""
""fullscreenenter"",""0"",""2623""
","
","
","""event"",""trial"",""time""
""fullscreenenter"",""0"",""2623""
","
","null","<p></p>","null","","","","","","","","","","","","","","","","","","","","","","","",""
"","do_recog","274","676210","0.0-145.0-0.0","""event"",""trial"",""time""
""fullscreenenter"",""0"",""2623""
","
","
","""event"",""trial"",""time""
""fullscreenenter"",""0"",""2623""
","
","1177.5999999046326","","","","","","","","53","","","","356","probe-160","","","","","1","[object Object]","72","1","1","","","",""
"","html-keyboard-response","275","677215","0.0-145.0-1.0","""event"",""trial"",""time""
""fullscreenenter"",""0"",""2623""
","
","
","""event"",""trial"",""time""
""fullscreenenter"",""0"",""2623""
","
","null","<p></p>","null","","","","","","","","","","","","","","","","","","","","","","","",""
"","do_trial","276","680285","0.0-146.0-0.0","""event"",""trial"",""time""
""fullscreenenter"",""0"",""2623""
","
","
","""event"",""trial"",""time""
""fullscreenenter"",""0"",""2623""
","
","517.2000000476837","","","","","","","","50","1,0,0","6","blank","357","null","0.34255690211023715","0.6577955659445976","0.14842230007720084","0","","","","","","","","",""
